{"condition": 0, "counterbalance": 0, "assignmentId": "a97663478", "workerId": "w72135886", "hitId": "h10638551", "currenttrial": 61, "bonus": 0, "data": [{"uniqueid": "w72135886:a97663478", "current_trial": 0, "dateTime": 1693660283480, "trialdata": {"success": true, "trial_type": "fullscreen", "trial_index": 0, "time_elapsed": 4117, "internal_node_id": "0.0-0.0"}}, {"uniqueid": "w72135886:a97663478", "current_trial": 1, "dateTime": 1693660295535, "trialdata": {"view_history": [{"page_index": 0, "viewing_time": 12047}], "rt": 12047, "trial_id": "exp_instructions_control", "trial_type": "instructions", "trial_index": 1, "time_elapsed": 16173, "internal_node_id": "0.0-1.0"}}, {"uniqueid": "w72135886:a97663478", "current_trial": 2, "dateTime": 1693660585048, "trialdata": {"view_history": [{"page_index": 0, "viewing_time": 99074}, {"page_index": 1, "viewing_time": 112900}, {"page_index": 2, "viewing_time": 36998}, {"page_index": 3, "viewing_time": 40538}], "rt": 289512, "trial_id": "mouselab_instructions_1_control", "trial_type": "instructions", "trial_index": 2, "time_elapsed": 305686, "internal_node_id": "0.0-2.0-1.0"}}, {"uniqueid": "w72135886:a97663478", "current_trial": 3, "dateTime": 1693660714871, "trialdata": {"revealed_states": [], "clicked_states": ["12", "18", "1", "7", "28", "19", "14", "23", "24", "25", "10", "2", "13"], "num_clicks_accrued": [0, 0, 0, 0, 0, 0, 0, 0, 0, 0, 0, 0, 0], "stateRewards": ["", -10, -10, -10, -10, -10, -10, -10, 10, 10, -10, -10, 10, -10, 10, -10, -10, 10, 10, 10, 10, 10, -10, -10, -10, 10, -10, 10, -10, -10, 10, -10, 10, 10], "withholdReward": false, "trial_id": "practice_1", "block": "test", "trialIndex": 0, "score": -13, "costs": -6.5, "simulationMode": [null, null, null, null, null], "rewards": [10, -10, 10, -10, -10], "path": ["0", "0", "12", "13", "14", "15", "16"], "rt": [115702, 569, 535, 1925, 426], "actions": ["right", "right", "right", "up", "up"], "actionTimes": [118232, 119302, 120351, 122791, 123707], "queries": {"click": {"state": {"target": ["12", "18", "1", "7", "28", "19", "14", "23", "24", "25", "10", "2", "13"], "time": [10076, 11423, 13436, 15698, 17257, 20541, 22076, 23969, 31226, 32985, 34165, 38835, 47065]}, "edge": {"target": [], "time": []}}, "mouseover": {"state": {"target": ["1", "12", "12", "0", "12", "13", "18", "15", "13", "0", "1", "2", "7", "7", "10", "28", "24", "0", "31", "19", "14", "23", "23", "24", "28", "31", "31", "23", "24", "25", "10", "1", "2", "7", "3", "2", "1", "1", "1", "0", "13", "22", "14", "19", "22", "21", "19", "22", "23", "1", "2", "1", "22", "19", "21", "21", "21", "32", "12", "0", "12", "13", "23", "28", "8", "10", "25", "30", "32", "14", "13", "12", "0", "20", "19", "21", "0", "1", "2", "3", "1", "18", "14", "22", "0", "0", "22", "19", "21", "19", "14", "5", "14", "13", "1", "9", "8", "12", "22", "20", "14", "18", "8", "11", "9", "8", "8", "11", "8", "10", "1", "2", "3", "4", "6", "6", "4", "2", "23", "31", "21", "13", "18", "16", "16", "6", "4", "7", "12", "13", "19", "20"], "time": [3211, 3511, 4911, 6361, 9847, 10495, 11278, 11828, 12594, 13011, 13211, 13912, 15194, 15511, 16662, 17063, 17746, 18727, 18978, 20311, 21198, 23127, 23528, 24612, 24995, 29711, 30061, 30211, 31044, 32494, 33962, 38411, 38661, 39811, 42561, 44478, 44561, 45195, 45878, 46028, 46828, 47679, 48080, 49378, 52661, 54978, 55478, 56096, 56828, 57645, 57878, 58112, 60560, 60761, 62395, 62611, 64345, 66061, 67578, 67780, 70416, 70850, 73645, 74416, 75945, 76684, 78548, 78864, 79733, 80048, 80095, 80113, 80162, 81678, 81845, 82712, 86667, 86702, 86747, 86778, 87334, 87917, 89261, 89345, 91179, 91831, 94917, 97147, 98268, 98578, 99451, 100245, 100528, 100579, 100611, 100945, 100964, 101012, 101045, 101112, 101801, 101831, 101896, 101929, 102179, 102198, 102451, 102647, 103167, 103645, 104679, 104745, 104812, 105719, 106418, 106757, 107084, 107235, 107400, 107650, 109852, 111351, 111413, 111734, 112795, 112962, 114000, 115435, 115884, 116279, 116545, 116712]}, "edge": {"target": [], "time": []}}, "mouseout": {"state": {"target": ["1", "12", "12", "0", "12", "13", "18", "15", "13", "0", "1", "2", "7", "7", "7", "10", "28", "28", "24", "0", "31", "19", "14", "14", "23", "23", "24", "28", "23", "31", "31", "23", "24", "25", "10", "1", "2", "7", "3", "2", "1", "1", "1", "0", "13", "22", "14", "19", "22", "21", "19", "22", "23", "1", "2", "1", "22", "19", "21", "21", "21", "32", "12", "0", "12", "13", "23", "28", "8", "10", "25", "30", "32", "14", "13", "12", "0", "20", "19", "21", "0", "1", "2", "3", "1", "18", "14", "22", "0", "0", "22", "19", "21", "19", "14", "5", "14", "13", "1", "9", "8", "12", "22", "20", "14", "18", "8", "11", "9", "8", "8", "11", "8", "10", "1", "2", "3", "4", "6", "6", "4", "2", "23", "31", "21", "13", "18", "16", "16", "6", "4", "7", "12", "13", "19", "20"], "time": [3228, 3563, 5562, 6594, 10329, 11080, 11694, 12529, 12611, 13061, 13541, 15044, 15278, 15790, 16112, 16827, 17354, 17713, 17764, 18878, 19161, 20914, 22204, 22981, 23163, 24496, 24846, 25828, 25946, 29744, 30078, 30928, 31964, 33074, 36463, 38477, 39378, 40845, 44328, 44512, 44662, 45263, 45945, 46062, 47462, 47931, 49011, 51297, 52795, 55278, 56045, 56161, 57479, 57678, 58078, 58145, 60695, 60779, 62495, 62645, 65334, 66217, 67678, 67882, 70556, 71600, 74333, 74434, 76128, 77016, 78666, 78896, 79764, 80064, 80111, 80145, 80367, 81728, 81978, 82745, 86685, 86730, 86763, 86795, 87434, 87935, 89295, 89362, 91361, 91868, 94984, 97262, 98534, 98628, 100018, 100262, 100545, 100595, 100628, 100962, 100979, 101028, 101062, 101129, 101818, 101848, 101912, 101946, 102196, 102229, 102469, 103117, 103612, 103678, 104712, 104762, 104912, 105834, 106615, 106862, 107117, 107252, 107517, 107801, 110279, 111367, 111464, 111945, 112828, 113517, 114350, 115467, 116262, 116295, 116579, 116967]}, "edge": {"target": [], "time": []}}}, "displayed_time": "124.22", "trialTime": 129367, "trial_type": "mouselab-mdp", "trial_index": 3, "time_elapsed": 435507, "internal_node_id": "0.0-2.0-2.0-0.0"}}, {"uniqueid": "w72135886:a97663478", "current_trial": 4, "dateTime": 1693660761670, "trialdata": {"revealed_states": [], "clicked_states": ["1", "24", "31", "26", "8", "10", "3", "7", "12", "13", "4", "19"], "num_clicks_accrued": [0, 0, 0, 0, 0, 0, 0, 0, 0, 0, 0, 0, 0], "stateRewards": ["", 10, -10, 10, 10, 10, -10, -10, 10, 10, 10, -10, 10, 10, 10, 10, 10, 10, -10, -10, -10, 10, 10, 10, 10, -10, -10, 10, -10, -10, -10, -10, 10, -10], "withholdReward": false, "trial_id": "practice_2", "block": "test", "trialIndex": 1, "score": 47.5, "costs": -6, "simulationMode": [null, null, null, null, null], "rewards": [10, 10, 10, 10, 10], "path": ["0", "0", "12", "13", "14", "15", "16"], "rt": [34270, 190, 142, 811, 213], "actions": ["right", "right", "right", "up", "up"], "actionTimes": [38460, 39146, 39798, 41100, 41818], "queries": {"click": {"state": {"target": ["1", "24", "31", "26", "8", "10", "3", "7", "12", "13", "4", "19"], "time": [5346, 7553, 8578, 10443, 11686, 13684, 15115, 16413, 18722, 20029, 24352, 25832]}, "edge": {"target": [], "time": []}}, "mouseover": {"state": {"target": ["23", "1", "2", "10", "24", "31", "30", "25", "26", "8", "10", "1", "1", "2", "10", "3", "3", "4", "7", "12", "13", "18", "7", "7", "4", "19", "19", "31", "31", "24", "2", "7", "3", "12", "12", "0"], "time": [4442, 4708, 5871, 6555, 7108, 8122, 9104, 9939, 10173, 11422, 12305, 12572, 13020, 13070, 13304, 14438, 14842, 15789, 16005, 17088, 19305, 20572, 21237, 22959, 23976, 25420, 25520, 26953, 29242, 29559, 30856, 31171, 32708, 33992, 36058, 37758]}, "edge": {"target": [], "time": []}}, "mouseout": {"state": {"target": ["23", "1", "23", "1", "2", "10", "24", "24", "31", "30", "25", "26", "8", "10", "1", "1", "2", "10", "3", "3", "4", "7", "12", "13", "18", "7", "7", "4", "19", "19", "31", "31", "24", "2", "7", "3", "12", "12"], "time": [3390, 3626, 4526, 5438, 6492, 6621, 7661, 8039, 8887, 9876, 10055, 10972, 12271, 12355, 12605, 13053, 13087, 13871, 14706, 15539, 15888, 16922, 19188, 20189, 21038, 22108, 23766, 25005, 25437, 26588, 29092, 29408, 30654, 30987, 32358, 33375, 34091, 36976]}, "edge": {"target": [], "time": []}}}, "displayed_time": "42.34", "trialTime": 46592, "trial_type": "mouselab-mdp", "trial_index": 4, "time_elapsed": 482307, "internal_node_id": "0.0-2.0-2.0-1.0"}}, {"uniqueid": "w72135886:a97663478", "current_trial": 5, "dateTime": 1693660816972, "trialdata": {"view_history": [{"page_index": 0, "viewing_time": 43785}, {"page_index": 1, "viewing_time": 11509}], "rt": 55294, "trial_id": "mouselab_instructions_2_control", "trial_type": "instructions", "trial_index": 5, "time_elapsed": 537610, "internal_node_id": "0.0-2.0-3.0"}}, {"uniqueid": "w72135886:a97663478", "current_trial": 6, "dateTime": 1693660922912, "trialdata": {"rt": 105937, "response": {"Q0": "The cost for clicking on nodes may vary between nodes.", "Q1": "The better I perform the higher my bonus will be.", "Q2": "No, the amount of cash at each node of the web may be different each time.", "Q3": "To get the highest total score.", "Q4": "Only after moving the spider.", "Q5": "3 seconds"}, "question_order": [0, 1, 2, 3, 4, 5], "correct": {"Q0": "The cost for clicking on nodes may vary between nodes.", "Q1": "The better I perform the higher my bonus will be.", "Q2": "No, the amount of cash at each node of the web may be different each time.", "Q3": "To get the highest total score.", "Q4": "Only before moving the spider.", "Q5": "3 seconds"}, "trial_id": "mouselab_quiz_control", "trial_type": "survey-multi-choice", "trial_index": 6, "time_elapsed": 643550, "internal_node_id": "0.0-2.0-4.0"}}, {"uniqueid": "w72135886:a97663478", "current_trial": 7, "dateTime": 1693660932860, "trialdata": {"success": true, "trial_type": "fullscreen", "trial_index": 7, "time_elapsed": 653498, "internal_node_id": "0.0-2.1-0.1-0.1"}}, {"uniqueid": "w72135886:a97663478", "current_trial": 8, "dateTime": 1693661026622, "trialdata": {"view_history": [{"page_index": 0, "viewing_time": 29927}, {"page_index": 1, "viewing_time": 37730}, {"page_index": 2, "viewing_time": 11808}, {"page_index": 3, "viewing_time": 14294}], "rt": 93759, "trial_id": "mouselab_instructions_1_control", "trial_type": "instructions", "trial_index": 8, "time_elapsed": 747260, "internal_node_id": "0.0-2.1-1.1"}}, {"uniqueid": "w72135886:a97663478", "current_trial": 9, "dateTime": 1693661088925, "trialdata": {"revealed_states": [], "clicked_states": ["12", "13", "2"], "num_clicks_accrued": [0, 0, 0, 0, 0, 0, 0, 0, 0, 0, 0, 0, 0], "stateRewards": ["", -10, -10, -10, -10, -10, -10, -10, 10, 10, -10, -10, 10, -10, 10, -10, -10, 10, 10, 10, 10, 10, -10, -10, -10, 10, -10, 10, -10, -10, 10, -10, 10, 10], "withholdReward": false, "trial_id": "practice_1", "block": "test", "trialIndex": 2, "score": -8, "costs": -1.5, "simulationMode": [null, null, null, null, null], "rewards": [10, -10, 10, -10, -10], "path": ["0", "0", "12", "13", "14", "15", "16"], "rt": [45386, 302, 266, 1187, 128], "actions": ["right", "right", "right", "up", "up"], "actionTimes": [48810, 49623, 50391, 52093, 52717], "queries": {"click": {"state": {"target": ["12", "13", "2"], "time": [10529, 11853, 13268]}, "edge": {"target": [], "time": []}}, "mouseover": {"state": {"target": ["0", "0", "12", "13", "1", "2", "1", "23", "31", "30", "30", "30", "32", "33", "25", "28", "10", "4", "12", "6", "12", "0", "23", "0"], "time": [4374, 9441, 10456, 11735, 12337, 13085, 13436, 13736, 14335, 14752, 14852, 15218, 15285, 17951, 18054, 18121, 18187, 18221, 42222, 43951, 44334, 44401, 44684, 45574]}, "edge": {"target": [], "time": []}}, "mouseout": {"state": {"target": ["0", "0", "0", "0", "12", "13", "1", "2", "1", "23", "31", "30", "30", "30", "32", "33", "25", "28", "10", "4", "12", "6", "12", "0", "23", "0", "0", "1", "0"], "time": [1622, 3002, 4403, 9587, 11453, 11939, 12935, 13403, 13536, 14270, 14702, 14769, 14919, 15252, 15351, 17989, 18087, 18170, 18204, 18238, 42274, 43984, 44351, 44468, 45523, 45857, 59807, 59970, 60121]}, "edge": {"target": [], "time": []}}}, "displayed_time": "53.24", "trialTime": 62095, "trial_type": "mouselab-mdp", "trial_index": 9, "time_elapsed": 809562, "internal_node_id": "0.0-2.1-2.1-0.1"}}, {"uniqueid": "w72135886:a97663478", "current_trial": 10, "dateTime": 1693661152081, "trialdata": {"revealed_states": [], "clicked_states": ["1", "2", "31", "13", "15", "32", "25", "24", "10", "22", "21", "14", "12", "7", "27"], "num_clicks_accrued": [0, 0, 0, 0, 0, 0, 0, 0, 0, 0, 0, 0, 0], "stateRewards": ["", 10, -10, 10, 10, 10, -10, -10, 10, 10, 10, -10, 10, 10, 10, 10, 10, 10, -10, -10, -10, 10, 10, 10, 10, -10, -10, 10, -10, -10, -10, -10, 10, -10], "withholdReward": false, "trial_id": "practice_2", "block": "test", "trialIndex": 3, "score": 46, "costs": -7.5, "simulationMode": [null, null, null, null, null], "rewards": [10, 10, 10, 10, 10], "path": ["0", "0", "12", "13", "14", "15", "17"], "rt": [48791, 161, 444, 723, 951], "actions": ["right", "right", "right", "up", "right"], "actionTimes": [53150, 53821, 54771, 55999, 57464], "queries": {"click": {"state": {"target": ["1", "2", "31", "13", "15", "32", "25", "24", "10", "22", "21", "14", "12", "7", "27"], "time": [5286, 6355, 8059, 9442, 10806, 12171, 13657, 15057, 16708, 19192, 20724, 23185, 31219, 36906, 39239]}, "edge": {"target": [], "time": []}}, "mouseover": {"state": {"target": ["1", "2", "24", "31", "12", "13", "18", "15", "18", "12", "32", "30", "25", "24", "23", "10", "2", "1", "12", "22", "21", "21", "13", "13", "14", "19", "22", "31", "30", "31", "24", "21", "22", "13", "12", "1", "13", "13", "13", "13", "22", "22", "1", "2", "7", "1", "27", "26", "25", "30", "32", "31", "24", "0", "1", "1", "7", "18", "13", "13", "22", "21", "22", "14", "15", "7", "6", "18", "14", "19"], "time": [4757, 6175, 7075, 7642, 8725, 9158, 9941, 10675, 11073, 11174, 11906, 12591, 13411, 14658, 15440, 16542, 17341, 18289, 18639, 18978, 20092, 20579, 22073, 22544, 22878, 23957, 24341, 24439, 24489, 25674, 26340, 28178, 29325, 30125, 31007, 31708, 32628, 33445, 34057, 34241, 34292, 34423, 35039, 35890, 36711, 38594, 38975, 39624, 40478, 40559, 41040, 42108, 42942, 43409, 43958, 44473, 44775, 45442, 45526, 45761, 46512, 47111, 47811, 48892, 49608, 50645, 51423, 51890, 52006, 52056]}, "edge": {"target": [], "time": []}}, "mouseout": {"state": {"target": ["12", "0", "0", "1", "2", "24", "31", "12", "13", "18", "15", "18", "12", "32", "30", "25", "24", "23", "10", "2", "1", "12", "22", "22", "21", "21", "22", "13", "13", "14", "14", "19", "22", "31", "30", "31", "24", "21", "22", "13", "12", "1", "13", "13", "13", "13", "22", "22", "12", "1", "2", "7", "1", "27", "27", "26", "25", "30", "32", "31", "24", "0", "1", "1", "7", "18", "13", "13", "22", "21", "22", "14", "15", "7", "6", "18", "14", "19"], "time": [3560, 4026, 4684, 5369, 6559, 7562, 8291, 8808, 9641, 10358, 11057, 11124, 11191, 12391, 13239, 13924, 15258, 16207, 17057, 17842, 18373, 18723, 19278, 20041, 20125, 20874, 21758, 22475, 22611, 23257, 23424, 24339, 24357, 24457, 24811, 26128, 26978, 29028, 29843, 30811, 31575, 31791, 32676, 33842, 34107, 34257, 34373, 34456, 34690, 35490, 36412, 37091, 38612, 39327, 39491, 39725, 40525, 40662, 41782, 42808, 42993, 43695, 44393, 44540, 45342, 45459, 45625, 46496, 46543, 47628, 48428, 49444, 50279, 50661, 51773, 51907, 52023, 52123]}, "edge": {"target": [], "time": []}}}, "displayed_time": "57.96", "trialTime": 62922, "trial_type": "mouselab-mdp", "trial_index": 10, "time_elapsed": 872717, "internal_node_id": "0.0-2.1-2.1-1.1"}}, {"uniqueid": "w72135886:a97663478", "current_trial": 11, "dateTime": 1693661249748, "trialdata": {"view_history": [{"page_index": 0, "viewing_time": 93367}, {"page_index": 1, "viewing_time": 4292}], "rt": 97659, "trial_id": "mouselab_instructions_2_control", "trial_type": "instructions", "trial_index": 11, "time_elapsed": 970386, "internal_node_id": "0.0-2.1-3.1"}}, {"uniqueid": "w72135886:a97663478", "current_trial": 12, "dateTime": 1693661438080, "trialdata": {"rt": 188330, "response": {"Q0": "The cost for clicking on nodes may vary between nodes.", "Q1": "The better I perform the higher my bonus will be.", "Q2": "No, the amount of cash at each node of the web may be different each time.", "Q3": "To get the highest total score.", "Q4": "Only before moving the spider.", "Q5": "3 seconds"}, "question_order": [0, 1, 2, 3, 4, 5], "correct": {"Q0": "The cost for clicking on nodes may vary between nodes.", "Q1": "The better I perform the higher my bonus will be.", "Q2": "No, the amount of cash at each node of the web may be different each time.", "Q3": "To get the highest total score.", "Q4": "Only before moving the spider.", "Q5": "3 seconds"}, "trial_id": "mouselab_quiz_control", "trial_type": "survey-multi-choice", "trial_index": 12, "time_elapsed": 1158718, "internal_node_id": "0.0-2.1-4.1"}}, {"uniqueid": "w72135886:a97663478", "current_trial": 13, "dateTime": 1693661448566, "trialdata": {"rt": 10480, "response": {"Q0": "No"}, "question_order": [0], "trial_id": "repeat_check", "trial_type": "survey-multi-choice", "trial_index": 13, "time_elapsed": 1169204, "internal_node_id": "0.0-4.0-0.0"}}, {"uniqueid": "w72135886:a97663478", "current_trial": 14, "dateTime": 1693661468634, "trialdata": {"rt": 20061, "stimulus": "\n<h1> Get ready to start the game! </h1>\n\nThank you for reading the instructions. Get ready start with the 40 rounds of this game.\n<br><br>\nIf you need to take a break, feel free to take one after the end of a round, before continuing to the next one.\n<br><br>\nRemember, the more money the spider gets, the bigger your bonus will be!\n<br><br>\n<div style='text-align: center;'>Press <code>space</code> to begin.</div>\n\n<br><br>\n(If, at any point, the <code>space</code> key does not take you to the next page, click once on the text and try again.)", "response": " ", "trial_id": "mdp_ready", "trial_type": "html-keyboard-response", "trial_index": 14, "time_elapsed": 1189272, "internal_node_id": "0.0-6.0-0.0"}}, {"uniqueid": "w72135886:a97663478", "current_trial": 15, "dateTime": 1693661488587, "trialdata": {"revealed_states": [], "clicked_states": [], "num_clicks_accrued": [0, 0, 0, 0, 0, 0, 0, 0, 0, 0, 0, 0, 0], "stateRewards": ["", -2, -4, 4, -11, -63, -60, -7, 2, -14, 81, -43, -1, -1, -5, 7, 10, 69, 40, 8, -83, 52, 60, 1, 2, 5, -5, 16, 64, 14, -3, 29, 7, -51], "withholdReward": false, "trial_id": "mdp_trial_1", "block": "test", "trialIndex": 4, "score": 53, "costs": 0, "simulationMode": [null, null, null, null, null], "rewards": [-1, -1, -5, 8, 52], "path": ["0", "0", "12", "13", "14", "19", "21"], "rt": [7281, 1, 245, 73, 301], "actions": ["right", "right", "right", "down", "down"], "actionTimes": [10281, 10783, 11543, 12107, 12919], "queries": {"click": {"state": {"target": [], "time": []}, "edge": {"target": [], "time": []}}, "mouseover": {"state": {"target": ["28", "0", "14", "13", "12", "1", "0"], "time": [3532, 3698, 6080, 6099, 6116, 6379, 7719]}, "edge": {"target": [], "time": []}}, "mouseout": {"state": {"target": ["29", "23", "0", "28", "0", "14", "13", "12", "1", "0", "12", "12", "0", "33", "30"], "time": [1682, 1980, 3453, 3549, 3732, 6097, 6114, 6148, 6477, 7767, 17363, 17564, 17597, 18812, 18863]}, "edge": {"target": [], "time": []}}}, "displayed_time": "17.00", "trialTime": 19687, "trial_type": "mouselab-mdp", "trial_index": 15, "time_elapsed": 1209224, "internal_node_id": "0.0-6.0-1.0-0.0"}}, {"uniqueid": "w72135886:a97663478", "current_trial": 16, "dateTime": 1693661519883, "trialdata": {"revealed_states": [], "clicked_states": ["12", "24", "22", "19", "28", "32", "18"], "num_clicks_accrued": [0, 0, 0, 0, 0, 0, 0, 0, 0, 0, 0, 0, 0], "stateRewards": ["", -1, -3, 1, 13, -64, -29, 12, -4, -33, 50, 56, 2, -3, 4, 11, -64, -58, -55, 12, 47, 38, -25, -2, 2, 5, -15, 85, 7, 84, 10, 8, 57, 26], "withholdReward": false, "trial_id": "mdp_trial_2", "block": "test", "trialIndex": 5, "score": 52.2, "costs": -9.8, "simulationMode": [null, null, null, null, null], "rewards": [2, -3, 4, 12, 47], "path": ["0", "0", "12", "13", "14", "19", "20"], "rt": [20034, 225, 64, 467, 1980], "actions": ["right", "right", "right", "down", "right"], "actionTimes": [21166, 21893, 22467, 23452, 25932], "queries": {"click": {"state": {"target": ["12", "24", "22", "19", "28", "32", "18"], "time": [2146, 4165, 6522, 8637, 10579, 12976, 14604]}, "edge": {"target": [], "time": []}}, "mouseover": {"state": {"target": ["1", "2", "12", "12", "1", "23", "24", "31", "23", "2", "1", "22", "19", "21", "19", "19", "12", "13", "28", "31", "30", "32", "0", "12", "13", "18", "14", "19", "21", "20", "22", "14", "20"], "time": [1170, 1265, 1716, 2065, 2667, 3334, 3865, 4401, 4916, 5266, 5748, 6415, 7366, 7667, 8349, 8565, 9320, 9666, 10248, 11385, 11867, 12881, 13368, 13933, 14200, 14384, 14866, 15019, 15466, 16248, 17199, 18931, 19268]}, "edge": {"target": [], "time": []}}, "mouseout": {"state": {"target": ["0", "1", "2", "12", "12", "1", "23", "24", "31", "23", "2", "1", "12", "22", "19", "21", "19", "19", "19", "22", "12", "13", "28", "31", "30", "32", "0", "12", "13", "18", "18", "14", "19", "21", "20", "22", "18", "14", "20"], "time": [1140, 1215, 1298, 1815, 2234, 3150, 3799, 4318, 4867, 4949, 5684, 5915, 6165, 6966, 7383, 8315, 8367, 8728, 8833, 8950, 9349, 10000, 10751, 11785, 12348, 13089, 13417, 14134, 14284, 14694, 14833, 14949, 15099, 16066, 16965, 17265, 18717, 18965, 19368]}, "edge": {"target": [], "time": []}}}, "displayed_time": "26.43", "trialTime": 31052, "trial_type": "mouselab-mdp", "trial_index": 16, "time_elapsed": 1240521, "internal_node_id": "0.0-6.0-1.0-1.0"}}, {"uniqueid": "w72135886:a97663478", "current_trial": 17, "dateTime": 1693661547976, "trialdata": {"revealed_states": [], "clicked_states": ["12", "32", "31", "21", "18"], "num_clicks_accrued": [0, 0, 0, 0, 0, 0, 0, 0, 0, 0, 0, 0, 0], "stateRewards": ["", -2, 3, -1, 2, -72, 63, 20, -1, 62, -66, 39, -2, 3, -6, 14, 22, 47, 1, 8, -49, -1, -41, 2, 2, -6, -16, -64, -60, -34, 16, 54, 22, -7], "withholdReward": false, "trial_id": "mdp_trial_3", "block": "test", "trialIndex": 6, "score": -5, "costs": -7, "simulationMode": [null, null, null, null, null], "rewards": [-2, 3, -6, 8, -1], "path": ["0", "0", "12", "13", "14", "19", "21"], "rt": [20124, 280, 108, 860, 171], "actions": ["right", "right", "right", "down", "down"], "actionTimes": [21239, 22014, 22623, 23979, 24652], "queries": {"click": {"state": {"target": ["12", "32", "31", "21", "18"], "time": [1996, 4654, 8331, 10548, 14801]}, "edge": {"target": [], "time": []}}, "mouseover": {"state": {"target": ["12", "12", "1", "10", "2", "24", "31", "32", "30", "25", "25", "24", "31", "22", "21", "21", "19", "14", "13", "12", "22", "13", "18", "19", "21", "21", "22"], "time": [1347, 1762, 2198, 2348, 2665, 3182, 3779, 4431, 5214, 5481, 5797, 6695, 6912, 9267, 9415, 10329, 11367, 11580, 12229, 12512, 14062, 14163, 14429, 15730, 15813, 18545, 19429]}, "edge": {"target": [], "time": []}}, "mouseout": {"state": {"target": ["0", "12", "12", "1", "10", "2", "24", "31", "32", "30", "25", "25", "24", "31", "22", "21", "21", "19", "14", "13", "12", "22", "13", "18", "19", "21", "21", "22"], "time": [795, 1445, 2148, 2232, 2482, 2715, 3612, 3979, 4864, 5381, 5664, 6278, 6812, 8530, 9350, 9549, 10780, 11463, 12197, 12379, 13379, 14130, 14229, 15263, 15764, 15847, 18995, 20063]}, "edge": {"target": [], "time": []}}}, "displayed_time": "25.16", "trialTime": 27842, "trial_type": "mouselab-mdp", "trial_index": 17, "time_elapsed": 1268613, "internal_node_id": "0.0-6.0-1.0-2.0"}}, {"uniqueid": "w72135886:a97663478", "current_trial": 18, "dateTime": 1693661579632, "trialdata": {"revealed_states": [], "clicked_states": ["3", "31", "22", "21", "19", "32"], "num_clicks_accrued": [0, 0, 0, 0, 0, 0, 0, 0, 0, 0, 0, 0, 0], "stateRewards": ["", -2, -3, 8, -4, -30, 31, 69, 9, 66, 87, 64, -2, 2, 8, 5, 47, 16, -39, -8, -54, 51, -19, 1, -2, -2, -11, -25, -26, 43, -9, 19, -84, 86], "withholdReward": false, "trial_id": "mdp_trial_4", "block": "test", "trialIndex": 7, "score": 42.6, "costs": -8.4, "simulationMode": [null, null, null, null, null], "rewards": [-2, 2, 8, -8, 51], "path": ["0", "0", "12", "13", "14", "19", "21"], "rt": [22888, 1029, 125, 236, 143], "actions": ["right", "right", "right", "down", "down"], "actionTimes": [24856, 26407, 27047, 27775, 28436], "queries": {"click": {"state": {"target": ["3", "31", "22", "21", "19", "32"], "time": [3014, 4570, 7166, 11427, 15752, 19219]}, "edge": {"target": [], "time": []}}, "mouseover": {"state": {"target": ["1", "7", "9", "9", "3", "2", "1", "0", "31", "31", "24", "28", "0", "22", "13", "18", "7", "7", "13", "31", "21", "20", "20", "20", "20", "19", "13", "13", "22", "19", "22", "13", "1", "24", "32", "31", "24", "23", "31", "22", "14"], "time": [2036, 2071, 2136, 2619, 2852, 3254, 3354, 3522, 3771, 4204, 5238, 5554, 6453, 6903, 7539, 7656, 7872, 8055, 9053, 9836, 11219, 12487, 12855, 13157, 13455, 13581, 13786, 14486, 14670, 15586, 17038, 18006, 18121, 18271, 18869, 19904, 20020, 20570, 21108, 22186, 24086]}, "edge": {"target": [], "time": []}}, "mouseout": {"state": {"target": ["20", "19", "0", "0", "1", "7", "9", "9", "3", "2", "1", "0", "31", "31", "24", "28", "0", "22", "13", "18", "7", "7", "13", "31", "22", "21", "20", "20", "20", "20", "19", "13", "13", "22", "21", "19", "22", "13", "1", "24", "32", "31", "24", "23", "31", "22", "14"], "time": [1188, 1236, 1636, 1737, 2054, 2087, 2153, 2636, 3187, 3303, 3437, 3540, 3887, 4938, 5420, 6186, 6569, 7390, 7624, 7721, 7891, 8891, 9236, 10058, 11136, 11604, 12539, 12888, 13293, 13558, 13595, 13886, 14570, 14853, 15352, 16355, 17591, 18024, 18188, 18305, 19337, 19937, 20503, 20653, 21369, 23502, 24103]}, "edge": {"target": [], "time": []}}}, "displayed_time": "28.94", "trialTime": 31389, "trial_type": "mouselab-mdp", "trial_index": 18, "time_elapsed": 1300269, "internal_node_id": "0.0-6.0-1.0-3.0"}}, {"uniqueid": "w72135886:a97663478", "current_trial": 19, "dateTime": 1693661618821, "trialdata": {"revealed_states": [], "clicked_states": ["1", "32", "13", "14", "21", "22", "19", "20", "31"], "num_clicks_accrued": [0, 0, 0, 0, 0, 0, 0, 0, 0, 0, 0, 0, 0], "stateRewards": ["", -1, 3, 1, -7, 56, 76, 57, 3, 11, -9, 14, 1, -2, 2, 8, -77, -3, 79, -5, 88, 24, -66, -2, -1, 7, -7, -30, 14, -76, 11, -36, 28, -6], "withholdReward": false, "trial_id": "mdp_trial_5", "block": "test", "trialIndex": 8, "score": 7.399999999999999, "costs": -12.600000000000001, "simulationMode": [null, null, null, null, null], "rewards": [1, -2, 2, -5, 24], "path": ["0", "0", "12", "13", "14", "19", "21"], "rt": [26609, 2748, 85, 1024, 350], "actions": ["right", "right", "right", "down", "down"], "actionTimes": [28131, 31383, 31987, 33526, 34387], "queries": {"click": {"state": {"target": ["1", "32", "13", "14", "21", "22", "19", "20", "31"], "time": [2656, 5300, 7796, 9968, 12990, 14706, 17334, 19036, 21945]}, "edge": {"target": [], "time": []}}, "mouseover": {"state": {"target": ["28", "26", "8", "10", "23", "0", "1", "1", "23", "24", "23", "32", "31", "21", "19", "22", "13", "22", "19", "14", "15", "16", "15", "19", "21", "22", "19", "20", "19", "21", "20", "14", "15", "14", "31", "13", "14", "19", "21", "24", "1", "19"], "time": [1532, 1543, 1881, 1900, 1917, 2231, 2314, 2470, 3016, 3320, 3718, 5104, 5851, 6416, 6964, 7283, 7465, 8618, 9318, 9682, 10699, 11049, 11548, 11947, 12349, 14365, 14949, 15699, 16999, 17736, 18383, 19649, 19783, 20166, 21599, 22733, 22982, 24064, 24297, 25881, 26297, 27166]}, "edge": {"target": [], "time": []}}, "mouseout": {"state": {"target": ["15", "15", "12", "28", "26", "8", "10", "23", "0", "1", "1", "23", "24", "23", "32", "31", "21", "19", "22", "13", "22", "19", "14", "15", "16", "15", "14", "19", "21", "21", "22", "19", "20", "19", "21", "20", "14", "15", "14", "31", "13", "14", "19", "21", "24", "1", "19", "22", "0", "22", "0", "0", "19"], "time": [631, 684, 981, 1540, 1557, 1898, 1915, 1932, 2248, 2364, 2833, 3235, 3685, 4398, 5498, 6066, 6881, 7152, 7418, 8084, 9116, 9430, 10233, 10782, 11515, 11598, 11814, 12081, 13076, 14217, 14932, 15300, 16866, 17516, 18183, 19582, 19682, 20016, 20752, 22037, 22882, 23883, 24230, 24314, 25930, 27019, 27200, 36863, 36898, 36911, 36957, 37082, 37365]}, "edge": {"target": [], "time": []}}}, "displayed_time": "34.89", "trialTime": 38954, "trial_type": "mouselab-mdp", "trial_index": 19, "time_elapsed": 1339457, "internal_node_id": "0.0-6.0-1.0-4.0"}}, {"uniqueid": "w72135886:a97663478", "current_trial": 20, "dateTime": 1693661644716, "trialdata": {"revealed_states": [], "clicked_states": ["12", "1", "21", "13", "14"], "num_clicks_accrued": [0, 0, 0, 0, 0, 0, 0, 0, 0, 0, 0, 0, 0], "stateRewards": ["", -1, 4, -6, -5, -22, -38, -38, -2, -56, 88, 14, -1, -1, -7, -6, 61, -60, 21, 11, 57, 31, -30, -2, -2, 6, -9, -44, -70, -44, -15, 34, 16, -78], "withholdReward": false, "trial_id": "mdp_trial_6", "block": "test", "trialIndex": 9, "score": 39, "costs": -7, "simulationMode": [null, null, null, null, null], "rewards": [-1, -1, -7, -6, 61], "path": ["0", "0", "12", "13", "14", "15", "16"], "rt": [13583, 3333, 143, 1300, 798], "actions": ["right", "right", "right", "up", "up"], "actionTimes": [14904, 18749, 19393, 21213, 22529], "queries": {"click": {"state": {"target": ["12", "1", "21", "13", "14"], "time": [1979, 3850, 6461, 8880, 11419]}, "edge": {"target": [], "time": []}}, "mouseover": {"state": {"target": ["12", "1", "23", "1", "0", "31", "22", "21", "19", "13", "13", "22", "19", "14", "15"], "time": [1761, 2546, 3079, 3678, 4248, 4897, 5994, 6161, 6979, 8098, 8478, 9897, 10477, 10729, 12530]}, "edge": {"target": [], "time": []}}, "mouseout": {"state": {"target": ["22", "1", "12", "1", "23", "1", "0", "31", "22", "21", "19", "13", "13", "22", "19", "14", "15"], "time": [435, 697, 2447, 2813, 3229, 4181, 4281, 5569, 6012, 6536, 8011, 8314, 9046, 10428, 10699, 11729, 12929]}, "edge": {"target": [], "time": []}}}, "displayed_time": "23.03", "trialTime": 25646, "trial_type": "mouselab-mdp", "trial_index": 20, "time_elapsed": 1365353, "internal_node_id": "0.0-6.0-1.0-5.0"}}, {"uniqueid": "w72135886:a97663478", "current_trial": 21, "dateTime": 1693661679891, "trialdata": {"revealed_states": [], "clicked_states": ["12", "1", "23", "31", "22", "19", "14", "21", "15"], "num_clicks_accrued": [0, 0, 0, 0, 0, 0, 0, 0, 0, 0, 0, 0, 0], "stateRewards": ["", 1, -2, 7, -14, 88, -56, -44, -14, 64, -51, -57, -2, 3, -4, -9, -11, 19, -77, -1, 68, 75, -67, -1, 1, -2, 5, -37, 70, -34, -10, -72, 63, -41], "withholdReward": false, "trial_id": "mdp_trial_7", "block": "test", "trialIndex": 10, "score": -35.6, "costs": -12.600000000000001, "simulationMode": [null, null, null, null, null], "rewards": [-2, 3, -4, -9, -11], "path": ["0", "0", "12", "13", "14", "15", "16"], "rt": [26179, 260, 528, 543, 501], "actions": ["right", "right", "right", "up", "up"], "actionTimes": [28856, 29638, 30687, 31752, 32762], "queries": {"click": {"state": {"target": ["12", "1", "23", "31", "22", "19", "14", "21", "15"], "time": [3704, 6533, 8213, 10323, 13613, 15873, 18605, 21079, 23488]}, "edge": {"target": [], "time": []}}, "mouseover": {"state": {"target": ["12", "12", "0", "23", "23", "1", "0", "23", "23", "24", "31", "12", "22", "13", "19", "21", "14", "20", "20", "21", "20", "15", "18", "24", "31", "1", "12", "21"], "time": [2994, 3608, 4440, 4473, 5733, 6194, 7258, 7641, 8073, 9092, 10059, 11374, 12040, 14423, 15626, 16808, 18174, 19325, 19397, 20908, 21258, 23123, 23674, 23824, 24324, 26443, 27426, 27609]}, "edge": {"target": [], "time": []}}, "mouseout": {"state": {"target": ["17", "16", "7", "12", "12", "12", "0", "23", "23", "1", "0", "23", "23", "24", "31", "12", "22", "13", "19", "21", "19", "14", "20", "20", "21", "20", "14", "15", "18", "24", "31", "1", "12", "21"], "time": [862, 891, 1840, 3126, 4290, 4423, 4456, 5724, 5745, 7174, 7458, 8007, 8725, 10009, 10592, 11906, 14056, 15057, 16424, 17912, 18058, 18861, 19392, 19408, 21191, 22275, 22939, 23658, 23691, 23857, 25778, 27109, 27542, 27625]}, "edge": {"target": [], "time": []}}}, "displayed_time": "33.26", "trialTime": 34917, "trial_type": "mouselab-mdp", "trial_index": 21, "time_elapsed": 1400528, "internal_node_id": "0.0-6.0-1.0-6.0"}}, {"uniqueid": "w72135886:a97663478", "current_trial": 22, "dateTime": 1693661736048, "trialdata": {"revealed_states": [], "clicked_states": ["1", "2", "23", "24", "25", "32", "31", "21", "22", "19", "20", "14", "15", "16", "17", "18"], "num_clicks_accrued": [0, 0, 0, 0, 0, 0, 0, 0, 0, 0, 0, 0, 0], "stateRewards": ["", -2, -1, -5, 10, -36, -70, 68, -9, 86, 71, -10, 2, -4, 7, -7, 66, 44, -66, -13, -69, 43, 15, -2, 2, 6, -13, 62, 57, 50, -10, -69, 42, -72], "withholdReward": false, "trial_id": "mdp_trial_8", "block": "test", "trialIndex": 11, "score": 12.600000000000005, "costs": -22.399999999999995, "simulationMode": [null, null, null, null, null], "rewards": [2, -4, 7, -13, 43], "path": ["0", "0", "12", "13", "14", "19", "21"], "rt": [43630, 274, 428, 1074, 1174], "actions": ["right", "right", "right", "down", "down"], "actionTimes": [45310, 46105, 47025, 48620, 50288], "queries": {"click": {"state": {"target": ["1", "2", "23", "24", "25", "32", "31", "21", "22", "19", "20", "14", "15", "16", "17", "18"], "time": [2678, 4415, 6923, 9925, 12962, 15929, 19637, 24028, 25685, 27476, 29851, 31880, 33948, 35874, 37864, 39828]}, "edge": {"target": [], "time": []}}, "mouseover": {"state": {"target": ["1", "2", "3", "23", "31", "24", "24", "24", "31", "31", "31", "25", "30", "32", "31", "21", "21", "19", "22", "19", "20", "20", "14", "13", "15", "16", "17", "15", "18", "22", "19", "19", "14", "15", "15"], "time": [2328, 3794, 5329, 6677, 7879, 7961, 9415, 9711, 10678, 11676, 12336, 12712, 13694, 15809, 19245, 22010, 23597, 25077, 25427, 27063, 28528, 29128, 31179, 33195, 33643, 35610, 36678, 39145, 39576, 41244, 42111, 42862, 43127, 43327, 44244]}, "edge": {"target": [], "time": []}}, "mouseout": {"state": {"target": ["22", "0", "1", "2", "3", "2", "1", "23", "31", "24", "24", "24", "31", "31", "31", "25", "30", "32", "32", "32", "31", "21", "21", "19", "22", "19", "20", "20", "14", "13", "15", "15", "16", "17", "15", "18", "22", "19", "19", "14", "15", "15", "19"], "time": [512, 877, 2697, 5045, 6245, 6315, 6448, 7380, 7912, 9062, 9562, 10162, 11429, 11693, 12595, 13611, 15446, 16016, 17029, 18249, 19911, 22895, 24277, 25127, 26595, 28312, 28628, 30945, 33111, 33362, 34412, 35412, 36279, 39128, 39212, 40195, 42011, 42477, 42929, 43227, 43726, 44277, 54277]}, "edge": {"target": [], "time": []}}}, "displayed_time": "50.78", "trialTime": 55893, "trial_type": "mouselab-mdp", "trial_index": 22, "time_elapsed": 1456685, "internal_node_id": "0.0-6.0-1.0-7.0"}}, {"uniqueid": "w72135886:a97663478", "current_trial": 23, "dateTime": 1693661754420, "trialdata": {"revealed_states": [], "clicked_states": ["1", "2"], "num_clicks_accrued": [0, 0, 0, 0, 0, 0, 0, 0, 0, 0, 0, 0, 0], "stateRewards": ["", 1, -1, 1, 13, 31, -56, 72, 2, 41, 5, 63, -2, -3, -2, 3, -71, -26, 52, 13, -31, 24, -67, 2, -2, 5, 4, 66, 43, 72, 9, 86, -26, 44], "withholdReward": false, "trial_id": "mdp_trial_9", "block": "test", "trialIndex": 12, "score": 27.2, "costs": -2.8, "simulationMode": [null, null, null, null, null], "rewards": [-2, -3, -2, 13, 24], "path": ["0", "0", "12", "13", "14", "19", "21"], "rt": [9545, 837, 715, 864, 512], "actions": ["right", "right", "right", "down", "down"], "actionTimes": [10612, 11956, 13168, 14549, 15564], "queries": {"click": {"state": {"target": ["1", "2"], "time": [2347, 4118]}, "edge": {"target": [], "time": []}}, "mouseover": {"state": {"target": ["12", "12", "1", "0", "12", "2", "3", "1", "1", "12", "22"], "time": [1400, 1526, 1901, 3267, 3468, 3867, 5033, 7104, 7451, 8917, 9732]}, "edge": {"target": [], "time": []}}, "mouseout": {"state": {"target": ["0", "12", "12", "1", "0", "12", "1", "2", "3", "2", "1", "1", "1", "12"], "time": [1354, 1417, 1649, 3023, 3300, 3684, 3767, 4799, 6288, 6383, 6520, 7150, 8467, 9415]}, "edge": {"target": [], "time": []}}}, "displayed_time": "16.07", "trialTime": 18121, "trial_type": "mouselab-mdp", "trial_index": 23, "time_elapsed": 1475057, "internal_node_id": "0.0-6.0-1.0-8.0"}}, {"uniqueid": "w72135886:a97663478", "current_trial": 24, "dateTime": 1693661813854, "trialdata": {"revealed_states": [], "clicked_states": ["1", "2", "3", "8", "11", "9", "10", "12", "22", "19", "21", "14", "15", "16", "18", "13"], "num_clicks_accrued": [0, 0, 0, 0, 0, 0, 0, 0, 0, 0, 0, 0, 0], "stateRewards": ["", 2, 2, 3, -15, 23, -14, 73, -7, -32, -20, -6, 1, 1, -5, -12, 73, 6, -84, 11, -81, -57, 13, -2, -1, -4, -8, -52, -58, 49, 13, 5, -41, -41], "withholdReward": false, "trial_id": "mdp_trial_10", "block": "test", "trialIndex": 13, "score": -71.39999999999999, "costs": -22.399999999999995, "simulationMode": [null, null, null, null, null], "rewards": [1, 1, -5, 11, -57], "path": ["0", "0", "12", "13", "14", "19", "21"], "rt": [42798, 731, 3009, 2054, 727], "actions": ["right", "right", "right", "down", "down"], "actionTimes": [46260, 47501, 51026, 53590, 54813], "queries": {"click": {"state": {"target": ["1", "2", "3", "8", "11", "9", "10", "12", "22", "19", "21", "14", "15", "16", "18", "13"], "time": [4095, 6181, 8051, 9579, 11504, 14686, 16508, 20876, 23554, 27121, 29767, 31926, 34207, 35769, 37759, 40724]}, "edge": {"target": [], "time": []}}, "mouseover": {"state": {"target": ["1", "1", "0", "12", "2", "10", "3", "8", "10", "10", "9", "11", "10", "10", "8", "9", "8", "10", "1", "23", "24", "23", "0", "2", "1", "0", "12", "22", "19", "21", "22", "13", "22", "19", "20", "19", "20", "21", "14", "15", "16", "17", "18", "15", "17", "15", "13", "22", "12", "22", "21"], "time": [3616, 3917, 4966, 5583, 5982, 6916, 7732, 9032, 10073, 10519, 10950, 11366, 12932, 14085, 14282, 14449, 15015, 15682, 16833, 17183, 17366, 17655, 17850, 18350, 19232, 19439, 20667, 21020, 21083, 21234, 21550, 21767, 22981, 24300, 26037, 26798, 27916, 29052, 31536, 32750, 35350, 36017, 36767, 38750, 38951, 39235, 39666, 41484, 43486, 44833, 45549]}, "edge": {"target": [], "time": []}}, "mouseout": {"state": {"target": ["13", "26", "29", "24", "23", "0", "0", "1", "1", "1", "0", "12", "1", "2", "10", "3", "8", "10", "10", "8", "9", "11", "8", "10", "10", "8", "9", "9", "8", "10", "1", "23", "24", "23", "0", "2", "1", "0", "12", "22", "19", "21", "22", "13", "22", "22", "19", "20", "19", "19", "20", "21", "19", "14", "15", "16", "17", "18", "18", "15", "17", "15", "18", "13", "22", "12", "22", "21"], "time": [317, 384, 632, 765, 915, 1035, 3557, 3833, 4156, 4899, 5383, 5681, 5816, 6782, 7566, 8902, 10038, 10201, 10583, 10733, 11101, 12132, 12749, 13916, 14248, 14298, 14786, 14949, 15032, 16650, 17034, 17266, 17500, 17767, 18083, 19186, 19281, 20016, 21000, 21051, 21100, 21434, 21568, 22866, 23615, 24183, 25369, 26751, 27216, 27633, 28881, 31116, 31386, 32584, 35233, 35949, 36067, 37827, 38600, 38834, 39218, 39251, 39465, 41187, 43218, 44667, 45299, 58467]}, "edge": {"target": [], "time": []}}}, "displayed_time": "55.34", "trialTime": 59171, "trial_type": "mouselab-mdp", "trial_index": 24, "time_elapsed": 1534491, "internal_node_id": "0.0-6.0-1.0-9.0"}}, {"uniqueid": "w72135886:a97663478", "current_trial": 25, "dateTime": 1693661847684, "trialdata": {"revealed_states": [], "clicked_states": ["1", "2", "3", "11", "9", "8", "10"], "num_clicks_accrued": [0, 0, 0, 0, 0, 0, 0, 0, 0, 0, 0, 0, 0], "stateRewards": ["", -2, 2, -5, -6, 10, -66, -58, -10, -11, -63, -70, -1, -4, -5, 7, 66, -64, -43, -3, 45, -37, 4, -2, -2, -6, -4, -30, 33, 43, 15, -32, -65, -59], "withholdReward": false, "trial_id": "mdp_trial_11", "block": "test", "trialIndex": 14, "score": -59.8, "costs": -9.8, "simulationMode": [null, null, null, null, null], "rewards": [-1, -4, -5, -3, -37], "path": ["0", "0", "12", "13", "14", "19", "21"], "rt": [21765, 728, 896, 2029, 753], "actions": ["right", "right", "right", "down", "down"], "actionTimes": [24223, 25445, 26845, 29396, 30652], "queries": {"click": {"state": {"target": ["1", "2", "3", "11", "9", "8", "10"], "time": [3486, 6088, 8982, 11599, 13306, 14956, 17087]}, "edge": {"target": [], "time": []}}, "mouseover": {"state": {"target": ["23", "1", "2", "2", "3", "3", "8", "11", "10", "8", "9", "8", "10", "8", "10", "2", "2", "19"], "time": [2564, 3230, 4214, 5596, 7249, 8748, 9581, 11113, 12651, 12865, 13070, 13865, 13966, 14664, 15614, 18896, 19834, 21367]}, "edge": {"target": [], "time": []}}, "mouseout": {"state": {"target": ["30", "33", "24", "0", "23", "1", "2", "1", "2", "1", "2", "3", "2", "2", "3", "8", "11", "11", "10", "8", "9", "8", "10", "8", "10", "10", "10", "2", "2", "19"], "time": [447, 712, 862, 2562, 2580, 3576, 5167, 5513, 6683, 6915, 7048, 7932, 8063, 8364, 9415, 10913, 11674, 12431, 12848, 12932, 13804, 13933, 14197, 15465, 17136, 17648, 18812, 19564, 21298, 21388]}, "edge": {"target": [], "time": []}}}, "displayed_time": "31.15", "trialTime": 33565, "trial_type": "mouselab-mdp", "trial_index": 25, "time_elapsed": 1568321, "internal_node_id": "0.0-6.0-1.0-10.0"}}, {"uniqueid": "w72135886:a97663478", "current_trial": 26, "dateTime": 1693661869754, "trialdata": {"revealed_states": [], "clicked_states": ["2", "3", "8"], "num_clicks_accrued": [0, 0, 0, 0, 0, 0, 0, 0, 0, 0, 0, 0, 0], "stateRewards": ["", 2, 4, -5, 7, 81, 35, 6, 11, 14, -72, 42, -1, 2, 3, -7, -77, -44, -40, -15, -85, 51, -32, -2, -1, -5, 7, -74, 47, 52, 16, -49, 48, -46], "withholdReward": false, "trial_id": "mdp_trial_12", "block": "test", "trialIndex": 15, "score": 35.8, "costs": -4.199999999999999, "simulationMode": [null, null, null, null, null], "rewards": [-1, 2, 3, -15, 51], "path": ["0", "0", "12", "13", "14", "19", "21"], "rt": [12330, 742, 1024, 817, 905], "actions": ["right", "right", "right", "down", "down"], "actionTimes": [14140, 15391, 16905, 18215, 19638], "queries": {"click": {"state": {"target": ["2", "3", "8"], "time": [2602, 4953, 7764]}, "edge": {"target": [], "time": []}}, "mouseover": {"state": {"target": ["2", "1", "3", "4", "8", "8", "23", "10", "11", "23"], "time": [2364, 3347, 4730, 5647, 7180, 7619, 8581, 9496, 9829, 11129]}, "edge": {"target": [], "time": []}}, "mouseout": {"state": {"target": ["14", "14", "15", "18", "2", "1", "2", "3", "4", "3", "8", "8", "8", "23", "10", "8", "11", "23"], "time": [614, 696, 1031, 1146, 3181, 4400, 4551, 5596, 7125, 7164, 7433, 7851, 8281, 8680, 9580, 9747, 11100, 11146]}, "edge": {"target": [], "time": []}}}, "displayed_time": "20.13", "trialTime": 21784, "trial_type": "mouselab-mdp", "trial_index": 26, "time_elapsed": 1590391, "internal_node_id": "0.0-6.0-1.0-11.0"}}, {"uniqueid": "w72135886:a97663478", "current_trial": 27, "dateTime": 1693661897754, "trialdata": {"revealed_states": [], "clicked_states": ["1", "2", "3", "8", "11"], "num_clicks_accrued": [0, 0, 0, 0, 0, 0, 0, 0, 0, 0, 0, 0, 0], "stateRewards": ["", 2, -1, 5, 6, 10, 86, 55, 10, -45, 63, -71, 1, -2, 5, -8, -50, -72, 36, 15, 61, 12, 33, -1, -4, 6, 5, 79, -56, -21, -16, -87, 60, -81], "withholdReward": false, "trial_id": "mdp_trial_13", "block": "test", "trialIndex": 16, "score": 24, "costs": -7, "simulationMode": [null, null, null, null, null], "rewards": [1, -2, 5, 15, 12], "path": ["0", "0", "12", "13", "14", "19", "21"], "rt": [14310, 820, 1806, 2798, 1042], "actions": ["right", "right", "right", "down", "down"], "actionTimes": [16805, 18146, 20447, 23740, 25283], "queries": {"click": {"state": {"target": ["1", "2", "3", "8", "11"], "time": [3870, 5638, 7344, 9430, 11313]}, "edge": {"target": [], "time": []}}, "mouseover": {"state": {"target": ["8", "9", "3", "2", "1", "2", "3", "8", "10", "10", "11", "10", "0"], "time": [2571, 2605, 3005, 3207, 3307, 5006, 6873, 8323, 9792, 10524, 11025, 11973, 12390]}, "edge": {"target": [], "time": []}}, "mouseout": {"state": {"target": ["29", "26", "12", "8", "9", "3", "2", "1", "2", "3", "8", "10", "10", "8", "11", "10", "0"], "time": [1506, 1604, 1972, 2588, 2621, 3171, 3257, 3947, 6642, 8157, 9757, 9842, 10640, 10790, 11873, 12056, 12473]}, "edge": {"target": [], "time": []}}}, "displayed_time": "25.77", "trialTime": 27727, "trial_type": "mouselab-mdp", "trial_index": 27, "time_elapsed": 1618390, "internal_node_id": "0.0-6.0-1.0-12.0"}}, {"uniqueid": "w72135886:a97663478", "current_trial": 28, "dateTime": 1693661924213, "trialdata": {"revealed_states": [], "clicked_states": ["1", "2", "3", "11"], "num_clicks_accrued": [0, 0, 0, 0, 0, 0, 0, 0, 0, 0, 0, 0, 0], "stateRewards": ["", -1, -4, -1, -11, 43, 69, 39, 4, 17, -20, -82, -2, -1, 4, 8, -79, 24, -79, 11, 36, 64, 41, 2, 4, -1, 11, -79, -47, 75, -3, 63, -36, -19], "withholdReward": false, "trial_id": "mdp_trial_14", "block": "test", "trialIndex": 17, "score": 70.4, "costs": -5.6, "simulationMode": [null, null, null, null, null], "rewards": [-2, -1, 4, 11, 64], "path": ["0", "0", "12", "13", "14", "19", "21"], "rt": [13932, 652, 860, 1252, 1141], "actions": ["right", "right", "right", "down", "down"], "actionTimes": [17781, 18928, 20303, 22061, 23699], "queries": {"click": {"state": {"target": ["1", "2", "3", "11"], "time": [5860, 7695, 9620, 12577]}, "edge": {"target": [], "time": []}}, "mouseover": {"state": {"target": ["12", "12", "1", "1", "2", "3", "8", "11", "8", "10", "23"], "time": [4064, 4338, 4626, 5456, 6623, 8590, 10440, 12271, 12823, 13523, 14107]}, "edge": {"target": [], "time": []}}, "mouseout": {"state": {"target": ["14", "12", "24", "25", "23", "0", "12", "12", "1", "1", "2", "3", "8", "11", "8", "10", "23"], "time": [1804, 2823, 2873, 2890, 3421, 4047, 4074, 4371, 5273, 6338, 8290, 10306, 12139, 12672, 12840, 13675, 14172]}, "edge": {"target": [], "time": []}}}, "displayed_time": "24.19", "trialTime": 26186, "trial_type": "mouselab-mdp", "trial_index": 28, "time_elapsed": 1644850, "internal_node_id": "0.0-6.0-1.0-13.0"}}, {"uniqueid": "w72135886:a97663478", "current_trial": 29, "dateTime": 1693661947521, "trialdata": {"revealed_states": [], "clicked_states": ["1", "2", "3", "4", "6"], "num_clicks_accrued": [0, 0, 0, 0, 0, 0, 0, 0, 0, 0, 0, 0, 0], "stateRewards": ["", -1, 1, -6, -1, 80, 23, 2, -11, 73, -81, 59, 1, 3, 5, -1, -26, 28, -3, 16, -59, -13, -50, -2, -2, 2, 15, -50, 86, 17, -4, 37, 35, 44], "withholdReward": false, "trial_id": "mdp_trial_15", "block": "test", "trialIndex": 18, "score": 5, "costs": -7, "simulationMode": [null, null, null, null, null], "rewards": [1, 3, 5, 16, -13], "path": ["0", "0", "12", "13", "14", "19", "21"], "rt": [13706, 771, 945, 1466, 884], "actions": ["right", "right", "right", "down", "down"], "actionTimes": [14654, 15920, 17375, 19361, 20746], "queries": {"click": {"state": {"target": ["1", "2", "3", "4", "6"], "time": [2111, 3943, 5525, 7452, 9557]}, "edge": {"target": [], "time": []}}, "mouseover": {"state": {"target": ["1", "3", "2", "1", "2", "3", "4", "7", "6", "18", "13", "22"], "time": [1026, 1227, 1441, 1558, 2877, 5027, 6560, 8229, 8710, 10444, 10527, 10594]}, "edge": {"target": [], "time": []}}, "mouseout": {"state": {"target": ["0", "1", "3", "2", "1", "2", "3", "4", "7", "6", "18", "13", "22"], "time": [1008, 1042, 1376, 1525, 2189, 4761, 6459, 8183, 8295, 10061, 10493, 10577, 10644]}, "edge": {"target": [], "time": []}}}, "displayed_time": "21.25", "trialTime": 23031, "trial_type": "mouselab-mdp", "trial_index": 29, "time_elapsed": 1668158, "internal_node_id": "0.0-6.0-1.0-14.0"}}, {"uniqueid": "w72135886:a97663478", "current_trial": 30, "dateTime": 1693661974120, "trialdata": {"revealed_states": [], "clicked_states": ["1", "3", "8"], "num_clicks_accrued": [0, 0, 0, 0, 0, 0, 0, 0, 0, 0, 0, 0, 0], "stateRewards": ["", -2, -1, -6, -14, -55, 78, -13, 11, 14, -71, 59, 2, 2, 6, -6, 9, 38, 14, 7, 85, 11, 68, 1, -4, -1, -3, -63, -85, 9, -2, 63, -86, -10], "withholdReward": false, "trial_id": "mdp_trial_16", "block": "test", "trialIndex": 19, "score": 8.8, "costs": -4.199999999999999, "simulationMode": [null, null, null, null, null], "rewards": [2, 2, 6, -6, 9], "path": ["0", "0", "12", "13", "14", "15", "16"], "rt": [17645, 679, 900, 1027, 952], "actions": ["right", "right", "right", "up", "up"], "actionTimes": [18853, 20056, 21457, 23001, 24457], "queries": {"click": {"state": {"target": ["1", "3", "8"], "time": [2496, 5659, 8692]}, "edge": {"target": [], "time": []}}, "mouseover": {"state": {"target": ["28", "26", "29", "27", "0", "1", "2", "3", "4", "8", "11", "23", "23", "0"], "time": [1254, 1271, 1289, 1536, 1870, 2203, 3305, 5022, 6622, 8420, 9672, 11241, 16471, 16720]}, "edge": {"target": [], "time": []}}, "mouseout": {"state": {"target": ["0", "28", "26", "29", "27", "0", "1", "2", "3", "4", "3", "8", "11", "23", "23", "0"], "time": [1221, 1270, 1287, 1304, 1553, 2005, 2582, 4822, 6522, 8154, 8320, 8743, 10988, 11289, 16525, 16823]}, "edge": {"target": [], "time": []}}}, "displayed_time": "24.96", "trialTime": 26325, "trial_type": "mouselab-mdp", "trial_index": 30, "time_elapsed": 1694757, "internal_node_id": "0.0-6.0-1.0-15.0"}}, {"uniqueid": "w72135886:a97663478", "current_trial": 31, "dateTime": 1693661995289, "trialdata": {"revealed_states": [], "clicked_states": ["1", "3"], "num_clicks_accrued": [0, 0, 0, 0, 0, 0, 0, 0, 0, 0, 0, 0, 0], "stateRewards": ["", 1, 2, 7, 13, 88, -71, 27, 3, 60, 5, -53, -2, 2, -6, -1, -30, 79, 47, -4, -14, 46, 68, 1, 1, 8, 10, -14, 86, 48, -11, -67, -44, 5], "withholdReward": false, "trial_id": "mdp_trial_17", "block": "test", "trialIndex": 20, "score": -39.8, "costs": -2.8, "simulationMode": [null, null, null, null, null], "rewards": [-2, 2, -6, -1, -30], "path": ["0", "0", "12", "13", "14", "15", "16"], "rt": [10756, 758, 993, 1814, 983], "actions": ["right", "right", "right", "up", "up"], "actionTimes": [11899, 13155, 14639, 16960, 18446], "queries": {"click": {"state": {"target": ["1", "3"], "time": [2486, 5735]}, "edge": {"target": [], "time": []}}, "mouseover": {"state": {"target": ["1", "2", "3", "4", "8", "10", "0"], "time": [1894, 3230, 5226, 6760, 8261, 9145, 9827]}, "edge": {"target": [], "time": []}}, "mouseout": {"state": {"target": ["1", "12", "1", "2", "3", "4", "3", "8", "10", "0"], "time": [429, 612, 2795, 4976, 6577, 7976, 8127, 9118, 9211, 9846]}, "edge": {"target": [], "time": []}}}, "displayed_time": "18.95", "trialTime": 20884, "trial_type": "mouselab-mdp", "trial_index": 31, "time_elapsed": 1715926, "internal_node_id": "0.0-6.0-1.0-16.0"}}, {"uniqueid": "w72135886:a97663478", "current_trial": 32, "dateTime": 1693662016948, "trialdata": {"revealed_states": [], "clicked_states": ["1", "2"], "num_clicks_accrued": [0, 0, 0, 0, 0, 0, 0, 0, 0, 0, 0, 0, 0], "stateRewards": ["", -1, 4, 3, 12, -27, 34, -33, 3, -63, 1, 6, 2, 2, -6, -11, -77, -85, 68, -6, 51, 81, -60, -2, -2, 1, 15, 20, 15, 68, -10, -14, 6, -4], "withholdReward": false, "trial_id": "mdp_trial_18", "block": "test", "trialIndex": 21, "score": -92.8, "costs": -2.8, "simulationMode": [null, null, null, null, null], "rewards": [2, 2, -6, -11, -77], "path": ["0", "0", "12", "13", "14", "15", "16"], "rt": [11089, 855, 1076, 1743, 959], "actions": ["right", "right", "right", "up", "up"], "actionTimes": [12182, 13541, 15111, 17363, 18828], "queries": {"click": {"state": {"target": ["1", "2"], "time": [2123, 4173]}, "edge": {"target": [], "time": []}}, "mouseover": {"state": {"target": ["1", "2", "10", "3", "8", "1", "0", "0", "0"], "time": [1732, 3001, 5485, 6732, 7067, 7768, 7904, 10684, 11302]}, "edge": {"target": [], "time": []}}, "mouseout": {"state": {"target": ["0", "1", "2", "10", "3", "8", "1", "0", "0", "0"], "time": [1453, 2222, 5217, 6467, 6936, 7423, 7851, 8165, 10768, 11451]}, "edge": {"target": [], "time": []}}}, "displayed_time": "19.32", "trialTime": 21366, "trial_type": "mouselab-mdp", "trial_index": 32, "time_elapsed": 1737585, "internal_node_id": "0.0-6.0-1.0-17.0"}}, {"uniqueid": "w72135886:a97663478", "current_trial": 33, "dateTime": 1693662039651, "trialdata": {"revealed_states": [], "clicked_states": ["1", "12", "13", "14"], "num_clicks_accrued": [0, 0, 0, 0, 0, 0, 0, 0, 0, 0, 0, 0, 0], "stateRewards": ["", -2, 2, 3, -7, 76, 63, 21, 15, 35, -8, -44, 1, 1, -2, -12, 23, 24, 76, -9, 46, 66, -49, -2, -1, 7, 12, 40, -71, -45, -6, 38, -49, 46], "withholdReward": false, "trial_id": "mdp_trial_19", "block": "test", "trialIndex": 22, "score": 51.4, "costs": -5.6, "simulationMode": [null, null, null, null, null], "rewards": [1, 1, -2, -9, 66], "path": ["0", "0", "12", "13", "14", "19", "21"], "rt": [12808, 947, 968, 1212, 1003], "actions": ["right", "right", "right", "down", "down"], "actionTimes": [14002, 15470, 16940, 18667, 20192], "queries": {"click": {"state": {"target": ["1", "12", "13", "14"], "time": [2559, 5290, 6889, 8471]}, "edge": {"target": [], "time": []}}, "mouseover": {"state": {"target": ["0", "1", "2", "12", "13", "14"], "time": [1525, 2254, 3420, 5087, 6540, 8203]}, "edge": {"target": [], "time": []}}, "mouseout": {"state": {"target": ["0", "0", "1", "2", "1", "12", "12", "13", "14", "13", "12"], "time": [905, 1918, 3153, 4454, 4721, 5369, 6388, 8053, 9122, 9188, 9387]}, "edge": {"target": [], "time": []}}}, "displayed_time": "20.69", "trialTime": 22422, "trial_type": "mouselab-mdp", "trial_index": 33, "time_elapsed": 1760288, "internal_node_id": "0.0-6.0-1.0-18.0"}}, {"uniqueid": "w72135886:a97663478", "current_trial": 34, "dateTime": 1693662065893, "trialdata": {"revealed_states": [], "clicked_states": ["23", "25", "26", "27"], "num_clicks_accrued": [0, 0, 0, 0, 0, 0, 0, 0, 0, 0, 0, 0, 0], "stateRewards": ["", 2, -4, 1, -12, -59, -53, -74, 16, -88, -66, 66, 1, -2, 8, -9, -14, 22, 25, -1, -39, 47, -14, -1, -1, -2, 1, -4, 52, -26, 15, -7, 46, 43], "withholdReward": false, "trial_id": "mdp_trial_20", "block": "test", "trialIndex": 23, "score": -21.6, "costs": -5.6, "simulationMode": [null, null, null, null, null], "rewards": [1, -2, 8, -9, -14], "path": ["0", "0", "12", "13", "14", "15", "16"], "rt": [15228, 758, 986, 2328, 820], "actions": ["right", "right", "right", "up", "up"], "actionTimes": [16445, 17727, 19221, 22066, 23388], "queries": {"click": {"state": {"target": ["23", "25", "26", "27"], "time": [2970, 6192, 7970, 11103]}, "edge": {"target": [], "time": []}}, "mouseover": {"state": {"target": ["23", "0", "23", "24", "25", "26", "31", "31", "24", "27", "28", "23"], "time": [1700, 2032, 2684, 4234, 5917, 7400, 10034, 10335, 10385, 10798, 11567, 11700]}, "edge": {"target": [], "time": []}}, "mouseout": {"state": {"target": ["0", "23", "0", "23", "24", "25", "26", "26", "25", "31", "31", "24", "26", "27", "28", "23"], "time": [884, 1716, 2132, 3983, 5784, 7199, 8061, 9302, 10008, 10100, 10367, 10399, 10648, 11467, 11633, 11766]}, "edge": {"target": [], "time": []}}}, "displayed_time": "23.89", "trialTime": 25960, "trial_type": "mouselab-mdp", "trial_index": 34, "time_elapsed": 1786530, "internal_node_id": "0.0-6.0-1.0-19.0"}}, {"uniqueid": "w72135886:a97663478", "current_trial": 35, "dateTime": 1693662090903, "trialdata": {"revealed_states": [], "clicked_states": ["12", "14", "15", "19"], "num_clicks_accrued": [0, 0, 0, 0, 0, 0, 0, 0, 0, 0, 0, 0, 0], "stateRewards": ["", 1, -4, 6, -3, 40, 76, -51, 5, -24, -63, 44, -2, -2, 8, 1, 76, -85, -58, 10, 59, 20, 11, -2, 3, -3, 3, -82, -10, 54, -7, -57, -6, -32], "withholdReward": false, "trial_id": "mdp_trial_21", "block": "test", "trialIndex": 24, "score": 75.4, "costs": -5.6, "simulationMode": [null, null, null, null, null], "rewards": [-2, -2, 8, 1, 76], "path": ["0", "0", "12", "13", "14", "15", "16"], "rt": [14784, 941, 993, 1378, 1153], "actions": ["right", "right", "right", "up", "up"], "actionTimes": [15948, 17383, 18887, 20769, 22427], "queries": {"click": {"state": {"target": ["12", "14", "15", "19"], "time": [2516, 5326, 7961, 10395]}, "edge": {"target": [], "time": []}}, "mouseover": {"state": {"target": ["0", "12", "13", "14", "15", "20", "19"], "time": [1971, 2305, 3672, 5089, 7654, 9505, 10059]}, "edge": {"target": [], "time": []}}, "mouseout": {"state": {"target": ["12", "0", "12", "13", "14", "14", "14", "15", "14", "20"], "time": [588, 2123, 3422, 4939, 6356, 6863, 7473, 9222, 9389, 9955]}, "edge": {"target": [], "time": []}}}, "displayed_time": "22.94", "trialTime": 24726, "trial_type": "mouselab-mdp", "trial_index": 35, "time_elapsed": 1811540, "internal_node_id": "0.0-6.0-1.0-20.0"}}, {"uniqueid": "w72135886:a97663478", "current_trial": 36, "dateTime": 1693662118429, "trialdata": {"revealed_states": [], "clicked_states": ["1", "10", "9"], "num_clicks_accrued": [0, 0, 0, 0, 0, 0, 0, 0, 0, 0, 0, 0, 0], "stateRewards": ["", 1, -1, 4, -2, -75, -75, 84, -9, -60, -79, 59, 2, -4, 8, 9, -17, -82, 80, 14, -4, 49, 49, -1, 3, 6, -11, -33, 34, 55, 9, -57, 5, 59], "withholdReward": false, "trial_id": "mdp_trial_22", "block": "test", "trialIndex": 25, "score": 64.8, "costs": -4.199999999999999, "simulationMode": [null, null, null, null, null], "rewards": [2, -4, 8, 14, 49], "path": ["0", "0", "12", "13", "14", "19", "21"], "rt": [14160, 962, 2569, 1522, 1139], "actions": ["right", "right", "right", "down", "down"], "actionTimes": [15555, 17016, 20089, 22108, 23742], "queries": {"click": {"state": {"target": ["1", "10", "9"], "time": [2646, 5022, 7631]}, "edge": {"target": [], "time": []}}, "mouseover": {"state": {"target": ["1", "2", "1", "2", "10", "8", "9", "8", "28", "0"], "time": [1935, 2184, 2550, 3551, 4834, 5885, 7383, 8384, 8784, 14233]}, "edge": {"target": [], "time": []}}, "mouseout": {"state": {"target": ["14", "18", "1", "1", "2", "1", "2", "10", "8", "9", "8", "10", "28", "0", "1", "23", "24", "25", "33"], "time": [610, 633, 798, 1999, 2297, 2725, 4684, 5115, 7237, 8350, 8467, 8625, 9829, 25651, 25669, 25750, 25818, 25869, 26101]}, "edge": {"target": [], "time": []}}}, "displayed_time": "24.24", "trialTime": 27229, "trial_type": "mouselab-mdp", "trial_index": 36, "time_elapsed": 1839066, "internal_node_id": "0.0-6.0-1.0-21.0"}}, {"uniqueid": "w72135886:a97663478", "current_trial": 37, "dateTime": 1693662147943, "trialdata": {"revealed_states": [], "clicked_states": ["1", "2", "3", "4", "6", "7"], "num_clicks_accrued": [0, 0, 0, 0, 0, 0, 0, 0, 0, 0, 0, 0, 0], "stateRewards": ["", 2, -2, 7, -11, -76, -65, -23, 16, -58, 30, 81, 1, 2, 7, 14, 9, 55, -2, 6, 11, -15, 31, -1, -1, -3, 2, 15, 2, 46, 15, 18, 45, -34], "withholdReward": false, "trial_id": "mdp_trial_23", "block": "test", "trialIndex": 26, "score": -7.4, "costs": -8.4, "simulationMode": [null, null, null, null, null], "rewards": [1, 2, 7, 6, -15], "path": ["0", "0", "12", "13", "14", "19", "21"], "rt": [16767, 1062, 1363, 1903, 1344], "actions": ["right", "right", "right", "down", "down"], "actionTimes": [18166, 19729, 21611, 24016, 25857], "queries": {"click": {"state": {"target": ["1", "2", "3", "4", "6", "7"], "time": [2596, 4160, 5909, 7470, 9232, 12700]}, "edge": {"target": [], "time": []}}, "mouseover": {"state": {"target": ["28", "2", "1", "1", "2", "10", "3", "4", "6", "0", "7", "18", "15", "21"], "time": [1527, 1743, 1861, 2294, 3861, 5078, 5661, 7061, 8528, 11494, 12277, 14046, 14065, 16216]}, "edge": {"target": [], "time": []}}, "mouseout": {"state": {"target": ["23", "28", "2", "1", "1", "1", "2", "10", "3", "4", "6", "0", "7", "18", "15", "21", "21"], "time": [794, 1554, 1793, 1881, 3344, 3694, 4944, 5361, 6795, 8412, 9996, 11762, 14029, 14063, 14079, 16515, 26378]}, "edge": {"target": [], "time": []}}}, "displayed_time": "26.36", "trialTime": 29221, "trial_type": "mouselab-mdp", "trial_index": 37, "time_elapsed": 1868579, "internal_node_id": "0.0-6.0-1.0-22.0"}}, {"uniqueid": "w72135886:a97663478", "current_trial": 38, "dateTime": 1693662179695, "trialdata": {"revealed_states": [], "clicked_states": ["1", "2", "3", "8", "11"], "num_clicks_accrued": [0, 0, 0, 0, 0, 0, 0, 0, 0, 0, 0, 0, 0], "stateRewards": ["", -1, 4, -3, 3, 57, -61, 5, -11, 23, -1, 34, -2, -4, -1, -13, 27, 38, -36, 4, -45, 21, 88, 1, -2, -1, 1, -69, -5, -78, -12, -9, 38, -54], "withholdReward": false, "trial_id": "mdp_trial_24", "block": "test", "trialIndex": 27, "score": 0, "costs": -7, "simulationMode": [null, null, null, null, null], "rewards": [-2, -4, -1, -13, 27], "path": ["0", "0", "12", "13", "14", "15", "16"], "rt": [21321, 828, 913, 1195, 1168], "actions": ["right", "right", "right", "up", "up"], "actionTimes": [22340, 23690, 25125, 26823, 28496], "queries": {"click": {"state": {"target": ["1", "2", "3", "8", "11"], "time": [2038, 3708, 5510, 7269, 9079]}, "edge": {"target": [], "time": []}}, "mouseover": {"state": {"target": ["1", "2", "1", "1", "2", "3", "8", "11", "10", "0", "0", "1", "2", "10", "10", "8", "9", "8", "2", "12", "21", "19", "22", "12"], "time": [1108, 1366, 1442, 1692, 3060, 4943, 6760, 8543, 9861, 10129, 11193, 11414, 11708, 12760, 13046, 13408, 13725, 14075, 15110, 15292, 20563, 20860, 20942, 21125]}, "edge": {"target": [], "time": []}}, "mouseout": {"state": {"target": ["22", "1", "2", "1", "1", "2", "3", "8", "11", "11", "10", "0", "0", "1", "2", "10", "10", "8", "9", "8", "2", "12", "21", "19", "22", "12"], "time": [364, 1126, 1425, 1492, 2776, 4643, 6505, 8309, 9166, 9794, 9911, 10145, 11327, 11543, 12710, 12825, 13327, 13542, 13913, 15030, 15158, 15342, 20743, 20910, 21009, 21859]}, "edge": {"target": [], "time": []}}}, "displayed_time": "29.01", "trialTime": 31454, "trial_type": "mouselab-mdp", "trial_index": 38, "time_elapsed": 1900331, "internal_node_id": "0.0-6.0-1.0-23.0"}}, {"uniqueid": "w72135886:a97663478", "current_trial": 39, "dateTime": 1693662202971, "trialdata": {"revealed_states": [], "clicked_states": ["1", "2", "3", "4"], "num_clicks_accrued": [0, 0, 0, 0, 0, 0, 0, 0, 0, 0, 0, 0, 0], "stateRewards": ["", -2, -3, 4, 1, 33, -53, 15, 9, -12, 61, -6, -2, 4, 6, -11, 47, -43, -7, -11, 46, 23, -28, -1, -1, 3, -10, 11, 76, -76, 10, 18, -38, 87], "withholdReward": false, "trial_id": "mdp_trial_25", "block": "test", "trialIndex": 28, "score": 14.4, "costs": -5.6, "simulationMode": [null, null, null, null, null], "rewards": [-2, 4, 6, -11, 23], "path": ["0", "0", "12", "13", "14", "19", "21"], "rt": [13049, 709, 844, 942, 821], "actions": ["right", "right", "right", "down", "down"], "actionTimes": [14256, 15487, 16833, 18299, 19611], "queries": {"click": {"state": {"target": ["1", "2", "3", "4"], "time": [2241, 3762, 6028, 9245]}, "edge": {"target": [], "time": []}}, "mouseover": {"state": {"target": ["1", "2", "10", "3", "1", "1", "4", "7", "12"], "time": [1571, 2938, 4588, 5788, 7703, 8021, 8453, 9871, 10571]}, "edge": {"target": [], "time": []}}, "mouseout": {"state": {"target": ["0", "1", "2", "10", "2", "3", "2", "1", "1", "4", "7", "12"], "time": [1437, 2333, 4438, 5338, 5491, 7440, 7556, 7753, 8038, 9824, 10021, 10925]}, "edge": {"target": [], "time": []}}}, "displayed_time": "20.11", "trialTime": 22959, "trial_type": "mouselab-mdp", "trial_index": 39, "time_elapsed": 1923608, "internal_node_id": "0.0-6.0-1.0-24.0"}}, {"uniqueid": "w72135886:a97663478", "current_trial": 40, "dateTime": 1693662227976, "trialdata": {"revealed_states": [], "clicked_states": ["1", "3", "4", "6"], "num_clicks_accrued": [0, 0, 0, 0, 0, 0, 0, 0, 0, 0, 0, 0, 0], "stateRewards": ["", -2, -4, -8, 8, 63, -50, -19, -7, -17, -31, 31, 1, 3, -5, 12, -35, -63, -29, -4, -17, -75, -79, -2, -3, -2, 8, -3, -85, 10, -2, -82, -82, 56], "withholdReward": false, "trial_id": "mdp_trial_26", "block": "test", "trialIndex": 29, "score": -85.6, "costs": -5.6, "simulationMode": [null, null, null, null, null], "rewards": [1, 3, -5, -4, -75], "path": ["0", "0", "12", "13", "14", "19", "21"], "rt": [14767, 775, 859, 1244, 882], "actions": ["right", "right", "right", "down", "down"], "actionTimes": [16157, 17473, 18839, 20576, 21962], "queries": {"click": {"state": {"target": ["1", "3", "4", "6"], "time": [2649, 5449, 7238, 9967]}, "edge": {"target": [], "time": []}}, "mouseover": {"state": {"target": ["0", "1", "2", "3", "4", "7", "12", "7", "6", "18", "12"], "time": [1978, 2294, 3629, 5096, 6629, 8465, 8944, 9327, 9610, 10662, 10862]}, "edge": {"target": [], "time": []}}, "mouseout": {"state": {"target": ["0", "0", "1", "2", "3", "4", "7", "12", "7", "6", "18", "12"], "time": [1110, 2113, 3379, 4944, 6563, 8430, 8516, 9210, 9477, 10520, 10729, 10996]}, "edge": {"target": [], "time": []}}}, "displayed_time": "22.46", "trialTime": 24688, "trial_type": "mouselab-mdp", "trial_index": 40, "time_elapsed": 1948613, "internal_node_id": "0.0-6.0-1.0-25.0"}}, {"uniqueid": "w72135886:a97663478", "current_trial": 41, "dateTime": 1693662249852, "trialdata": {"revealed_states": [], "clicked_states": ["12", "23"], "num_clicks_accrued": [0, 0, 0, 0, 0, 0, 0, 0, 0, 0, 0, 0, 0], "stateRewards": ["", 1, 2, -6, -13, -51, 22, -4, -12, -44, -12, 6, -2, -2, -2, -14, -46, -4, -77, -2, 36, -79, 41, 2, -4, 2, -6, -55, 59, 70, -5, 39, -19, 24], "withholdReward": false, "trial_id": "mdp_trial_27", "block": "test", "trialIndex": 30, "score": -68.8, "costs": -2.8, "simulationMode": [null, null, null, null, null], "rewards": [-2, -2, -2, -14, -46], "path": ["0", "0", "12", "13", "14", "15", "16"], "rt": [11519, 775, 1111, 1368, 757], "actions": ["right", "right", "right", "up", "up"], "actionTimes": [12783, 14073, 15692, 17582, 18854], "queries": {"click": {"state": {"target": ["12", "23"], "time": [3231, 7351]}, "edge": {"target": [], "time": []}}, "mouseover": {"state": {"target": ["9", "8", "1", "12", "13", "13", "0", "23"], "time": [1581, 1661, 1913, 2915, 4163, 6060, 6379, 7145]}, "edge": {"target": [], "time": []}}, "mouseout": {"state": {"target": ["0", "9", "8", "1", "12", "13", "13", "12", "0", "23", "23"], "time": [693, 1613, 1728, 2844, 3972, 5815, 6094, 6282, 6485, 8497, 9295]}, "edge": {"target": [], "time": []}}}, "displayed_time": "19.35", "trialTime": 21564, "trial_type": "mouselab-mdp", "trial_index": 41, "time_elapsed": 1970489, "internal_node_id": "0.0-6.0-1.0-26.0"}}, {"uniqueid": "w72135886:a97663478", "current_trial": 42, "dateTime": 1693662273660, "trialdata": {"revealed_states": [], "clicked_states": ["1", "7", "10", "2"], "num_clicks_accrued": [0, 0, 0, 0, 0, 0, 0, 0, 0, 0, 0, 0, 0], "stateRewards": ["", -2, -4, -2, 10, -8, -15, -47, 7, -84, 53, 5, -1, 2, -7, 3, 83, 31, 47, -1, 30, -8, 69, 2, -4, -1, 8, -7, 12, -8, -8, -13, 30, -84], "withholdReward": false, "trial_id": "mdp_trial_28", "block": "test", "trialIndex": 31, "score": 74.4, "costs": -5.6, "simulationMode": [null, null, null, null, null], "rewards": [-1, 2, -7, 3, 83], "path": ["0", "0", "12", "13", "14", "15", "16"], "rt": [14082, 708, 1378, 736, 977], "actions": ["right", "right", "right", "up", "up"], "actionTimes": [15503, 16704, 18590, 19830, 21322], "queries": {"click": {"state": {"target": ["1", "7", "10", "2"], "time": [2536, 4376, 6881, 9000]}, "edge": {"target": [], "time": []}}, "mouseover": {"state": {"target": ["1", "2", "7", "3", "10", "2", "1", "12"], "time": [2077, 3577, 3877, 5593, 6708, 8194, 9760, 10043]}, "edge": {"target": [], "time": []}}, "mouseout": {"state": {"target": ["0", "1", "1", "1", "2", "7", "3", "10", "2", "1", "12"], "time": [708, 791, 941, 2632, 3744, 5360, 6416, 7795, 9694, 9776, 10477]}, "edge": {"target": [], "time": []}}}, "displayed_time": "21.83", "trialTime": 23502, "trial_type": "mouselab-mdp", "trial_index": 42, "time_elapsed": 1994296, "internal_node_id": "0.0-6.0-1.0-27.0"}}, {"uniqueid": "w72135886:a97663478", "current_trial": 43, "dateTime": 1693662301440, "trialdata": {"revealed_states": [], "clicked_states": ["1", "7", "12", "13"], "num_clicks_accrued": [0, 0, 0, 0, 0, 0, 0, 0, 0, 0, 0, 0, 0], "stateRewards": ["", -2, -3, -5, 8, 27, 11, 43, -6, -24, -87, 69, -2, 1, 1, 9, 19, 48, -37, 9, -14, 45, 62, 1, 2, 1, 16, -81, -41, 22, 4, -6, -63, 47], "withholdReward": false, "trial_id": "mdp_trial_29", "block": "test", "trialIndex": 32, "score": 48.4, "costs": -5.6, "simulationMode": [null, null, null, null, null], "rewards": [-2, 1, 1, 9, 45], "path": ["0", "0", "12", "13", "14", "19", "21"], "rt": [14621, 942, 3047, 1280, 1126], "actions": ["right", "right", "right", "down", "down"], "actionTimes": [16025, 17479, 21019, 22820, 24448], "queries": {"click": {"state": {"target": ["1", "7", "12", "13"], "time": [2437, 4366, 7070, 9509]}, "edge": {"target": [], "time": []}}, "mouseover": {"state": {"target": ["23", "24", "28", "1", "2", "2", "7", "2", "2", "12", "13", "14", "22", "12"], "time": [1455, 1486, 1606, 2119, 3188, 3537, 4035, 5087, 5721, 6754, 8153, 10471, 11702, 13174]}, "edge": {"target": [], "time": []}}, "mouseout": {"state": {"target": ["0", "23", "24", "28", "1", "2", "2", "7", "2", "2", "12", "13", "14", "13", "22", "12", "32"], "time": [1038, 1470, 1503, 1672, 2542, 3354, 3904, 5054, 5304, 6587, 7886, 10321, 11320, 11571, 12286, 13256, 26402]}, "edge": {"target": [], "time": []}}}, "displayed_time": "24.94", "trialTime": 27461, "trial_type": "mouselab-mdp", "trial_index": 43, "time_elapsed": 2022076, "internal_node_id": "0.0-6.0-1.0-28.0"}}, {"uniqueid": "w72135886:a97663478", "current_trial": 44, "dateTime": 1693662331695, "trialdata": {"revealed_states": [], "clicked_states": ["1", "2", "3", "4", "6", "8", "11", "10"], "num_clicks_accrued": [0, 0, 0, 0, 0, 0, 0, 0, 0, 0, 0, 0, 0], "stateRewards": ["", -1, 2, 5, -6, 13, -64, -47, 8, -79, -80, -33, 1, 2, -2, -16, 56, -71, -10, 3, 29, 44, 85, -1, 4, 5, 4, -36, -56, 19, 8, 52, -13, -2], "withholdReward": false, "trial_id": "mdp_trial_30", "block": "test", "trialIndex": 33, "score": 36.8, "costs": -11.200000000000001, "simulationMode": [null, null, null, null, null], "rewards": [1, 2, -2, 3, 44], "path": ["0", "0", "12", "13", "14", "19", "21"], "rt": [19873, 916, 1108, 1001, 947], "actions": ["right", "right", "right", "down", "down"], "actionTimes": [21364, 22802, 24425, 25920, 27364], "queries": {"click": {"state": {"target": ["1", "2", "3", "4", "6", "8", "11", "10"], "time": [2485, 4194, 6955, 8681, 10409, 12589, 14186, 15877]}, "edge": {"target": [], "time": []}}, "mouseover": {"state": {"target": ["1", "1", "2", "7", "3", "4", "6", "3", "8", "11", "10", "1", "0"], "time": [1533, 2165, 3431, 5181, 6716, 8087, 9846, 11980, 12229, 13915, 15365, 17299, 17949]}, "edge": {"target": [], "time": []}}, "mouseout": {"state": {"target": ["1", "0", "1", "1", "2", "7", "2", "3", "4", "6", "4", "3", "8", "11", "10", "1", "0"], "time": [730, 1113, 1939, 3238, 5065, 6097, 6298, 7933, 9716, 11815, 11921, 12079, 13748, 15065, 16998, 17897, 18230]}, "edge": {"target": [], "time": []}}}, "displayed_time": "27.88", "trialTime": 29927, "trial_type": "mouselab-mdp", "trial_index": 44, "time_elapsed": 2052332, "internal_node_id": "0.0-6.0-1.0-29.0"}}, {"uniqueid": "w72135886:a97663478", "current_trial": 45, "dateTime": 1693662369449, "trialdata": {"revealed_states": [], "clicked_states": ["1", "7", "4", "5", "12", "13", "14", "23"], "num_clicks_accrued": [0, 0, 0, 0, 0, 0, 0, 0, 0, 0, 0, 0, 0], "stateRewards": ["", 2, 3, -6, -5, -3, 55, 40, 11, 61, 11, 51, 2, -4, -6, 9, -25, 29, -15, -6, 7, -77, -2, -2, -4, 1, 14, -43, -1, 56, -12, -54, 41, -74], "withholdReward": false, "trial_id": "mdp_trial_31", "block": "test", "trialIndex": 34, "score": -35.2, "costs": -11.200000000000001, "simulationMode": [null, null, null, null, null], "rewards": [2, -4, -6, 9, -25], "path": ["0", "0", "12", "13", "14", "15", "16"], "rt": [26661, 791, 1334, 1727, 1182], "actions": ["right", "right", "right", "up", "up"], "actionTimes": [27929, 29236, 31077, 33304, 34991], "queries": {"click": {"state": {"target": ["1", "7", "4", "5", "12", "13", "14", "23"], "time": [2392, 5365, 7203, 9067, 12887, 14692, 16411, 18964]}, "edge": {"target": [], "time": []}}, "mouseover": {"state": {"target": ["1", "2", "1", "2", "7", "4", "5", "7", "0", "12", "13", "14", "23", "24", "1", "7", "7", "12", "22", "12"], "time": [1296, 1373, 1789, 3458, 5039, 6524, 8507, 10508, 11805, 12740, 14544, 16190, 17891, 19858, 21206, 22189, 22640, 23305, 25219, 25861]}, "edge": {"target": [], "time": []}}, "mouseout": {"state": {"target": ["0", "1", "2", "1", "2", "7", "4", "5", "4", "7", "0", "12", "13", "14", "23", "24", "23", "1", "7", "7", "12", "22", "12"], "time": [939, 1341, 1744, 2483, 4873, 6274, 8174, 10275, 10374, 10607, 12540, 14191, 15824, 17545, 19641, 20841, 20939, 21672, 22407, 23089, 23405, 25657, 27274]}, "edge": {"target": [], "time": []}}}, "displayed_time": "35.51", "trialTime": 37439, "trial_type": "mouselab-mdp", "trial_index": 45, "time_elapsed": 2090085, "internal_node_id": "0.0-6.0-1.0-30.0"}}, {"uniqueid": "w72135886:a97663478", "current_trial": 46, "dateTime": 1693662398289, "trialdata": {"revealed_states": [], "clicked_states": ["12", "1", "2", "23"], "num_clicks_accrued": [0, 0, 0, 0, 0, 0, 0, 0, 0, 0, 0, 0, 0], "stateRewards": ["", 2, -3, -4, -1, 25, -16, 16, 10, -71, -20, -55, 1, 3, -4, -9, 1, 32, 11, -6, 32, -50, -41, -1, 4, 4, -8, 7, -81, 70, 2, -52, 45, -10], "withholdReward": false, "trial_id": "mdp_trial_32", "block": "test", "trialIndex": 35, "score": -61.6, "costs": -5.6, "simulationMode": [null, null, null, null, null], "rewards": [1, 3, -4, -6, -50], "path": ["0", "0", "12", "13", "14", "19", "21"], "rt": [16208, 980, 1458, 2145, 767], "actions": ["right", "right", "right", "down", "down"], "actionTimes": [17847, 19331, 21291, 23929, 25201], "queries": {"click": {"state": {"target": ["12", "1", "2", "23"], "time": [3837, 6923, 9828, 12392]}, "edge": {"target": [], "time": []}}, "mouseover": {"state": {"target": ["1", "12", "13", "1", "2", "2", "3", "1", "23", "24", "31", "31"], "time": [2399, 3602, 5033, 6547, 7766, 9281, 10316, 11681, 12064, 13771, 14374, 15120]}, "edge": {"target": [], "time": []}}, "mouseout": {"state": {"target": ["1", "12", "13", "12", "1", "2", "1", "2", "3", "2", "1", "23", "24", "31", "31"], "time": [3382, 4750, 6315, 6399, 7467, 8766, 9180, 9954, 11614, 11649, 11699, 12984, 14337, 15098, 15138]}, "edge": {"target": [], "time": []}}}, "displayed_time": "25.70", "trialTime": 28525, "trial_type": "mouselab-mdp", "trial_index": 46, "time_elapsed": 2118926, "internal_node_id": "0.0-6.0-1.0-31.0"}}, {"uniqueid": "w72135886:a97663478", "current_trial": 47, "dateTime": 1693662433085, "trialdata": {"revealed_states": [], "clicked_states": ["1", "12", "14", "19", "21", "15"], "num_clicks_accrued": [0, 0, 0, 0, 0, 0, 0, 0, 0, 0, 0, 0, 0], "stateRewards": ["", 1, 1, -6, -2, 7, 77, 3, 16, -16, 66, 31, -1, 3, -8, -6, 33, -50, -48, 7, -60, -66, 36, 2, -3, 3, -7, -12, -61, -79, -4, 8, 74, -70], "withholdReward": false, "trial_id": "mdp_trial_33", "block": "test", "trialIndex": 36, "score": -73.4, "costs": -8.4, "simulationMode": [null, null, null, null, null], "rewards": [-1, 3, -8, 7, -66], "path": ["0", "0", "12", "13", "14", "19", "21"], "rt": [20731, 1321, 2479, 1136, 1224], "actions": ["right", "right", "right", "down", "down"], "actionTimes": [22004, 23830, 26805, 28443, 30182], "queries": {"click": {"state": {"target": ["1", "12", "14", "19", "21", "15"], "time": [2227, 4672, 7893, 10479, 13774, 15800]}, "edge": {"target": [], "time": []}}, "mouseover": {"state": {"target": ["1", "2", "0", "12", "13", "22", "14", "19", "15", "16", "15", "21", "21", "13", "15", "16", "12"], "time": [1939, 3058, 4338, 4476, 5557, 7062, 7257, 8925, 11025, 12072, 12222, 12855, 13622, 15225, 15423, 16442, 18422]}, "edge": {"target": [], "time": []}}, "mouseout": {"state": {"target": ["0", "1", "2", "1", "0", "12", "12", "13", "22", "14", "19", "14", "15", "16", "15", "14", "19", "21", "21", "13", "15", "16", "12"], "time": [938, 2808, 4090, 4173, 4356, 4766, 5443, 7059, 7082, 8791, 10632, 10807, 11892, 12183, 12256, 12338, 12805, 13088, 13867, 15241, 16307, 16992, 19090]}, "edge": {"target": [], "time": []}}}, "displayed_time": "30.68", "trialTime": 34460, "trial_type": "mouselab-mdp", "trial_index": 47, "time_elapsed": 2153722, "internal_node_id": "0.0-6.0-1.0-32.0"}}, {"uniqueid": "w72135886:a97663478", "current_trial": 48, "dateTime": 1693662457936, "trialdata": {"revealed_states": [], "clicked_states": ["12", "14", "23", "1", "2"], "num_clicks_accrued": [0, 0, 0, 0, 0, 0, 0, 0, 0, 0, 0, 0, 0], "stateRewards": ["", 1, 3, -2, 15, 51, 15, -19, 11, 67, -45, -73, 2, 4, -2, -13, 36, 9, -28, 10, -30, 31, 16, 1, 2, -1, -16, 14, -22, 36, -1, 88, -5, 45], "withholdReward": false, "trial_id": "mdp_trial_34", "block": "test", "trialIndex": 37, "score": 20, "costs": -7, "simulationMode": [null, null, null, null, null], "rewards": [2, 4, -2, -13, 36], "path": ["0", "0", "12", "13", "14", "15", "16"], "rt": [14899, 789, 1341, 1116, 1011], "actions": ["right", "right", "right", "up", "up"], "actionTimes": [16153, 17445, 19281, 20890, 22399], "queries": {"click": {"state": {"target": ["12", "14", "23", "1", "2"], "time": [2447, 5255, 7234, 9123, 10742]}, "edge": {"target": [], "time": []}}, "mouseover": {"state": {"target": ["1", "12", "12", "13", "14", "13", "23", "1", "2", "3", "12", "22"], "time": [1502, 1652, 2202, 3555, 5052, 6222, 7036, 8206, 10104, 12039, 13852, 15088]}, "edge": {"target": [], "time": []}}, "mouseout": {"state": {"target": ["0", "1", "12", "12", "13", "14", "13", "23", "23", "1", "2", "3", "2", "1", "12", "22"], "time": [968, 1553, 1687, 3390, 4869, 6071, 6704, 7607, 7939, 9903, 11758, 12752, 12902, 13086, 15036, 15186]}, "edge": {"target": [], "time": []}}}, "displayed_time": "22.89", "trialTime": 24526, "trial_type": "mouselab-mdp", "trial_index": 48, "time_elapsed": 2178573, "internal_node_id": "0.0-6.0-1.0-33.0"}}, {"uniqueid": "w72135886:a97663478", "current_trial": 49, "dateTime": 1693662480780, "trialdata": {"revealed_states": [], "clicked_states": ["1", "12", "14", "15"], "num_clicks_accrued": [0, 0, 0, 0, 0, 0, 0, 0, 0, 0, 0, 0, 0], "stateRewards": ["", -2, 2, 8, -6, -25, 3, 87, 2, -62, -2, 74, -2, -1, 2, -1, 79, 49, -37, -14, 5, 67, -9, -1, 2, -2, 5, 15, 38, 32, -14, -38, -38, 30], "withholdReward": false, "trial_id": "mdp_trial_35", "block": "test", "trialIndex": 38, "score": 71.4, "costs": -5.6, "simulationMode": [null, null, null, null, null], "rewards": [-2, -1, 2, -1, 79], "path": ["0", "0", "12", "13", "14", "15", "16"], "rt": [12930, 793, 1066, 1209, 932], "actions": ["right", "right", "right", "up", "up"], "actionTimes": [14473, 15765, 17339, 19056, 20486], "queries": {"click": {"state": {"target": ["1", "12", "14", "15"], "time": [2645, 4245, 6853, 8709]}, "edge": {"target": [], "time": []}}, "mouseover": {"state": {"target": ["0", "1", "12", "13", "14", "19", "15", "13", "22"], "time": [2047, 2346, 3849, 5300, 6447, 7515, 8497, 9034, 9633]}, "edge": {"target": [], "time": []}}, "mouseout": {"state": {"target": ["32", "30", "24", "0", "0", "1", "12", "12", "13", "14", "19", "14", "15", "13", "22"], "time": [579, 646, 713, 1880, 2097, 3499, 4323, 4717, 6314, 7365, 8282, 8368, 8905, 9133, 10497]}, "edge": {"target": [], "time": []}}}, "displayed_time": "20.98", "trialTime": 22479, "trial_type": "mouselab-mdp", "trial_index": 49, "time_elapsed": 2201417, "internal_node_id": "0.0-6.0-1.0-34.0"}}, {"uniqueid": "w72135886:a97663478", "current_trial": 50, "dateTime": 1693662501725, "trialdata": {"revealed_states": [], "clicked_states": ["1", "13"], "num_clicks_accrued": [0, 0, 0, 0, 0, 0, 0, 0, 0, 0, 0, 0, 0], "stateRewards": ["", -1, 2, -2, 5, 80, -61, -27, 12, 44, -26, -75, -2, -4, 1, -16, 42, -49, -50, 4, -44, 2, 80, -2, -2, 5, -2, 59, 10, 24, 7, -48, -86, -44], "withholdReward": false, "trial_id": "mdp_trial_36", "block": "test", "trialIndex": 39, "score": -1.8000000000000007, "costs": -2.8, "simulationMode": [null, null, null, null, null], "rewards": [-2, -4, 1, 4, 2], "path": ["0", "0", "12", "13", "14", "19", "21"], "rt": [11263, 777, 1172, 1046, 996], "actions": ["right", "right", "right", "down", "down"], "actionTimes": [12490, 13771, 15446, 16988, 18504], "queries": {"click": {"state": {"target": ["1", "13"], "time": [2452, 5842]}, "edge": {"target": [], "time": []}}, "mouseover": {"state": {"target": ["3", "4", "19", "22", "0", "1", "12", "13", "14", "19", "22"], "time": [1570, 1590, 1686, 1907, 2038, 2205, 3722, 5071, 6339, 7255, 10572]}, "edge": {"target": [], "time": []}}, "mouseout": {"state": {"target": ["0", "3", "4", "19", "22", "0", "1", "12", "13", "14", "19", "22"], "time": [1240, 1588, 1605, 1770, 1931, 2070, 3522, 4743, 6210, 7106, 7338, 10754]}, "edge": {"target": [], "time": []}}}, "displayed_time": "19.02", "trialTime": 20614, "trial_type": "mouselab-mdp", "trial_index": 50, "time_elapsed": 2222362, "internal_node_id": "0.0-6.0-1.0-35.0"}}, {"uniqueid": "w72135886:a97663478", "current_trial": 51, "dateTime": 1693662535090, "trialdata": {"revealed_states": [], "clicked_states": ["12", "13", "19", "15", "21", "1", "23"], "num_clicks_accrued": [0, 0, 0, 0, 0, 0, 0, 0, 0, 0, 0, 0, 0], "stateRewards": ["", -2, -3, 1, -7, 39, -67, 16, 5, -20, 73, 66, -1, 4, 5, -3, 23, -68, -87, -8, 3, -3, 17, 1, -4, -2, -13, -32, 34, 61, -5, -11, -18, 12], "withholdReward": false, "trial_id": "mdp_trial_37", "block": "test", "trialIndex": 40, "score": 18.2, "costs": -9.8, "simulationMode": [null, null, null, null, null], "rewards": [-1, 4, 5, -3, 23], "path": ["0", "0", "12", "13", "14", "15", "16"], "rt": [22022, 661, 2088, 1373, 984], "actions": ["right", "right", "right", "up", "up"], "actionTimes": [22939, 24111, 26704, 28590, 30084], "queries": {"click": {"state": {"target": ["12", "13", "19", "15", "21", "1", "23"], "time": [1821, 4017, 5728, 7357, 9372, 12620, 16786]}, "edge": {"target": [], "time": []}}, "mouseover": {"state": {"target": ["12", "13", "22", "13", "14", "19", "14", "15", "16", "14", "21", "0", "12", "1", "2", "12", "0", "23", "23", "0", "1", "0", "12"], "time": [1346, 2498, 3300, 3812, 4730, 5563, 6732, 7131, 8065, 8798, 9232, 10914, 12065, 12329, 13364, 14830, 14877, 15029, 16348, 18415, 18529, 19067, 20812]}, "edge": {"target": [], "time": []}}, "mouseout": {"state": {"target": ["0", "12", "13", "22", "13", "14", "19", "14", "15", "16", "15", "14", "19", "19", "21", "0", "12", "1", "2", "12", "0", "23", "23", "0", "1", "0", "12"], "time": [629, 2415, 3270, 3529, 4480, 5399, 6631, 6915, 7881, 8732, 8781, 8848, 8929, 9046, 9455, 11403, 12245, 13148, 13947, 14859, 14963, 16130, 16996, 18463, 19043, 19096, 21364]}, "edge": {"target": [], "time": []}}}, "displayed_time": "30.60", "trialTime": 33038, "trial_type": "mouselab-mdp", "trial_index": 51, "time_elapsed": 2255727, "internal_node_id": "0.0-6.0-1.0-36.0"}}, {"uniqueid": "w72135886:a97663478", "current_trial": 52, "dateTime": 1693662579751, "trialdata": {"revealed_states": [], "clicked_states": ["12", "18", "14", "19", "21", "23", "24", "1", "2", "13", "15"], "num_clicks_accrued": [0, 0, 0, 0, 0, 0, 0, 0, 0, 0, 0, 0, 0], "stateRewards": ["", -1, 4, -8, 12, 14, 69, -8, 5, -72, -14, 56, -1, -1, -1, 9, 67, 19, 11, -9, -88, -58, 3, 2, -4, -8, 4, 62, 77, -74, 5, -31, 65, 88], "withholdReward": false, "trial_id": "mdp_trial_38", "block": "test", "trialIndex": 41, "score": 57.599999999999994, "costs": -15.400000000000002, "simulationMode": [null, null, null, null, null], "rewards": [-1, -1, -1, 9, 67], "path": ["0", "0", "12", "13", "14", "15", "16"], "rt": [32435, 915, 2526, 1656, 918], "actions": ["right", "right", "right", "up", "up"], "actionTimes": [34199, 35613, 38657, 40806, 42217], "queries": {"click": {"state": {"target": ["12", "18", "14", "19", "21", "23", "24", "1", "2", "13", "15"], "time": [2797, 5378, 7012, 9962, 12552, 14820, 16557, 18285, 20498, 24110, 28415]}, "edge": {"target": [], "time": []}}, "mouseover": {"state": {"target": ["1", "12", "12", "13", "18", "15", "14", "15", "13", "12", "0", "12", "13", "19", "21", "14", "15", "23", "24", "0", "1", "12", "2", "12", "12", "13", "18", "22", "19", "14", "15", "18", "23", "23", "24", "24", "25", "31", "21", "21"], "time": [1977, 2177, 2446, 3563, 5094, 6149, 6696, 7763, 8610, 8695, 8860, 9295, 9361, 9610, 10547, 13178, 13512, 14527, 15631, 17379, 18046, 19246, 20294, 20995, 21578, 23962, 24962, 25795, 26796, 27846, 28011, 28663, 28746, 28963, 29446, 31512, 31546, 32043, 32344, 32610]}, "edge": {"target": [], "time": []}}, "mouseout": {"state": {"target": ["0", "1", "12", "12", "13", "18", "15", "14", "15", "13", "12", "0", "12", "13", "14", "19", "21", "19", "14", "15", "23", "24", "24", "23", "23", "0", "1", "1", "12", "1", "2", "12", "12", "13", "18", "13", "22", "19", "14", "15", "18", "23", "23", "24", "24", "25", "31", "21", "21"], "time": [964, 1995, 2194, 2885, 4627, 5978, 6629, 7646, 8445, 8660, 8743, 9245, 9327, 9448, 9561, 10497, 13095, 13145, 13245, 14156, 15413, 16582, 16762, 16830, 17279, 17963, 18318, 18779, 19312, 20145, 20778, 21112, 23712, 24829, 25546, 25661, 26011, 27481, 27879, 28646, 28680, 28763, 29046, 30078, 31539, 31565, 32060, 32362, 32628]}, "edge": {"target": [], "time": []}}}, "displayed_time": "42.72", "trialTime": 44347, "trial_type": "mouselab-mdp", "trial_index": 52, "time_elapsed": 2300388, "internal_node_id": "0.0-6.0-1.0-37.0"}}, {"uniqueid": "w72135886:a97663478", "current_trial": 53, "dateTime": 1693662619840, "trialdata": {"revealed_states": [], "clicked_states": ["1", "13", "14", "19", "15", "20", "12", "23"], "num_clicks_accrued": [0, 0, 0, 0, 0, 0, 0, 0, 0, 0, 0, 0, 0], "stateRewards": ["", 2, 4, 4, -8, -36, -33, 38, 16, -51, 57, 57, 1, 3, 4, -6, 45, 68, 87, 1, 63, 24, -55, -2, 2, -6, -13, -63, -50, 8, 2, 80, 6, 60], "withholdReward": false, "trial_id": "mdp_trial_39", "block": "test", "trialIndex": 42, "score": 35.8, "costs": -11.200000000000001, "simulationMode": [null, null, null, null, null], "rewards": [1, 3, 4, -6, 45], "path": ["0", "0", "12", "13", "14", "15", "16"], "rt": [30331, 710, 1439, 1284, 695], "actions": ["right", "right", "right", "up", "up"], "actionTimes": [31687, 32894, 34838, 36625, 37827], "queries": {"click": {"state": {"target": ["1", "13", "14", "19", "15", "20", "12", "23"], "time": [2574, 5864, 7892, 10779, 13399, 15431, 17932, 21357]}, "edge": {"target": [], "time": []}}, "mouseover": {"state": {"target": ["25", "25", "24", "23", "1", "12", "13", "14", "22", "14", "19", "19", "19", "21", "14", "15", "16", "20", "12", "12", "13", "23", "24", "1", "22", "12", "13", "22"], "time": [1447, 1847, 1930, 1980, 2295, 3597, 5217, 6433, 7315, 7599, 8600, 9769, 10629, 11502, 12613, 12729, 14048, 15313, 16247, 16697, 18782, 20612, 22164, 23263, 24596, 25379, 26346, 26916]}, "edge": {"target": [], "time": []}}, "mouseout": {"state": {"target": ["22", "0", "25", "25", "24", "23", "1", "12", "13", "14", "22", "14", "19", "19", "14", "14", "19", "19", "21", "19", "14", "15", "16", "15", "20", "12", "12", "13", "12", "23", "24", "1", "22", "12", "13", "22"], "time": [730, 1080, 1463, 1898, 1962, 2029, 3348, 4697, 6115, 6964, 7446, 8433, 9630, 9846, 9932, 10413, 10854, 11298, 12562, 12585, 12646, 13932, 14798, 14882, 15518, 16581, 18548, 20480, 20497, 22015, 22781, 24053, 24662, 26014, 26900, 26946]}, "edge": {"target": [], "time": []}}}, "displayed_time": "38.33", "trialTime": 39771, "trial_type": "mouselab-mdp", "trial_index": 53, "time_elapsed": 2340477, "internal_node_id": "0.0-6.0-1.0-38.0"}}, {"uniqueid": "w72135886:a97663478", "current_trial": 54, "dateTime": 1693662661334, "trialdata": {"revealed_states": [], "clicked_states": ["12", "13", "14", "15", "16", "19", "21"], "num_clicks_accrued": [0, 0, 0, 0, 0, 0, 0, 0, 0, 0, 0, 0, 0], "stateRewards": ["", 1, -1, 8, -3, 38, 85, -20, -4, 8, 23, 73, 2, -4, 6, -13, 44, 7, -28, -11, -77, 45, -69, 1, -1, -7, -11, 75, -51, -87, 7, 36, -53, -26], "withholdReward": false, "trial_id": "mdp_trial_40", "block": "test", "trialIndex": 43, "score": 25.2, "costs": -9.8, "simulationMode": [null, null, null, null, null], "rewards": [2, -4, 6, -13, 44], "path": ["0", "0", "12", "13", "14", "15", "16"], "rt": [29175, 789, 1153, 3812, 667], "actions": ["right", "right", "right", "up", "up"], "actionTimes": [30574, 31870, 33534, 37849, 39033], "queries": {"click": {"state": {"target": ["12", "13", "14", "15", "16", "19", "21"], "time": [2895, 5864, 8069, 10463, 13053, 16832, 19481]}, "edge": {"target": [], "time": []}}, "mouseover": {"state": {"target": ["23", "23", "0", "12", "13", "22", "22", "13", "19", "14", "14", "19", "15", "16", "16", "14", "19", "19", "19", "21", "22", "13", "12", "13", "22"], "time": [1510, 1778, 2095, 2578, 3579, 4627, 4963, 5178, 6562, 6828, 7164, 9096, 9893, 11329, 12360, 14061, 14261, 15854, 16293, 18443, 20802, 21843, 21877, 22861, 23861]}, "edge": {"target": [], "time": []}}, "mouseout": {"state": {"target": ["23", "0", "23", "23", "0", "12", "13", "22", "22", "13", "19", "14", "14", "19", "14", "15", "16", "16", "15", "14", "19", "19", "19", "19", "21", "22", "13", "12", "13", "22"], "time": [743, 1461, 1544, 1795, 2133, 3395, 4577, 4814, 5115, 6279, 6645, 7045, 8462, 9629, 9760, 11162, 12043, 13928, 14011, 14094, 15777, 15910, 17862, 18295, 20782, 20912, 21861, 22627, 23812, 24079]}, "edge": {"target": [], "time": []}}}, "displayed_time": "39.53", "trialTime": 41129, "trial_type": "mouselab-mdp", "trial_index": 54, "time_elapsed": 2381971, "internal_node_id": "0.0-6.0-1.0-39.0"}}, {"uniqueid": "w72135886:a97663478", "current_trial": 55, "dateTime": 1693662807399, "trialdata": {"rt": 146053, "response": {"Q0": "$-88 to $88", "Q1": "$-4 to $4", "Q2": "$-16 to $16", "Q3": "The cost for clicking on nodes varied between nodes.", "Q4": "Very motivated"}, "question_order": [0, 1, 2, 3, 4], "trial_id": "final_quiz_control", "trial_type": "survey-multi-choice", "trial_index": 55, "time_elapsed": 2528037, "internal_node_id": "0.0-6.0-2.0"}}, {"uniqueid": "w72135886:a97663478", "current_trial": 56, "dateTime": 1693663018553, "trialdata": {"rt": 211134, "response": {"Q0": "I worked my way from left to right. I checked the amount of ash i would gain/lose.", "Q1": "Yes, definitely. I tried harder to memorise the cash for each note and ensure i clicked on it, as necessary.", "Q2": "Yes. I had little choice about where i could move. This felt frustrating. I tried very hard to make my moves worthwhile an effective. "}, "trial_id": "self_report_control", "trial_type": "survey-text", "trial_index": 56, "time_elapsed": 2739191, "internal_node_id": "0.0-6.0-3.0"}}, {"uniqueid": "w72135886:a97663478", "current_trial": 57, "dateTime": 1693663112491, "trialdata": {"rt": 93934, "response": {"gender": "male", "age": "67", "colorblind": "0", "effort": "0"}, "trial_type": "survey-html-form", "trial_index": 57, "time_elapsed": 2833129, "internal_node_id": "0.0-6.0-4.0"}}, {"uniqueid": "w72135886:a97663478", "current_trial": 58, "dateTime": 1693663151878, "trialdata": {"rt": 39382, "response": {"Q0": "No", "Q1": "No.", "Q2": ""}, "trial_type": "survey-text", "trial_index": 58, "time_elapsed": 2872516, "internal_node_id": "0.0-6.0-5.0"}}, {"uniqueid": "w72135886:a97663478", "current_trial": 59, "dateTime": 1693663222710, "trialdata": {"rt": 70826, "stimulus": "<h1>Completion Code Instructions (1/2)</h1>\n<br><br><br><br>\nYou have reached the end of the experiment! The completion code consists of two parts: (1) a code with 2 characters (2) a code with 6 characters. On this page, you will receive the second part of the code. The first part of the completion code will be on the next page.\n<br><br>\nThe second part of your completion code is: <b>EWEK22</b>\n<br><br>\nPlease note this down. Then, press 'Next' in order to find the first part of your completion code. Once the data has been saved, you will receive this code either in this window or in the original browser window where you started the experiment.\n <br><br>\n<h2 style='color: red;'>Note: this is <strong>NOT</strong> the full completion code. Copy this down and click 'Next' to get the full completion code on the next page.</h2>", "response": 0, "trial_type": "html-button-response", "trial_index": 59, "time_elapsed": 2943347, "internal_node_id": "0.0-6.0-6.0"}}, {"uniqueid": "w72135886:a97663478", "current_trial": 60, "dateTime": 1693663223721, "trialdata": {"success": true, "trial_type": "fullscreen", "trial_index": 60, "time_elapsed": 2944358, "internal_node_id": "0.0-7.0"}}], "questiondata": {"params": {"CODE": "C6DMOQA6", "MIN_TIME": 14, "inspectCost": 1, "startTime": "Sat Sep 02 2023 14:11:18 GMT+0100 (British Summer Time)", "bonusRate": 0.002, "variance": "1_2_4_8_44", "branching": "31123"}, "final_score": 312}, "eventdata": [{"eventtype": "initialized", "value": null, "timestamp": 1693660278175, "interval": 0}, {"eventtype": "window_resize", "value": [1030, 695], "timestamp": 1693660278175, "interval": 0}, {"eventtype": "window_resize", "value": [1030, 695], "timestamp": 1693660278508, "interval": 333}, {"eventtype": "window_resize", "value": [1360, 765], "timestamp": 1693660282694, "interval": 4186}, {"eventtype": "focus", "value": "off", "timestamp": 1693660928197, "interval": 645503}, {"eventtype": "focus", "value": "on", "timestamp": 1693660928198, "interval": 1}, {"eventtype": "window_resize", "value": [1030, 695], "timestamp": 1693660928407, "interval": 209}, {"eventtype": "window_resize", "value": [1360, 765], "timestamp": 1693660932087, "interval": 3680}, {"eventtype": "window_resize", "value": [1030, 695], "timestamp": 1693661044835, "interval": 112748}, {"eventtype": "focus", "value": "off", "timestamp": 1693661052119, "interval": 7284}, {"eventtype": "focus", "value": "on", "timestamp": 1693661068699, "interval": 16580}, {"eventtype": "window_resize", "value": [1360, 706], "timestamp": 1693661070760, "interval": 2061}, {"eventtype": "focus", "value": "off", "timestamp": 1693661168837, "interval": 98077}, {"eventtype": "focus", "value": "on", "timestamp": 1693661216326, "interval": 47489}, {"eventtype": "focus", "value": "off", "timestamp": 1693662742932, "interval": 1526606}, {"eventtype": "focus", "value": "on", "timestamp": 1693662801990, "interval": 59058}, {"eventtype": "focus", "value": "off", "timestamp": 1693663044860, "interval": 242870}, {"eventtype": "focus", "value": "on", "timestamp": 1693663049602, "interval": 4742}, {"eventtype": "focus", "value": "off", "timestamp": 1693663170223, "interval": 120621}, {"eventtype": "focus", "value": "on", "timestamp": 1693663188668, "interval": 18445}], "useragent": "Mozilla/5.0 (Windows NT 10.0; Win64; x64) AppleWebKit/537.36 (KHTML, like Gecko) Chrome/115.0.0.0 Safari/537.36", "mode": "live", "id": "w72135886:a97663478", "status": "user data saved", "Beginhit": "2023-09-02 13:11:15.179909", "Beginexp": "2023-09-02 13:11:21.613373", "Endhit": "2023-09-02 14:00:22.398299", "psiturkStatus": 3, "browser": "<redacted>", "platform": "windows", "language": "en-GB"}