{"condition": 0, "counterbalance": 0, "assignmentId": "a70556300", "workerId": "w30325068", "hitId": "h80639847", "currenttrial": 55, "bonus": 0, "data": [{"uniqueid": "w30325068:a70556300", "current_trial": 0, "dateTime": 1693480718509, "trialdata": {"success": true, "trial_type": "fullscreen", "trial_index": 0, "time_elapsed": 11541, "internal_node_id": "0.0-0.0"}}, {"uniqueid": "w30325068:a70556300", "current_trial": 1, "dateTime": 1693480757205, "trialdata": {"view_history": [{"page_index": 0, "viewing_time": 38684}], "rt": 38686, "trial_id": "exp_instructions_control", "trial_type": "instructions", "trial_index": 1, "time_elapsed": 50237, "internal_node_id": "0.0-1.0"}}, {"uniqueid": "w30325068:a70556300", "current_trial": 2, "dateTime": 1693480971652, "trialdata": {"view_history": [{"page_index": 0, "viewing_time": 56494}, {"page_index": 1, "viewing_time": 75155}, {"page_index": 2, "viewing_time": 32589}, {"page_index": 3, "viewing_time": 50204}], "rt": 214444, "trial_id": "mouselab_instructions_1_control", "trial_type": "instructions", "trial_index": 2, "time_elapsed": 264684, "internal_node_id": "0.0-2.0-1.0"}}, {"uniqueid": "w30325068:a70556300", "current_trial": 3, "dateTime": 1693481009088, "trialdata": {"revealed_states": [], "clicked_states": ["3", "2", "24", "23", "1"], "num_clicks_accrued": [0, 0, 0, 0, 0, 0, 0, 0, 0, 0, 0, 0, 0], "stateRewards": ["", -10, -10, -10, 10, -10, -10, 10, 10, 10, -10, 10, 10, -10, -10, 10, 10, 10, 10, -10, 10, 10, 10, -10, -10, -10, -10, 10, -10, 10, 10, 10, -10, 10], "withholdReward": false, "trial_id": "practice_1", "block": "test", "trialIndex": 0, "score": -9, "costs": -2.5, "simulationMode": [null, null, null, null, null], "rewards": [-10, -10, -10, 10, 10], "path": ["0", "0", "1", "2", "3", "8", "9"], "rt": [16073, 1050, 721, 1161, 5704], "actions": ["up", "up", "up", "left", "up"], "actionTimes": [19901, 21456, 22677, 24348, 30562], "queries": {"click": {"state": {"target": ["3", "2", "24", "23", "1"], "time": [8091, 10895, 12961, 14362, 16745]}, "edge": {"target": [], "time": []}}, "mouseover": {"state": {"target": ["1", "2", "3", "2", "2", "2", "2", "1", "0", "23", "24", "25", "23", "22", "19", "22", "12", "1", "2", "1", "12", "12"], "time": [7105, 7274, 7416, 9555, 9820, 10108, 10389, 11569, 12071, 12203, 12337, 13674, 13818, 14988, 15069, 15270, 15420, 15722, 15871, 16289, 17545, 18189]}, "edge": {"target": [], "time": []}}, "mouseout": {"state": {"target": ["0", "1", "2", "3", "2", "2", "2", "2", "1", "0", "23", "24", "25", "24", "23", "22", "19", "22", "12", "1", "2", "1", "12", "12", "13", "18", "2", "8"], "time": [6987, 7204, 7387, 9523, 9571, 9836, 10188, 11436, 12003, 12127, 12306, 13613, 13736, 13785, 14884, 15006, 15239, 15352, 15538, 15784, 16203, 17527, 17563, 26401, 26639, 26722, 26789, 27005]}, "edge": {"target": [], "time": []}}}, "displayed_time": "31.05", "trialTime": 36387, "trial_type": "mouselab-mdp", "trial_index": 3, "time_elapsed": 302119, "internal_node_id": "0.0-2.0-2.0-0.0"}}, {"uniqueid": "w30325068:a70556300", "current_trial": 4, "dateTime": 1693481173938, "trialdata": {"revealed_states": [], "clicked_states": ["4", "12", "13", "14", "19", "21", "3", "2", "1", "9", "8", "5", "6", "25", "32", "30", "31"], "num_clicks_accrued": [0, 0, 0, 0, 0, 0, 0, 0, 0, 0, 0, 0, 0], "stateRewards": ["", -10, -10, -10, -10, -10, -10, -10, -10, 10, 10, -10, -10, 10, -10, 10, 10, -10, 10, -10, -10, 10, -10, 10, -10, 10, 10, 10, -10, -10, -10, 10, 10, -10], "withholdReward": false, "trial_id": "practice_2", "block": "test", "trialIndex": 1, "score": 5, "costs": -8.5, "simulationMode": [null, null, null, null, null], "rewards": [10, -10, 10, -10, 10], "path": ["0", "0", "23", "24", "25", "30", "32"], "rt": [32944, 583, 482, 315, 464], "actions": ["left", "left", "left", "down", "down"], "actionTimes": [35847, 36931, 37911, 38727, 39691], "queries": {"click": {"state": {"target": ["4", "12", "13", "14", "19", "21", "3", "2", "1", "9", "8", "5", "6", "25", "32", "30", "31"], "time": [4268, 5550, 7251, 9268, 10434, 11480, 12884, 13946, 14980, 16135, 18316, 21500, 24113, 28303, 29530, 31084, 33217]}, "edge": {"target": [], "time": []}}, "mouseover": {"state": {"target": ["7", "4", "5", "4", "7", "12", "13", "14", "13", "14", "14", "19", "19", "21", "13", "18", "7", "3", "2", "1", "9", "8", "11", "4", "5", "4", "6", "6", "6", "7", "2", "10", "26", "25", "30", "32", "32", "30", "31", "31", "23"], "time": [3377, 3395, 3415, 3729, 4742, 5072, 5888, 6580, 6892, 7528, 7839, 9677, 10031, 11093, 12142, 12162, 12197, 12292, 13348, 14535, 15537, 16543, 18895, 20331, 21007, 23092, 23125, 23591, 23729, 24545, 25693, 27407, 27607, 27944, 28643, 28710, 29111, 29876, 31511, 32791, 35125]}, "edge": {"target": [], "time": []}}, "mouseout": {"state": {"target": ["9", "8", "1", "0", "7", "4", "5", "4", "7", "12", "13", "14", "13", "14", "14", "19", "19", "21", "13", "18", "7", "3", "3", "2", "1", "2", "9", "8", "8", "11", "4", "5", "4", "6", "6", "6", "7", "2", "10", "26", "25", "30", "32", "32", "30", "31", "30", "31", "23", "0", "12"], "time": [1713, 1727, 1824, 1975, 3393, 3413, 3431, 4725, 4775, 5824, 6542, 6810, 7496, 7547, 9628, 9760, 10710, 11496, 12159, 12179, 12229, 12900, 13241, 14343, 15359, 15394, 16444, 18332, 18808, 19808, 20956, 21837, 23107, 23141, 23642, 24443, 25609, 27391, 27440, 27643, 28610, 28676, 28794, 29793, 31102, 32410, 32490, 33234, 35141, 108632, 108687]}, "edge": {"target": [], "time": []}}}, "displayed_time": "40.19", "trialTime": 164206, "trial_type": "mouselab-mdp", "trial_index": 4, "time_elapsed": 466969, "internal_node_id": "0.0-2.0-2.0-1.0"}}, {"uniqueid": "w30325068:a70556300", "current_trial": 5, "dateTime": 1693481275054, "trialdata": {"view_history": [{"page_index": 0, "viewing_time": 70030}, {"page_index": 1, "viewing_time": 31082}], "rt": 101113, "trial_id": "mouselab_instructions_2_control", "trial_type": "instructions", "trial_index": 5, "time_elapsed": 568086, "internal_node_id": "0.0-2.0-3.0"}}, {"uniqueid": "w30325068:a70556300", "current_trial": 6, "dateTime": 1693481387349, "trialdata": {"rt": 112388, "response": {"Q0": "The cost for clicking on nodes may vary between nodes.", "Q1": "The better I perform the higher my bonus will be.", "Q2": "No, the amount of cash at each node of the web may be different each time.", "Q3": "To get the highest total score.", "Q4": "Only before moving the spider.", "Q5": "3 seconds"}, "question_order": [0, 1, 2, 3, 4, 5], "correct": {"Q0": "The cost for clicking on nodes may vary between nodes.", "Q1": "The better I perform the higher my bonus will be.", "Q2": "No, the amount of cash at each node of the web may be different each time.", "Q3": "To get the highest total score.", "Q4": "Only before moving the spider.", "Q5": "3 seconds"}, "trial_id": "mouselab_quiz_control", "trial_type": "survey-multi-choice", "trial_index": 6, "time_elapsed": 680381, "internal_node_id": "0.0-2.0-4.0"}}, {"uniqueid": "w30325068:a70556300", "current_trial": 7, "dateTime": 1693481397170, "trialdata": {"rt": 9814, "response": {"Q0": "No"}, "question_order": [0], "trial_id": "repeat_check", "trial_type": "survey-multi-choice", "trial_index": 7, "time_elapsed": 690201, "internal_node_id": "0.0-4.0-0.0"}}, {"uniqueid": "w30325068:a70556300", "current_trial": 8, "dateTime": 1693481422955, "trialdata": {"rt": 25778, "stimulus": "\n<h1> Get ready to start the game! </h1>\n\nThank you for reading the instructions. Get ready start with the 40 rounds of this game.\n<br><br>\nIf you need to take a break, feel free to take one after the end of a round, before continuing to the next one.\n<br><br>\nRemember, the more money the spider gets, the bigger your bonus will be!\n<br><br>\n<div style='text-align: center;'>Press <code>space</code> to begin.</div>\n\n<br><br>\n(If, at any point, the <code>space</code> key does not take you to the next page, click once on the text and try again.)", "response": " ", "trial_id": "mdp_ready", "trial_type": "html-keyboard-response", "trial_index": 8, "time_elapsed": 715987, "internal_node_id": "0.0-6.0-0.0"}}, {"uniqueid": "w30325068:a70556300", "current_trial": 9, "dateTime": 1693481453416, "trialdata": {"revealed_states": [], "clicked_states": ["2", "25", "14", "3"], "num_clicks_accrued": [0, 0, 0, 0, 0, 0, 0, 0, 0, 0, 0, 0, 0], "stateRewards": ["", 2, -1, -2, -5, -47, -57, -33, -11, 31, -18, -72, -2, 1, -4, -8, -46, -53, -50, 15, -85, -9, 39, -2, -2, 1, 14, -1, -8, 53, -12, -41, -74, 62], "withholdReward": false, "trial_id": "mdp_trial_1", "block": "test", "trialIndex": 2, "score": 13.399999999999999, "costs": -5.6, "simulationMode": [null, null, null, null, null, null], "rewards": [2, -1, -2, -11, 31], "path": ["0", "0", "1", "2", "3", "8", "9"], "rt": [9568, 109, 996, 443, 111, 209], "actions": ["up", "up", "up", "up", "left", "up"], "actionTimes": [12690, 12802, 14301, 15248, 15873, 16584], "queries": {"click": {"state": {"target": ["2", "25", "14", "3"], "time": [4360, 6358, 8658, 11196]}, "edge": {"target": [], "time": []}}, "mouseover": {"state": {"target": ["1", "2", "2", "8", "10", "23", "31", "25", "23", "0", "20", "14", "14", "19", "21", "19", "7", "3"], "time": [3552, 3639, 4022, 5206, 5258, 5312, 5493, 6037, 6755, 6776, 6845, 7339, 8371, 9131, 9210, 9987, 10255, 10724]}, "edge": {"target": [], "time": []}}, "mouseout": {"state": {"target": ["12", "0", "1", "2", "2", "8", "10", "23", "31", "25", "23", "0", "20", "14", "14", "19", "21", "19", "14", "7", "3"], "time": [1452, 3223, 3603, 3851, 4771, 5225, 5276, 5332, 5542, 6736, 6774, 6795, 6864, 8039, 9092, 9171, 9969, 10007, 10041, 10469, 11650]}, "edge": {"target": [], "time": []}}}, "displayed_time": "17.12", "trialTime": 29731, "trial_type": "mouselab-mdp", "trial_index": 9, "time_elapsed": 746447, "internal_node_id": "0.0-6.0-1.0-0.0"}}, {"uniqueid": "w30325068:a70556300", "current_trial": 10, "dateTime": 1693481475690, "trialdata": {"revealed_states": [], "clicked_states": ["14"], "num_clicks_accrued": [0, 0, 0, 0, 0, 0, 0, 0, 0, 0, 0, 0, 0], "stateRewards": ["", -2, 1, -3, -16, -39, -52, 30, -7, -41, -59, 11, 2, 1, 8, 2, -11, -26, -42, -13, 87, -59, -48, -1, -1, -1, 16, -79, 31, 50, -1, -84, 34, -82], "withholdReward": false, "trial_id": "mdp_trial_2", "block": "test", "trialIndex": 3, "score": 0.5999999999999996, "costs": -1.4, "simulationMode": [null, null, null, null, null, null], "rewards": [2, 1, 8, 2, -11], "path": ["0", "0", "12", "13", "14", "15", "16"], "rt": [2790, 1053, 690, 591, 250, 480], "actions": ["right", "right", "right", "right", "up", "up"], "actionTimes": [4675, 5730, 6918, 7999, 8744, 9725], "queries": {"click": {"state": {"target": ["14"], "time": [3684]}, "edge": {"target": [], "time": []}}, "mouseover": {"state": {"target": ["12", "13", "14"], "time": [2441, 2659, 3143]}, "edge": {"target": [], "time": []}}, "mouseout": {"state": {"target": ["12", "0", "12", "13"], "time": [677, 2311, 2458, 3093]}, "edge": {"target": [], "time": []}}}, "displayed_time": "15.89", "trialTime": 21493, "trial_type": "mouselab-mdp", "trial_index": 10, "time_elapsed": 768722, "internal_node_id": "0.0-6.0-1.0-1.0"}}, {"uniqueid": "w30325068:a70556300", "current_trial": 11, "dateTime": 1693481499498, "trialdata": {"revealed_states": [], "clicked_states": [], "num_clicks_accrued": [0, 0, 0, 0, 0, 0, 0, 0, 0, 0, 0, 0, 0], "stateRewards": ["", 1, -3, -6, -5, 47, 80, -29, 11, -71, 10, -29, -2, 3, -6, 12, 2, -78, -6, 8, 34, -16, -5, -1, 3, 3, -13, 84, -36, -62, -3, -27, 66, 15], "withholdReward": false, "trial_id": "mdp_trial_3", "block": "test", "trialIndex": 4, "score": 68, "costs": 0, "simulationMode": [null, null, null, null, null], "rewards": [-1, 3, 3, -3, 66], "path": ["0", "0", "23", "24", "25", "30", "32"], "rt": [2257, 540, 332, 349, 451], "actions": ["left", "left", "left", "down", "down"], "actionTimes": [4753, 5803, 6647, 7496, 8447], "queries": {"click": {"state": {"target": [], "time": []}, "edge": {"target": [], "time": []}}, "mouseover": {"state": {"target": ["1"], "time": [3081]}, "edge": {"target": [], "time": []}}, "mouseout": {"state": {"target": ["14", "0"], "time": [1226, 1762]}, "edge": {"target": [], "time": []}}}, "displayed_time": "16.50", "trialTime": 23032, "trial_type": "mouselab-mdp", "trial_index": 11, "time_elapsed": 792529, "internal_node_id": "0.0-6.0-1.0-2.0"}}, {"uniqueid": "w30325068:a70556300", "current_trial": 12, "dateTime": 1693481518650, "trialdata": {"revealed_states": [], "clicked_states": ["26"], "num_clicks_accrued": [0, 0, 0, 0, 0, 0, 0, 0, 0, 0, 0, 0, 0], "stateRewards": ["", -2, -1, -3, -1, -78, -6, 2, -1, 22, -88, 32, 2, 2, -7, -8, -51, -17, 54, 2, -44, 54, 75, 2, -2, -8, -15, -29, 12, -67, 15, -1, -47, -47], "withholdReward": false, "trial_id": "mdp_trial_4", "block": "test", "trialIndex": 5, "score": -86.4, "costs": -1.4, "simulationMode": [null, null, null, null, null, null], "rewards": [-2, -1, -3, -1, -78], "path": ["0", "0", "1", "2", "3", "4", "5"], "rt": [3153, 5735, 912, 312, 82, 212], "actions": ["left", "up", "up", "up", "right", "up"], "actionTimes": [5340, 11078, 12499, 13312, 13903, 14617], "queries": {"click": {"state": {"target": ["26"], "time": [4025]}, "edge": {"target": [], "time": []}}, "mouseover": {"state": {"target": ["28", "26", "11", "9", "4", "7", "18", "15", "15", "15", "13"], "time": [3431, 3615, 7682, 7731, 7883, 7947, 8131, 8184, 8483, 8917, 10133]}, "edge": {"target": [], "time": []}}, "mouseout": {"state": {"target": ["1", "12", "28", "26", "11", "9", "4", "7", "18", "15", "15", "15", "13"], "time": [1131, 1265, 3447, 7616, 7700, 7783, 7931, 8000, 8166, 8212, 8532, 10016, 10150]}, "edge": {"target": [], "time": []}}}, "displayed_time": "16.20", "trialTime": 18388, "trial_type": "mouselab-mdp", "trial_index": 12, "time_elapsed": 811682, "internal_node_id": "0.0-6.0-1.0-3.0"}}, {"uniqueid": "w30325068:a70556300", "current_trial": 13, "dateTime": 1693481539981, "trialdata": {"revealed_states": [], "clicked_states": ["27"], "num_clicks_accrued": [0, 0, 0, 0, 0, 0, 0, 0, 0, 0, 0, 0, 0], "stateRewards": ["", 1, 1, -5, 10, -31, 73, 14, -8, -23, 63, -70, -1, 2, 8, 7, 25, -59, 27, -10, -40, -71, -15, -2, 3, -8, -5, -19, 77, -34, 7, 67, 63, 19], "withholdReward": false, "trial_id": "mdp_trial_5", "block": "test", "trialIndex": 6, "score": -32.4, "costs": -1.4, "simulationMode": [null, null, null, null, null], "rewards": [-2, 3, -8, -5, -19], "path": ["0", "0", "23", "24", "25", "26", "27"], "rt": [5582, 911, 264, 512, 353], "actions": ["left", "left", "left", "up", "up"], "actionTimes": [7359, 8772, 9545, 10564, 11418], "queries": {"click": {"state": {"target": ["27"], "time": [2801]}, "edge": {"target": [], "time": []}}, "mouseover": {"state": {"target": ["23", "24", "26", "27", "30"], "time": [1928, 2043, 2129, 2394, 3810]}, "edge": {"target": [], "time": []}}, "mouseout": {"state": {"target": ["13", "14", "19", "0", "0", "23", "24", "26", "27", "30", "32", "20"], "time": [243, 308, 395, 709, 1861, 1994, 2095, 2145, 3512, 19564, 19879, 20014]}, "edge": {"target": [], "time": []}}}, "displayed_time": "15.79", "trialTime": 20577, "trial_type": "mouselab-mdp", "trial_index": 13, "time_elapsed": 833010, "internal_node_id": "0.0-6.0-1.0-4.0"}}, {"uniqueid": "w30325068:a70556300", "current_trial": 14, "dateTime": 1693481577961, "trialdata": {"revealed_states": [], "clicked_states": [], "num_clicks_accrued": [0, 0, 0, 0, 0, 0, 0, 0, 0, 0, 0, 0, 0], "stateRewards": ["", 1, -2, -8, -13, 4, 34, -84, -4, -49, 88, -70, -1, 3, -4, 10, -77, 13, -34, 15, -21, -16, 27, 1, -2, 8, -8, -6, 38, -26, 6, -15, 66, -3], "withholdReward": false, "trial_id": "mdp_trial_6", "block": "test", "trialIndex": 7, "score": -62, "costs": 0, "simulationMode": [null, null, null, null, null], "rewards": [1, -2, -8, -4, -49], "path": ["0", "0", "1", "2", "3", "8", "9"], "rt": [1379, 524, 303, 525, 176], "actions": ["up", "up", "up", "left", "up"], "actionTimes": [2780, 3806, 4605, 5623, 6301], "queries": {"click": {"state": {"target": [], "time": []}, "edge": {"target": [], "time": []}}, "mouseover": {"state": {"target": ["12", "12"], "time": [1781, 1950]}, "edge": {"target": [], "time": []}}, "mouseout": {"state": {"target": ["0", "12", "12", "0", "10", "3", "8", "8", "11", "27", "29", "26", "4", "6", "7", "1"], "time": [698, 1866, 1997, 11164, 11532, 11732, 11781, 12749, 12784, 12833, 35011, 35202, 35319, 35418, 35519, 35634]}, "edge": {"target": [], "time": []}}}, "displayed_time": "15.41", "trialTime": 37127, "trial_type": "mouselab-mdp", "trial_index": 14, "time_elapsed": 870991, "internal_node_id": "0.0-6.0-1.0-5.0"}}, {"uniqueid": "w30325068:a70556300", "current_trial": 15, "dateTime": 1693481614123, "trialdata": {"revealed_states": [], "clicked_states": ["8", "4", "14", "19", "21", "30"], "num_clicks_accrued": [0, 0, 0, 0, 0, 0, 0, 0, 0, 0, 0, 0, 0], "stateRewards": ["", -2, -3, -5, 8, 27, 11, 43, -6, -24, -87, 69, -2, 1, 1, 9, 19, 48, -37, 9, -14, 45, 62, 1, 2, 1, 16, -81, -41, 22, 4, -6, -63, 47], "withholdReward": false, "trial_id": "mdp_trial_7", "block": "test", "trialIndex": 8, "score": 45.6, "costs": -8.4, "simulationMode": [null, null, null, null, null], "rewards": [-2, 1, 1, 9, 45], "path": ["0", "0", "12", "13", "14", "19", "21"], "rt": [14799, 918, 396, 303, 356], "actions": ["right", "right", "right", "down", "down"], "actionTimes": [16140, 17553, 18452, 19252, 20111], "queries": {"click": {"state": {"target": ["8", "4", "14", "19", "21", "30"], "time": [2959, 4775, 7375, 9642, 11860, 13726]}, "edge": {"target": [], "time": []}}, "mouseover": {"state": {"target": ["0", "15", "17", "15", "7", "2", "3", "8", "4", "4", "18", "14", "14", "19", "21", "13", "1", "23", "31", "30", "25"], "time": [1586, 1963, 2117, 2152, 2216, 2234, 2450, 2598, 3273, 3534, 6700, 6747, 6998, 7917, 10127, 12483, 12901, 12959, 13040, 13386, 14504]}, "edge": {"target": [], "time": []}}, "mouseout": {"state": {"target": ["1", "1", "0", "15", "17", "15", "7", "2", "3", "8", "4", "4", "18", "14", "14", "19", "21", "13", "1", "23", "31", "30"], "time": [66, 385, 1917, 1979, 2134, 2182, 2231, 2265, 2549, 3239, 3306, 6651, 6718, 6797, 7883, 10105, 12398, 12548, 12922, 12976, 13122, 13742]}, "edge": {"target": [], "time": []}}}, "displayed_time": "20.62", "trialTime": 35255, "trial_type": "mouselab-mdp", "trial_index": 15, "time_elapsed": 907153, "internal_node_id": "0.0-6.0-1.0-6.0"}}, {"uniqueid": "w30325068:a70556300", "current_trial": 16, "dateTime": 1693481658964, "trialdata": {"revealed_states": [], "clicked_states": ["26", "32", "19", "14", "4", "5", "9", "8"], "num_clicks_accrued": [0, 0, 0, 0, 0, 0, 0, 0, 0, 0, 0, 0, 0], "stateRewards": ["", -1, 2, 7, 8, 75, 67, -11, 6, 52, -17, 38, -1, 4, -8, 14, 74, -37, -17, -12, 52, 55, 71, -2, -1, -5, 2, 21, 6, -88, -14, 64, -61, -47], "withholdReward": false, "trial_id": "mdp_trial_8", "block": "test", "trialIndex": 9, "score": 79.8, "costs": -11.200000000000001, "simulationMode": [null, null, null, null, null], "rewards": [-1, 2, 7, 8, 75], "path": ["0", "0", "1", "2", "3", "4", "5"], "rt": [16722, 965, 292, 671, 170], "actions": ["up", "up", "up", "right", "up"], "actionTimes": [18640, 20116, 20910, 22071, 22750], "queries": {"click": {"state": {"target": ["26", "32", "19", "14", "4", "5", "9", "8"], "time": [2943, 4859, 7359, 8944, 11277, 12927, 14726, 16343]}, "edge": {"target": [], "time": []}}, "mouseover": {"state": {"target": ["28", "26", "25", "30", "32", "30", "22", "20", "19", "14", "13", "10", "8", "3", "4", "5", "9", "9", "8"], "time": [2333, 2466, 3251, 3294, 3851, 5288, 6449, 6534, 6934, 7806, 9387, 9490, 9592, 10489, 10652, 11648, 13269, 13584, 15118]}, "edge": {"target": [], "time": []}}, "mouseout": {"state": {"target": ["1", "28", "26", "26", "25", "30", "32", "30", "22", "20", "19", "14", "13", "10", "8", "3", "4", "5", "9", "9", "8", "3", "6"], "time": [1036, 2401, 2964, 3232, 3290, 3456, 5185, 6069, 6485, 6682, 7670, 9385, 9423, 9509, 10487, 10535, 11598, 13200, 13390, 15047, 24589, 24606, 24652]}, "edge": {"target": [], "time": []}}}, "displayed_time": "23.25", "trialTime": 43960, "trial_type": "mouselab-mdp", "trial_index": 16, "time_elapsed": 951994, "internal_node_id": "0.0-6.0-1.0-7.0"}}, {"uniqueid": "w30325068:a70556300", "current_trial": 17, "dateTime": 1693481707170, "trialdata": {"revealed_states": [], "clicked_states": ["8", "9", "5", "16", "20", "32", "33", "19", "22", "25", "27", "11", "6"], "num_clicks_accrued": [0, 0, 0, 0, 0, 0, 0, 0, 0, 0, 0, 0, 0], "stateRewards": ["", 2, 3, -1, 6, 44, -4, -59, -14, -3, 64, 16, 1, -3, 3, 6, 3, 49, 19, 3, -49, -14, -86, 1, 2, -3, -8, -33, 14, 32, -13, -77, -47, -67], "withholdReward": false, "trial_id": "mdp_trial_9", "block": "test", "trialIndex": 10, "score": -78.2, "costs": -18.2, "simulationMode": [null, null, null, null, null], "rewards": [1, 2, -3, -13, -47], "path": ["0", "0", "23", "24", "25", "30", "32"], "rt": [29255, 840, 298, 209, 418], "actions": ["left", "left", "left", "down", "down"], "actionTimes": [31159, 32501, 33303, 34015, 34947], "queries": {"click": {"state": {"target": ["8", "9", "5", "16", "20", "32", "33", "19", "22", "25", "27", "11", "6"], "time": [3146, 5462, 7178, 9411, 11328, 13511, 15378, 17528, 19195, 20929, 23412, 26129, 27896]}, "edge": {"target": [], "time": []}}, "mouseover": {"state": {"target": ["28", "8", "3", "4", "5", "9", "5", "5", "4", "18", "15", "16", "17", "14", "19", "21", "20", "21", "32", "33", "30", "12", "13", "19", "22", "22", "31", "25", "26", "29", "27", "11", "9", "5", "3", "8", "11", "3", "4", "7", "6"], "time": [2387, 2753, 3466, 3504, 3844, 5137, 5759, 6007, 7624, 7701, 7820, 7941, 9959, 10557, 10578, 10798, 10887, 11992, 13171, 14026, 15860, 15947, 16147, 16409, 17953, 18243, 20003, 20308, 21609, 21990, 22971, 23903, 23958, 25461, 25587, 25639, 25706, 26792, 26993, 27066, 27289]}, "edge": {"target": [], "time": []}}, "mouseout": {"state": {"target": ["14", "1", "0", "0", "28", "8", "3", "4", "5", "9", "5", "5", "4", "18", "15", "16", "17", "14", "19", "21", "20", "21", "32", "33", "30", "12", "13", "19", "22", "22", "31", "25", "26", "29", "27", "11", "9", "5", "3", "8", "11", "3", "4", "7", "6"], "time": [369, 833, 867, 2035, 2417, 3434, 3485, 3740, 4654, 5708, 5778, 7605, 7678, 7766, 7887, 9803, 10537, 10575, 10597, 10831, 11708, 12636, 13926, 15841, 15901, 16114, 16202, 17933, 18009, 19724, 20040, 21523, 21835, 22853, 23851, 23921, 23977, 25506, 25622, 25655, 26738, 26867, 27014, 27084, 28790]}, "edge": {"target": [], "time": []}}}, "displayed_time": "35.47", "trialTime": 47365, "trial_type": "mouselab-mdp", "trial_index": 17, "time_elapsed": 1000200, "internal_node_id": "0.0-6.0-1.0-8.0"}}, {"uniqueid": "w30325068:a70556300", "current_trial": 18, "dateTime": 1693481744886, "trialdata": {"revealed_states": [], "clicked_states": ["9", "5", "17", "21", "32", "29", "27"], "num_clicks_accrued": [0, 0, 0, 0, 0, 0, 0, 0, 0, 0, 0, 0, 0], "stateRewards": ["", 1, 1, 7, -11, 80, -20, -53, -14, 3, 31, 27, 2, -1, -8, -10, 33, 41, 86, 9, 78, -37, -13, -1, -2, -6, -8, -80, 75, 4, -16, -49, -74, 24], "withholdReward": false, "trial_id": "mdp_trial_10", "block": "test", "trialIndex": 11, "score": 68.2, "costs": -9.8, "simulationMode": [null, null, null, null, null], "rewards": [1, 1, 7, -11, 80], "path": ["0", "0", "1", "2", "3", "4", "5"], "rt": [16136, 399, 237, 212, 138], "actions": ["up", "up", "up", "right", "up"], "actionTimes": [19604, 20510, 21254, 21982, 22630], "queries": {"click": {"state": {"target": ["9", "5", "17", "21", "32", "29", "27"], "time": [4551, 6435, 9035, 11368, 13247, 15534, 17418]}, "edge": {"target": [], "time": []}}, "mouseover": {"state": {"target": ["11", "9", "5", "5", "6", "15", "17", "20", "21", "32", "30", "25", "29", "26", "28", "2", "4", "5", "8", "26", "28", "27", "27"], "time": [3925, 4125, 5009, 5297, 6890, 7044, 7443, 9510, 9822, 12215, 13836, 13888, 14296, 15969, 16041, 16145, 16191, 16309, 16365, 16421, 16650, 16799, 17162]}, "edge": {"target": [], "time": []}}, "mouseout": {"state": {"target": ["21", "22", "0", "11", "9", "5", "5", "6", "15", "17", "20", "21", "32", "30", "25", "29", "26", "28", "2", "4", "5", "8", "26", "28", "27", "27"], "time": [1057, 1193, 1527, 3973, 4709, 5063, 6872, 6912, 7192, 9456, 9530, 11746, 13798, 13854, 13912, 15952, 16005, 16058, 16189, 16223, 16327, 16382, 16599, 16762, 16897, 17565]}, "edge": {"target": [], "time": []}}}, "displayed_time": "23.13", "trialTime": 36834, "trial_type": "mouselab-mdp", "trial_index": 18, "time_elapsed": 1037916, "internal_node_id": "0.0-6.0-1.0-9.0"}}, {"uniqueid": "w30325068:a70556300", "current_trial": 19, "dateTime": 1693481781592, "trialdata": {"revealed_states": [], "clicked_states": ["4", "5", "9", "32", "21", "20", "33", "31", "28", "29"], "num_clicks_accrued": [0, 0, 0, 0, 0, 0, 0, 0, 0, 0, 0, 0, 0], "stateRewards": ["", 1, -1, -7, -7, -22, 15, -13, 13, 26, -32, 38, -1, 1, -7, -4, 16, -62, 86, 12, -54, 56, 64, -2, -1, 6, 14, -57, 37, 62, -6, -25, 50, -70], "withholdReward": false, "trial_id": "mdp_trial_11", "block": "test", "trialIndex": 12, "score": 47, "costs": -14.000000000000002, "simulationMode": [null, null, null, null, null], "rewards": [-1, 1, -7, 12, 56], "path": ["0", "0", "12", "13", "14", "19", "21"], "rt": [21023, 1721, 321, 662, 433], "actions": ["right", "right", "right", "down", "down"], "actionTimes": [24146, 26379, 27195, 28351, 29289], "queries": {"click": {"state": {"target": ["4", "5", "9", "32", "21", "20", "33", "31", "28", "29"], "time": [4449, 6080, 8397, 10997, 13180, 14848, 16593, 18248, 20448, 22248]}, "edge": {"target": [], "time": []}}, "mouseover": {"state": {"target": ["4", "5", "11", "9", "32", "32", "22", "21", "20", "29", "33", "30", "31", "31", "25", "29", "27", "28", "26", "29", "29", "24", "23", "0", "12", "13", "14"], "time": [4006, 4789, 6643, 7124, 9644, 10689, 11594, 11896, 13659, 15460, 16158, 17061, 17102, 17530, 18840, 18876, 19157, 20090, 20880, 20912, 21151, 22824, 22844, 22867, 22888, 22910, 22930]}, "edge": {"target": [], "time": []}}, "mouseout": {"state": {"target": ["1", "0", "4", "5", "11", "9", "32", "32", "22", "21", "20", "29", "33", "30", "31", "31", "25", "29", "27", "28", "26", "29", "29", "24", "23", "0", "12", "13", "14"], "time": [1620, 3687, 4737, 6238, 6677, 8906, 10125, 11356, 11662, 13332, 15053, 15483, 17039, 17079, 17157, 18786, 18858, 18896, 19923, 20842, 20910, 21063, 22777, 22842, 22864, 22886, 22907, 22928, 22950]}, "edge": {"target": [], "time": []}}}, "displayed_time": "29.79", "trialTime": 35850, "trial_type": "mouselab-mdp", "trial_index": 19, "time_elapsed": 1074622, "internal_node_id": "0.0-6.0-1.0-10.0"}}, {"uniqueid": "w30325068:a70556300", "current_trial": 20, "dateTime": 1693481819630, "trialdata": {"revealed_states": [], "clicked_states": ["9", "5", "20", "17", "21", "32", "33"], "num_clicks_accrued": [0, 0, 0, 0, 0, 0, 0, 0, 0, 0, 0, 0, 0], "stateRewards": ["", 1, -1, 4, -2, -75, -75, 84, -9, -60, -79, 59, 2, -4, 8, 9, -17, -82, 80, 14, -4, 49, 49, -1, 3, 6, -11, -33, 34, 55, 9, -57, 5, 59], "withholdReward": false, "trial_id": "mdp_trial_12", "block": "test", "trialIndex": 13, "score": 66.2, "costs": -9.8, "simulationMode": [null, null, null, null, null], "rewards": [-1, 3, 6, 9, 59], "path": ["0", "0", "23", "24", "25", "30", "33"], "rt": [18454, 386, 305, 369, 245], "actions": ["left", "left", "left", "down", "left"], "actionTimes": [21100, 21983, 22786, 23670, 24424], "queries": {"click": {"state": {"target": ["9", "5", "20", "17", "21", "32", "33"], "time": [3954, 6485, 9536, 11337, 13234, 15820, 18254]}, "edge": {"target": [], "time": []}}, "mouseover": {"state": {"target": ["1", "2", "3", "9", "5", "5", "16", "17", "20", "20", "17", "21", "21", "32", "33"], "time": [3126, 3180, 3244, 3561, 4408, 6095, 6952, 7130, 9026, 9197, 10142, 11784, 12143, 13964, 16442]}, "edge": {"target": [], "time": []}}, "mouseout": {"state": {"target": ["22", "12", "1", "2", "3", "9", "5", "5", "16", "17", "20", "20", "17", "17", "21", "21", "32"], "time": [1425, 1607, 3161, 3228, 3313, 4330, 5780, 6861, 6979, 8827, 9043, 9959, 11475, 11728, 11805, 13767, 16243]}, "edge": {"target": [], "time": []}}}, "displayed_time": "24.93", "trialTime": 37158, "trial_type": "mouselab-mdp", "trial_index": 20, "time_elapsed": 1112659, "internal_node_id": "0.0-6.0-1.0-11.0"}}, {"uniqueid": "w30325068:a70556300", "current_trial": 21, "dateTime": 1693481851331, "trialdata": {"revealed_states": [], "clicked_states": ["9", "5", "17", "20", "21", "32", "33"], "num_clicks_accrued": [0, 0, 0, 0, 0, 0, 0, 0, 0, 0, 0, 0, 0], "stateRewards": ["", -1, 3, -5, -2, -13, -9, -34, -7, -81, 32, 35, -2, -2, 1, -14, -32, 81, 7, 4, 82, 56, -8, -1, 3, -8, 6, -24, -24, -53, 2, 38, 61, 54], "withholdReward": false, "trial_id": "mdp_trial_13", "block": "test", "trialIndex": 14, "score": 47.2, "costs": -9.8, "simulationMode": [null, null, null, null, null], "rewards": [-2, -2, 1, 4, 56], "path": ["0", "0", "12", "13", "14", "19", "21"], "rt": [18269, 532, 412, 272, 486], "actions": ["right", "right", "right", "down", "down"], "actionTimes": [21604, 22656, 23568, 24342, 25327], "queries": {"click": {"state": {"target": ["9", "5", "17", "20", "21", "32", "33"], "time": [4730, 6595, 9011, 11153, 14379, 17112, 19062]}, "edge": {"target": [], "time": []}}, "mouseover": {"state": {"target": ["1", "10", "8", "9", "5", "17", "20", "21", "32", "33", "14"], "time": [3956, 4052, 4135, 4323, 5430, 7366, 9690, 11927, 15313, 17652, 19792]}, "edge": {"target": [], "time": []}}, "mouseout": {"state": {"target": ["33", "0", "23", "0", "1", "10", "8", "9", "5", "17", "17", "20", "21", "32", "33", "14"], "time": [1368, 2088, 2321, 2367, 4004, 4087, 4239, 5054, 6972, 9153, 9392, 11668, 14860, 17556, 19686, 19812]}, "edge": {"target": [], "time": []}}}, "displayed_time": "25.83", "trialTime": 30782, "trial_type": "mouselab-mdp", "trial_index": 21, "time_elapsed": 1144361, "internal_node_id": "0.0-6.0-1.0-12.0"}}, {"uniqueid": "w30325068:a70556300", "current_trial": 22, "dateTime": 1693481883677, "trialdata": {"revealed_states": [], "clicked_states": ["9", "5", "17", "16", "20", "21", "32", "33", "27", "29"], "num_clicks_accrued": [0, 0, 0, 0, 0, 0, 0, 0, 0, 0, 0, 0, 0], "stateRewards": ["", -1, -3, -6, 14, 41, 18, 63, -14, 80, 21, 17, -2, -4, -2, -5, 13, 70, 8, -4, -64, -10, -20, 2, -1, 4, -1, -17, -55, 42, -7, 47, 54, 15], "withholdReward": false, "trial_id": "mdp_trial_14", "block": "test", "trialIndex": 15, "score": 42, "costs": -14.000000000000002, "simulationMode": [null, null, null, null, null], "rewards": [-1, -3, -6, -14, 80], "path": ["0", "0", "1", "2", "3", "8", "9"], "rt": [21075, 392, 203, 429, 246], "actions": ["up", "up", "up", "left", "up"], "actionTimes": [23588, 24457, 25168, 26093, 26846], "queries": {"click": {"state": {"target": ["9", "5", "17", "16", "20", "21", "32", "33", "27", "29"], "time": [3724, 5706, 7606, 9473, 11723, 13690, 15623, 17373, 19056, 21357]}, "edge": {"target": [], "time": []}}, "mouseover": {"state": {"target": ["10", "9", "5", "17", "15", "16", "20", "19", "21", "20", "21", "32", "33", "25", "26", "27", "29", "26", "28", "23"], "time": [2981, 3398, 4437, 6494, 8170, 8436, 10560, 10651, 10746, 11396, 12276, 14617, 16240, 18237, 18378, 18512, 19784, 21766, 21832, 21952]}, "edge": {"target": [], "time": []}}, "mouseout": {"state": {"target": ["12", "10", "9", "5", "17", "15", "16", "16", "17", "20", "19", "21", "20", "21", "32", "33", "25", "26", "27", "29", "26", "28", "23"], "time": [1177, 2998, 4083, 5894, 8116, 8260, 9665, 10354, 10432, 10596, 10673, 10861, 12097, 14146, 16113, 18116, 18341, 18456, 19669, 21746, 21786, 21886, 30315]}, "edge": {"target": [], "time": []}}}, "displayed_time": "27.35", "trialTime": 31403, "trial_type": "mouselab-mdp", "trial_index": 22, "time_elapsed": 1176707, "internal_node_id": "0.0-6.0-1.0-13.0"}}, {"uniqueid": "w30325068:a70556300", "current_trial": 23, "dateTime": 1693481923479, "trialdata": {"revealed_states": [], "clicked_states": ["9", "11", "5", "6", "10", "7", "29", "27", "33", "32", "21", "20", "16", "17"], "num_clicks_accrued": [0, 0, 0, 0, 0, 0, 0, 0, 0, 0, 0, 0, 0], "stateRewards": ["", -2, 3, 8, -9, 59, 41, -50, -1, 82, 66, 33, 2, -2, 7, 8, 1, -38, 12, -16, 24, -37, 67, 1, 4, -2, 5, 35, -83, 28, 8, -27, 69, -64], "withholdReward": false, "trial_id": "mdp_trial_15", "block": "test", "trialIndex": 16, "score": 70.4, "costs": -19.599999999999998, "simulationMode": [null, null, null, null, null], "rewards": [-2, 3, 8, -1, 82], "path": ["0", "0", "1", "2", "3", "8", "9"], "rt": [28713, 415, 456, 12, 168], "actions": ["up", "up", "up", "left", "up"], "actionTimes": [30926, 31848, 32798, 33305, 33999], "queries": {"click": {"state": {"target": ["9", "11", "5", "6", "10", "7", "29", "27", "33", "32", "21", "20", "16", "17"], "time": [3451, 5317, 7149, 8967, 10550, 12317, 14734, 16549, 18450, 20234, 22097, 23950, 25818, 27852]}, "edge": {"target": [], "time": []}}, "mouseover": {"state": {"target": ["1", "10", "8", "9", "11", "11", "26", "5", "6", "7", "10", "2", "7", "2", "28", "25", "29", "27", "31", "32", "33", "32", "22", "20", "21", "21", "20", "16", "17", "15", "18", "1", "27", "10", "1", "0", "1"], "time": [2375, 2505, 2655, 3055, 4048, 4509, 5903, 6850, 7681, 9490, 10144, 10962, 11083, 13047, 13237, 13977, 14407, 15287, 17207, 17447, 17922, 19001, 20699, 20722, 21171, 21299, 22879, 25377, 26323, 28361, 28382, 28420, 28594, 29372, 29592, 29794, 29994]}, "edge": {"target": [], "time": []}}, "mouseout": {"state": {"target": ["0", "0", "1", "10", "8", "9", "11", "11", "26", "5", "6", "7", "10", "2", "7", "2", "10", "28", "25", "29", "27", "31", "32", "33", "32", "22", "20", "21", "21", "20", "16", "16", "17", "15", "18", "1", "27", "10", "1", "0", "1", "12"], "time": [1073, 2326, 2405, 2592, 2775, 3931, 4331, 5840, 6116, 7606, 9409, 9816, 10924, 11048, 13010, 13085, 13128, 13318, 14209, 15062, 17070, 17233, 17504, 18879, 20641, 20718, 20742, 21190, 22543, 24422, 25942, 26193, 28359, 28380, 28402, 28438, 29063, 29438, 29677, 29942, 30027, 36292]}, "edge": {"target": [], "time": []}}}, "displayed_time": "34.49", "trialTime": 38881, "trial_type": "mouselab-mdp", "trial_index": 23, "time_elapsed": 1216509, "internal_node_id": "0.0-6.0-1.0-14.0"}}, {"uniqueid": "w30325068:a70556300", "current_trial": 24, "dateTime": 1693481961503, "trialdata": {"revealed_states": [], "clicked_states": ["9", "5", "6", "17", "16", "20", "21", "32", "33", "29", "27"], "num_clicks_accrued": [0, 0, 0, 0, 0, 0, 0, 0, 0, 0, 0, 0, 0], "stateRewards": ["", -1, 3, 2, 9, 41, 4, -46, -12, -54, -87, -25, 2, 3, -1, 11, -77, 12, -33, -9, -32, 35, 72, 1, 3, -7, 4, 37, 65, -73, 6, 77, -43, 8], "withholdReward": false, "trial_id": "mdp_trial_16", "block": "test", "trialIndex": 17, "score": 22.599999999999998, "costs": -15.400000000000002, "simulationMode": [null, null, null, null, null], "rewards": [1, 3, -7, 4, 37], "path": ["0", "0", "23", "24", "25", "26", "27"], "rt": [26652, 391, 280, 316, 360], "actions": ["left", "left", "left", "up", "up"], "actionTimes": [29276, 30179, 30984, 31798, 32660], "queries": {"click": {"state": {"target": ["9", "5", "6", "17", "16", "20", "21", "32", "33", "29", "27"], "time": [3857, 6173, 8389, 11440, 13807, 15873, 17958, 20440, 22440, 24290, 26107]}, "edge": {"target": [], "time": []}}, "mouseover": {"state": {"target": ["1", "2", "3", "9", "5", "5", "6", "6", "16", "17", "17", "20", "15", "16", "20", "21", "32", "33", "29", "27", "28", "28"], "time": [3031, 3080, 3133, 3448, 4294, 4603, 6600, 6853, 8855, 9131, 9504, 12355, 13247, 13451, 14219, 16476, 20084, 21907, 22962, 24873, 27500, 27672]}, "edge": {"target": [], "time": []}}, "mouseout": {"state": {"target": ["0", "1", "2", "3", "9", "5", "5", "6", "6", "16", "17", "17", "20", "15", "16", "16", "20", "21", "32", "33", "29", "27", "27", "28", "28"], "time": [1397, 3064, 3115, 3197, 4252, 4329, 6581, 6639, 8817, 8894, 9150, 12080, 13150, 13296, 13912, 14116, 16321, 18801, 21225, 22847, 24702, 26257, 27336, 27553, 36418]}, "edge": {"target": [], "time": []}}}, "displayed_time": "33.17", "trialTime": 37158, "trial_type": "mouselab-mdp", "trial_index": 24, "time_elapsed": 1254534, "internal_node_id": "0.0-6.0-1.0-15.0"}}, {"uniqueid": "w30325068:a70556300", "current_trial": 25, "dateTime": 1693481985295, "trialdata": {"revealed_states": [], "clicked_states": ["9", "5", "16", "20", "17"], "num_clicks_accrued": [0, 0, 0, 0, 0, 0, 0, 0, 0, 0, 0, 0, 0], "stateRewards": ["", -1, -4, -1, -5, -28, -23, -15, -15, -38, 59, -87, 2, 2, -5, 9, -55, -39, -71, -6, 85, -85, -11, -1, -2, 5, -10, 1, 25, 41, -4, 69, -35, 86], "withholdReward": false, "trial_id": "mdp_trial_17", "block": "test", "trialIndex": 18, "score": 71, "costs": -7, "simulationMode": [null, null, null, null, null, null], "rewards": [2, 2, -5, -6, 85], "path": ["0", "0", "12", "13", "14", "19", "20"], "rt": [11238, 1013, 692, 453, 280, 265], "actions": ["right", "right", "right", "right", "down", "right"], "actionTimes": [14361, 15378, 16575, 17537, 18312, 19085], "queries": {"click": {"state": {"target": ["9", "5", "16", "20", "17"], "time": [4607, 6772, 8522, 10939, 12906]}, "edge": {"target": [], "time": []}}, "mouseover": {"state": {"target": ["1", "2", "3", "9", "5", "5", "16", "17", "20", "17"], "time": [3700, 3795, 3931, 4083, 5156, 5518, 8020, 9769, 10514, 11759]}, "edge": {"target": [], "time": []}}, "mouseout": {"state": {"target": ["0", "1", "2", "3", "9", "5", "5", "16", "17", "20", "17", "15", "18", "12"], "time": [3634, 3747, 3883, 3947, 5086, 5212, 7398, 9120, 10398, 11595, 22216, 22299, 22380, 22483]}, "edge": {"target": [], "time": []}}}, "displayed_time": "19.58", "trialTime": 22946, "trial_type": "mouselab-mdp", "trial_index": 25, "time_elapsed": 1278324, "internal_node_id": "0.0-6.0-1.0-16.0"}}, {"uniqueid": "w30325068:a70556300", "current_trial": 26, "dateTime": 1693482021025, "trialdata": {"revealed_states": [], "clicked_states": ["20", "21", "22", "32", "33", "31", "27", "5", "9", "11", "6", "29"], "num_clicks_accrued": [0, 0, 0, 0, 0, 0, 0, 0, 0, 0, 0, 0, 0], "stateRewards": ["", 1, 2, -3, 6, -88, 74, -45, 7, -46, 40, -77, 1, -4, 4, 3, 22, -25, -59, 8, -83, 19, -60, -1, -1, -1, -8, 26, -29, 64, -7, -88, -51, -55], "withholdReward": false, "trial_id": "mdp_trial_18", "block": "test", "trialIndex": 19, "score": 63.2, "costs": -16.8, "simulationMode": [null, null, null, null, null], "rewards": [1, 2, -3, 6, 74], "path": ["0", "0", "1", "2", "3", "4", "6"], "rt": [26135, 550, 294, 225, 403], "actions": ["up", "up", "up", "right", "right"], "actionTimes": [27715, 28775, 29562, 30277, 31172], "queries": {"click": {"state": {"target": ["20", "21", "22", "32", "33", "31", "27", "5", "9", "11", "6", "29"], "time": [2840, 4427, 6411, 9112, 10894, 12844, 14389, 16894, 18911, 20928, 23445, 25361]}, "edge": {"target": [], "time": []}}, "mouseover": {"state": {"target": ["0", "22", "19", "20", "21", "22", "22", "32", "33", "30", "31", "31", "26", "27", "11", "9", "5", "9", "8", "11", "8", "3", "6", "2", "10", "26", "29", "26", "28", "1"], "time": [1968, 2036, 2134, 2419, 3557, 5264, 5491, 7294, 9806, 11226, 11284, 11569, 13756, 14035, 14872, 15243, 16585, 17586, 19729, 19936, 21342, 21367, 21658, 24195, 24239, 24343, 24603, 26541, 26561, 26718]}, "edge": {"target": [], "time": []}}, "mouseout": {"state": {"target": ["0", "0", "22", "19", "20", "21", "22", "22", "32", "33", "30", "31", "31", "26", "27", "11", "9", "5", "9", "9", "8", "11", "8", "3", "6", "2", "10", "26", "29", "26", "28", "1", "22"], "time": [1603, 1987, 2085, 2219, 3406, 5154, 5391, 6855, 9623, 11206, 11265, 11428, 13433, 13871, 14533, 14891, 16239, 17052, 19069, 19707, 19829, 21320, 21365, 21392, 24155, 24235, 24284, 24402, 26520, 26559, 26583, 26754, 34588]}, "edge": {"target": [], "time": []}}}, "displayed_time": "31.67", "trialTime": 34879, "trial_type": "mouselab-mdp", "trial_index": 26, "time_elapsed": 1314055, "internal_node_id": "0.0-6.0-1.0-17.0"}}, {"uniqueid": "w30325068:a70556300", "current_trial": 27, "dateTime": 1693482056048, "trialdata": {"revealed_states": [], "clicked_states": ["9", "5", "27", "29", "32", "21", "20"], "num_clicks_accrued": [0, 0, 0, 0, 0, 0, 0, 0, 0, 0, 0, 0, 0], "stateRewards": ["", 1, 2, -3, -6, 50, -7, 7, -7, -80, 21, -1, 2, 2, 4, -1, 33, 84, 1, 14, -53, 81, 6, -2, -2, -3, -9, -87, -38, -59, -5, -74, -3, -71], "withholdReward": false, "trial_id": "mdp_trial_19", "block": "test", "trialIndex": 20, "score": 93.2, "costs": -9.8, "simulationMode": [null, null, null, null, null], "rewards": [2, 2, 4, 14, 81], "path": ["0", "0", "12", "13", "14", "19", "21"], "rt": [17670, 557, 360, 772, 740], "actions": ["right", "right", "right", "down", "down"], "actionTimes": [20193, 21256, 22111, 23387, 24630], "queries": {"click": {"state": {"target": ["9", "5", "27", "29", "32", "21", "20"], "time": [4192, 6341, 7890, 10287, 12108, 13925, 16825]}, "edge": {"target": [], "time": []}}, "mouseover": {"state": {"target": ["1", "1", "2", "3", "9", "9", "5", "6", "2", "27", "29", "30", "32", "21", "20", "15"], "time": [3148, 3433, 3455, 3476, 3547, 3867, 4612, 6694, 7111, 7385, 8454, 10865, 11114, 13139, 14645, 18684]}, "edge": {"target": [], "time": []}}, "mouseout": {"state": {"target": ["13", "12", "0", "1", "1", "2", "3", "9", "9", "5", "6", "2", "27", "29", "30", "32", "21", "20", "15"], "time": [764, 846, 1097, 3315, 3452, 3473, 3494, 3619, 4313, 6672, 7055, 7130, 8397, 10702, 11022, 12536, 14315, 18518, 18800]}, "edge": {"target": [], "time": []}}}, "displayed_time": "25.18", "trialTime": 34181, "trial_type": "mouselab-mdp", "trial_index": 27, "time_elapsed": 1349079, "internal_node_id": "0.0-6.0-1.0-18.0"}}, {"uniqueid": "w30325068:a70556300", "current_trial": 28, "dateTime": 1693482091249, "trialdata": {"revealed_states": [], "clicked_states": ["9", "5", "11", "6", "20", "21", "22", "33", "32", "31", "27"], "num_clicks_accrued": [0, 0, 0, 0, 0, 0, 0, 0, 0, 0, 0, 0, 0], "stateRewards": ["", 2, 3, -6, -5, -3, 55, 40, 11, 61, 11, 51, 2, -4, -6, 9, -25, 29, -15, -6, 7, -77, -2, -2, -4, 1, 14, -43, -1, 56, -12, -54, 41, -74], "withholdReward": false, "trial_id": "mdp_trial_20", "block": "test", "trialIndex": 21, "score": 33.599999999999994, "costs": -15.400000000000002, "simulationMode": [null, null, null, null, null], "rewards": [2, 3, -6, -5, 55], "path": ["0", "0", "1", "2", "3", "4", "6"], "rt": [24803, 639, 352, 1301, 473], "actions": ["up", "up", "up", "right", "right"], "actionTimes": [26780, 27919, 28765, 30582, 31557], "queries": {"click": {"state": {"target": ["9", "5", "11", "6", "20", "21", "22", "33", "32", "31", "27"], "time": [3203, 5270, 7170, 9203, 11170, 13270, 15087, 17054, 19021, 20888, 23804]}, "edge": {"target": [], "time": []}}, "mouseover": {"state": {"target": ["1", "9", "4", "19", "21", "19", "20", "14", "18", "4", "5", "11", "8", "3", "6", "17", "20", "21", "22", "33", "33", "32", "32", "31", "2", "3", "8", "11", "27", "27", "0", "2", "4"], "time": [2344, 2961, 3618, 3746, 3804, 3955, 4242, 4466, 4507, 4565, 4979, 5968, 7696, 7718, 7913, 10149, 10696, 12074, 13873, 16018, 16585, 17574, 17803, 19571, 21602, 22830, 22929, 23113, 23212, 23497, 24531, 25963, 26028]}, "edge": {"target": [], "time": []}}, "mouseout": {"state": {"target": ["20", "19", "0", "0", "1", "9", "4", "19", "21", "19", "20", "14", "18", "4", "5", "11", "8", "3", "6", "17", "20", "21", "22", "33", "33", "32", "32", "31", "2", "3", "8", "11", "27", "27", "0", "2"], "time": [729, 757, 941, 2128, 2364, 3580, 3639, 3768, 3896, 4015, 4446, 4486, 4526, 4620, 5651, 7324, 7715, 7753, 9885, 10252, 11715, 13716, 15449, 16386, 17515, 17613, 19446, 21512, 21655, 22881, 22949, 23146, 23290, 23941, 24569, 25983]}, "edge": {"target": [], "time": []}}}, "displayed_time": "32.07", "trialTime": 34259, "trial_type": "mouselab-mdp", "trial_index": 28, "time_elapsed": 1384281, "internal_node_id": "0.0-6.0-1.0-19.0"}}, {"uniqueid": "w30325068:a70556300", "current_trial": 29, "dateTime": 1693482124818, "trialdata": {"revealed_states": [], "clicked_states": ["9", "17", "21", "32", "27", "29", "6", "5"], "num_clicks_accrued": [0, 0, 0, 0, 0, 0, 0, 0, 0, 0, 0, 0, 0], "stateRewards": ["", 1, 2, -6, -13, -51, 22, -4, -12, -44, -12, 6, -2, -2, -2, -14, -46, -4, -77, -2, 36, -79, 41, 2, -4, 2, -6, -55, 59, 70, -5, 39, -19, 24], "withholdReward": false, "trial_id": "mdp_trial_21", "block": "test", "trialIndex": 22, "score": 52.8, "costs": -11.200000000000001, "simulationMode": [null, null, null, null, null], "rewards": [2, -4, 2, -6, 70], "path": ["0", "0", "23", "24", "25", "26", "29"], "rt": [20867, 696, 409, 456, 151], "actions": ["left", "left", "left", "up", "left"], "actionTimes": [26087, 27290, 28204, 29150, 29800], "queries": {"click": {"state": {"target": ["9", "17", "21", "32", "27", "29", "6", "5"], "time": [6970, 9752, 11719, 13886, 15703, 17620, 20453, 23136]}, "edge": {"target": [], "time": []}}, "mouseover": {"state": {"target": ["11", "9", "5", "16", "17", "17", "21", "32", "30", "25", "26", "27", "29", "10", "3", "6", "5", "4", "1", "24"], "time": [6094, 6661, 7467, 7743, 7788, 8051, 10590, 12973, 14257, 14297, 14338, 14543, 16221, 17954, 17977, 18292, 22795, 23802, 24136, 24962]}, "edge": {"target": [], "time": []}}, "mouseout": {"state": {"target": ["4", "0", "23", "1", "0", "11", "9", "5", "16", "17", "17", "21", "32", "30", "25", "26", "27", "29", "10", "3", "6", "5", "4", "1", "24", "18", "15"], "time": [1790, 1823, 2409, 2492, 6026, 6114, 7383, 7487, 7765, 7806, 10177, 12268, 14218, 14276, 14336, 14355, 16165, 17935, 17975, 17998, 22594, 23762, 23844, 24285, 31898, 32011, 32079]}, "edge": {"target": [], "time": []}}}, "displayed_time": "30.30", "trialTime": 32639, "trial_type": "mouselab-mdp", "trial_index": 29, "time_elapsed": 1417847, "internal_node_id": "0.0-6.0-1.0-20.0"}}, {"uniqueid": "w30325068:a70556300", "current_trial": 30, "dateTime": 1693482152328, "trialdata": {"revealed_states": [], "clicked_states": ["10", "7", "5", "9", "27", "29", "32", "21", "17"], "num_clicks_accrued": [0, 0, 0, 0, 0, 0, 0, 0, 0, 0, 0, 0, 0], "stateRewards": ["", -2, 4, -5, -12, 85, -24, -18, -15, -78, -22, 26, -1, -1, 2, 14, -45, 52, -23, 7, -33, 24, -6, -2, -4, 5, -7, -16, 36, -39, 5, 71, -87, -23], "withholdReward": false, "trial_id": "mdp_trial_22", "block": "test", "trialIndex": 23, "score": 57.4, "costs": -12.600000000000001, "simulationMode": [null, null, null, null, null], "rewards": [-2, 4, -5, -12, 85], "path": ["0", "0", "1", "2", "3", "4", "5"], "rt": [19838, 424, 361, 48, 253], "actions": ["up", "up", "up", "right", "up"], "actionTimes": [21517, 22441, 23298, 23847, 24622], "queries": {"click": {"state": {"target": ["10", "7", "5", "9", "27", "29", "32", "21", "17"], "time": [3174, 5090, 7523, 9407, 11107, 13090, 14924, 16725, 18708]}, "edge": {"target": [], "time": []}}, "mouseover": {"state": {"target": ["11", "28", "8", "10", "2", "7", "2", "4", "5", "5", "3", "9", "11", "26", "25", "26", "27", "29", "29", "32", "32", "21", "20", "17", "16", "16"], "time": [2249, 2499, 2598, 2948, 3534, 3892, 5487, 6626, 6682, 7033, 7988, 8234, 9921, 10022, 10135, 10345, 10462, 11832, 12591, 13524, 13672, 15497, 17475, 18106, 19260, 20481]}, "edge": {"target": [], "time": []}}, "mouseout": {"state": {"target": ["15", "18", "0", "0", "11", "28", "8", "10", "2", "7", "2", "4", "5", "5", "3", "9", "11", "26", "25", "26", "27", "29", "29", "32", "32", "21", "20", "17", "16"], "time": [400, 431, 762, 1744, 2270, 2520, 2732, 3296, 3573, 5439, 6586, 6642, 6703, 7616, 8153, 9882, 9944, 10064, 10306, 10386, 11537, 12076, 13398, 13567, 15082, 17418, 17766, 19167, 19335]}, "edge": {"target": [], "time": []}}}, "displayed_time": "25.13", "trialTime": 26535, "trial_type": "mouselab-mdp", "trial_index": 30, "time_elapsed": 1445357, "internal_node_id": "0.0-6.0-1.0-21.0"}}, {"uniqueid": "w30325068:a70556300", "current_trial": 31, "dateTime": 1693482191268, "trialdata": {"revealed_states": [], "clicked_states": ["20", "21", "22", "33", "32", "31", "27", "5", "9", "6", "7", "11", "10"], "num_clicks_accrued": [0, 0, 0, 0, 0, 0, 0, 0, 0, 0, 0, 0, 0], "stateRewards": ["", -2, -1, -1, 5, -54, -87, 35, 2, -8, 20, -22, 1, 3, 6, 13, -75, -32, -55, -3, 56, 62, -22, -1, -4, -1, -7, -51, 84, 70, 7, -15, 5, 55], "withholdReward": false, "trial_id": "mdp_trial_23", "block": "test", "trialIndex": 24, "score": 50.8, "costs": -18.2, "simulationMode": [null, null, null, null, null], "rewards": [1, 3, 6, -3, 62], "path": ["0", "0", "12", "13", "14", "19", "21"], "rt": [26803, 541, 311, 209, 775], "actions": ["right", "right", "right", "down", "down"], "actionTimes": [29415, 30457, 31261, 31974, 33277], "queries": {"click": {"state": {"target": ["20", "21", "22", "33", "32", "31", "27", "5", "9", "6", "7", "11", "10"], "time": [3724, 5540, 7357, 10123, 12106, 13939, 15772, 17879, 19769, 21607, 23441, 24971, 27392]}, "edge": {"target": [], "time": []}}, "mouseover": {"state": {"target": ["17", "20", "21", "22", "32", "33", "32", "31", "24", "27", "11", "8", "5", "9", "6", "18", "7", "2", "8", "11", "10", "0"], "time": [2897, 3113, 4406, 6166, 9479, 9697, 10614, 12585, 14389, 14740, 16218, 16247, 16647, 18618, 20697, 22121, 22616, 23777, 23873, 24152, 26962, 28229]}, "edge": {"target": [], "time": []}}, "mouseout": {"state": {"target": ["16", "1", "0", "17", "20", "21", "22", "32", "33", "32", "31", "24", "27", "11", "8", "5", "9", "9", "6", "18", "7", "2", "8", "11", "11", "11", "10", "0"], "time": [1030, 1129, 1797, 2948, 4198, 6031, 7513, 9499, 10518, 12524, 14350, 14446, 16174, 16244, 16295, 18396, 19926, 20254, 22060, 22148, 23751, 23848, 23897, 25036, 26354, 26912, 28136, 28269]}, "edge": {"target": [], "time": []}}}, "displayed_time": "33.78", "trialTime": 38038, "trial_type": "mouselab-mdp", "trial_index": 31, "time_elapsed": 1484297, "internal_node_id": "0.0-6.0-1.0-22.0"}}, {"uniqueid": "w30325068:a70556300", "current_trial": 32, "dateTime": 1693482216294, "trialdata": {"revealed_states": [], "clicked_states": ["9", "5", "17", "20", "21", "22"], "num_clicks_accrued": [0, 0, 0, 0, 0, 0, 0, 0, 0, 0, 0, 0, 0], "stateRewards": ["", -2, 2, -2, -7, -50, -62, -45, 7, 36, -24, -72, -1, -1, 8, -1, -67, 20, -52, 2, 35, -50, 80, -1, 1, 6, -6, -70, 6, 88, 8, -47, 74, -19], "withholdReward": false, "trial_id": "mdp_trial_24", "block": "test", "trialIndex": 25, "score": 79.6, "costs": -8.4, "simulationMode": [null, null, null, null, null], "rewards": [-1, -1, 8, 2, 80], "path": ["0", "0", "12", "13", "14", "19", "22"], "rt": [16649, 444, 380, 125, 366], "actions": ["right", "right", "right", "down", "left"], "actionTimes": [18420, 19385, 20299, 20923, 21786], "queries": {"click": {"state": {"target": ["9", "5", "17", "20", "21", "22"], "time": [3155, 5207, 7591, 9809, 11925, 13858]}, "edge": {"target": [], "time": []}}, "mouseover": {"state": {"target": ["10", "8", "9", "5", "5", "6", "16", "17", "17", "17", "20", "21", "22", "32", "32"], "time": [2480, 2504, 2767, 3808, 4833, 5589, 5653, 5717, 6075, 7264, 8057, 10427, 12749, 14739, 16475]}, "edge": {"target": [], "time": []}}, "mouseout": {"state": {"target": ["1", "2", "1", "0", "0", "10", "8", "9", "5", "5", "6", "16", "17", "17", "17", "20", "21", "22", "32", "32"], "time": [97, 449, 482, 530, 2430, 2502, 2528, 3268, 4593, 5550, 5612, 5677, 5758, 7081, 8000, 10388, 12544, 14319, 14930, 16498]}, "edge": {"target": [], "time": []}}}, "displayed_time": "22.28", "trialTime": 24048, "trial_type": "mouselab-mdp", "trial_index": 32, "time_elapsed": 1509325, "internal_node_id": "0.0-6.0-1.0-23.0"}}, {"uniqueid": "w30325068:a70556300", "current_trial": 33, "dateTime": 1693482250391, "trialdata": {"revealed_states": [], "clicked_states": ["9", "20", "33", "5", "7", "32", "27", "29", "11", "16", "17"], "num_clicks_accrued": [0, 0, 0, 0, 0, 0, 0, 0, 0, 0, 0, 0, 0], "stateRewards": ["", 1, 4, -8, -5, -15, -7, 21, 13, -30, 40, -65, 1, 1, 5, -14, 35, 27, -38, -11, 36, -58, -47, -2, 4, -3, 13, -16, -49, 22, 15, -56, -44, -10], "withholdReward": false, "trial_id": "mdp_trial_25", "block": "test", "trialIndex": 26, "score": 12.599999999999998, "costs": -15.400000000000002, "simulationMode": [null, null, null, null, null], "rewards": [1, 1, 5, -14, 35], "path": ["0", "0", "12", "13", "14", "15", "16"], "rt": [23691, 1159, 429, 237, 389], "actions": ["right", "right", "right", "up", "up"], "actionTimes": [25604, 27265, 28201, 28945, 29827], "queries": {"click": {"state": {"target": ["9", "20", "33", "5", "7", "32", "27", "29", "11", "16", "17"], "time": [3930, 5796, 7646, 9214, 11414, 13125, 15047, 17480, 19565, 21380, 23697]}, "edge": {"target": [], "time": []}}, "mouseover": {"state": {"target": ["1", "2", "3", "9", "9", "6", "20", "21", "33", "3", "5", "4", "7", "23", "24", "30", "32", "25", "27", "29", "28", "1", "10", "11", "10", "18", "15", "16", "17", "17"], "time": [3106, 3129, 3185, 3254, 3538, 4662, 5345, 6361, 7257, 8438, 8557, 10821, 11155, 11812, 11843, 11886, 12259, 13803, 13977, 17205, 17896, 18246, 18691, 18912, 19899, 19982, 20024, 20471, 22055, 22642]}, "edge": {"target": [], "time": []}}, "mouseout": {"state": {"target": ["0", "0", "1", "2", "3", "9", "9", "6", "20", "21", "33", "3", "5", "4", "7", "23", "24", "30", "32", "25", "27", "29", "28", "1", "10", "11", "10", "18", "15", "16", "17", "17", "17"], "time": [852, 3088, 3126, 3150, 3234, 3274, 4324, 4683, 6259, 6576, 8177, 8498, 10786, 10903, 11787, 11839, 11867, 11909, 13743, 13836, 16578, 17855, 17918, 18289, 18814, 19876, 19921, 20002, 20223, 21981, 22136, 23826, 24283]}, "edge": {"target": [], "time": []}}}, "displayed_time": "30.34", "trialTime": 33214, "trial_type": "mouselab-mdp", "trial_index": 33, "time_elapsed": 1543421, "internal_node_id": "0.0-6.0-1.0-24.0"}}, {"uniqueid": "w30325068:a70556300", "current_trial": 34, "dateTime": 1693482276950, "trialdata": {"revealed_states": [], "clicked_states": ["9", "17", "20", "21", "22", "31", "32", "33"], "num_clicks_accrued": [0, 0, 0, 0, 0, 0, 0, 0, 0, 0, 0, 0, 0], "stateRewards": ["", 2, 4, 4, -8, -36, -33, 38, 16, -51, 57, 57, 1, 3, 4, -6, 45, 68, 87, 1, 63, 24, -55, -2, 2, -6, -13, -63, -50, 8, 2, 80, 6, 60], "withholdReward": false, "trial_id": "mdp_trial_26", "block": "test", "trialIndex": 27, "score": 64.8, "costs": -11.200000000000001, "simulationMode": [null, null, null, null, null], "rewards": [-2, 2, -6, 2, 80], "path": ["0", "0", "23", "24", "25", "30", "31"], "rt": [17005, 570, 318, 166, 695], "actions": ["left", "left", "left", "down", "right"], "actionTimes": [18949, 20024, 20844, 21516, 22720], "queries": {"click": {"state": {"target": ["9", "17", "20", "21", "22", "31", "32", "33"], "time": [3347, 5164, 7046, 9095, 10930, 12863, 14696, 16614]}, "edge": {"target": [], "time": []}}, "mouseover": {"state": {"target": ["11", "9", "17", "20", "21", "20", "21", "22", "31", "30", "31", "32", "33", "30"], "time": [2269, 2906, 4320, 5605, 6034, 6398, 7824, 9924, 11441, 11490, 11762, 13602, 15217, 17051]}, "edge": {"target": [], "time": []}}, "mouseout": {"state": {"target": ["0", "11", "9", "17", "20", "21", "20", "21", "22", "31", "30", "31", "32", "33", "30"], "time": [1969, 2817, 3666, 5539, 5627, 6143, 7479, 9624, 11375, 11467, 11717, 13560, 14775, 17028, 17115]}, "edge": {"target": [], "time": []}}}, "displayed_time": "23.22", "trialTime": 25621, "trial_type": "mouselab-mdp", "trial_index": 34, "time_elapsed": 1569980, "internal_node_id": "0.0-6.0-1.0-25.0"}}, {"uniqueid": "w30325068:a70556300", "current_trial": 35, "dateTime": 1693482311897, "trialdata": {"revealed_states": [], "clicked_states": ["9", "20", "21", "32", "33", "29", "27", "16", "5", "6", "11"], "num_clicks_accrued": [0, 0, 0, 0, 0, 0, 0, 0, 0, 0, 0, 0, 0], "stateRewards": ["", 2, -3, 5, 11, -79, 54, 11, -9, -78, 33, 22, -2, -1, 2, 14, 43, 34, 1, 10, 49, -65, 39, -1, 1, -1, 3, -16, -2, 11, 2, 12, 48, -65], "withholdReward": false, "trial_id": "mdp_trial_27", "block": "test", "trialIndex": 28, "score": 53.599999999999994, "costs": -15.400000000000002, "simulationMode": [null, null, null, null, null], "rewards": [2, -3, 5, 11, 54], "path": ["0", "0", "1", "2", "3", "4", "6"], "rt": [22440, 678, 446, 52, 450], "actions": ["up", "up", "up", "right", "right"], "actionTimes": [24701, 25896, 26851, 27418, 28375], "queries": {"click": {"state": {"target": ["9", "20", "21", "32", "33", "29", "27", "16", "5", "6", "11"], "time": [3293, 5231, 7015, 8864, 10749, 12616, 14581, 16449, 18765, 20644, 22795]}, "edge": {"target": [], "time": []}}, "mouseover": {"state": {"target": ["11", "9", "5", "17", "20", "21", "32", "33", "29", "27", "4", "6", "16", "17", "6", "5", "6", "4", "3", "9", "9", "11", "8", "3", "4"], "time": [2656, 2838, 3832, 4034, 4838, 5824, 7670, 9419, 11539, 13051, 15082, 15108, 15651, 17190, 17819, 18187, 19405, 21047, 21087, 21192, 21659, 22373, 23221, 23245, 23271]}, "edge": {"target": [], "time": []}}, "mouseout": {"state": {"target": ["0", "11", "9", "5", "17", "20", "21", "32", "33", "29", "27", "4", "6", "16", "16", "17", "6", "5", "5", "6", "4", "3", "9", "9", "11", "8", "3", "4"], "time": [936, 2687, 3718, 3876, 4057, 5727, 7432, 9351, 11162, 12943, 15017, 15106, 15135, 16564, 17111, 17213, 17956, 18861, 19270, 21044, 21083, 21128, 21225, 21906, 23218, 23243, 23269, 23292]}, "edge": {"target": [], "time": []}}}, "displayed_time": "28.89", "trialTime": 34034, "trial_type": "mouselab-mdp", "trial_index": 35, "time_elapsed": 1604927, "internal_node_id": "0.0-6.0-1.0-26.0"}}, {"uniqueid": "w30325068:a70556300", "current_trial": 36, "dateTime": 1693482348928, "trialdata": {"revealed_states": [], "clicked_states": ["5", "21", "32", "27", "29", "9", "11", "6", "17", "16"], "num_clicks_accrued": [0, 0, 0, 0, 0, 0, 0, 0, 0, 0, 0, 0, 0], "stateRewards": ["", 1, 1, 1, 15, -76, 52, -32, 14, -57, 37, 49, 1, -4, -3, 6, 83, -76, 25, 9, 36, -1, -17, -1, 4, 4, -2, -22, -21, 58, -15, -57, 49, -24], "withholdReward": false, "trial_id": "mdp_trial_28", "block": "test", "trialIndex": 29, "score": 69, "costs": -14.000000000000002, "simulationMode": [null, null, null, null, null], "rewards": [1, -4, -3, 6, 83], "path": ["0", "0", "12", "13", "14", "15", "16"], "rt": [25830, 570, 402, 646, 555], "actions": ["right", "right", "right", "up", "up"], "actionTimes": [28324, 29390, 30285, 31430, 32496], "queries": {"click": {"state": {"target": ["5", "21", "32", "27", "29", "9", "11", "6", "17", "16"], "time": [3759, 5658, 7508, 10591, 13792, 16527, 18840, 20677, 23026, 24960]}, "edge": {"target": [], "time": []}}, "mouseover": {"state": {"target": ["4", "5", "21", "32", "32", "33", "27", "27", "29", "29", "29", "27", "8", "5", "9", "8", "11", "16", "6", "14", "17", "16", "6", "6", "15", "18"], "time": [3182, 3268, 5117, 6255, 6655, 8027, 8664, 10197, 11549, 12126, 12731, 15552, 15607, 15696, 16201, 17063, 17221, 19520, 19631, 21436, 22501, 23784, 25519, 25958, 26416, 26603]}, "edge": {"target": [], "time": []}}, "mouseout": {"state": {"target": ["0", "0", "4", "5", "21", "32", "32", "33", "27", "27", "29", "29", "29", "27", "8", "5", "9", "9", "8", "11", "16", "6", "14", "17", "16", "16", "6", "6", "15", "18", "14", "19"], "time": [1231, 2832, 3230, 3965, 6098, 6297, 7977, 8055, 8771, 11490, 11650, 12197, 15516, 15572, 15652, 15770, 16592, 17038, 17088, 19191, 19567, 21310, 21500, 23695, 25054, 25419, 25562, 26338, 26533, 27400, 34921, 34941]}, "edge": {"target": [], "time": []}}}, "displayed_time": "33.03", "trialTime": 36005, "trial_type": "mouselab-mdp", "trial_index": 36, "time_elapsed": 1641957, "internal_node_id": "0.0-6.0-1.0-27.0"}}, {"uniqueid": "w30325068:a70556300", "current_trial": 37, "dateTime": 1693482378154, "trialdata": {"revealed_states": [], "clicked_states": ["9", "29", "32", "20", "21", "16", "5", "6", "7"], "num_clicks_accrued": [0, 0, 0, 0, 0, 0, 0, 0, 0, 0, 0, 0, 0], "stateRewards": ["", -1, -2, 8, -6, -79, -6, 87, 9, -5, -66, -38, 2, 2, 5, -6, -82, 74, 85, -8, 67, -30, -15, 1, -2, -2, -2, 87, 64, 49, 7, 2, -38, -9], "withholdReward": false, "trial_id": "mdp_trial_29", "block": "test", "trialIndex": 30, "score": 73.4, "costs": -12.600000000000001, "simulationMode": [null, null, null, null, null], "rewards": [-1, -2, 8, -6, 87], "path": ["0", "0", "1", "2", "3", "4", "7"], "rt": [21592, 306, 401, 111, 89], "actions": ["up", "up", "up", "right", "down"], "actionTimes": [23337, 24143, 25035, 25646, 26241], "queries": {"click": {"state": {"target": ["9", "29", "32", "20", "21", "16", "5", "6", "7"], "time": [2693, 4560, 6443, 9426, 11594, 13543, 16211, 18100, 19961]}, "edge": {"target": [], "time": []}}, "mouseover": {"state": {"target": ["8", "9", "26", "25", "33", "29", "30", "32", "20", "21", "19", "14", "15", "16", "15", "13", "22", "13", "18", "5", "5", "6", "7", "1", "1"], "time": [2164, 2265, 3186, 3214, 3289, 3691, 5035, 5083, 9131, 9950, 12107, 12170, 12394, 12514, 14113, 14174, 14278, 14849, 15217, 15685, 15919, 17023, 18725, 20799, 21317]}, "edge": {"target": [], "time": []}}, "mouseout": {"state": {"target": ["1", "8", "9", "26", "25", "33", "29", "30", "32", "20", "21", "19", "14", "15", "16", "16", "15", "13", "22", "13", "18", "5", "5", "5", "6", "7", "1", "1"], "time": [714, 2198, 3135, 3212, 3242, 3349, 4986, 5063, 6834, 9890, 12087, 12148, 12251, 12467, 13642, 14110, 14134, 14198, 14788, 15082, 15466, 15818, 16274, 16623, 18587, 20725, 20834, 21601]}, "edge": {"target": [], "time": []}}}, "displayed_time": "26.74", "trialTime": 28216, "trial_type": "mouselab-mdp", "trial_index": 37, "time_elapsed": 1671185, "internal_node_id": "0.0-6.0-1.0-28.0"}}, {"uniqueid": "w30325068:a70556300", "current_trial": 38, "dateTime": 1693482420492, "trialdata": {"revealed_states": [], "clicked_states": ["9", "16", "17", "21", "32", "33", "31", "27", "29", "28", "5", "6", "7", "11", "10"], "num_clicks_accrued": [0, 0, 0, 0, 0, 0, 0, 0, 0, 0, 0, 0, 0], "stateRewards": ["", -2, -3, 7, -13, 60, 9, 37, -6, 37, 20, 1, 2, -2, -8, 6, -80, -31, -10, -7, 70, -65, -44, -1, 1, 7, 6, -11, 73, -85, 16, -21, 47, 34], "withholdReward": false, "trial_id": "mdp_trial_30", "block": "test", "trialIndex": 31, "score": 65, "costs": -20.999999999999996, "simulationMode": [null, null, null, null, null], "rewards": [-1, 1, 7, 6, 73], "path": ["0", "0", "23", "24", "25", "26", "28"], "rt": [33165, 459, 399, 305, 129], "actions": ["left", "left", "left", "up", "right"], "actionTimes": [35375, 36331, 37239, 38040, 38665], "queries": {"click": {"state": {"target": ["9", "16", "17", "21", "32", "33", "31", "27", "29", "28", "5", "6", "7", "11", "10"], "time": [4177, 6175, 8242, 10242, 12142, 13943, 15927, 17860, 19810, 21743, 23677, 26625, 28660, 31128, 33028]}, "edge": {"target": [], "time": []}}, "mouseover": {"state": {"target": ["8", "9", "9", "4", "6", "16", "17", "20", "21", "22", "31", "32", "33", "30", "31", "23", "2", "6", "3", "27", "27", "28", "28", "26", "29", "26", "28", "28", "10", "5", "5", "6", "6", "7", "2", "2", "10", "11", "10"], "time": [2749, 2933, 3637, 5005, 5191, 5637, 6584, 8757, 8972, 10944, 11185, 11601, 12612, 14312, 14577, 16376, 16439, 16561, 16944, 17009, 17499, 18432, 18871, 18992, 19214, 20175, 20257, 21296, 22090, 22136, 22467, 24252, 24650, 27379, 29308, 29567, 29633, 30109, 31514]}, "edge": {"target": [], "time": []}}, "mouseout": {"state": {"target": ["8", "9", "9", "4", "6", "16", "17", "20", "21", "22", "31", "32", "33", "30", "31", "23", "2", "6", "3", "27", "27", "28", "28", "26", "29", "26", "28", "28", "10", "5", "5", "5", "6", "6", "7", "2", "2", "10", "11", "11", "10"], "time": [2802, 3115, 4765, 5029, 5251, 6539, 8678, 8794, 10864, 10988, 11207, 12236, 14309, 14334, 16356, 16398, 16462, 16903, 16966, 17071, 18390, 18459, 18951, 19092, 19908, 20216, 20421, 22069, 22112, 22159, 23816, 24189, 24314, 27242, 29265, 29371, 29590, 29683, 31251, 31470, 40422]}, "edge": {"target": [], "time": []}}}, "displayed_time": "39.17", "trialTime": 41318, "trial_type": "mouselab-mdp", "trial_index": 38, "time_elapsed": 1713522, "internal_node_id": "0.0-6.0-1.0-29.0"}}, {"uniqueid": "w30325068:a70556300", "current_trial": 39, "dateTime": 1693482460540, "trialdata": {"revealed_states": [], "clicked_states": ["9", "17", "20", "32", "33", "29", "27", "6", "7", "5", "11", "10"], "num_clicks_accrued": [0, 0, 0, 0, 0, 0, 0, 0, 0, 0, 0, 0, 0], "stateRewards": ["", -2, 3, -5, -7, 66, 43, -60, -4, -70, -75, 4, -1, 2, 2, -13, 54, 11, -40, -1, 77, 32, 15, -2, 3, -8, -9, -35, 83, -27, 6, -74, -34, 44], "withholdReward": false, "trial_id": "mdp_trial_31", "block": "test", "trialIndex": 32, "score": 62.2, "costs": -16.8, "simulationMode": [null, null, null, null, null], "rewards": [-1, 2, 2, -1, 77], "path": ["0", "0", "12", "13", "14", "19", "20"], "rt": [28969, 529, 523, 3052, 296], "actions": ["right", "right", "right", "down", "right"], "actionTimes": [30695, 31718, 32764, 36308, 37105], "queries": {"click": {"state": {"target": ["9", "17", "20", "32", "33", "29", "27", "6", "7", "5", "11", "10"], "time": [3065, 4881, 7081, 8964, 12748, 14581, 16398, 18332, 20215, 22149, 24016, 26365]}, "edge": {"target": [], "time": []}}, "mouseover": {"state": {"target": ["1", "2", "4", "5", "9", "16", "15", "20", "14", "15", "17", "20", "32", "32", "33", "29", "29", "27", "8", "3", "3", "4", "6", "4", "7", "4", "5", "5", "8", "11", "1", "1", "10", "1", "12", "13", "22", "22", "12"], "time": [1800, 1974, 2341, 2472, 2807, 3588, 3615, 3823, 3869, 4131, 4435, 6082, 7742, 8062, 12238, 13151, 13533, 15323, 16857, 17082, 17377, 17443, 17548, 18893, 18955, 20584, 20609, 21406, 23035, 23303, 24525, 24726, 25237, 26828, 26911, 26997, 27175, 27445, 27701]}, "edge": {"target": [], "time": []}}, "mouseout": {"state": {"target": ["0", "1", "2", "4", "5", "9", "16", "15", "20", "14", "15", "17", "20", "32", "32", "33", "29", "29", "27", "8", "3", "3", "4", "6", "4", "7", "4", "5", "5", "8", "11", "1", "1", "10", "1", "12", "13", "22", "22", "12"], "time": [1752, 1877, 2320, 2360, 2502, 3131, 3613, 3637, 3845, 3891, 4220, 5298, 7527, 7784, 9842, 13070, 13174, 14679, 16797, 16880, 17222, 17420, 17492, 18830, 18934, 20559, 20607, 20633, 22934, 23140, 24425, 24566, 24781, 26788, 26851, 26933, 27130, 27301, 27486, 27802]}, "edge": {"target": [], "time": []}}}, "displayed_time": "37.61", "trialTime": 39066, "trial_type": "mouselab-mdp", "trial_index": 39, "time_elapsed": 1753570, "internal_node_id": "0.0-6.0-1.0-30.0"}}, {"uniqueid": "w30325068:a70556300", "current_trial": 40, "dateTime": 1693482489843, "trialdata": {"revealed_states": [], "clicked_states": ["9", "21", "20", "17", "16", "32", "27", "29", "28"], "num_clicks_accrued": [0, 0, 0, 0, 0, 0, 0, 0, 0, 0, 0, 0, 0], "stateRewards": ["", -2, 1, -7, -8, -37, -76, -87, 11, 30, -63, 80, -1, 4, 2, -1, 42, 17, 52, -3, -75, -80, -68, 2, -3, -5, -15, -48, 82, 24, -7, 5, -22, -71], "withholdReward": false, "trial_id": "mdp_trial_32", "block": "test", "trialIndex": 33, "score": 48.4, "costs": -12.600000000000001, "simulationMode": [null, null, null, null, null], "rewards": [2, -3, -5, -15, 82], "path": ["0", "0", "23", "24", "25", "26", "28"], "rt": [20967, 610, 386, 324, 126], "actions": ["left", "left", "left", "up", "right"], "actionTimes": [22785, 23904, 24792, 25611, 26231], "queries": {"click": {"state": {"target": ["9", "21", "20", "17", "16", "32", "27", "29", "28"], "time": [3086, 4944, 6864, 8728, 10512, 13095, 15462, 17329, 19245]}, "edge": {"target": [], "time": []}}, "mouseover": {"state": {"target": ["1", "8", "9", "15", "14", "19", "21", "20", "20", "17", "17", "16", "16", "30", "33", "32", "33", "27", "29", "26", "28", "28", "25", "33", "33", "25", "30"], "time": [2287, 2436, 2734, 3538, 3566, 3590, 3616, 5477, 5908, 7425, 7919, 9222, 9580, 11088, 11132, 11568, 13744, 14901, 16382, 17712, 17758, 18225, 19784, 19850, 21254, 21536, 21801]}, "edge": {"target": [], "time": []}}, "mouseout": {"state": {"target": ["0", "1", "8", "9", "15", "14", "19", "21", "20", "20", "17", "17", "16", "16", "30", "33", "32", "33", "27", "27", "29", "26", "28", "28", "25", "33", "33", "25"], "time": [619, 2334, 2584, 3456, 3562, 3587, 3614, 5395, 5520, 7343, 7811, 8809, 9305, 10608, 11109, 11236, 13641, 14651, 15511, 16081, 17689, 17735, 17782, 19742, 19807, 19873, 21471, 21720]}, "edge": {"target": [], "time": []}}}, "displayed_time": "26.74", "trialTime": 28263, "trial_type": "mouselab-mdp", "trial_index": 40, "time_elapsed": 1782873, "internal_node_id": "0.0-6.0-1.0-31.0"}}, {"uniqueid": "w30325068:a70556300", "current_trial": 41, "dateTime": 1693482526901, "trialdata": {"revealed_states": [], "clicked_states": ["9", "20", "21", "33", "32", "5", "6", "16", "11", "27", "28", "18"], "num_clicks_accrued": [0, 0, 0, 0, 0, 0, 0, 0, 0, 0, 0, 0, 0], "stateRewards": ["", -1, -2, 4, 9, 10, -75, 39, 16, -43, 88, -19, -1, 1, 2, 4, -31, 10, 73, 12, 41, -64, -81, -2, 2, -6, 1, -81, -1, -26, 3, -59, -3, -20], "withholdReward": false, "trial_id": "mdp_trial_33", "block": "test", "trialIndex": 34, "score": 62.2, "costs": -16.8, "simulationMode": [null, null, null, null, null], "rewards": [-1, 1, 2, 4, 73], "path": ["0", "0", "12", "13", "14", "15", "18"], "rt": [28340, 545, 419, 314, 19], "actions": ["right", "right", "right", "up", "left"], "actionTimes": [30167, 31220, 32191, 33003, 33525], "queries": {"click": {"state": {"target": ["9", "20", "21", "33", "32", "5", "6", "16", "11", "27", "28", "18"], "time": [3048, 5397, 7247, 9498, 11514, 13381, 15265, 17448, 19298, 21682, 23665, 27032]}, "edge": {"target": [], "time": []}}, "mouseover": {"state": {"target": ["1", "3", "9", "14", "20", "20", "20", "21", "30", "33", "30", "32", "32", "5", "6", "18", "1", "2", "7", "16", "7", "2", "8", "11", "27", "27", "28", "28", "22", "13", "18", "7", "12", "13", "14", "18", "14", "20", "19", "14"], "time": [2423, 2488, 2791, 3461, 3525, 3960, 5069, 6162, 7822, 8228, 10083, 10202, 10339, 12757, 14093, 15898, 16106, 16278, 16303, 16640, 17852, 17879, 18071, 18198, 19767, 20042, 22478, 23015, 24895, 24940, 24997, 25114, 25792, 25991, 26174, 26672, 27782, 27984, 28580, 29057]}, "edge": {"target": [], "time": []}}, "mouseout": {"state": {"target": ["30", "25", "24", "23", "0", "0", "1", "3", "9", "14", "20", "20", "20", "20", "21", "30", "33", "30", "32", "32", "5", "6", "18", "1", "2", "7", "16", "7", "2", "8", "11", "27", "27", "28", "28", "22", "13", "18", "7", "12", "13", "14", "18", "14", "20", "19", "14", "19"], "time": [405, 487, 554, 588, 702, 2373, 2445, 2509, 3111, 3483, 3576, 4043, 5493, 5844, 7634, 7843, 10021, 10108, 10251, 12067, 14034, 15796, 15960, 16164, 16301, 16325, 17527, 17877, 17918, 18095, 19745, 19893, 22416, 22579, 24494, 24938, 24963, 25063, 25558, 25814, 26039, 26454, 27760, 27824, 28222, 28957, 29205, 35240]}, "edge": {"target": [], "time": []}}}, "displayed_time": "34.04", "trialTime": 36105, "trial_type": "mouselab-mdp", "trial_index": 41, "time_elapsed": 1819931, "internal_node_id": "0.0-6.0-1.0-32.0"}}, {"uniqueid": "w30325068:a70556300", "current_trial": 42, "dateTime": 1693482556572, "trialdata": {"revealed_states": [], "clicked_states": ["9", "5", "17", "21", "32", "29", "27", "28", "18"], "num_clicks_accrued": [0, 0, 0, 0, 0, 0, 0, 0, 0, 0, 0, 0, 0], "stateRewards": ["", -1, -2, -8, 8, -27, -82, 19, -14, -62, 4, 1, -2, 2, 6, 10, 73, -51, -2, 2, 73, -48, 54, -1, 2, -4, 11, -25, 47, 86, 15, 33, 43, -42], "withholdReward": false, "trial_id": "mdp_trial_34", "block": "test", "trialIndex": 35, "score": 81.4, "costs": -12.600000000000001, "simulationMode": [null, null, null, null, null], "rewards": [-1, 2, -4, 11, 86], "path": ["0", "0", "23", "24", "25", "26", "29"], "rt": [19711, 711, 506, 230, 629], "actions": ["left", "left", "left", "up", "left"], "actionTimes": [22742, 23954, 24970, 25704, 26838], "queries": {"click": {"state": {"target": ["9", "5", "17", "21", "32", "29", "27", "28", "18"], "time": [4852, 6567, 8767, 10634, 12551, 14518, 16301, 18001, 19868]}, "edge": {"target": [], "time": []}}, "mouseover": {"state": {"target": ["1", "8", "9", "5", "17", "20", "21", "32", "33", "29", "27", "28", "1", "18", "18"], "time": [3990, 4192, 4243, 5637, 7421, 9248, 9606, 11571, 13334, 13965, 15079, 16717, 18391, 18800, 19425]}, "edge": {"target": [], "time": []}}, "mouseout": {"state": {"target": ["28", "1", "12", "0", "1", "8", "9", "5", "17", "20", "21", "32", "33", "29", "27", "28", "1", "18"], "time": [1539, 1788, 1859, 3842, 4023, 4224, 5278, 6916, 9184, 9292, 11133, 13277, 13357, 14911, 16675, 18145, 18436, 18897]}, "edge": {"target": [], "time": []}}}, "displayed_time": "27.34", "trialTime": 28693, "trial_type": "mouselab-mdp", "trial_index": 42, "time_elapsed": 1849601, "internal_node_id": "0.0-6.0-1.0-33.0"}}, {"uniqueid": "w30325068:a70556300", "current_trial": 43, "dateTime": 1693482592677, "trialdata": {"revealed_states": [], "clicked_states": ["9", "17", "21", "32", "33", "5", "6", "27", "11", "29", "18", "16"], "num_clicks_accrued": [0, 0, 0, 0, 0, 0, 0, 0, 0, 0, 0, 0, 0], "stateRewards": ["", -2, -4, -6, 12, -58, -70, -80, 2, 16, -88, -62, 1, 2, -5, 11, 77, -35, -44, -5, 18, -83, 87, 1, -3, -5, 13, -44, -21, -86, 10, -52, 8, 29], "withholdReward": false, "trial_id": "mdp_trial_35", "block": "test", "trialIndex": 36, "score": 69.2, "costs": -16.8, "simulationMode": [null, null, null, null, null], "rewards": [1, 2, -5, 11, 77], "path": ["0", "0", "12", "13", "14", "15", "16"], "rt": [27230, 530, 346, 258, 531], "actions": ["right", "right", "right", "up", "up"], "actionTimes": [29643, 30679, 31551, 32305, 33330], "queries": {"click": {"state": {"target": ["9", "17", "21", "32", "33", "5", "6", "27", "11", "29", "18", "16"], "time": [3423, 5323, 7556, 10506, 12406, 15046, 16807, 18407, 20240, 22273, 24108, 26008]}, "edge": {"target": [], "time": []}}, "mouseover": {"state": {"target": ["10", "8", "9", "6", "16", "17", "21", "21", "32", "32", "33", "27", "11", "5", "6", "26", "27", "11", "29", "29", "26", "28", "1", "18", "18", "16", "7", "14", "14"], "time": [2764, 2789, 3094, 3749, 3835, 4161, 6677, 7164, 8050, 8378, 11226, 12871, 12915, 13330, 15841, 17614, 17921, 19424, 21142, 21704, 22713, 22738, 22762, 22809, 23059, 24724, 26930, 27442, 28469]}, "edge": {"target": [], "time": []}}, "mouseout": {"state": {"target": ["18", "0", "10", "8", "9", "6", "16", "17", "21", "21", "32", "32", "33", "27", "11", "5", "6", "26", "27", "11", "29", "29", "26", "28", "1", "18", "18", "16", "7", "18", "14", "14"], "time": [963, 1013, 2787, 2831, 3529, 3771, 3876, 5834, 6719, 7921, 8097, 10938, 12521, 12894, 12978, 15530, 17390, 17777, 19068, 20679, 21404, 22690, 22736, 22760, 22786, 22854, 24643, 26850, 27134, 27381, 27591, 28532]}, "edge": {"target": [], "time": []}}}, "displayed_time": "33.84", "trialTime": 35118, "trial_type": "mouselab-mdp", "trial_index": 43, "time_elapsed": 1885707, "internal_node_id": "0.0-6.0-1.0-34.0"}}, {"uniqueid": "w30325068:a70556300", "current_trial": 44, "dateTime": 1693482611422, "trialdata": {"revealed_states": [], "clicked_states": ["9", "5"], "num_clicks_accrued": [0, 0, 0, 0, 0, 0, 0, 0, 0, 0, 0, 0, 0], "stateRewards": ["", -2, -1, -2, -15, 87, 57, 29, -10, 77, -80, -7, 1, -3, 6, 14, -11, 87, -59, 4, -71, 16, -11, 2, 2, -7, 2, -47, 61, 50, 14, -20, 17, 81], "withholdReward": false, "trial_id": "mdp_trial_36", "block": "test", "trialIndex": 37, "score": 64.2, "costs": -2.8, "simulationMode": [null, null, null, null, null], "rewards": [-2, -1, -2, -15, 87], "path": ["0", "0", "1", "2", "3", "4", "5"], "rt": [6300, 339, 326, 564, 169], "actions": ["up", "up", "up", "right", "up"], "actionTimes": [8339, 9195, 10030, 11095, 11767], "queries": {"click": {"state": {"target": ["9", "5"], "time": [3259, 5225]}, "edge": {"target": [], "time": []}}, "mouseover": {"state": {"target": ["1", "9", "5", "17"], "time": [2434, 2716, 4060, 6094]}, "edge": {"target": [], "time": []}}, "mouseout": {"state": {"target": ["0", "1", "9", "5", "5"], "time": [2395, 2454, 3643, 5383, 5641]}, "edge": {"target": [], "time": []}}}, "displayed_time": "16.05", "trialTime": 17661, "trial_type": "mouselab-mdp", "trial_index": 44, "time_elapsed": 1904451, "internal_node_id": "0.0-6.0-1.0-35.0"}}, {"uniqueid": "w30325068:a70556300", "current_trial": 45, "dateTime": 1693482653543, "trialdata": {"revealed_states": [], "clicked_states": ["9", "17", "21", "32", "27", "29", "5", "6", "7", "18", "16", "28", "11"], "num_clicks_accrued": [0, 0, 0, 0, 0, 0, 0, 0, 0, 0, 0, 0, 0], "stateRewards": ["", 2, -1, -3, 16, -3, -16, -62, -1, 13, -26, 43, -1, 4, 3, -9, -54, -37, -3, -12, -71, -68, -57, 1, -3, 2, -9, 2, -2, -9, -11, 84, -52, 55], "withholdReward": false, "trial_id": "mdp_trial_37", "block": "test", "trialIndex": 38, "score": 21.8, "costs": -18.2, "simulationMode": [null, null, null, null, null], "rewards": [2, -1, -3, -1, 43], "path": ["0", "0", "1", "2", "3", "8", "11"], "rt": [31487, 611, 543, 110, 494], "actions": ["up", "up", "up", "left", "left"], "actionTimes": [33598, 34708, 35772, 36408, 37408], "queries": {"click": {"state": {"target": ["9", "17", "21", "32", "27", "29", "5", "6", "7", "18", "16", "28", "11"], "time": [3454, 5303, 7070, 8920, 11605, 13420, 15987, 17854, 19837, 21655, 24088, 27788, 30789]}, "edge": {"target": [], "time": []}}, "mouseover": {"state": {"target": ["1", "2", "3", "8", "9", "6", "17", "21", "32", "30", "33", "29", "27", "29", "11", "5", "6", "18", "13", "18", "7", "18", "15", "18", "16", "15", "22", "24", "25", "25", "28", "23", "7", "2", "11", "10", "1", "12", "12"], "time": [2628, 2652, 2693, 2895, 3061, 3864, 4402, 6217, 7974, 9467, 9552, 9867, 10221, 12084, 13779, 14150, 16859, 18594, 18648, 19045, 19530, 20257, 20324, 20823, 22050, 24798, 25524, 26496, 26564, 27067, 27296, 28527, 29997, 30129, 30313, 31280, 31326, 31391, 32394]}, "edge": {"target": [], "time": []}}, "mouseout": {"state": {"target": ["17", "15", "18", "12", "0", "1", "2", "3", "8", "9", "6", "17", "21", "32", "30", "33", "29", "27", "29", "27", "11", "5", "6", "18", "13", "18", "7", "18", "15", "18", "16", "16", "15", "22", "24", "25", "25", "28", "23", "7", "2", "11", "10", "1", "12", "12", "13"], "time": [511, 576, 641, 809, 2259, 2650, 2672, 2744, 2974, 3799, 3887, 5714, 7481, 9399, 9488, 9638, 10006, 12019, 13529, 13778, 13802, 16497, 18566, 18619, 18966, 19068, 20234, 20302, 20547, 21966, 24182, 24775, 24846, 25663, 26544, 26679, 27089, 28484, 28550, 30017, 30160, 31257, 31303, 31368, 31437, 32546, 39165]}, "edge": {"target": [], "time": []}}}, "displayed_time": "37.91", "trialTime": 41029, "trial_type": "mouselab-mdp", "trial_index": 45, "time_elapsed": 1946574, "internal_node_id": "0.0-6.0-1.0-36.0"}}, {"uniqueid": "w30325068:a70556300", "current_trial": 46, "dateTime": 1693482682103, "trialdata": {"revealed_states": [], "clicked_states": ["9", "17", "21", "32", "29", "6", "33", "18"], "num_clicks_accrued": [0, 0, 0, 0, 0, 0, 0, 0, 0, 0, 0, 0, 0], "stateRewards": ["", 2, -1, 3, -12, -83, 6, -33, 9, 28, 24, -50, -2, -1, -2, -5, -87, 37, 82, 12, 80, -5, 10, -2, -3, -6, 9, 22, -1, 16, 9, 77, -62, 58], "withholdReward": false, "trial_id": "mdp_trial_38", "block": "test", "trialIndex": 39, "score": 60.8, "costs": -11.200000000000001, "simulationMode": [null, null, null, null, null], "rewards": [-2, -1, -2, -5, 82], "path": ["0", "0", "12", "13", "14", "15", "18"], "rt": [18975, 448, 375, 229, 50], "actions": ["right", "right", "right", "up", "left"], "actionTimes": [21084, 22040, 22915, 23653, 24199], "queries": {"click": {"state": {"target": ["9", "17", "21", "32", "29", "6", "33", "18"], "time": [3293, 5160, 7292, 9175, 11075, 13009, 16110, 18190]}, "edge": {"target": [], "time": []}}, "mouseover": {"state": {"target": ["8", "9", "4", "16", "17", "21", "32", "29", "9", "5", "6", "4", "18", "18", "13", "33", "25", "24", "23", "1", "18", "12", "13", "12", "0", "23", "23", "12", "13"], "time": [2300, 2966, 3825, 3872, 4094, 6325, 8254, 10066, 11564, 11785, 12270, 13523, 13999, 14849, 15031, 15535, 16789, 16896, 17095, 17169, 17765, 18682, 19217, 19657, 19801, 19880, 20214, 20367, 20550]}, "edge": {"target": [], "time": []}}, "mouseout": {"state": {"target": ["0", "8", "9", "4", "16", "17", "21", "32", "29", "9", "5", "6", "4", "18", "18", "13", "33", "25", "24", "23", "1", "18", "12", "13", "12", "0", "23", "23", "12", "13"], "time": [2213, 2325, 3777, 3848, 3896, 5648, 7770, 9615, 11494, 11589, 11848, 13499, 13546, 14281, 14931, 15053, 16724, 16834, 16962, 17144, 17195, 18658, 18709, 19416, 19729, 19832, 20032, 20264, 20514, 25853]}, "edge": {"target": [], "time": []}}}, "displayed_time": "24.74", "trialTime": 27473, "trial_type": "mouselab-mdp", "trial_index": 46, "time_elapsed": 1975133, "internal_node_id": "0.0-6.0-1.0-37.0"}}, {"uniqueid": "w30325068:a70556300", "current_trial": 47, "dateTime": 1693482734494, "trialdata": {"revealed_states": [], "clicked_states": ["9", "17", "21", "32", "33", "29", "27", "28", "16", "18", "5", "6", "7", "11", "31", "20", "22", "10"], "num_clicks_accrued": [0, 0, 0, 0, 0, 0, 0, 0, 0, 0, 0, 0, 0], "stateRewards": ["", -2, 4, 3, 5, -61, 4, 30, 1, -47, 83, 10, 1, 4, 7, -14, 19, -74, -83, 6, -2, -2, -65, -1, -2, 4, -11, 12, -1, -68, 11, -38, -28, 66], "withholdReward": false, "trial_id": "mdp_trial_39", "block": "test", "trialIndex": 40, "score": 63.80000000000001, "costs": -25.199999999999992, "simulationMode": [null, null, null, null, null], "rewards": [-2, 4, 3, 1, 83], "path": ["0", "0", "1", "2", "3", "8", "10"], "rt": [44232, 394, 422, 13, 149], "actions": ["up", "up", "up", "left", "down"], "actionTimes": [46635, 47545, 48495, 49025, 49693], "queries": {"click": {"state": {"target": ["9", "17", "21", "32", "33", "29", "27", "28", "16", "18", "5", "6", "7", "11", "31", "20", "22", "10"], "time": [3656, 6433, 9121, 11054, 12871, 14637, 16489, 18272, 19923, 21990, 24106, 26023, 27856, 29638, 33824, 37424, 39673, 43656]}, "edge": {"target": [], "time": []}}, "mouseover": {"state": {"target": ["1", "2", "3", "9", "9", "6", "16", "17", "17", "20", "21", "21", "21", "32", "33", "29", "27", "28", "18", "16", "18", "18", "6", "5", "6", "7", "2", "11", "11", "10", "0", "33", "30", "31", "22", "19", "20", "20", "19", "22", "14", "15", "23", "24", "26", "10", "3", "10", "2"], "time": [2779, 2802, 2850, 2892, 3311, 4087, 4112, 4201, 4795, 7044, 7345, 7508, 8710, 10170, 11629, 13333, 15025, 17044, 18767, 19461, 20475, 20818, 22570, 22672, 24701, 26602, 28278, 28350, 28694, 30189, 30342, 32477, 33012, 33414, 36013, 36413, 36460, 37115, 37941, 38596, 40520, 40732, 41766, 41792, 42228, 42479, 42849, 43315, 44377]}, "edge": {"target": [], "time": []}}, "mouseout": {"state": {"target": ["0", "1", "1", "2", "3", "9", "9", "6", "16", "17", "17", "20", "21", "21", "21", "32", "33", "29", "27", "28", "18", "16", "16", "18", "18", "6", "5", "6", "6", "7", "2", "11", "11", "10", "0", "33", "30", "31", "22", "19", "20", "20", "19", "22", "14", "15", "23", "24", "26", "10", "3", "10", "2"], "time": [1126, 1394, 2800, 2825, 2871, 2914, 3756, 4110, 4135, 4497, 6977, 7090, 7390, 8475, 9710, 11540, 13192, 14999, 16597, 18684, 18792, 20050, 20425, 20502, 22428, 22597, 24621, 26123, 26412, 28275, 28301, 28438, 30122, 30211, 30365, 32862, 33061, 34486, 36098, 36435, 36579, 37895, 38455, 40411, 40544, 41679, 41788, 41811, 42347, 42515, 43079, 44352, 44402]}, "edge": {"target": [], "time": []}}}, "displayed_time": "50.20", "trialTime": 51272, "trial_type": "mouselab-mdp", "trial_index": 47, "time_elapsed": 2027522, "internal_node_id": "0.0-6.0-1.0-38.0"}}, {"uniqueid": "w30325068:a70556300", "current_trial": 48, "dateTime": 1693482783187, "trialdata": {"revealed_states": [], "clicked_states": ["9", "17", "21", "32", "33", "27", "28", "29", "6", "5", "16", "18", "11", "10", "7", "20", "22"], "num_clicks_accrued": [0, 0, 0, 0, 0, 0, 0, 0, 0, 0, 0, 0, 0], "stateRewards": ["", 1, 1, 6, -14, -40, 37, 16, -13, 33, -68, 49, 2, 4, 3, 6, 55, 27, 32, 10, -65, 20, -87, 2, 1, -6, -5, -42, 12, 29, -8, 16, 76, -33], "withholdReward": false, "trial_id": "mdp_trial_40", "block": "test", "trialIndex": 41, "score": 41.2, "costs": -23.799999999999994, "simulationMode": [null, null, null, null, null], "rewards": [2, 1, -6, -8, 76], "path": ["0", "0", "23", "24", "25", "30", "32"], "rt": [38311, 925, 369, 149, 490], "actions": ["left", "left", "left", "down", "down"], "actionTimes": [40587, 42008, 42883, 43534, 44522], "queries": {"click": {"state": {"target": ["9", "17", "21", "32", "33", "27", "28", "29", "6", "5", "16", "18", "11", "10", "7", "20", "22"], "time": [3637, 5870, 8052, 10138, 11871, 14621, 16438, 18371, 20704, 22739, 24554, 26383, 28504, 30438, 32389, 36305, 38422]}, "edge": {"target": [], "time": []}}, "mouseover": {"state": {"target": ["0", "8", "9", "17", "20", "21", "32", "33", "27", "28", "26", "29", "8", "3", "4", "6", "6", "5", "4", "7", "16", "18", "7", "11", "10", "10", "2", "7", "13", "22", "0", "12", "13", "14", "20", "19", "22"], "time": [2694, 3159, 3326, 4464, 6225, 6446, 8795, 10582, 14179, 15275, 16829, 16903, 18966, 19080, 19127, 19154, 19580, 21787, 23153, 23350, 23841, 25542, 26997, 27815, 28928, 29174, 30876, 30974, 32971, 33095, 33365, 33603, 33680, 34410, 35845, 37196, 37412]}, "edge": {"target": [], "time": []}}, "mouseout": {"state": {"target": ["12", "0", "0", "8", "9", "17", "17", "20", "21", "32", "33", "27", "28", "26", "29", "8", "3", "4", "6", "6", "5", "4", "7", "16", "18", "7", "11", "10", "10", "2", "7", "13", "22", "0", "12", "13", "14", "20", "19"], "time": [476, 2339, 2830, 3209, 3866, 5953, 6174, 6249, 8434, 10515, 13928, 14720, 16805, 16855, 18770, 19056, 19104, 19152, 19198, 21111, 23110, 23221, 23602, 25146, 26851, 27252, 28835, 28953, 30851, 30926, 32904, 33025, 33273, 33576, 33629, 33706, 35795, 36969, 37292]}, "edge": {"target": [], "time": []}}}, "displayed_time": "45.01", "trialTime": 47629, "trial_type": "mouselab-mdp", "trial_index": 48, "time_elapsed": 2076217, "internal_node_id": "0.0-6.0-1.0-39.0"}}, {"uniqueid": "w30325068:a70556300", "current_trial": 49, "dateTime": 1693482840639, "trialdata": {"rt": 57444, "response": {"Q0": "$-88 to $88", "Q1": "$-32 to $32", "Q2": "$-88 to $88", "Q3": "The cost for clicking on nodes varied between nodes.", "Q4": "Very motivated"}, "question_order": [0, 1, 2, 3, 4], "trial_id": "final_quiz_control", "trial_type": "survey-multi-choice", "trial_index": 49, "time_elapsed": 2133670, "internal_node_id": "0.0-6.0-2.0"}}, {"uniqueid": "w30325068:a70556300", "current_trial": 50, "dateTime": 1693483059878, "trialdata": {"rt": 219230, "response": {"Q0": "I tried to find the value of the nodes towards the end or the beginning, never the centre because I felt that the high-value nodes were hiding at the end or the beginning. ", "Q1": "Yes. I ensured that the nodes that I settled for would still give me a high score even after the cost of the node-inspector was subtracted. ", "Q2": "Not difficult. "}, "trial_id": "self_report_control", "trial_type": "survey-text", "trial_index": 50, "time_elapsed": 2352910, "internal_node_id": "0.0-6.0-3.0"}}, {"uniqueid": "w30325068:a70556300", "current_trial": 51, "dateTime": 1693483097230, "trialdata": {"rt": 37344, "response": {"gender": "female", "age": "25", "colorblind": "0", "effort": "0"}, "trial_type": "survey-html-form", "trial_index": 51, "time_elapsed": 2390262, "internal_node_id": "0.0-6.0-4.0"}}, {"uniqueid": "w30325068:a70556300", "current_trial": 52, "dateTime": 1693483117928, "trialdata": {"rt": 20601, "response": {"Q0": "No", "Q1": "No.", "Q2": ""}, "trial_type": "survey-text", "trial_index": 52, "time_elapsed": 2410960, "internal_node_id": "0.0-6.0-5.0"}}, {"uniqueid": "w30325068:a70556300", "current_trial": 53, "dateTime": 1693483136735, "trialdata": {"rt": 18797, "stimulus": "<h1>Completion Code Instructions (1/2)</h1>\n<br><br><br><br>\nYou have reached the end of the experiment! The completion code consists of two parts: (1) a code with 2 characters (2) a code with 6 characters. On this page, you will receive the second part of the code. The first part of the completion code will be on the next page.\n<br><br>\nThe second part of your completion code is: <b>EWEK22</b>\n<br><br>\nPlease note this down. Then, press 'Finish HIT' in order to find the first part of your completion code. Once the data has been saved, you will receive this code either in this window or in the original browser window where you started the experiment.\n", "response": 0, "trial_type": "html-button-response", "trial_index": 53, "time_elapsed": 2429766, "internal_node_id": "0.0-6.0-6.0"}}, {"uniqueid": "w30325068:a70556300", "current_trial": 54, "dateTime": 1693483137743, "trialdata": {"success": true, "trial_type": "fullscreen", "trial_index": 54, "time_elapsed": 2430775, "internal_node_id": "0.0-7.0"}}], "questiondata": {"params": {"CODE": "C6DMOQA6", "MIN_TIME": 14, "inspectCost": 1, "startTime": "Thu Aug 31 2023 13:18:25 GMT+0200 (South Africa Standard Time)", "bonusRate": 0.002, "variance": "1_2_4_8_44", "branching": "31123"}, "final_score": 1727.2}, "eventdata": [{"eventtype": "initialized", "value": null, "timestamp": 1693480704657, "interval": 0}, {"eventtype": "window_resize", "value": [1440, 782], "timestamp": 1693480704657, "interval": 0}, {"eventtype": "window_resize", "value": [1440, 782], "timestamp": 1693480705194, "interval": 537}, {"eventtype": "window_resize", "value": [1440, 900], "timestamp": 1693480717717, "interval": 12523}, {"eventtype": "window_resize", "value": [1440, 782], "timestamp": 1693483136975, "interval": 2419258}], "useragent": "Mozilla/5.0 (Macintosh; Intel Mac OS X 10_15_7) AppleWebKit/537.36 (KHTML, like Gecko) Chrome/116.0.0.0 Safari/537.36", "mode": "live", "id": "w30325068:a70556300", "status": "user data saved", "Beginhit": "2023-08-31 11:18:22.166388", "Beginexp": "2023-08-31 11:18:38.754922", "Endhit": "2023-08-31 11:58:58.937855", "psiturkStatus": 3, "browser": "<redacted>", "platform": "macos", "language": "en-US"}