{"condition": 1, "counterbalance": 0, "assignmentId": "a18710945", "workerId": "w50465644", "hitId": "h14514578", "currenttrial": 41, "bonus": 0, "data": [{"uniqueid": "w50465644:a18710945", "current_trial": 0, "dateTime": 1691159259074, "trialdata": {"success": true, "trial_type": "fullscreen", "trial_index": 0, "time_elapsed": 6946, "internal_node_id": "0.0-0.0"}}, {"uniqueid": "w50465644:a18710945", "current_trial": 1, "dateTime": 1691159304133, "trialdata": {"view_history": [{"page_index": 0, "viewing_time": 45039}], "rt": 45039, "trial_id": "exp_instructions_misaligned", "trial_type": "instructions", "trial_index": 1, "time_elapsed": 52006, "internal_node_id": "0.0-1.0"}}, {"uniqueid": "w50465644:a18710945", "current_trial": 2, "dateTime": 1691159313034, "trialdata": {"success": true, "trial_type": "fullscreen", "trial_index": 2, "time_elapsed": 60907, "internal_node_id": "0.0-2.0-0.0"}}, {"uniqueid": "w50465644:a18710945", "current_trial": 3, "dateTime": 1691159645624, "trialdata": {"view_history": [{"page_index": 0, "viewing_time": 106198}, {"page_index": 1, "viewing_time": 138081}, {"page_index": 2, "viewing_time": 35992}, {"page_index": 3, "viewing_time": 52314}], "rt": 332585, "trial_id": "mouselab_instructions_1_misaligned", "trial_type": "instructions", "trial_index": 3, "time_elapsed": 393497, "internal_node_id": "0.0-2.0-1.0"}}, {"uniqueid": "w50465644:a18710945", "current_trial": 4, "dateTime": 1691159746199, "trialdata": {"revealed_states": [], "clicked_states": ["1", "2", "3", "4", "5", "6"], "num_clicks_accrued": [0, 0, 0, 0, 0, 0, 0, 0, 0, 0, 0, 0, 0], "stateRewards": ["", 10, 10, 10, -10, -10, 10, -10, -10, 10, 10, -10, -10, 10, 10, -10, -10, 10, -10, -10, 10, 10, -10, 10, -10, -10, 10, -10, 10, -10, -10, 10, 10, -10], "withholdReward": false, "trial_id": "practice_1", "block": "test", "trialIndex": 0, "score": 30.5, "costs": -3, "simulationMode": [null, null, null, null, null], "rewards": [10, 10, 10, -10, 10], "path": ["0", "0", "1", "2", "3", "4", "6"], "rt": [70399, 382, 188, 396, 2561], "actions": ["up", "up", "up", "right", "right"], "actionTimes": [78224, 79231, 80018, 81010, 84189], "queries": {"click": {"state": {"target": ["1", "2", "3", "4", "5", "6"], "time": [9564, 11039, 12840, 14143, 16311, 19813]}, "edge": {"target": [], "time": []}}, "mouseover": {"state": {"target": ["1", "2", "3", "4", "5", "6", "4", "1", "1", "1", "2", "3", "4", "6", "4", "3", "8", "8", "9", "8", "10", "0", "23", "24", "14", "13", "14"], "time": [8609, 10252, 12005, 13428, 14953, 18769, 20756, 21373, 22987, 24973, 27343, 28600, 29537, 30753, 31630, 31713, 31789, 32201, 33818, 41918, 42063, 42569, 43973, 46284, 66747, 67203, 67361]}, "edge": {"target": [], "time": []}}, "mouseout": {"state": {"target": ["0", "1", "2", "1", "0", "0", "1", "2", "3", "4", "5", "5", "6", "4", "1", "1", "1", "2", "3", "4", "6", "4", "3", "8", "8", "9", "8", "10", "0", "23", "24", "14", "13", "14"], "time": [28, 2999, 4943, 5026, 5530, 8287, 10029, 11693, 13354, 14763, 16498, 18519, 20735, 20810, 21441, 23235, 27006, 28472, 29467, 30534, 31551, 31690, 31767, 31836, 33641, 41789, 41994, 42488, 42628, 46052, 47338, 66810, 67282, 67430]}, "edge": {"target": [], "time": []}}}, "displayed_time": "84.81", "trialTime": 98538, "trial_type": "mouselab-mdp", "trial_index": 4, "time_elapsed": 494071, "internal_node_id": "0.0-2.0-2.0-0.0"}}, {"uniqueid": "w50465644:a18710945", "current_trial": 5, "dateTime": 1691159762986, "trialdata": {"revealed_states": [], "clicked_states": [], "num_clicks_accrued": [0, 0, 0, 0, 0, 0, 0, 0, 0, 0, 0, 0, 0], "stateRewards": ["", -10, 10, -10, -10, -10, -10, -10, -10, 10, -10, -10, 10, -10, 10, 10, 10, 10, -10, -10, -10, -10, -10, -10, 10, 10, 10, 10, -10, 10, 10, -10, 10, -10], "withholdReward": false, "trial_id": "practice_2", "block": "test", "trialIndex": 1, "score": -26.5, "costs": 0, "simulationMode": [null, null, null, null, null], "rewards": [-10, 10, -10, -10, -10], "path": ["0", "0", "1", "2", "3", "8", "11"], "rt": [1333, 100, 112, 710, 160], "actions": ["up", "up", "up", "left", "left"], "actionTimes": [8483, 9169, 9871, 11170, 11909], "queries": {"click": {"state": {"target": [], "time": []}, "edge": {"target": [], "time": []}}, "mouseover": {"state": {"target": [], "time": []}, "edge": {"target": [], "time": []}}, "mouseout": {"state": {"target": [], "time": []}, "edge": {"target": [], "time": []}}}, "displayed_time": "12.52", "trialTime": 16371, "trial_type": "mouselab-mdp", "trial_index": 5, "time_elapsed": 510858, "internal_node_id": "0.0-2.0-2.0-1.0"}}, {"uniqueid": "w50465644:a18710945", "current_trial": 6, "dateTime": 1691159807880, "trialdata": {"view_history": [{"page_index": 0, "viewing_time": 20486}, {"page_index": 1, "viewing_time": 24403}], "rt": 44889, "trial_id": "mouselab_instructions_2_misaligned", "trial_type": "instructions", "trial_index": 6, "time_elapsed": 555753, "internal_node_id": "0.0-2.0-3.0"}}, {"uniqueid": "w50465644:a18710945", "current_trial": 7, "dateTime": 1691159916812, "trialdata": {"rt": 108924, "response": {"Q0": "The cost for clicking on nodes may vary between nodes.", "Q1": "The better I perform the higher my bonus will be.", "Q2": "No, the amount of cash at each node of the web may be different each time.", "Q3": "To get the highest total score.", "Q4": "Only after moving the spider.", "Q5": "3 seconds"}, "question_order": [0, 1, 2, 3, 4, 5], "correct": {"Q0": "The cost for clicking on nodes may vary between nodes.", "Q1": "The better I perform the higher my bonus will be.", "Q2": "No, the amount of cash at each node of the web may be different each time.", "Q3": "To get the highest total score.", "Q4": "Only before moving the spider.", "Q5": "3 seconds"}, "trial_id": "mouselab_quiz_misaligned", "trial_type": "survey-multi-choice", "trial_index": 7, "time_elapsed": 664685, "internal_node_id": "0.0-2.0-4.0"}}, {"uniqueid": "w50465644:a18710945", "current_trial": 8, "dateTime": 1691159930168, "trialdata": {"success": true, "trial_type": "fullscreen", "trial_index": 8, "time_elapsed": 678040, "internal_node_id": "0.0-2.1-0.1"}}, {"uniqueid": "w50465644:a18710945", "current_trial": 9, "dateTime": 1691160083587, "trialdata": {"view_history": [{"page_index": 0, "viewing_time": 48374}, {"page_index": 1, "viewing_time": 34905}, {"page_index": 2, "viewing_time": 6656}, {"page_index": 3, "viewing_time": 63476}], "rt": 153411, "trial_id": "mouselab_instructions_1_misaligned", "trial_type": "instructions", "trial_index": 9, "time_elapsed": 831459, "internal_node_id": "0.0-2.1-1.1"}}, {"uniqueid": "w50465644:a18710945", "current_trial": 10, "dateTime": 1691160114338, "trialdata": {"revealed_states": [], "clicked_states": ["1", "2", "3", "8", "9", "11"], "num_clicks_accrued": [0, 0, 0, 0, 0, 0, 0, 0, 0, 0, 0, 0, 0], "stateRewards": ["", 10, 10, 10, -10, -10, 10, -10, -10, 10, 10, -10, -10, 10, 10, -10, -10, 10, -10, -10, 10, 10, -10, 10, -10, -10, 10, -10, 10, -10, -10, 10, 10, -10], "withholdReward": false, "trial_id": "practice_1", "block": "test", "trialIndex": 2, "score": 10.5, "costs": -3, "simulationMode": [null, null, null, null, null], "rewards": [10, 10, 10, -10, -10], "path": ["0", "0", "1", "2", "3", "8", "11"], "rt": [17277, 133, 42, 570, 444], "actions": ["up", "up", "up", "left", "left"], "actionTimes": [22664, 23410, 24039, 25236, 26292], "queries": {"click": {"state": {"target": ["1", "2", "3", "8", "9", "11"], "time": [8974, 10988, 12467, 13920, 15266, 20179]}, "edge": {"target": [], "time": []}}, "mouseover": {"state": {"target": ["0", "1", "2", "3", "8", "9", "11", "7", "16"], "time": [6160, 8019, 10212, 11653, 13300, 14539, 19332, 21629, 21746]}, "edge": {"target": [], "time": []}}, "mouseout": {"state": {"target": ["0", "0", "0", "1", "2", "3", "8", "9", "8", "11", "7", "16"], "time": [1499, 1575, 7401, 10143, 11354, 12980, 14101, 17020, 17114, 21546, 21688, 21806]}, "edge": {"target": [], "time": []}}}, "displayed_time": "26.92", "trialTime": 30330, "trial_type": "mouselab-mdp", "trial_index": 10, "time_elapsed": 862211, "internal_node_id": "0.0-2.1-2.1-0.1"}}, {"uniqueid": "w50465644:a18710945", "current_trial": 11, "dateTime": 1691160125787, "trialdata": {"revealed_states": [], "clicked_states": [], "num_clicks_accrued": [0, 0, 0, 0, 0, 0, 0, 0, 0, 0, 0, 0, 0], "stateRewards": ["", -10, 10, -10, -10, -10, -10, -10, -10, 10, -10, -10, 10, -10, 10, 10, 10, 10, -10, -10, -10, -10, -10, -10, 10, 10, 10, 10, -10, 10, 10, -10, 10, -10], "withholdReward": false, "trial_id": "practice_2", "block": "test", "trialIndex": 3, "score": -6.5, "costs": 0, "simulationMode": [null, null, null, null, null], "rewards": [10, -10, 10, -10, -10], "path": ["0", "0", "12", "13", "14", "19", "21"], "rt": [2157, 181, 342, 248, 1], "actions": ["right", "right", "right", "down", "down"], "actionTimes": [5161, 5965, 6883, 7728, 8331], "queries": {"click": {"state": {"target": [], "time": []}, "edge": {"target": [], "time": []}}, "mouseover": {"state": {"target": [], "time": []}, "edge": {"target": [], "time": []}}, "mouseout": {"state": {"target": ["15", "13", "12", "0"], "time": [1332, 1468, 1544, 2346]}, "edge": {"target": [], "time": []}}}, "displayed_time": "8.95", "trialTime": 11015, "trial_type": "mouselab-mdp", "trial_index": 11, "time_elapsed": 873660, "internal_node_id": "0.0-2.1-2.1-1.1"}}, {"uniqueid": "w50465644:a18710945", "current_trial": 12, "dateTime": 1691160151830, "trialdata": {"view_history": [{"page_index": 0, "viewing_time": 20984}, {"page_index": 1, "viewing_time": 5053}], "rt": 26038, "trial_id": "mouselab_instructions_2_misaligned", "trial_type": "instructions", "trial_index": 12, "time_elapsed": 899702, "internal_node_id": "0.0-2.1-3.1"}}, {"uniqueid": "w50465644:a18710945", "current_trial": 13, "dateTime": 1691160234901, "trialdata": {"rt": 83061, "response": {"Q0": "The cost for clicking on nodes may vary between nodes.", "Q1": "The better I perform the higher my bonus will be.", "Q2": "No, the amount of cash at each node of the web may be different each time.", "Q3": "To get the highest total score.", "Q4": "Any time during the round.", "Q5": "3 seconds"}, "question_order": [0, 1, 2, 3, 4, 5], "correct": {"Q0": "The cost for clicking on nodes may vary between nodes.", "Q1": "The better I perform the higher my bonus will be.", "Q2": "No, the amount of cash at each node of the web may be different each time.", "Q3": "To get the highest total score.", "Q4": "Only before moving the spider.", "Q5": "3 seconds"}, "trial_id": "mouselab_quiz_misaligned", "trial_type": "survey-multi-choice", "trial_index": 13, "time_elapsed": 982774, "internal_node_id": "0.0-2.1-4.1"}}, {"uniqueid": "w50465644:a18710945", "current_trial": 14, "dateTime": 1691160261402, "trialdata": {"success": true, "trial_type": "fullscreen", "trial_index": 14, "time_elapsed": 1009275, "internal_node_id": "0.0-2.2-0.2"}}, {"uniqueid": "w50465644:a18710945", "current_trial": 15, "dateTime": 1691160511016, "trialdata": {"view_history": [{"page_index": 0, "viewing_time": 16426}, {"page_index": 1, "viewing_time": 139129}, {"page_index": 2, "viewing_time": 33946}, {"page_index": 3, "viewing_time": 60106}], "rt": 249607, "trial_id": "mouselab_instructions_1_misaligned", "trial_type": "instructions", "trial_index": 15, "time_elapsed": 1258889, "internal_node_id": "0.0-2.2-1.2"}}, {"uniqueid": "w50465644:a18710945", "current_trial": 16, "dateTime": 1691160526349, "trialdata": {"revealed_states": [], "clicked_states": [], "num_clicks_accrued": [0, 0, 0, 0, 0, 0, 0, 0, 0, 0, 0, 0, 0], "stateRewards": ["", 10, 10, 10, -10, -10, 10, -10, -10, 10, 10, -10, -10, 10, 10, -10, -10, 10, -10, -10, 10, 10, -10, 10, -10, -10, 10, -10, 10, -10, -10, 10, 10, -10], "withholdReward": false, "trial_id": "practice_1", "block": "test", "trialIndex": 4, "score": 13.5, "costs": 0, "simulationMode": [null, null, null, null, null], "rewards": [10, 10, 10, -10, -10], "path": ["0", "0", "1", "2", "3", "8", "11"], "rt": [3690, 705, 382, 323, 1015], "actions": ["up", "up", "up", "left", "left"], "actionTimes": [7515, 8804, 9784, 10729, 12341], "queries": {"click": {"state": {"target": [], "time": []}, "edge": {"target": [], "time": []}}, "mouseover": {"state": {"target": [], "time": []}, "edge": {"target": [], "time": []}}, "mouseout": {"state": {"target": [], "time": []}, "edge": {"target": [], "time": []}}}, "displayed_time": "12.95", "trialTime": 14934, "trial_type": "mouselab-mdp", "trial_index": 16, "time_elapsed": 1274222, "internal_node_id": "0.0-2.2-2.2-0.2"}}, {"uniqueid": "w50465644:a18710945", "current_trial": 17, "dateTime": 1691160540729, "trialdata": {"revealed_states": [], "clicked_states": [], "num_clicks_accrued": [0, 0, 0, 0, 0, 0, 0, 0, 0, 0, 0, 0, 0], "stateRewards": ["", -10, 10, -10, -10, -10, -10, -10, -10, 10, -10, -10, 10, -10, 10, 10, 10, 10, -10, -10, -10, -10, -10, -10, 10, 10, 10, 10, -10, 10, 10, -10, 10, -10], "withholdReward": false, "trial_id": "practice_2", "block": "test", "trialIndex": 5, "score": 33.5, "costs": 0, "simulationMode": [null, null, null, null, null], "rewards": [-10, 10, 10, 10, 10], "path": ["0", "0", "23", "24", "25", "26", "29"], "rt": [3159, 542, 238, 788, 752], "actions": ["left", "left", "left", "up", "left"], "actionTimes": [5984, 7129, 7962, 9360, 10696], "queries": {"click": {"state": {"target": [], "time": []}, "edge": {"target": [], "time": []}}, "mouseover": {"state": {"target": [], "time": []}, "edge": {"target": [], "time": []}}, "mouseout": {"state": {"target": ["0"], "time": [2580]}, "edge": {"target": [], "time": []}}}, "displayed_time": "11.30", "trialTime": 13955, "trial_type": "mouselab-mdp", "trial_index": 17, "time_elapsed": 1288602, "internal_node_id": "0.0-2.2-2.2-1.2"}}, {"uniqueid": "w50465644:a18710945", "current_trial": 18, "dateTime": 1691160603250, "trialdata": {"view_history": [{"page_index": 0, "viewing_time": 56627}, {"page_index": 1, "viewing_time": 5888}], "rt": 62515, "trial_id": "mouselab_instructions_2_misaligned", "trial_type": "instructions", "trial_index": 18, "time_elapsed": 1351122, "internal_node_id": "0.0-2.2-3.2"}}, {"uniqueid": "w50465644:a18710945", "current_trial": 19, "dateTime": 1691160676406, "trialdata": {"rt": 73148, "response": {"Q0": "The cost for clicking on nodes may vary between nodes.", "Q1": "The better I perform the higher my bonus will be.", "Q2": "No, the amount of cash at each node of the web may be different each time.", "Q3": "To get the highest total score.", "Q4": "Only before moving the spider.", "Q5": "3 seconds"}, "question_order": [0, 1, 2, 3, 4, 5], "correct": {"Q0": "The cost for clicking on nodes may vary between nodes.", "Q1": "The better I perform the higher my bonus will be.", "Q2": "No, the amount of cash at each node of the web may be different each time.", "Q3": "To get the highest total score.", "Q4": "Only before moving the spider.", "Q5": "3 seconds"}, "trial_id": "mouselab_quiz_misaligned", "trial_type": "survey-multi-choice", "trial_index": 19, "time_elapsed": 1424279, "internal_node_id": "0.0-2.2-4.2"}}, {"uniqueid": "w50465644:a18710945", "current_trial": 20, "dateTime": 1691160719626, "trialdata": {"rt": 43211, "stimulus": "\n<h1> Get ready to start the game! </h1>\n\nThank you for reading the instructions. Get ready start with the 40 rounds of this game.\n<br><br>\nIf you need to take a break, feel free to take one after the end of a round, before continuing to the next one.\n<br><br>\nRemember, the more money the spider gets, the bigger your bonus will be!\n<br><br>\n<div style='text-align: center;'>Press <code>space</code> to begin.</div>\n\n<br><br>\n(If, at any point, the <code>space</code> key does not take you to the next page, click once on the text and try again.)", "response": " ", "trial_id": "mdp_ready", "trial_type": "html-keyboard-response", "trial_index": 20, "time_elapsed": 1467499, "internal_node_id": "0.0-4.0-0.0"}}, {"uniqueid": "w50465644:a18710945", "current_trial": 21, "dateTime": 1691160740981, "trialdata": {"revealed_states": [], "clicked_states": [], "num_clicks_accrued": [0, 0, 0, 0, 0, 0, 0, 0, 0, 0, 0, 0, 0], "stateRewards": ["", 2, -1, -1, 7, 11, -40, -22, -2, 69, 37, 8, -2, 4, -8, -12, -2, -72, -3, -12, 17, 63, 12, 1, 3, -7, 6, 25, 61, 61, -9, 28, -17, 27], "withholdReward": false, "trial_id": "mdp_trial_1", "block": "test", "trialIndex": 6, "score": 64, "costs": 0, "simulationMode": [null, null, null, null, null], "rewards": [1, 3, -7, 6, 61], "path": ["0", "0", "23", "24", "25", "26", "29"], "rt": [2999, 195, 211, 614, 269], "actions": ["left", "left", "left", "up", "left"], "actionTimes": [7110, 7884, 8703, 9906, 10788], "queries": {"click": {"state": {"target": [], "time": []}, "edge": {"target": [], "time": []}}, "mouseover": {"state": {"target": [], "time": []}, "edge": {"target": [], "time": []}}, "mouseout": {"state": {"target": ["0"], "time": [2605]}, "edge": {"target": [], "time": []}}}, "displayed_time": "18.60", "trialTime": 20926, "trial_type": "mouselab-mdp", "trial_index": 21, "time_elapsed": 1488853, "internal_node_id": "0.0-4.0-1.0-0.0"}}, {"uniqueid": "w50465644:a18710945", "current_trial": 22, "dateTime": 1691160760863, "trialdata": {"revealed_states": [], "clicked_states": [], "num_clicks_accrued": [0, 0, 0, 0, 0, 0, 0, 0, 0, 0, 0, 0, 0], "stateRewards": ["", -1, -2, -1, -10, -57, 73, -72, -16, 75, -14, -46, -2, -3, -7, -1, -61, -60, 76, -4, 50, 4, 14, 2, 2, -7, 12, -65, -32, 15, -8, -76, -25, -61], "withholdReward": false, "trial_id": "mdp_trial_2", "block": "test", "trialIndex": 7, "score": -71, "costs": 0, "simulationMode": [null, null, null, null, null], "rewards": [-1, -2, -1, -10, -57], "path": ["0", "0", "1", "2", "3", "4", "5"], "rt": [2480, 784, 329, 1255, 1274], "actions": ["up", "up", "up", "right", "up"], "actionTimes": [4694, 6037, 6976, 8811, 10689], "queries": {"click": {"state": {"target": [], "time": []}, "edge": {"target": [], "time": []}}, "mouseover": {"state": {"target": ["0"], "time": [3213]}, "edge": {"target": [], "time": []}}, "mouseout": {"state": {"target": ["0"], "time": [1871]}, "edge": {"target": [], "time": []}}}, "displayed_time": "16.48", "trialTime": 19467, "trial_type": "mouselab-mdp", "trial_index": 22, "time_elapsed": 1508735, "internal_node_id": "0.0-4.0-1.0-1.0"}}, {"uniqueid": "w50465644:a18710945", "current_trial": 23, "dateTime": 1691160782740, "trialdata": {"revealed_states": [], "clicked_states": [], "num_clicks_accrued": [0, 0, 0, 0, 0, 0, 0, 0, 0, 0, 0, 0, 0], "stateRewards": ["", -2, 2, -2, -7, -50, -62, -45, 7, 36, -24, -72, -1, -1, 8, -1, -67, 20, -52, 2, 35, -50, 80, -1, 1, 6, -6, -70, 6, 88, 8, -47, 74, -19], "withholdReward": false, "trial_id": "mdp_trial_3", "block": "test", "trialIndex": 8, "score": -59, "costs": 0, "simulationMode": [null, null, null, null, null], "rewards": [-2, 2, -2, -7, -50], "path": ["0", "0", "1", "2", "3", "4", "5"], "rt": [2713, 0, 288, 620, 977], "actions": ["up", "up", "up", "right", "up"], "actionTimes": [4662, 5256, 6114, 7319, 8930], "queries": {"click": {"state": {"target": [], "time": []}, "edge": {"target": [], "time": []}}, "mouseover": {"state": {"target": [], "time": []}, "edge": {"target": [], "time": []}}, "mouseout": {"state": {"target": [], "time": []}, "edge": {"target": [], "time": []}}}, "displayed_time": "16.17", "trialTime": 21465, "trial_type": "mouselab-mdp", "trial_index": 23, "time_elapsed": 1530613, "internal_node_id": "0.0-4.0-1.0-2.0"}}, {"uniqueid": "w50465644:a18710945", "current_trial": 24, "dateTime": 1691160801819, "trialdata": {"revealed_states": [], "clicked_states": [], "num_clicks_accrued": [0, 0, 0, 0, 0, 0, 0, 0, 0, 0, 0, 0, 0], "stateRewards": ["", -2, -3, -3, 9, 79, 67, 22, -15, -56, 27, -85, -2, 4, -4, -15, -20, -32, 60, 15, 71, 57, 17, 1, 2, -8, 15, -37, -81, 82, 15, 21, -3, 2], "withholdReward": false, "trial_id": "mdp_trial_4", "block": "test", "trialIndex": 9, "score": 92, "costs": 0, "simulationMode": [null, null, null, null, null], "rewards": [1, 2, -8, 15, 82], "path": ["0", "0", "23", "24", "25", "26", "29"], "rt": [1078, 399, 230, 830, 362], "actions": ["left", "left", "left", "up", "left"], "actionTimes": [3014, 3980, 4779, 6190, 7157], "queries": {"click": {"state": {"target": [], "time": []}, "edge": {"target": [], "time": []}}, "mouseover": {"state": {"target": [], "time": []}, "edge": {"target": [], "time": []}}, "mouseout": {"state": {"target": ["0"], "time": [14287]}, "edge": {"target": [], "time": []}}}, "displayed_time": "16.13", "trialTime": 18696, "trial_type": "mouselab-mdp", "trial_index": 24, "time_elapsed": 1549692, "internal_node_id": "0.0-4.0-1.0-3.0"}}, {"uniqueid": "w50465644:a18710945", "current_trial": 25, "dateTime": 1691160828591, "trialdata": {"revealed_states": [], "clicked_states": ["25"], "num_clicks_accrued": [0, 0, 0, 0, 0, 0, 0, 0, 0, 0, 0, 0, 0], "stateRewards": ["", 1, -2, -2, 10, -31, -77, 35, 9, -47, 8, 48, -2, 1, -4, -3, -26, -50, 43, -11, 76, -38, 17, 1, -1, 6, 10, 15, -9, 12, -8, 85, 11, -55], "withholdReward": false, "trial_id": "mdp_trial_5", "block": "test", "trialIndex": 10, "score": -58.95, "costs": -0.95, "simulationMode": [null, null, null, null, null], "rewards": [-2, 1, -4, -3, -50], "path": ["0", "0", "12", "13", "14", "15", "17"], "rt": [7154, 365, 430, 1090, 608], "actions": ["right", "right", "right", "up", "right"], "actionTimes": [13972, 14942, 15989, 17673, 18879], "queries": {"click": {"state": {"target": ["25"], "time": [8293]}, "edge": {"target": [], "time": []}}, "mouseover": {"state": {"target": ["23", "24", "25", "25", "24", "23", "12", "14"], "time": [6961, 7022, 7106, 7556, 9742, 9808, 9864, 11030]}, "edge": {"target": [], "time": []}}, "mouseout": {"state": {"target": ["25", "23", "0", "23", "24", "25", "25", "24", "23", "12", "14", "13", "12", "13"], "time": [2069, 5810, 6913, 7004, 7061, 7151, 9678, 9792, 9848, 9900, 22826, 22960, 23212, 25099]}, "edge": {"target": [], "time": []}}}, "displayed_time": "21.39", "trialTime": 26260, "trial_type": "mouselab-mdp", "trial_index": 25, "time_elapsed": 1576463, "internal_node_id": "0.0-4.0-1.0-4.0"}}, {"uniqueid": "w50465644:a18710945", "current_trial": 26, "dateTime": 1691160850306, "trialdata": {"revealed_states": [], "clicked_states": ["15"], "num_clicks_accrued": [0, 0, 0, 0, 0, 0, 0, 0, 0, 0, 0, 0, 0], "stateRewards": ["", -1, 2, -2, 5, 80, -61, -27, 12, 44, -26, -75, -2, -4, 1, -16, 42, -49, -50, 4, -44, 2, 80, -2, -2, 5, -2, 59, 10, 24, 7, -48, -86, -44], "withholdReward": false, "trial_id": "mdp_trial_6", "block": "test", "trialIndex": 11, "score": 21.45, "costs": -1.55, "simulationMode": [null, null, null, null, null], "rewards": [-2, -2, 5, -2, 24], "path": ["0", "0", "23", "24", "25", "26", "29"], "rt": [6816, 1, 416, 1330, 982], "actions": ["left", "left", "left", "up", "left"], "actionTimes": [9250, 9859, 10901, 12829, 14417], "queries": {"click": {"state": {"target": ["15"], "time": [5065]}, "edge": {"target": [], "time": []}}, "mouseover": {"state": {"target": ["1", "18", "15", "12", "0"], "time": [3630, 3757, 4117, 7400, 7467]}, "edge": {"target": [], "time": []}}, "mouseout": {"state": {"target": ["12", "0", "1", "18", "15", "12", "0"], "time": [1076, 1674, 3699, 3824, 7330, 7450, 7503]}, "edge": {"target": [], "time": []}}}, "displayed_time": "16.69", "trialTime": 21310, "trial_type": "mouselab-mdp", "trial_index": 26, "time_elapsed": 1598178, "internal_node_id": "0.0-4.0-1.0-5.0"}}, {"uniqueid": "w50465644:a18710945", "current_trial": 27, "dateTime": 1691160869782, "trialdata": {"revealed_states": [], "clicked_states": [], "num_clicks_accrued": [0, 0, 0, 0, 0, 0, 0, 0, 0, 0, 0, 0, 0], "stateRewards": ["", -1, 4, -6, -5, -22, -38, -38, -2, -56, 88, 14, -1, -1, -7, -6, 61, -60, 21, 11, 57, 31, -30, -2, -2, 6, -9, -44, -70, -44, -15, 34, 16, -78], "withholdReward": false, "trial_id": "mdp_trial_7", "block": "test", "trialIndex": 12, "score": -51, "costs": 0, "simulationMode": [null, null, null, null, null], "rewards": [-2, -2, 6, -9, -44], "path": ["0", "0", "23", "24", "25", "26", "29"], "rt": [8426, 2, 148, 1148, 199], "actions": ["left", "left", "left", "up", "left"], "actionTimes": [11186, 11806, 12566, 14332, 15169], "queries": {"click": {"state": {"target": [], "time": []}, "edge": {"target": [], "time": []}}, "mouseover": {"state": {"target": ["12", "23", "24", "29", "26", "24"], "time": [3647, 3924, 3991, 4486, 4816, 9732]}, "edge": {"target": [], "time": []}}, "mouseout": {"state": {"target": ["32", "31", "24", "23", "0", "12", "23", "24", "29", "26", "24"], "time": [1363, 1442, 1580, 1794, 3557, 3865, 3974, 4031, 4681, 9654, 9793]}, "edge": {"target": [], "time": []}}}, "displayed_time": "17.05", "trialTime": 19094, "trial_type": "mouselab-mdp", "trial_index": 27, "time_elapsed": 1617654, "internal_node_id": "0.0-4.0-1.0-6.0"}}, {"uniqueid": "w50465644:a18710945", "current_trial": 28, "dateTime": 1691160888645, "trialdata": {"revealed_states": [], "clicked_states": [], "num_clicks_accrued": [0, 0, 0, 0, 0, 0, 0, 0, 0, 0, 0, 0, 0], "stateRewards": ["", 1, 1, -5, 10, -31, 73, 14, -8, -23, 63, -70, -1, 2, 8, 7, 25, -59, 27, -10, -40, -71, -15, -2, 3, -8, -5, -19, 77, -34, 7, 67, 63, 19], "withholdReward": false, "trial_id": "mdp_trial_8", "block": "test", "trialIndex": 13, "score": -31, "costs": 0, "simulationMode": [null, null, null, null, null], "rewards": [-2, 3, -8, -5, -19], "path": ["0", "0", "23", "24", "25", "26", "27"], "rt": [1217, 122, 351, 697, 548], "actions": ["left", "left", "left", "up", "up"], "actionTimes": [3888, 4600, 5555, 6829, 7977], "queries": {"click": {"state": {"target": [], "time": []}, "edge": {"target": [], "time": []}}, "mouseover": {"state": {"target": [], "time": []}, "edge": {"target": [], "time": []}}, "mouseout": {"state": {"target": ["0", "23", "24"], "time": [13062, 13153, 13345]}, "edge": {"target": [], "time": []}}}, "displayed_time": "16.86", "trialTime": 18446, "trial_type": "mouselab-mdp", "trial_index": 28, "time_elapsed": 1636517, "internal_node_id": "0.0-4.0-1.0-7.0"}}, {"uniqueid": "w50465644:a18710945", "current_trial": 29, "dateTime": 1691160912468, "trialdata": {"revealed_states": [], "clicked_states": ["25"], "num_clicks_accrued": [0, 0, 0, 0, 0, 0, 0, 0, 0, 0, 0, 0, 0], "stateRewards": ["", 2, -1, -4, -13, 74, 77, 3, 2, -43, -2, -11, 2, 3, 7, 11, -26, -29, -33, -3, -3, -13, -3, 1, 3, -7, 14, -59, 33, 9, -5, 34, 79, 68], "withholdReward": false, "trial_id": "mdp_trial_9", "block": "test", "trialIndex": 14, "score": -44.95, "costs": -0.95, "simulationMode": [null, null, null, null, null], "rewards": [2, -1, -4, 2, -43], "path": ["0", "0", "1", "2", "3", "8", "9"], "rt": [3813, 249, 106, 2304, 209], "actions": ["up", "up", "up", "left", "up"], "actionTimes": [10680, 11525, 12238, 15192, 16007], "queries": {"click": {"state": {"target": ["25"], "time": [8188]}, "edge": {"target": [], "time": []}}, "mouseover": {"state": {"target": ["23", "24", "25"], "time": [7038, 7129, 7369]}, "edge": {"target": [], "time": []}}, "mouseout": {"state": {"target": ["25", "24", "23", "24", "25", "25", "24", "23", "0", "23", "24"], "time": [1262, 1324, 2112, 2156, 2189, 5512, 5593, 5748, 6991, 7085, 7251]}, "edge": {"target": [], "time": []}}}, "displayed_time": "21.33", "trialTime": 23448, "trial_type": "mouselab-mdp", "trial_index": 29, "time_elapsed": 1660340, "internal_node_id": "0.0-4.0-1.0-8.0"}}, {"uniqueid": "w50465644:a18710945", "current_trial": 30, "dateTime": 1691160931920, "trialdata": {"revealed_states": [], "clicked_states": ["8"], "num_clicks_accrued": [0, 0, 0, 0, 0, 0, 0, 0, 0, 0, 0, 0, 0], "stateRewards": ["", -2, -4, -8, 8, 63, -50, -19, -7, -17, -31, 31, 1, 3, -5, 12, -35, -63, -29, -4, -17, -75, -79, -2, -3, -2, 8, -3, -85, 10, -2, -82, -82, 56], "withholdReward": false, "trial_id": "mdp_trial_10", "block": "test", "trialIndex": 15, "score": 8.45, "costs": -1.55, "simulationMode": [null, null, null, null, null], "rewards": [-2, -4, -8, -7, 31], "path": ["0", "0", "1", "2", "3", "8", "11"], "rt": [3720, 3, 759, 912, 208], "actions": ["up", "up", "up", "left", "left"], "actionTimes": [6385, 6975, 8449, 9975, 10820], "queries": {"click": {"state": {"target": ["8"], "time": [4508]}, "edge": {"target": [], "time": []}}, "mouseover": {"state": {"target": ["10", "8"], "time": [3234, 3621]}, "edge": {"target": [], "time": []}}, "mouseout": {"state": {"target": ["25", "23", "0", "12", "0", "10"], "time": [1078, 1262, 1341, 1631, 2895, 3299]}, "edge": {"target": [], "time": []}}}, "displayed_time": "17.13", "trialTime": 19001, "trial_type": "mouselab-mdp", "trial_index": 30, "time_elapsed": 1679792, "internal_node_id": "0.0-4.0-1.0-9.0"}}, {"uniqueid": "w50465644:a18710945", "current_trial": 31, "dateTime": 1691160952383, "trialdata": {"revealed_states": [], "clicked_states": [], "num_clicks_accrued": [0, 0, 0, 0, 0, 0, 0, 0, 0, 0, 0, 0, 0], "stateRewards": ["", 1, 1, -3, 7, 49, 78, 26, -5, 26, 48, -43, -1, -3, 2, -5, 4, -1, -60, 10, -35, 51, 81, -2, 1, -7, -5, -39, -86, -54, 4, -3, 74, 77], "withholdReward": false, "trial_id": "mdp_trial_11", "block": "test", "trialIndex": 16, "score": 42, "costs": 0, "simulationMode": [null, null, null, null, null], "rewards": [1, 1, -3, -5, 48], "path": ["0", "0", "1", "2", "3", "8", "10"], "rt": [1916, 464, 34, 1072, 1393], "actions": ["up", "up", "up", "left", "down"], "actionTimes": [5109, 6177, 6808, 8447, 10417], "queries": {"click": {"state": {"target": [], "time": []}, "edge": {"target": [], "time": []}}, "mouseover": {"state": {"target": [], "time": []}, "edge": {"target": [], "time": []}}, "mouseout": {"state": {"target": ["8", "1", "0", "0"], "time": [1856, 1976, 2054, 2581]}, "edge": {"target": [], "time": []}}}, "displayed_time": "17.46", "trialTime": 20026, "trial_type": "mouselab-mdp", "trial_index": 31, "time_elapsed": 1700255, "internal_node_id": "0.0-4.0-1.0-10.0"}}, {"uniqueid": "w50465644:a18710945", "current_trial": 32, "dateTime": 1691160971723, "trialdata": {"revealed_states": [], "clicked_states": [], "num_clicks_accrued": [0, 0, 0, 0, 0, 0, 0, 0, 0, 0, 0, 0, 0], "stateRewards": ["", -1, 1, 3, -8, -23, -15, -14, -11, -23, 58, 68, 1, 3, 5, 12, -17, -41, -7, -10, -4, 82, 10, 1, 4, -4, 11, 73, 55, -55, -1, -86, -86, 54], "withholdReward": false, "trial_id": "mdp_trial_12", "block": "test", "trialIndex": 17, "score": -5, "costs": 0, "simulationMode": [null, null, null, null, null], "rewards": [1, 3, 5, -10, -4], "path": ["0", "0", "12", "13", "14", "19", "20"], "rt": [3575, 0, 403, 258, 524], "actions": ["right", "right", "right", "down", "right"], "actionTimes": [6059, 6623, 7633, 8485, 9629], "queries": {"click": {"state": {"target": [], "time": []}, "edge": {"target": [], "time": []}}, "mouseover": {"state": {"target": [], "time": []}, "edge": {"target": [], "time": []}}, "mouseout": {"state": {"target": ["0"], "time": [2127]}, "edge": {"target": [], "time": []}}}, "displayed_time": "17.05", "trialTime": 18956, "trial_type": "mouselab-mdp", "trial_index": 32, "time_elapsed": 1719596, "internal_node_id": "0.0-4.0-1.0-11.0"}}, {"uniqueid": "w50465644:a18710945", "current_trial": 33, "dateTime": 1691160990956, "trialdata": {"revealed_states": [], "clicked_states": [], "num_clicks_accrued": [0, 0, 0, 0, 0, 0, 0, 0, 0, 0, 0, 0, 0], "stateRewards": ["", 1, 2, 3, 16, 63, -25, 16, -4, -14, 82, -66, -1, -3, -3, -11, -14, 19, 46, 3, -34, -82, 66, -2, -3, 4, -5, -63, 77, -37, -1, -45, -41, 84], "withholdReward": false, "trial_id": "mdp_trial_13", "block": "test", "trialIndex": 18, "score": 28, "costs": 0, "simulationMode": [null, null, null, null, null], "rewards": [-1, -3, -3, -11, 46], "path": ["0", "0", "12", "13", "14", "15", "18"], "rt": [2067, 166, 783, 709, 780], "actions": ["right", "right", "right", "up", "left"], "actionTimes": [4387, 5115, 6453, 7757, 9116], "queries": {"click": {"state": {"target": [], "time": []}, "edge": {"target": [], "time": []}}, "mouseover": {"state": {"target": [], "time": []}, "edge": {"target": [], "time": []}}, "mouseout": {"state": {"target": ["0"], "time": [2048]}, "edge": {"target": [], "time": []}}}, "displayed_time": "16.75", "trialTime": 18818, "trial_type": "mouselab-mdp", "trial_index": 33, "time_elapsed": 1738828, "internal_node_id": "0.0-4.0-1.0-12.0"}}, {"uniqueid": "w50465644:a18710945", "current_trial": 34, "dateTime": 1691161010082, "trialdata": {"revealed_states": [], "clicked_states": [], "num_clicks_accrued": [0, 0, 0, 0, 0, 0, 0, 0, 0, 0, 0, 0, 0], "stateRewards": ["", -1, -4, -1, -11, 43, 69, 39, 4, 17, -20, -82, -2, -1, 4, 8, -79, 24, -79, 11, 36, 64, 41, 2, 4, -1, 11, -79, -47, 75, -3, 63, -36, -19], "withholdReward": false, "trial_id": "mdp_trial_14", "block": "test", "trialIndex": 19, "score": 65, "costs": 0, "simulationMode": [null, null, null, null, null], "rewards": [2, 4, -1, -3, 63], "path": ["0", "0", "23", "24", "25", "30", "31"], "rt": [1504, 102, 358, 1044, 436], "actions": ["left", "left", "left", "down", "right"], "actionTimes": [3252, 3924, 4877, 6551, 7589], "queries": {"click": {"state": {"target": [], "time": []}, "edge": {"target": [], "time": []}}, "mouseover": {"state": {"target": [], "time": []}, "edge": {"target": [], "time": []}}, "mouseout": {"state": {"target": ["0"], "time": [1428]}, "edge": {"target": [], "time": []}}}, "displayed_time": "15.97", "trialTime": 18685, "trial_type": "mouselab-mdp", "trial_index": 34, "time_elapsed": 1757954, "internal_node_id": "0.0-4.0-1.0-13.0"}}, {"uniqueid": "w50465644:a18710945", "current_trial": 35, "dateTime": 1691161040891, "trialdata": {"revealed_states": [], "clicked_states": [], "num_clicks_accrued": [0, 0, 0, 0, 0, 0, 0, 0, 0, 0, 0, 0, 0], "stateRewards": ["", 1, -1, 1, 13, 31, -56, 72, 2, 41, 5, 63, -2, -3, -2, 3, -71, -26, 52, 13, -31, 24, -67, 2, -2, 5, 4, 66, 43, 72, 9, 86, -26, 44], "withholdReward": false, "trial_id": "mdp_trial_15", "block": "test", "trialIndex": 20, "score": 58, "costs": 0, "simulationMode": [null, null, null, null, null], "rewards": [2, -2, 5, 9, 44], "path": ["0", "0", "23", "24", "25", "30", "33"], "rt": [1958, 259, 1097, 1, 299], "actions": ["left", "left", "left", "down", "left"], "actionTimes": [14578, 15458, 17178, 17820, 18737], "queries": {"click": {"state": {"target": [], "time": []}, "edge": {"target": [], "time": []}}, "mouseover": {"state": {"target": [], "time": []}, "edge": {"target": [], "time": []}}, "mouseout": {"state": {"target": ["0", "1", "4", "4"], "time": [6451, 6716, 7163, 11260]}, "edge": {"target": [], "time": []}}}, "displayed_time": "27.51", "trialTime": 30410, "trial_type": "mouselab-mdp", "trial_index": 35, "time_elapsed": 1788764, "internal_node_id": "0.0-4.0-1.0-14.0"}}, {"uniqueid": "w50465644:a18710945", "current_trial": 36, "dateTime": 1691161059777, "trialdata": {"revealed_states": [], "clicked_states": [], "num_clicks_accrued": [0, 0, 0, 0, 0, 0, 0, 0, 0, 0, 0, 0, 0], "stateRewards": ["", 2, -3, -5, 5, 11, -9, -33, 6, 67, 6, -30, -1, -2, -6, 13, 55, 13, 72, -14, 75, 21, -66, -2, -4, 6, 15, -1, -35, 60, 2, 51, -73, 12], "withholdReward": false, "trial_id": "mdp_trial_16", "block": "test", "trialIndex": 21, "score": 53, "costs": 0, "simulationMode": [null, null, null, null, null], "rewards": [-2, -4, 6, 2, 51], "path": ["0", "0", "23", "24", "25", "30", "31"], "rt": [1445, 1, 384, 836, 1292], "actions": ["left", "left", "left", "down", "right"], "actionTimes": [3494, 4071, 5013, 6447, 8372], "queries": {"click": {"state": {"target": [], "time": []}, "edge": {"target": [], "time": []}}, "mouseover": {"state": {"target": [], "time": []}, "edge": {"target": [], "time": []}}, "mouseout": {"state": {"target": [], "time": []}, "edge": {"target": [], "time": []}}}, "displayed_time": "16.38", "trialTime": 18505, "trial_type": "mouselab-mdp", "trial_index": 36, "time_elapsed": 1807649, "internal_node_id": "0.0-4.0-1.0-15.0"}}, {"uniqueid": "w50465644:a18710945", "current_trial": 37, "dateTime": 1691161081350, "trialdata": {"revealed_states": [], "clicked_states": [], "num_clicks_accrued": [0, 0, 0, 0, 0, 0, 0, 0, 0, 0, 0, 0, 0], "stateRewards": ["", 1, -3, -1, 9, -34, -40, 22, -7, 45, 53, -11, 2, 4, 5, 15, 21, 37, -49, -3, 80, -28, -34, 1, -3, 1, 1, -40, -6, -5, -16, -85, -86, 59], "withholdReward": false, "trial_id": "mdp_trial_17", "block": "test", "trialIndex": 22, "score": -103, "costs": 0, "simulationMode": [null, null, null, null, null], "rewards": [1, -3, 1, -16, -86], "path": ["0", "0", "23", "24", "25", "30", "32"], "rt": [1137, 28, 354, 663, 0], "actions": ["left", "left", "left", "down", "down"], "actionTimes": [4975, 5558, 6489, 7729, 8335], "queries": {"click": {"state": {"target": [], "time": []}, "edge": {"target": [], "time": []}}, "mouseover": {"state": {"target": [], "time": []}, "edge": {"target": [], "time": []}}, "mouseout": {"state": {"target": ["0", "0"], "time": [17035, 18231]}, "edge": {"target": [], "time": []}}}, "displayed_time": "18.07", "trialTime": 21142, "trial_type": "mouselab-mdp", "trial_index": 37, "time_elapsed": 1829222, "internal_node_id": "0.0-4.0-1.0-16.0"}}, {"uniqueid": "w50465644:a18710945", "current_trial": 38, "dateTime": 1691161106737, "trialdata": {"revealed_states": [], "clicked_states": [], "num_clicks_accrued": [0, 0, 0, 0, 0, 0, 0, 0, 0, 0, 0, 0, 0], "stateRewards": ["", -1, -3, 3, 5, 56, 39, 50, -1, -80, 33, -46, 1, -2, -6, -8, 87, 48, 54, -11, -20, -64, -54, -2, 3, -7, -3, 12, 88, 35, -16, -46, -70, -3], "withholdReward": false, "trial_id": "mdp_trial_18", "block": "test", "trialIndex": 23, "score": -92, "costs": 0, "simulationMode": [null, null, null, null, null], "rewards": [-2, 3, -7, -16, -70], "path": ["0", "0", "23", "24", "25", "30", "32"], "rt": [1312, 0, 427, 603, 211], "actions": ["left", "left", "left", "down", "down"], "actionTimes": [5672, 6262, 7260, 8449, 9265], "queries": {"click": {"state": {"target": [], "time": []}, "edge": {"target": [], "time": []}}, "mouseover": {"state": {"target": [], "time": []}, "edge": {"target": [], "time": []}}, "mouseout": {"state": {"target": ["14", "1"], "time": [3016, 3241]}, "edge": {"target": [], "time": []}}}, "displayed_time": "18.90", "trialTime": 25003, "trial_type": "mouselab-mdp", "trial_index": 38, "time_elapsed": 1854609, "internal_node_id": "0.0-4.0-1.0-17.0"}}, {"uniqueid": "w50465644:a18710945", "current_trial": 39, "dateTime": 1691161126326, "trialdata": {"revealed_states": [], "clicked_states": [], "num_clicks_accrued": [0, 0, 0, 0, 0, 0, 0, 0, 0, 0, 0, 0, 0], "stateRewards": ["", -2, -1, -6, -14, -55, 78, -13, 11, 14, -71, 59, 2, 2, 6, -6, 9, 38, 14, 7, 85, 11, 68, 1, -4, -1, -3, -63, -85, 9, -2, 63, -86, -10], "withholdReward": false, "trial_id": "mdp_trial_19", "block": "test", "trialIndex": 24, "score": -92, "costs": 0, "simulationMode": [null, null, null, null, null], "rewards": [1, -4, -1, -2, -86], "path": ["0", "0", "23", "24", "25", "30", "32"], "rt": [1008, 1, 135, 552, 14], "actions": ["left", "left", "left", "down", "down"], "actionTimes": [2049, 2618, 3328, 4482, 5130], "queries": {"click": {"state": {"target": [], "time": []}, "edge": {"target": [], "time": []}}, "mouseover": {"state": {"target": [], "time": []}, "edge": {"target": [], "time": []}}, "mouseout": {"state": {"target": [], "time": []}, "edge": {"target": [], "time": []}}}, "displayed_time": "15.38", "trialTime": 19171, "trial_type": "mouselab-mdp", "trial_index": 39, "time_elapsed": 1874198, "internal_node_id": "0.0-4.0-1.0-18.0"}}, {"uniqueid": "w50465644:a18710945", "current_trial": 40, "dateTime": 1691161154420, "trialdata": {"revealed_states": [], "clicked_states": ["25"], "num_clicks_accrued": [0, 0, 0, 0, 0, 0, 0, 0, 0, 0, 0, 0, 0], "stateRewards": ["", 2, -4, -8, -15, 71, -43, -41, 7, -17, 20, 67, -1, -1, -4, 6, 37, -24, -47, 9, 34, 57, 45, 1, 2, -4, -5, -23, 88, -5, 13, -40, 43, 44], "withholdReward": false, "trial_id": "mdp_trial_20", "block": "test", "trialIndex": 25, "score": 63.05, "costs": -0.95, "simulationMode": [null, null, null, null, null], "rewards": [2, -4, -8, 7, 67], "path": ["0", "0", "1", "2", "3", "8", "11"], "rt": [9134, 60, 362, 225, 0], "actions": ["up", "up", "up", "left", "left"], "actionTimes": [16635, 17282, 18212, 19042, 19637], "queries": {"click": {"state": {"target": ["25"], "time": [10352]}, "edge": {"target": [], "time": []}}, "mouseover": {"state": {"target": ["23", "25", "26"], "time": [8895, 9485, 13215]}, "edge": {"target": [], "time": []}}, "mouseout": {"state": {"target": ["0", "23", "24", "25", "29", "28", "1", "0", "0", "23", "25"], "time": [415, 461, 560, 2278, 3645, 4460, 4611, 5211, 8868, 8938, 12971]}, "edge": {"target": [], "time": []}}}, "displayed_time": "22.00", "trialTime": 27676, "trial_type": "mouselab-mdp", "trial_index": 40, "time_elapsed": 1902292, "internal_node_id": "0.0-4.0-1.0-19.0"}}], "questiondata": {"params": {"CODE": "C6DMOQA6", "MIN_TIME": 14, "inspectCost": 1, "startTime": "Fri Aug 04 2023 16:27:29 GMT+0200 (South Africa Standard Time)", "bonusRate": 0.002, "variance": "1_2_4_8_44", "branching": "31123"}}, "eventdata": [{"eventtype": "initialized", "value": null, "timestamp": 1691159248810, "interval": 0}, {"eventtype": "window_resize", "value": [1024, 640], "timestamp": 1691159248810, "interval": 0}, {"eventtype": "focus", "value": "on", "timestamp": 1691159249133, "interval": 323}, {"eventtype": "window_resize", "value": [1024, 640], "timestamp": 1691159249325, "interval": 192}, {"eventtype": "window_resize", "value": [1366, 656], "timestamp": 1691159251979, "interval": 2654}, {"eventtype": "window_resize", "value": [1366, 768], "timestamp": 1691159258566, "interval": 6587}, {"eventtype": "window_resize", "value": [2732, 1536], "timestamp": 1691159743850, "interval": 485284}, {"eventtype": "window_resize", "value": [1708, 960], "timestamp": 1691159744528, "interval": 678}, {"eventtype": "window_resize", "value": [1958, 1101], "timestamp": 1691159772379, "interval": 27851}, {"eventtype": "focus", "value": "off", "timestamp": 1691159924770, "interval": 152391}, {"eventtype": "focus", "value": "on", "timestamp": 1691159924770, "interval": 0}, {"eventtype": "window_resize", "value": [4553, 2560], "timestamp": 1691159974641, "interval": 49871}, {"eventtype": "window_resize", "value": [2732, 1536], "timestamp": 1691159980842, "interval": 6201}, {"eventtype": "focus", "value": "off", "timestamp": 1691160257498, "interval": 276656}, {"eventtype": "focus", "value": "on", "timestamp": 1691160257498, "interval": 0}, {"eventtype": "window_resize", "value": [3415, 1920], "timestamp": 1691161077423, "interval": 819925}, {"eventtype": "window_resize", "value": [4553, 2560], "timestamp": 1691161077644, "interval": 221}, {"eventtype": "window_resize", "value": [2732, 1536], "timestamp": 1691161078411, "interval": 767}, {"eventtype": "window_resize", "value": [2277, 1280], "timestamp": 1691161078634, "interval": 223}], "useragent": "Mozilla/5.0 (Windows NT 10.0; Win64; x64; rv:109.0) Gecko/20100101 Firefox/115.0", "mode": "live", "id": "w50465644:a18710945", "status": "user data saved", "Beginhit": "2023-08-04 14:27:25.276172", "Beginexp": "2023-08-04 14:27:40.141569", "Endhit": null, "psiturkStatus": 2, "browser": "<redacted>", "platform": "windows", "language": "en-US", "excludeReason": "dataincomplete"}