{"condition": 0, "counterbalance": 0, "assignmentId": "a91400469", "workerId": "w17783226", "hitId": "h62817714", "currenttrial": 55, "bonus": 0, "data": [{"uniqueid": "w17783226:a91400469", "current_trial": 0, "dateTime": 1691071255006, "trialdata": {"success": true, "trial_type": "fullscreen", "trial_index": 0, "time_elapsed": 21936, "internal_node_id": "0.0-0.0"}}, {"uniqueid": "w17783226:a91400469", "current_trial": 1, "dateTime": 1691071537434, "trialdata": {"view_history": [{"page_index": 0, "viewing_time": 282393}], "rt": 282398, "trial_id": "exp_instructions_control", "trial_type": "instructions", "trial_index": 1, "time_elapsed": 304366, "internal_node_id": "0.0-1.0"}}, {"uniqueid": "w17783226:a91400469", "current_trial": 2, "dateTime": 1691071545650, "trialdata": {"success": true, "trial_type": "fullscreen", "trial_index": 2, "time_elapsed": 312582, "internal_node_id": "0.0-2.0-0.0"}}, {"uniqueid": "w17783226:a91400469", "current_trial": 3, "dateTime": 1691072081580, "trialdata": {"view_history": [{"page_index": 0, "viewing_time": 216752}, {"page_index": 1, "viewing_time": 206752}, {"page_index": 2, "viewing_time": 48223}, {"page_index": 3, "viewing_time": 64185}], "rt": 535912, "trial_id": "mouselab_instructions_1_control", "trial_type": "instructions", "trial_index": 3, "time_elapsed": 848512, "internal_node_id": "0.0-2.0-1.0"}}, {"uniqueid": "w17783226:a91400469", "current_trial": 4, "dateTime": 1691072120021, "trialdata": {"revealed_states": [], "clicked_states": [], "num_clicks_accrued": [0, 0, 0, 0, 0, 0, 0, 0, 0, 0, 0, 0, 0], "stateRewards": ["", -10, -10, 10, 10, -10, 10, -10, -10, 10, 10, -10, -10, 10, -10, 10, 10, -10, -10, 10, 10, 10, 10, 10, -10, 10, -10, -10, -10, 10, -10, 10, 10, -10], "withholdReward": false, "trial_id": "practice_1", "block": "test", "trialIndex": 0, "score": 13.5, "costs": 0, "simulationMode": [null, null, null, null, null], "rewards": [-10, 10, -10, 10, 10], "path": ["0", "0", "12", "13", "14", "19", "21"], "rt": [3540, 4969, 2625, 9872, 715], "actions": ["right", "right", "right", "down", "down"], "actionTimes": [8428, 13917, 17051, 27429, 28646], "queries": {"click": {"state": {"target": [], "time": []}, "edge": {"target": [], "time": []}}, "mouseover": {"state": {"target": [], "time": []}, "edge": {"target": [], "time": []}}, "mouseout": {"state": {"target": ["0", "12", "13", "14", "14"], "time": [21085, 21136, 21171, 21830, 24712]}, "edge": {"target": [], "time": []}}}, "displayed_time": "29.16", "trialTime": 37198, "trial_type": "mouselab-mdp", "trial_index": 4, "time_elapsed": 886951, "internal_node_id": "0.0-2.0-2.0-0.0"}}, {"uniqueid": "w17783226:a91400469", "current_trial": 5, "dateTime": 1691072134449, "trialdata": {"revealed_states": [], "clicked_states": [], "num_clicks_accrued": [0, 0, 0, 0, 0, 0, 0, 0, 0, 0, 0, 0, 0], "stateRewards": ["", 10, 10, 10, -10, 10, -10, 10, 10, 10, -10, 10, -10, -10, 10, 10, -10, -10, 10, 10, -10, -10, 10, -10, 10, -10, 10, -10, 10, 10, 10, -10, 10, 10], "withholdReward": false, "trial_id": "practice_2", "block": "test", "trialIndex": 1, "score": 33.5, "costs": 0, "simulationMode": [null, null, null, null, null], "rewards": [10, 10, 10, -10, 10], "path": ["0", "0", "1", "2", "3", "4", "5"], "rt": [950, 682, 443, 737, 502], "actions": ["up", "up", "up", "right", "up"], "actionTimes": [4916, 6110, 7068, 8328, 9352], "queries": {"click": {"state": {"target": [], "time": []}, "edge": {"target": [], "time": []}}, "mouseover": {"state": {"target": [], "time": []}, "edge": {"target": [], "time": []}}, "mouseout": {"state": {"target": ["19", "13", "1", "0"], "time": [1061, 1124, 1400, 12016]}, "edge": {"target": [], "time": []}}}, "displayed_time": "9.88", "trialTime": 13796, "trial_type": "mouselab-mdp", "trial_index": 5, "time_elapsed": 901377, "internal_node_id": "0.0-2.0-2.0-1.0"}}, {"uniqueid": "w17783226:a91400469", "current_trial": 6, "dateTime": 1691072211090, "trialdata": {"view_history": [{"page_index": 0, "viewing_time": 54715}, {"page_index": 1, "viewing_time": 21913}], "rt": 76629, "trial_id": "mouselab_instructions_2_control", "trial_type": "instructions", "trial_index": 6, "time_elapsed": 978022, "internal_node_id": "0.0-2.0-3.0"}}, {"uniqueid": "w17783226:a91400469", "current_trial": 7, "dateTime": 1691072308372, "trialdata": {"rt": 97251, "response": {"Q0": "The cost for clicking on nodes may vary between nodes.", "Q1": "The better I perform the higher my bonus will be.", "Q2": "No, the amount of cash at each node of the web may be different each time.", "Q3": "To get the highest total score.", "Q4": "Only before moving the spider.", "Q5": "3 seconds"}, "question_order": [0, 1, 2, 3, 4, 5], "correct": {"Q0": "The cost for clicking on nodes may vary between nodes.", "Q1": "The better I perform the higher my bonus will be.", "Q2": "No, the amount of cash at each node of the web may be different each time.", "Q3": "To get the highest total score.", "Q4": "Only before moving the spider.", "Q5": "3 seconds"}, "trial_id": "mouselab_quiz_control", "trial_type": "survey-multi-choice", "trial_index": 7, "time_elapsed": 1075304, "internal_node_id": "0.0-2.0-4.0"}}, {"uniqueid": "w17783226:a91400469", "current_trial": 8, "dateTime": 1691072349943, "trialdata": {"rt": 41530, "stimulus": "\n<h1> Get ready to start the game! </h1>\n\nThank you for reading the instructions. Get ready start with the 40 rounds of this game.\n<br><br>\nIf you need to take a break, feel free to take one after the end of a round, before continuing to the next one.\n<br><br>\nRemember, the more money the spider gets, the bigger your bonus will be!\n<br><br>\n<div style='text-align: center;'>Press <code>space</code> to begin.</div>\n\n<br><br>\n(If, at any point, the <code>space</code> key does not take you to the next page, click once on the text and try again.)", "response": " ", "trial_id": "mdp_ready", "trial_type": "html-keyboard-response", "trial_index": 8, "time_elapsed": 1116874, "internal_node_id": "0.0-4.0-0.0"}}, {"uniqueid": "w17783226:a91400469", "current_trial": 9, "dateTime": 1691072372442, "trialdata": {"revealed_states": [], "clicked_states": [], "num_clicks_accrued": [0, 0, 0, 0, 0, 0, 0, 0, 0, 0, 0, 0, 0], "stateRewards": ["", 1, -2, 4, 7, -43, -83, -60, -5, -86, -80, 83, -1, -2, 6, 11, -15, 21, 13, 9, 29, -49, 11, -1, 4, -6, -11, 87, 40, 63, -8, -39, -11, 62], "withholdReward": false, "trial_id": "mdp_trial_1", "block": "test", "trialIndex": 2, "score": -22, "costs": 0, "simulationMode": [null, null, null, null, null], "rewards": [-1, 4, -6, -8, -11], "path": ["0", "0", "23", "24", "25", "30", "32"], "rt": [682, 972, 443, 821, 378], "actions": ["left", "left", "left", "down", "down"], "actionTimes": [4838, 6319, 7287, 8631, 9537], "queries": {"click": {"state": {"target": [], "time": []}, "edge": {"target": [], "time": []}}, "mouseover": {"state": {"target": [], "time": []}, "edge": {"target": [], "time": []}}, "mouseout": {"state": {"target": [], "time": []}, "edge": {"target": [], "time": []}}}, "displayed_time": "18.17", "trialTime": 21848, "trial_type": "mouselab-mdp", "trial_index": 9, "time_elapsed": 1139372, "internal_node_id": "0.0-4.0-1.0-0.0"}}, {"uniqueid": "w17783226:a91400469", "current_trial": 10, "dateTime": 1691072408636, "trialdata": {"revealed_states": [], "clicked_states": [], "num_clicks_accrued": [0, 0, 0, 0, 0, 0, 0, 0, 0, 0, 0, 0, 0], "stateRewards": ["", -2, -3, 8, 14, -73, 73, 84, -12, -2, -50, -17, 2, 1, -2, -9, -44, -27, -33, 16, -63, -47, -66, -2, 1, 4, -5, -33, -11, 50, 9, 38, -79, 31], "withholdReward": false, "trial_id": "mdp_trial_2", "block": "test", "trialIndex": 3, "score": -56, "costs": 0, "simulationMode": [null, null, null, null, null], "rewards": [-2, -3, 8, 14, -73], "path": ["0", "0", "1", "2", "3", "4", "5"], "rt": [4828, 4900, 899, 725, 1250], "actions": ["up", "up", "up", "right", "up"], "actionTimes": [8119, 13538, 14951, 16193, 17964], "queries": {"click": {"state": {"target": [], "time": []}, "edge": {"target": [], "time": []}}, "mouseover": {"state": {"target": [], "time": []}, "edge": {"target": [], "time": []}}, "mouseout": {"state": {"target": ["0"], "time": [5310]}, "edge": {"target": [], "time": []}}}, "displayed_time": "18.48", "trialTime": 35474, "trial_type": "mouselab-mdp", "trial_index": 10, "time_elapsed": 1175565, "internal_node_id": "0.0-4.0-1.0-1.0"}}, {"uniqueid": "w17783226:a91400469", "current_trial": 11, "dateTime": 1691072436665, "trialdata": {"revealed_states": [], "clicked_states": ["15"], "num_clicks_accrued": [0, 0, 0, 0, 0, 0, 0, 0, 0, 0, 0, 0, 0], "stateRewards": ["", -1, 3, 1, -11, -22, -36, 19, -5, -70, -52, 50, -2, -4, 4, -2, -41, -83, 29, -2, 22, 10, -6, -2, 3, -2, 14, 54, 44, 77, -9, -65, -37, -40], "withholdReward": false, "trial_id": "mdp_trial_3", "block": "test", "trialIndex": 4, "score": 65.6, "costs": -1.4, "simulationMode": [null, null, null, null, null], "rewards": [-2, 3, -2, 14, 54], "path": ["0", "0", "23", "24", "25", "26", "27"], "rt": [9491, 575, 508, 307, 562], "actions": ["left", "left", "left", "up", "up"], "actionTimes": [15346, 16435, 17464, 18295, 19382], "queries": {"click": {"state": {"target": ["15"], "time": [7869]}, "edge": {"target": [], "time": []}}, "mouseover": {"state": {"target": ["15", "14", "19"], "time": [6921, 9309, 10989]}, "edge": {"target": [], "time": []}}, "mouseout": {"state": {"target": ["1", "1", "0", "15", "14"], "time": [858, 1029, 6563, 9240, 10356]}, "edge": {"target": [], "time": []}}}, "displayed_time": "19.90", "trialTime": 27255, "trial_type": "mouselab-mdp", "trial_index": 11, "time_elapsed": 1203595, "internal_node_id": "0.0-4.0-1.0-2.0"}}, {"uniqueid": "w17783226:a91400469", "current_trial": 12, "dateTime": 1691072459997, "trialdata": {"revealed_states": [], "clicked_states": ["8"], "num_clicks_accrued": [0, 0, 0, 0, 0, 0, 0, 0, 0, 0, 0, 0, 0], "stateRewards": ["", -1, -3, 1, 13, -64, -29, 12, -4, -33, 50, 56, 2, -3, 4, 11, -64, -58, -55, 12, 47, 38, -25, -2, 2, 5, -15, 85, 7, 84, 10, 8, 57, 26], "withholdReward": false, "trial_id": "mdp_trial_4", "block": "test", "trialIndex": 5, "score": -55.4, "costs": -1.4, "simulationMode": [null, null, null, null, null], "rewards": [-1, -3, 1, 13, -64], "path": ["0", "0", "1", "2", "3", "4", "5"], "rt": [4365, 364, 396, 216, 609], "actions": ["up", "up", "up", "right", "up"], "actionTimes": [9104, 9993, 10902, 11645, 12769], "queries": {"click": {"state": {"target": ["8"], "time": [7522]}, "edge": {"target": [], "time": []}}, "mouseover": {"state": {"target": ["1", "2", "3", "8"], "time": [6013, 6045, 6160, 6444]}, "edge": {"target": [], "time": []}}, "mouseout": {"state": {"target": ["19", "14", "12", "0", "1", "2", "3", "8"], "time": [1742, 1860, 2297, 5975, 6030, 6079, 6361, 17711]}, "edge": {"target": [], "time": []}}}, "displayed_time": "18.75", "trialTime": 22530, "trial_type": "mouselab-mdp", "trial_index": 12, "time_elapsed": 1226927, "internal_node_id": "0.0-4.0-1.0-3.0"}}, {"uniqueid": "w17783226:a91400469", "current_trial": 13, "dateTime": 1691072486302, "trialdata": {"revealed_states": [], "clicked_states": ["30", "19", "15", "4", "8", "26"], "num_clicks_accrued": [0, 0, 0, 0, 0, 0, 0, 0, 0, 0, 0, 0, 0], "stateRewards": ["", -1, -4, -1, -11, 43, 69, 39, 4, 17, -20, -82, -2, -1, 4, 8, -79, 24, -79, 11, 36, 64, 41, 2, 4, -1, 11, -79, -47, 75, -3, 63, -36, -19], "withholdReward": false, "trial_id": "mdp_trial_5", "block": "test", "trialIndex": 6, "score": -71.4, "costs": -8.4, "simulationMode": [null, null, null, null, null], "rewards": [2, 4, -1, 11, -79], "path": ["0", "0", "23", "24", "25", "26", "27"], "rt": [16870, 272, 126, 145, 452], "actions": ["left", "left", "left", "up", "up"], "actionTimes": [18985, 19777, 20430, 21100, 22055], "queries": {"click": {"state": {"target": ["30", "19", "15", "4", "8", "26"], "time": [3723, 6049, 7709, 9256, 12823, 14738]}, "edge": {"target": [], "time": []}}, "mouseover": {"state": {"target": ["23", "24", "30", "31", "22", "19", "14", "15", "7", "4", "3", "8", "26", "25", "30", "30"], "time": [2832, 2863, 2948, 4671, 4953, 5264, 6935, 7165, 8534, 8844, 9945, 10154, 14189, 15997, 16139, 16466]}, "edge": {"target": [], "time": []}}, "mouseout": {"state": {"target": ["5", "1", "0", "23", "24", "30", "31", "22", "19", "14", "15", "7", "4", "3", "8", "26", "25", "30", "30"], "time": [688, 886, 2801, 2849, 2876, 4664, 4711, 5165, 6898, 7015, 8415, 8712, 9829, 10111, 13857, 15973, 16064, 16225, 16617]}, "edge": {"target": [], "time": []}}}, "displayed_time": "22.57", "trialTime": 25457, "trial_type": "mouselab-mdp", "trial_index": 13, "time_elapsed": 1253232, "internal_node_id": "0.0-4.0-1.0-4.0"}}, {"uniqueid": "w17783226:a91400469", "current_trial": 14, "dateTime": 1691072506600, "trialdata": {"revealed_states": [], "clicked_states": [], "num_clicks_accrued": [0, 0, 0, 0, 0, 0, 0, 0, 0, 0, 0, 0, 0], "stateRewards": ["", -1, 3, 1, -7, 56, 76, 57, 3, 11, -9, 14, 1, -2, 2, 8, -77, -3, 79, -5, 88, 24, -66, -2, -1, 7, -7, -30, 14, -76, 11, -36, 28, -6], "withholdReward": false, "trial_id": "mdp_trial_6", "block": "test", "trialIndex": 7, "score": 17, "costs": 0, "simulationMode": [null, null, null, null, null], "rewards": [-1, 3, 1, 3, 11], "path": ["0", "0", "1", "2", "3", "8", "9"], "rt": [2260, 413, 185, 122, 374], "actions": ["up", "up", "up", "left", "up"], "actionTimes": [5109, 6042, 6861, 7500, 8424], "queries": {"click": {"state": {"target": [], "time": []}, "edge": {"target": [], "time": []}}, "mouseover": {"state": {"target": [], "time": []}, "edge": {"target": [], "time": []}}, "mouseout": {"state": {"target": ["23"], "time": [1392]}, "edge": {"target": [], "time": []}}}, "displayed_time": "16.86", "trialTime": 19470, "trial_type": "mouselab-mdp", "trial_index": 14, "time_elapsed": 1273530, "internal_node_id": "0.0-4.0-1.0-5.0"}}, {"uniqueid": "w17783226:a91400469", "current_trial": 15, "dateTime": 1691072526616, "trialdata": {"revealed_states": [], "clicked_states": [], "num_clicks_accrued": [0, 0, 0, 0, 0, 0, 0, 0, 0, 0, 0, 0, 0], "stateRewards": ["", 2, -2, -3, 10, -4, -1, -11, -8, -9, -36, -78, 2, 1, 7, -7, 44, -1, -31, -1, 26, 47, 83, 2, -4, -4, -6, -52, -76, -81, -1, -59, 45, 67], "withholdReward": false, "trial_id": "mdp_trial_7", "block": "test", "trialIndex": 8, "score": 3, "costs": 0, "simulationMode": [null, null, null, null, null], "rewards": [2, -2, -3, 10, -4], "path": ["0", "0", "1", "2", "3", "4", "5"], "rt": [3906, 477, 414, 773, 187], "actions": ["up", "up", "up", "right", "up"], "actionTimes": [6569, 7560, 8496, 9788, 10500], "queries": {"click": {"state": {"target": [], "time": []}, "edge": {"target": [], "time": []}}, "mouseover": {"state": {"target": [], "time": []}, "edge": {"target": [], "time": []}}, "mouseout": {"state": {"target": [], "time": []}, "edge": {"target": [], "time": []}}}, "displayed_time": "16.67", "trialTime": 19161, "trial_type": "mouselab-mdp", "trial_index": 15, "time_elapsed": 1293546, "internal_node_id": "0.0-4.0-1.0-6.0"}}, {"uniqueid": "w17783226:a91400469", "current_trial": 16, "dateTime": 1691072546996, "trialdata": {"revealed_states": [], "clicked_states": [], "num_clicks_accrued": [0, 0, 0, 0, 0, 0, 0, 0, 0, 0, 0, 0, 0], "stateRewards": ["", -1, 3, -4, -14, 78, 67, 2, 13, -32, 28, 39, -2, 1, -4, -4, -4, -42, -86, 11, 64, -29, -32, -1, -4, 2, -7, 5, 68, -61, 2, -21, 85, 50], "withholdReward": false, "trial_id": "mdp_trial_8", "block": "test", "trialIndex": 9, "score": -23, "costs": 0, "simulationMode": [null, null, null, null, null], "rewards": [-2, 1, -4, 11, -29], "path": ["0", "0", "12", "13", "14", "19", "21"], "rt": [3126, 691, 600, 586, 502], "actions": ["right", "right", "right", "down", "down"], "actionTimes": [4960, 6169, 7291, 8393, 9407], "queries": {"click": {"state": {"target": [], "time": []}, "edge": {"target": [], "time": []}}, "mouseover": {"state": {"target": [], "time": []}, "edge": {"target": [], "time": []}}, "mouseout": {"state": {"target": [], "time": []}, "edge": {"target": [], "time": []}}}, "displayed_time": "15.84", "trialTime": 19505, "trial_type": "mouselab-mdp", "trial_index": 16, "time_elapsed": 1313927, "internal_node_id": "0.0-4.0-1.0-7.0"}}, {"uniqueid": "w17783226:a91400469", "current_trial": 17, "dateTime": 1691072566835, "trialdata": {"revealed_states": [], "clicked_states": [], "num_clicks_accrued": [0, 0, 0, 0, 0, 0, 0, 0, 0, 0, 0, 0, 0], "stateRewards": ["", 1, 4, 5, -5, 58, -80, 75, 6, 25, -39, 46, 2, -2, 4, 2, 59, 31, -22, -12, -61, 15, 72, 1, -2, -7, 8, 77, 76, -23, -7, 71, -15, -3], "withholdReward": false, "trial_id": "mdp_trial_9", "block": "test", "trialIndex": 10, "score": -23, "costs": 0, "simulationMode": [null, null, null, null, null], "rewards": [1, -2, -7, 8, -23], "path": ["0", "0", "23", "24", "25", "26", "29"], "rt": [6474, 305, 217, 101, 826], "actions": ["left", "left", "left", "up", "left"], "actionTimes": [8594, 9424, 10162, 10767, 12125], "queries": {"click": {"state": {"target": [], "time": []}, "edge": {"target": [], "time": []}}, "mouseover": {"state": {"target": ["0", "24", "25"], "time": [4973, 5720, 5965]}, "edge": {"target": [], "time": []}}, "mouseout": {"state": {"target": ["0", "0", "24"], "time": [4939, 5466, 5866]}, "edge": {"target": [], "time": []}}}, "displayed_time": "17.13", "trialTime": 18940, "trial_type": "mouselab-mdp", "trial_index": 17, "time_elapsed": 1333766, "internal_node_id": "0.0-4.0-1.0-8.0"}}, {"uniqueid": "w17783226:a91400469", "current_trial": 18, "dateTime": 1691072590310, "trialdata": {"revealed_states": [], "clicked_states": [], "num_clicks_accrued": [0, 0, 0, 0, 0, 0, 0, 0, 0, 0, 0, 0, 0], "stateRewards": ["", -2, 1, -7, 9, 8, 25, 61, -7, -17, 69, -81, 1, 4, -4, -11, 16, 67, 44, 3, 6, -45, -54, -2, 3, 6, -11, -15, 32, -47, 3, -39, -6, -88], "withholdReward": false, "trial_id": "mdp_trial_10", "block": "test", "trialIndex": 11, "score": 57, "costs": 0, "simulationMode": [null, null, null, null, null], "rewards": [1, 4, -4, -11, 67], "path": ["0", "0", "12", "13", "14", "15", "17"], "rt": [619, 58, 3124, 374, 338], "actions": ["right", "right", "right", "up", "right"], "actionTimes": [2805, 3382, 7045, 7960, 8824], "queries": {"click": {"state": {"target": [], "time": []}, "edge": {"target": [], "time": []}}, "mouseover": {"state": {"target": [], "time": []}, "edge": {"target": [], "time": []}}, "mouseout": {"state": {"target": ["25", "24", "23"], "time": [717, 756, 984]}, "edge": {"target": [], "time": []}}}, "displayed_time": "16.19", "trialTime": 22498, "trial_type": "mouselab-mdp", "trial_index": 18, "time_elapsed": 1357240, "internal_node_id": "0.0-4.0-1.0-9.0"}}, {"uniqueid": "w17783226:a91400469", "current_trial": 19, "dateTime": 1691072609593, "trialdata": {"revealed_states": [], "clicked_states": [], "num_clicks_accrued": [0, 0, 0, 0, 0, 0, 0, 0, 0, 0, 0, 0, 0], "stateRewards": ["", 2, 3, -3, 12, -43, 81, -82, -15, 58, -7, -75, -1, -1, 3, -5, 50, -25, -8, 4, 66, 65, -66, 2, -4, 2, -1, -10, 10, 37, 11, 88, -37, 8], "withholdReward": false, "trial_id": "mdp_trial_11", "block": "test", "trialIndex": 12, "score": -68, "costs": 0, "simulationMode": [null, null, null, null, null], "rewards": [2, 3, -3, 12, -82], "path": ["0", "0", "1", "2", "3", "4", "7"], "rt": [807, 126, 540, 942, 1707], "actions": ["up", "up", "up", "right", "down"], "actionTimes": [3001, 3653, 4718, 6185, 8444], "queries": {"click": {"state": {"target": [], "time": []}, "edge": {"target": [], "time": []}}, "mouseover": {"state": {"target": [], "time": []}, "edge": {"target": [], "time": []}}, "mouseout": {"state": {"target": ["0"], "time": [7555]}, "edge": {"target": [], "time": []}}}, "displayed_time": "16.20", "trialTime": 18358, "trial_type": "mouselab-mdp", "trial_index": 19, "time_elapsed": 1376523, "internal_node_id": "0.0-4.0-1.0-10.0"}}, {"uniqueid": "w17783226:a91400469", "current_trial": 20, "dateTime": 1691072632278, "trialdata": {"revealed_states": [], "clicked_states": ["13"], "num_clicks_accrued": [0, 0, 0, 0, 0, 0, 0, 0, 0, 0, 0, 0, 0], "stateRewards": ["", -2, 1, -3, -16, -39, -52, 30, -7, -41, -59, 11, 2, 1, 8, 2, -11, -26, -42, -13, 87, -59, -48, -1, -1, -1, 16, -79, 31, 50, -1, -84, 34, -82], "withholdReward": false, "trial_id": "mdp_trial_12", "block": "test", "trialIndex": 13, "score": -53.4, "costs": -1.4, "simulationMode": [null, null, null, null, null, null], "rewards": [-2, 1, -3, -7, -41], "path": ["0", "0", "1", "2", "3", "8", "9"], "rt": [2865, 1703, 566, 659, 9, 1075], "actions": ["up", "up", "up", "up", "left", "up"], "actionTimes": [8977, 10689, 11773, 12948, 13480, 15131], "queries": {"click": {"state": {"target": ["13"], "time": [7472]}, "edge": {"target": [], "time": []}}, "mouseover": {"state": {"target": ["13"], "time": [6920]}, "edge": {"target": [], "time": []}}, "mouseout": {"state": {"target": ["7", "1", "0", "0", "13"], "time": [3222, 3438, 3689, 6639, 7655]}, "edge": {"target": [], "time": []}}}, "displayed_time": "20.12", "trialTime": 21826, "trial_type": "mouselab-mdp", "trial_index": 20, "time_elapsed": 1399208, "internal_node_id": "0.0-4.0-1.0-11.0"}}, {"uniqueid": "w17783226:a91400469", "current_trial": 21, "dateTime": 1691072657816, "trialdata": {"revealed_states": [], "clicked_states": ["12"], "num_clicks_accrued": [0, 0, 0, 0, 0, 0, 0, 0, 0, 0, 0, 0, 0], "stateRewards": ["", -1, 1, 8, -3, -24, 11, -65, -6, -77, 48, 44, -2, 1, -2, -7, -55, -35, 33, 8, -28, 19, -53, -1, -1, -5, -5, -70, 10, 44, 8, -58, -70, 51], "withholdReward": false, "trial_id": "mdp_trial_13", "block": "test", "trialIndex": 14, "score": -83.4, "costs": -1.4, "simulationMode": [null, null, null, null, null], "rewards": [-1, -1, -5, -5, -70], "path": ["0", "0", "23", "24", "25", "26", "27"], "rt": [4273, 543, 519, 276, 512], "actions": ["left", "left", "left", "up", "up"], "actionTimes": [9718, 10775, 11816, 12606, 13671], "queries": {"click": {"state": {"target": ["12"], "time": [7769]}, "edge": {"target": [], "time": []}}, "mouseover": {"state": {"target": ["12"], "time": [7479]}, "edge": {"target": [], "time": []}}, "mouseout": {"state": {"target": ["13", "12", "0"], "time": [3714, 3784, 7340]}, "edge": {"target": [], "time": []}}}, "displayed_time": "19.45", "trialTime": 24611, "trial_type": "mouselab-mdp", "trial_index": 21, "time_elapsed": 1424746, "internal_node_id": "0.0-4.0-1.0-12.0"}}, {"uniqueid": "w17783226:a91400469", "current_trial": 22, "dateTime": 1691072688172, "trialdata": {"revealed_states": [], "clicked_states": ["2"], "num_clicks_accrued": [0, 0, 0, 0, 0, 0, 0, 0, 0, 0, 0, 0, 0], "stateRewards": ["", -1, -2, -8, 8, -27, -82, 19, -14, -62, 4, 1, -2, 2, 6, 10, 73, -51, -2, 2, 73, -48, 54, -1, 2, -4, 11, -25, 47, 86, 15, 33, 43, -42], "withholdReward": false, "trial_id": "mdp_trial_14", "block": "test", "trialIndex": 15, "score": 12.6, "costs": -1.4, "simulationMode": [null, null, null, null, null, null], "rewards": [-2, 2, 6, 10, -2], "path": ["0", "0", "12", "13", "14", "15", "18"], "rt": [3692, 1311, 352, 1245, 459, 110], "actions": ["right", "right", "right", "right", "up", "left"], "actionTimes": [9544, 10859, 11737, 13499, 14457, 15092], "queries": {"click": {"state": {"target": ["2"], "time": [8272]}, "edge": {"target": [], "time": []}}, "mouseover": {"state": {"target": ["1", "2"], "time": [7251, 7604]}, "edge": {"target": [], "time": []}}, "mouseout": {"state": {"target": ["12", "1"], "time": [4293, 7332]}, "edge": {"target": [], "time": []}}}, "displayed_time": "19.86", "trialTime": 29390, "trial_type": "mouselab-mdp", "trial_index": 22, "time_elapsed": 1455102, "internal_node_id": "0.0-4.0-1.0-13.0"}}, {"uniqueid": "w17783226:a91400469", "current_trial": 23, "dateTime": 1691072712978, "trialdata": {"revealed_states": [], "clicked_states": ["30"], "num_clicks_accrued": [0, 0, 0, 0, 0, 0, 0, 0, 0, 0, 0, 0, 0], "stateRewards": ["", -2, 1, -7, -8, -37, -76, -87, 11, 30, -63, 80, -1, 4, 2, -1, 42, 17, 52, -3, -75, -80, -68, 2, -3, -5, -15, -48, 82, 24, -7, 5, -22, -71], "withholdReward": false, "trial_id": "mdp_trial_15", "block": "test", "trialIndex": 16, "score": -79.4, "costs": -1.4, "simulationMode": [null, null, null, null, null], "rewards": [-1, 4, 2, -3, -80], "path": ["0", "0", "12", "13", "14", "19", "21"], "rt": [3819, 174, 242, 218, 663], "actions": ["right", "right", "right", "down", "down"], "actionTimes": [7648, 8352, 9106, 9846, 11023], "queries": {"click": {"state": {"target": ["30"], "time": [6029]}, "edge": {"target": [], "time": []}}, "mouseover": {"state": {"target": ["23", "24", "30"], "time": [4379, 4875, 5573]}, "edge": {"target": [], "time": []}}, "mouseout": {"state": {"target": ["2", "1", "0", "23", "24"], "time": [2599, 2715, 4361, 4478, 5222]}, "edge": {"target": [], "time": []}}}, "displayed_time": "17.83", "trialTime": 23782, "trial_type": "mouselab-mdp", "trial_index": 23, "time_elapsed": 1479908, "internal_node_id": "0.0-4.0-1.0-14.0"}}, {"uniqueid": "w17783226:a91400469", "current_trial": 24, "dateTime": 1691072733718, "trialdata": {"revealed_states": [], "clicked_states": [], "num_clicks_accrued": [0, 0, 0, 0, 0, 0, 0, 0, 0, 0, 0, 0, 0], "stateRewards": ["", -2, 2, 3, -7, -31, -33, 29, -8, -57, 50, -83, -1, -1, 5, 13, -23, -62, 25, 5, -66, -85, 14, 1, -2, -1, 16, 71, 33, -19, -14, 5, -43, 79], "withholdReward": false, "trial_id": "mdp_trial_16", "block": "test", "trialIndex": 17, "score": -62, "costs": 0, "simulationMode": [null, null, null, null, null], "rewards": [-2, 2, 3, -8, -57], "path": ["0", "0", "1", "2", "3", "8", "9"], "rt": [967, 331, 1198, 477, 203], "actions": ["up", "up", "up", "left", "up"], "actionTimes": [4400, 5254, 6976, 7969, 8698], "queries": {"click": {"state": {"target": [], "time": []}, "edge": {"target": [], "time": []}}, "mouseover": {"state": {"target": [], "time": []}, "edge": {"target": [], "time": []}}, "mouseout": {"state": {"target": ["30", "23"], "time": [1577, 1674]}, "edge": {"target": [], "time": []}}}, "displayed_time": "17.44", "trialTime": 19657, "trial_type": "mouselab-mdp", "trial_index": 24, "time_elapsed": 1500648, "internal_node_id": "0.0-4.0-1.0-15.0"}}, {"uniqueid": "w17783226:a91400469", "current_trial": 25, "dateTime": 1691072752531, "trialdata": {"revealed_states": [], "clicked_states": ["15"], "num_clicks_accrued": [0, 0, 0, 0, 0, 0, 0, 0, 0, 0, 0, 0, 0], "stateRewards": ["", 1, -2, -8, -13, 4, 34, -84, -4, -49, 88, -70, -1, 3, -4, 10, -77, 13, -34, 15, -21, -16, 27, 1, -2, 8, -8, -6, 38, -26, 6, -15, 66, -3], "withholdReward": false, "trial_id": "mdp_trial_17", "block": "test", "trialIndex": 18, "score": -4.4, "costs": -1.4, "simulationMode": [null, null, null, null, null, null], "rewards": [-1, 3, -4, 15, -16], "path": ["0", "0", "12", "13", "14", "19", "21"], "rt": [2358, 1996, 622, 305, 356, 2796], "actions": ["up", "right", "right", "right", "down", "down"], "actionTimes": [4281, 6283, 7460, 8279, 9132, 12453], "queries": {"click": {"state": {"target": ["15"], "time": [3454]}, "edge": {"target": [], "time": []}}, "mouseover": {"state": {"target": ["18", "15"], "time": [2576, 2975]}, "edge": {"target": [], "time": []}}, "mouseout": {"state": {"target": ["0", "18"], "time": [2476, 2676]}, "edge": {"target": [], "time": []}}}, "displayed_time": "15.93", "trialTime": 17605, "trial_type": "mouselab-mdp", "trial_index": 25, "time_elapsed": 1519461, "internal_node_id": "0.0-4.0-1.0-16.0"}}, {"uniqueid": "w17783226:a91400469", "current_trial": 26, "dateTime": 1691072778017, "trialdata": {"revealed_states": [], "clicked_states": [], "num_clicks_accrued": [0, 0, 0, 0, 0, 0, 0, 0, 0, 0, 0, 0, 0], "stateRewards": ["", -1, -3, -6, -2, -7, 80, -45, -3, -38, -72, 76, 2, 1, 7, 4, -62, 14, -74, 14, -87, -21, -88, -2, 1, -7, -10, 66, 56, -76, 10, -29, -72, -70], "withholdReward": false, "trial_id": "mdp_trial_18", "block": "test", "trialIndex": 19, "score": -27, "costs": 0, "simulationMode": [null, null, null, null, null], "rewards": [-2, 1, -7, 10, -29], "path": ["0", "0", "23", "24", "25", "30", "31"], "rt": [1605, 408, 429, 76, 551], "actions": ["left", "left", "left", "down", "right"], "actionTimes": [4706, 5639, 6610, 7205, 8295], "queries": {"click": {"state": {"target": [], "time": []}, "edge": {"target": [], "time": []}}, "mouseover": {"state": {"target": [], "time": []}, "edge": {"target": [], "time": []}}, "mouseout": {"state": {"target": ["15", "18"], "time": [1361, 1409]}, "edge": {"target": [], "time": []}}}, "displayed_time": "17.11", "trialTime": 24011, "trial_type": "mouselab-mdp", "trial_index": 26, "time_elapsed": 1544947, "internal_node_id": "0.0-4.0-1.0-17.0"}}, {"uniqueid": "w17783226:a91400469", "current_trial": 27, "dateTime": 1691072802975, "trialdata": {"revealed_states": [], "clicked_states": [], "num_clicks_accrued": [0, 0, 0, 0, 0, 0, 0, 0, 0, 0, 0, 0, 0], "stateRewards": ["", -2, -4, -2, -13, -15, 87, -19, -6, -80, 30, 12, 1, 1, -8, 2, 55, 56, 15, 11, -68, -7, 55, -2, 3, -3, -3, 48, 62, 4, 1, -3, 69, -33], "withholdReward": false, "trial_id": "mdp_trial_19", "block": "test", "trialIndex": 20, "score": 66, "costs": 0, "simulationMode": [null, null, null, null, null], "rewards": [-2, -4, -2, -13, 87], "path": ["0", "0", "1", "2", "3", "4", "6"], "rt": [701, 996, 876, 32, 653], "actions": ["up", "up", "up", "right", "right"], "actionTimes": [4085, 5595, 6990, 7543, 8749], "queries": {"click": {"state": {"target": [], "time": []}, "edge": {"target": [], "time": []}}, "mouseover": {"state": {"target": [], "time": []}, "edge": {"target": [], "time": []}}, "mouseout": {"state": {"target": [], "time": []}, "edge": {"target": [], "time": []}}}, "displayed_time": "17.39", "trialTime": 23803, "trial_type": "mouselab-mdp", "trial_index": 27, "time_elapsed": 1569905, "internal_node_id": "0.0-4.0-1.0-18.0"}}, {"uniqueid": "w17783226:a91400469", "current_trial": 28, "dateTime": 1691072821899, "trialdata": {"revealed_states": [], "clicked_states": [], "num_clicks_accrued": [0, 0, 0, 0, 0, 0, 0, 0, 0, 0, 0, 0, 0], "stateRewards": ["", 2, -1, 3, -12, -83, 6, -33, 9, 28, 24, -50, -2, -1, -2, -5, -87, 37, 82, 12, 80, -5, 10, -2, -3, -6, 9, 22, -1, 16, 9, 77, -62, 58], "withholdReward": false, "trial_id": "mdp_trial_20", "block": "test", "trialIndex": 21, "score": 17, "costs": 0, "simulationMode": [null, null, null, null, null], "rewards": [-2, -1, -2, 12, 10], "path": ["0", "0", "12", "13", "14", "19", "22"], "rt": [1196, 83, 460, 2043, 2076], "actions": ["right", "right", "right", "down", "left"], "actionTimes": [3322, 3926, 4903, 7455, 10051], "queries": {"click": {"state": {"target": [], "time": []}, "edge": {"target": [], "time": []}}, "mouseover": {"state": {"target": [], "time": []}, "edge": {"target": [], "time": []}}, "mouseout": {"state": {"target": [], "time": []}, "edge": {"target": [], "time": []}}}, "displayed_time": "16.14", "trialTime": 17878, "trial_type": "mouselab-mdp", "trial_index": 28, "time_elapsed": 1588829, "internal_node_id": "0.0-4.0-1.0-19.0"}}, {"uniqueid": "w17783226:a91400469", "current_trial": 29, "dateTime": 1691072844134, "trialdata": {"revealed_states": [], "clicked_states": [], "num_clicks_accrued": [0, 0, 0, 0, 0, 0, 0, 0, 0, 0, 0, 0, 0], "stateRewards": ["", 1, 2, 2, -15, -84, 28, -26, 13, 31, 86, 30, -2, 1, -1, -8, 66, -40, -1, -10, -32, 57, -17, 1, 2, -2, 9, -23, 77, 85, 12, -32, -62, -35], "withholdReward": false, "trial_id": "mdp_trial_21", "block": "test", "trialIndex": 22, "score": 95, "costs": 0, "simulationMode": [null, null, null, null, null], "rewards": [1, 2, -2, 9, 85], "path": ["0", "0", "23", "24", "25", "26", "29"], "rt": [799, 1493, 574, 698, 471], "actions": ["left", "left", "left", "up", "left"], "actionTimes": [2820, 4815, 5914, 7154, 8138], "queries": {"click": {"state": {"target": [], "time": []}, "edge": {"target": [], "time": []}}, "mouseover": {"state": {"target": [], "time": []}, "edge": {"target": [], "time": []}}, "mouseout": {"state": {"target": [], "time": []}, "edge": {"target": [], "time": []}}}, "displayed_time": "16.02", "trialTime": 21074, "trial_type": "mouselab-mdp", "trial_index": 29, "time_elapsed": 1611064, "internal_node_id": "0.0-4.0-1.0-20.0"}}, {"uniqueid": "w17783226:a91400469", "current_trial": 30, "dateTime": 1691072864854, "trialdata": {"revealed_states": [], "clicked_states": [], "num_clicks_accrued": [0, 0, 0, 0, 0, 0, 0, 0, 0, 0, 0, 0, 0], "stateRewards": ["", -2, -3, 8, -4, -30, 31, 69, 9, 66, 87, 64, -2, 2, 8, 5, 47, 16, -39, -8, -54, 51, -19, 1, -2, -2, -11, -25, -26, 43, -9, 19, -84, 86], "withholdReward": false, "trial_id": "mdp_trial_22", "block": "test", "trialIndex": 23, "score": 78, "costs": 0, "simulationMode": [null, null, null, null, null], "rewards": [-2, -3, 8, 9, 66], "path": ["0", "0", "1", "2", "3", "8", "9"], "rt": [977, 79, 216, 5, 165], "actions": ["up", "up", "up", "left", "up"], "actionTimes": [3428, 4039, 4780, 5310, 6007], "queries": {"click": {"state": {"target": [], "time": []}, "edge": {"target": [], "time": []}}, "mouseover": {"state": {"target": [], "time": []}, "edge": {"target": [], "time": []}}, "mouseout": {"state": {"target": [], "time": []}, "edge": {"target": [], "time": []}}}, "displayed_time": "16.46", "trialTime": 19569, "trial_type": "mouselab-mdp", "trial_index": 30, "time_elapsed": 1631784, "internal_node_id": "0.0-4.0-1.0-21.0"}}, {"uniqueid": "w17783226:a91400469", "current_trial": 31, "dateTime": 1691072884845, "trialdata": {"revealed_states": [], "clicked_states": [], "num_clicks_accrued": [0, 0, 0, 0, 0, 0, 0, 0, 0, 0, 0, 0, 0], "stateRewards": ["", 2, -1, 8, -2, -16, 69, -39, -7, -13, -27, -86, 2, -2, 2, 13, -34, -16, -20, -5, 19, 81, 32, -2, -1, 2, -14, 20, 80, 58, 4, 70, 12, 73], "withholdReward": false, "trial_id": "mdp_trial_23", "block": "test", "trialIndex": 24, "score": -32, "costs": 0, "simulationMode": [null, null, null, null, null], "rewards": [2, -1, 8, -2, -39], "path": ["0", "0", "1", "2", "3", "4", "7"], "rt": [3296, 275, 374, 28, 581], "actions": ["up", "up", "up", "right", "down"], "actionTimes": [5041, 5828, 6709, 7261, 8364], "queries": {"click": {"state": {"target": [], "time": []}, "edge": {"target": [], "time": []}}, "mouseover": {"state": {"target": [], "time": []}, "edge": {"target": [], "time": []}}, "mouseout": {"state": {"target": [], "time": []}, "edge": {"target": [], "time": []}}}, "displayed_time": "15.74", "trialTime": 18806, "trial_type": "mouselab-mdp", "trial_index": 31, "time_elapsed": 1651774, "internal_node_id": "0.0-4.0-1.0-22.0"}}, {"uniqueid": "w17783226:a91400469", "current_trial": 32, "dateTime": 1691072906221, "trialdata": {"revealed_states": [], "clicked_states": [], "num_clicks_accrued": [0, 0, 0, 0, 0, 0, 0, 0, 0, 0, 0, 0, 0], "stateRewards": ["", 2, -4, 4, 9, 69, 9, -75, 12, -86, 66, 25, -1, 3, 2, -13, -88, -3, 1, 4, -69, 49, -84, 2, -1, 4, 2, -18, -81, -52, -15, -69, -54, 25], "withholdReward": false, "trial_id": "mdp_trial_24", "block": "test", "trialIndex": 25, "score": -64, "costs": 0, "simulationMode": [null, null, null, null, null], "rewards": [2, -1, 4, -15, -54], "path": ["0", "0", "23", "24", "25", "30", "32"], "rt": [2164, 180, 474, 215, 1356], "actions": ["left", "left", "left", "down", "down"], "actionTimes": [4857, 5558, 6550, 7291, 9168], "queries": {"click": {"state": {"target": [], "time": []}, "edge": {"target": [], "time": []}}, "mouseover": {"state": {"target": [], "time": []}, "edge": {"target": [], "time": []}}, "mouseout": {"state": {"target": [], "time": []}, "edge": {"target": [], "time": []}}}, "displayed_time": "16.70", "trialTime": 20193, "trial_type": "mouselab-mdp", "trial_index": 32, "time_elapsed": 1673151, "internal_node_id": "0.0-4.0-1.0-23.0"}}, {"uniqueid": "w17783226:a91400469", "current_trial": 33, "dateTime": 1691072931854, "trialdata": {"revealed_states": [], "clicked_states": [], "num_clicks_accrued": [0, 0, 0, 0, 0, 0, 0, 0, 0, 0, 0, 0, 0], "stateRewards": ["", 2, -1, -1, 7, 11, -40, -22, -2, 69, 37, 8, -2, 4, -8, -12, -2, -72, -3, -12, 17, 63, 12, 1, 3, -7, 6, 25, 61, 61, -9, 28, -17, 27], "withholdReward": false, "trial_id": "mdp_trial_25", "block": "test", "trialIndex": 26, "score": -21, "costs": 0, "simulationMode": [null, null, null, null, null], "rewards": [-2, 4, -8, -12, -3], "path": ["0", "0", "12", "13", "14", "15", "18"], "rt": [5018, 1376, 843, 727, 985], "actions": ["right", "right", "right", "up", "left"], "actionTimes": [8012, 9920, 11277, 12544, 14049], "queries": {"click": {"state": {"target": [], "time": []}, "edge": {"target": [], "time": []}}, "mouseover": {"state": {"target": ["0"], "time": [7468]}, "edge": {"target": [], "time": []}}, "mouseout": {"state": {"target": ["0", "0", "0"], "time": [1517, 7040, 7581]}, "edge": {"target": [], "time": []}}}, "displayed_time": "16.99", "trialTime": 24403, "trial_type": "mouselab-mdp", "trial_index": 33, "time_elapsed": 1698784, "internal_node_id": "0.0-4.0-1.0-24.0"}}, {"uniqueid": "w17783226:a91400469", "current_trial": 34, "dateTime": 1691072953555, "trialdata": {"revealed_states": [], "clicked_states": [], "num_clicks_accrued": [0, 0, 0, 0, 0, 0, 0, 0, 0, 0, 0, 0, 0], "stateRewards": ["", 1, 1, -5, 8, -6, 45, 16, -6, -7, -22, -38, -1, -4, 8, -11, -16, 21, -45, -15, -59, -32, 42, -1, 3, 6, 11, -7, 34, -27, -8, 85, 43, -9], "withholdReward": false, "trial_id": "mdp_trial_26", "block": "test", "trialIndex": 27, "score": -44, "costs": 0, "simulationMode": [null, null, null, null, null], "rewards": [-1, -4, 8, -15, -32], "path": ["0", "0", "12", "13", "14", "19", "21"], "rt": [1434, 219, 391, 881, 96], "actions": ["right", "right", "right", "down", "down"], "actionTimes": [4260, 4996, 5885, 7288, 7902], "queries": {"click": {"state": {"target": [], "time": []}, "edge": {"target": [], "time": []}}, "mouseover": {"state": {"target": [], "time": []}, "edge": {"target": [], "time": []}}, "mouseout": {"state": {"target": [], "time": []}, "edge": {"target": [], "time": []}}}, "displayed_time": "16.83", "trialTime": 20430, "trial_type": "mouselab-mdp", "trial_index": 34, "time_elapsed": 1720485, "internal_node_id": "0.0-4.0-1.0-25.0"}}, {"uniqueid": "w17783226:a91400469", "current_trial": 35, "dateTime": 1691072973102, "trialdata": {"revealed_states": [], "clicked_states": ["15"], "num_clicks_accrued": [0, 0, 0, 0, 0, 0, 0, 0, 0, 0, 0, 0, 0], "stateRewards": ["", -2, -4, -2, 10, -8, -15, -47, 7, -84, 53, 5, -1, 2, -7, 3, 83, 31, 47, -1, 30, -8, 69, 2, -4, -1, 8, -7, 12, -8, -8, -13, 30, -84], "withholdReward": false, "trial_id": "mdp_trial_27", "block": "test", "trialIndex": 28, "score": 60.6, "costs": -1.4, "simulationMode": [null, null, null, null, null], "rewards": [-1, 2, -7, -1, 69], "path": ["0", "0", "12", "13", "14", "19", "22"], "rt": [4058, 773, 609, 1978, 1007], "actions": ["right", "right", "right", "down", "left"], "actionTimes": [5792, 7109, 8291, 10806, 12335], "queries": {"click": {"state": {"target": ["15"], "time": [3337]}, "edge": {"target": [], "time": []}}, "mouseover": {"state": {"target": ["18", "15", "14", "19"], "time": [2622, 2822, 4871, 5525]}, "edge": {"target": [], "time": []}}, "mouseout": {"state": {"target": ["0", "18", "15", "14"], "time": [2266, 2693, 4763, 5099]}, "edge": {"target": [], "time": []}}}, "displayed_time": "15.74", "trialTime": 18417, "trial_type": "mouselab-mdp", "trial_index": 35, "time_elapsed": 1740033, "internal_node_id": "0.0-4.0-1.0-26.0"}}, {"uniqueid": "w17783226:a91400469", "current_trial": 36, "dateTime": 1691072995707, "trialdata": {"revealed_states": [], "clicked_states": ["30"], "num_clicks_accrued": [0, 0, 0, 0, 0, 0, 0, 0, 0, 0, 0, 0, 0], "stateRewards": ["", 1, 1, 1, 15, -76, 52, -32, 14, -57, 37, 49, 1, -4, -3, 6, 83, -76, 25, 9, 36, -1, -17, -1, 4, 4, -2, -22, -21, 58, -15, -57, 49, -24], "withholdReward": false, "trial_id": "mdp_trial_28", "block": "test", "trialIndex": 29, "score": 61.6, "costs": -1.4, "simulationMode": [null, null, null, null, null, null], "rewards": [-1, 4, 4, -2, 58], "path": ["0", "0", "23", "24", "25", "26", "29"], "rt": [2374, 1163, 574, 322, 419, 619], "actions": ["left", "left", "left", "left", "up", "left"], "actionTimes": [5327, 6499, 7596, 8428, 9355, 10502], "queries": {"click": {"state": {"target": ["30"], "time": [4656]}, "edge": {"target": [], "time": []}}, "mouseover": {"state": {"target": ["23", "24", "30"], "time": [3879, 3930, 4102]}, "edge": {"target": [], "time": []}}, "mouseout": {"state": {"target": ["19", "0", "23", "24", "30"], "time": [1155, 3843, 3904, 4052, 18429]}, "edge": {"target": [], "time": []}}}, "displayed_time": "16.96", "trialTime": 21348, "trial_type": "mouselab-mdp", "trial_index": 36, "time_elapsed": 1762638, "internal_node_id": "0.0-4.0-1.0-27.0"}}, {"uniqueid": "w17783226:a91400469", "current_trial": 37, "dateTime": 1691073017077, "trialdata": {"revealed_states": [], "clicked_states": [], "num_clicks_accrued": [0, 0, 0, 0, 0, 0, 0, 0, 0, 0, 0, 0, 0], "stateRewards": ["", -2, -3, -6, -7, 9, 16, 65, 5, -41, 20, -25, -1, -4, 1, -11, -49, -4, 71, 1, 39, -62, 52, -2, -3, 7, -9, -28, -70, 84, 8, 24, -58, 82], "withholdReward": false, "trial_id": "mdp_trial_29", "block": "test", "trialIndex": 30, "score": 14, "costs": 0, "simulationMode": [null, null, null, null, null], "rewards": [-2, -3, -6, 5, 20], "path": ["0", "0", "1", "2", "3", "8", "10"], "rt": [775, 648, 54, 91, 351], "actions": ["up", "up", "up", "left", "down"], "actionTimes": [3945, 5116, 5703, 6306, 7183], "queries": {"click": {"state": {"target": [], "time": []}, "edge": {"target": [], "time": []}}, "mouseover": {"state": {"target": [], "time": []}, "edge": {"target": [], "time": []}}, "mouseout": {"state": {"target": ["0"], "time": [1594]}, "edge": {"target": [], "time": []}}}, "displayed_time": "17.17", "trialTime": 20048, "trial_type": "mouselab-mdp", "trial_index": 37, "time_elapsed": 1784007, "internal_node_id": "0.0-4.0-1.0-28.0"}}, {"uniqueid": "w17783226:a91400469", "current_trial": 38, "dateTime": 1691073036818, "trialdata": {"revealed_states": [], "clicked_states": [], "num_clicks_accrued": [0, 0, 0, 0, 0, 0, 0, 0, 0, 0, 0, 0, 0], "stateRewards": ["", -1, -2, -1, -10, -57, 73, -72, -16, 75, -14, -46, -2, -3, -7, -1, -61, -60, 76, -4, 50, 4, 14, 2, 2, -7, 12, -65, -32, 15, -8, -76, -25, -61], "withholdReward": false, "trial_id": "mdp_trial_30", "block": "test", "trialIndex": 31, "score": -74, "costs": 0, "simulationMode": [null, null, null, null, null], "rewards": [-2, -3, -7, -1, -61], "path": ["0", "0", "12", "13", "14", "15", "16"], "rt": [748, 116, 552, 508, 52], "actions": ["right", "right", "right", "up", "up"], "actionTimes": [3099, 3740, 4808, 5814, 6399], "queries": {"click": {"state": {"target": [], "time": []}, "edge": {"target": [], "time": []}}, "mouseover": {"state": {"target": [], "time": []}, "edge": {"target": [], "time": []}}, "mouseout": {"state": {"target": ["0", "0"], "time": [1537, 17824]}, "edge": {"target": [], "time": []}}}, "displayed_time": "16.36", "trialTime": 18553, "trial_type": "mouselab-mdp", "trial_index": 38, "time_elapsed": 1803749, "internal_node_id": "0.0-4.0-1.0-29.0"}}, {"uniqueid": "w17783226:a91400469", "current_trial": 39, "dateTime": 1691073058520, "trialdata": {"revealed_states": [], "clicked_states": [], "num_clicks_accrued": [0, 0, 0, 0, 0, 0, 0, 0, 0, 0, 0, 0, 0], "stateRewards": ["", -1, 2, 7, 8, 75, 67, -11, 6, 52, -17, 38, -1, 4, -8, 14, 74, -37, -17, -12, 52, 55, 71, -2, -1, -5, 2, 21, 6, -88, -14, 64, -61, -47], "withholdReward": false, "trial_id": "mdp_trial_31", "block": "test", "trialIndex": 32, "score": -83, "costs": 0, "simulationMode": [null, null, null, null, null], "rewards": [-2, -1, -5, -14, -61], "path": ["0", "0", "23", "24", "25", "30", "32"], "rt": [642, 134, 352, 221, 313], "actions": ["left", "left", "left", "down", "down"], "actionTimes": [3851, 4505, 5357, 6094, 6933], "queries": {"click": {"state": {"target": [], "time": []}, "edge": {"target": [], "time": []}}, "mouseover": {"state": {"target": [], "time": []}, "edge": {"target": [], "time": []}}, "mouseout": {"state": {"target": ["0", "0", "12"], "time": [1468, 18872, 19320]}, "edge": {"target": [], "time": []}}}, "displayed_time": "17.22", "trialTime": 20355, "trial_type": "mouselab-mdp", "trial_index": 39, "time_elapsed": 1825450, "internal_node_id": "0.0-4.0-1.0-30.0"}}, {"uniqueid": "w17783226:a91400469", "current_trial": 40, "dateTime": 1691073097353, "trialdata": {"revealed_states": [], "clicked_states": [], "num_clicks_accrued": [0, 0, 0, 0, 0, 0, 0, 0, 0, 0, 0, 0, 0], "stateRewards": ["", -2, -3, 7, -13, 60, 9, 37, -6, 37, 20, 1, 2, -2, -8, 6, -80, -31, -10, -7, 70, -65, -44, -1, 1, 7, 6, -11, 73, -85, 16, -21, 47, 34], "withholdReward": false, "trial_id": "mdp_trial_32", "block": "test", "trialIndex": 33, "score": 33, "costs": 0, "simulationMode": [null, null, null, null, null], "rewards": [-2, -3, 7, -6, 37], "path": ["0", "0", "1", "2", "3", "8", "9"], "rt": [1014, 84, 356, 924, 2333], "actions": ["up", "up", "up", "left", "up"], "actionTimes": [4167, 4777, 5685, 7133, 9982], "queries": {"click": {"state": {"target": [], "time": []}, "edge": {"target": [], "time": []}}, "mouseover": {"state": {"target": [], "time": []}, "edge": {"target": [], "time": []}}, "mouseout": {"state": {"target": [], "time": []}, "edge": {"target": [], "time": []}}}, "displayed_time": "17.16", "trialTime": 37526, "trial_type": "mouselab-mdp", "trial_index": 40, "time_elapsed": 1864282, "internal_node_id": "0.0-4.0-1.0-31.0"}}, {"uniqueid": "w17783226:a91400469", "current_trial": 41, "dateTime": 1691073116663, "trialdata": {"revealed_states": [], "clicked_states": [], "num_clicks_accrued": [0, 0, 0, 0, 0, 0, 0, 0, 0, 0, 0, 0, 0], "stateRewards": ["", 1, 1, 1, -3, -7, -1, -41, -10, 20, -72, -63, 1, -4, -2, 2, -66, 30, -84, -2, 49, 23, 71, -1, -4, 4, -12, 67, 5, 18, -16, 88, 56, -5], "withholdReward": false, "trial_id": "mdp_trial_33", "block": "test", "trialIndex": 34, "score": 64, "costs": 0, "simulationMode": [null, null, null, null, null], "rewards": [1, -4, -2, -2, 71], "path": ["0", "0", "12", "13", "14", "19", "22"], "rt": [799, 23, 621, 274, 941], "actions": ["right", "right", "right", "down", "left"], "actionTimes": [2787, 3330, 4479, 5266, 6713], "queries": {"click": {"state": {"target": [], "time": []}, "edge": {"target": [], "time": []}}, "mouseover": {"state": {"target": [], "time": []}, "edge": {"target": [], "time": []}}, "mouseout": {"state": {"target": [], "time": []}, "edge": {"target": [], "time": []}}}, "displayed_time": "15.99", "trialTime": 18001, "trial_type": "mouselab-mdp", "trial_index": 41, "time_elapsed": 1883594, "internal_node_id": "0.0-4.0-1.0-32.0"}}, {"uniqueid": "w17783226:a91400469", "current_trial": 42, "dateTime": 1691073139670, "trialdata": {"revealed_states": [], "clicked_states": [], "num_clicks_accrued": [0, 0, 0, 0, 0, 0, 0, 0, 0, 0, 0, 0, 0], "stateRewards": ["", 2, -1, 5, 6, 10, 86, 55, 10, -45, 63, -71, 1, -2, 5, -8, -50, -72, 36, 15, 61, 12, 33, -1, -4, 6, 5, 79, -56, -21, -16, -87, 60, -81], "withholdReward": false, "trial_id": "mdp_trial_34", "block": "test", "trialIndex": 35, "score": -76, "costs": 0, "simulationMode": [null, null, null, null, null], "rewards": [1, -2, 5, -8, -72], "path": ["0", "0", "12", "13", "14", "15", "17"], "rt": [2231, 298, 349, 1177, 79], "actions": ["right", "right", "right", "up", "right"], "actionTimes": [4646, 5449, 6315, 8012, 8612], "queries": {"click": {"state": {"target": [], "time": []}, "edge": {"target": [], "time": []}}, "mouseover": {"state": {"target": [], "time": []}, "edge": {"target": [], "time": []}}, "mouseout": {"state": {"target": [], "time": []}, "edge": {"target": [], "time": []}}}, "displayed_time": "16.42", "trialTime": 21519, "trial_type": "mouselab-mdp", "trial_index": 42, "time_elapsed": 1906599, "internal_node_id": "0.0-4.0-1.0-33.0"}}, {"uniqueid": "w17783226:a91400469", "current_trial": 43, "dateTime": 1691073167508, "trialdata": {"revealed_states": [], "clicked_states": [], "num_clicks_accrued": [0, 0, 0, 0, 0, 0, 0, 0, 0, 0, 0, 0, 0], "stateRewards": ["", 1, 3, -2, 15, 51, 15, -19, 11, 67, -45, -73, 2, 4, -2, -13, 36, 9, -28, 10, -30, 31, 16, 1, 2, -1, -16, 14, -22, 36, -1, 88, -5, 45], "withholdReward": false, "trial_id": "mdp_trial_35", "block": "test", "trialIndex": 36, "score": -60, "costs": 0, "simulationMode": [null, null, null, null, null], "rewards": [1, 3, -2, 11, -73], "path": ["0", "0", "1", "2", "3", "8", "11"], "rt": [1134, 344, 225, 393, 684], "actions": ["up", "up", "up", "left", "left"], "actionTimes": [4477, 5341, 6070, 6971, 8161], "queries": {"click": {"state": {"target": [], "time": []}, "edge": {"target": [], "time": []}}, "mouseover": {"state": {"target": [], "time": []}, "edge": {"target": [], "time": []}}, "mouseout": {"state": {"target": [], "time": []}, "edge": {"target": [], "time": []}}}, "displayed_time": "17.35", "trialTime": 26506, "trial_type": "mouselab-mdp", "trial_index": 43, "time_elapsed": 1934438, "internal_node_id": "0.0-4.0-1.0-34.0"}}, {"uniqueid": "w17783226:a91400469", "current_trial": 44, "dateTime": 1691073192628, "trialdata": {"revealed_states": [], "clicked_states": [], "num_clicks_accrued": [0, 0, 0, 0, 0, 0, 0, 0, 0, 0, 0, 0, 0], "stateRewards": ["", -1, 1, -5, -6, -78, 47, -13, 12, 48, -88, 20, 2, -3, -2, 13, -20, 37, -57, 14, -38, 30, 31, -2, -2, 8, 2, -23, 78, 28, 12, -74, -88, 8], "withholdReward": false, "trial_id": "mdp_trial_36", "block": "test", "trialIndex": 37, "score": -72, "costs": 0, "simulationMode": [null, null, null, null, null], "rewards": [-2, -2, 8, 12, -88], "path": ["0", "0", "23", "24", "25", "30", "32"], "rt": [1436, 77, 360, 58, 565], "actions": ["left", "left", "left", "down", "down"], "actionTimes": [9471, 10073, 10952, 11536, 12625], "queries": {"click": {"state": {"target": [], "time": []}, "edge": {"target": [], "time": []}}, "mouseover": {"state": {"target": [], "time": []}, "edge": {"target": [], "time": []}}, "mouseout": {"state": {"target": ["0"], "time": [6158]}, "edge": {"target": [], "time": []}}}, "displayed_time": "22.04", "trialTime": 23847, "trial_type": "mouselab-mdp", "trial_index": 44, "time_elapsed": 1959558, "internal_node_id": "0.0-4.0-1.0-35.0"}}, {"uniqueid": "w17783226:a91400469", "current_trial": 45, "dateTime": 1691073217093, "trialdata": {"revealed_states": [], "clicked_states": [], "num_clicks_accrued": [0, 0, 0, 0, 0, 0, 0, 0, 0, 0, 0, 0, 0], "stateRewards": ["", -2, -1, -2, -15, 87, 57, 29, -10, 77, -80, -7, 1, -3, 6, 14, -11, 87, -59, 4, -71, 16, -11, 2, 2, -7, 2, -47, 61, 50, 14, -20, 17, 81], "withholdReward": false, "trial_id": "mdp_trial_37", "block": "test", "trialIndex": 38, "score": 62, "costs": 0, "simulationMode": [null, null, null, null, null], "rewards": [-2, -1, -2, -10, 77], "path": ["0", "0", "1", "2", "3", "8", "9"], "rt": [773, 57, 743, 3800, 98], "actions": ["up", "up", "up", "left", "up"], "actionTimes": [4459, 5035, 6351, 10676, 11287], "queries": {"click": {"state": {"target": [], "time": []}, "edge": {"target": [], "time": []}}, "mouseover": {"state": {"target": [], "time": []}, "edge": {"target": [], "time": []}}, "mouseout": {"state": {"target": ["0"], "time": [1423]}, "edge": {"target": [], "time": []}}}, "displayed_time": "17.69", "trialTime": 22997, "trial_type": "mouselab-mdp", "trial_index": 45, "time_elapsed": 1984023, "internal_node_id": "0.0-4.0-1.0-36.0"}}, {"uniqueid": "w17783226:a91400469", "current_trial": 46, "dateTime": 1691073252921, "trialdata": {"revealed_states": [], "clicked_states": [], "num_clicks_accrued": [0, 0, 0, 0, 0, 0, 0, 0, 0, 0, 0, 0, 0], "stateRewards": ["", -2, -3, -7, 7, -54, -69, -4, -14, -77, 22, 40, -2, -1, 5, 6, -35, 50, -60, 10, -28, 75, 57, 1, -4, -2, 2, 68, 34, -18, 12, 3, -21, -43], "withholdReward": false, "trial_id": "mdp_trial_38", "block": "test", "trialIndex": 39, "score": -27, "costs": 0, "simulationMode": [null, null, null, null, null], "rewards": [-2, -1, 5, 6, -35], "path": ["0", "0", "12", "13", "14", "15", "16"], "rt": [955, 539, 379, 357, 360], "actions": ["right", "right", "right", "up", "up"], "actionTimes": [3134, 4194, 5084, 5972, 6846], "queries": {"click": {"state": {"target": [], "time": []}, "edge": {"target": [], "time": []}}, "mouseover": {"state": {"target": [], "time": []}, "edge": {"target": [], "time": []}}, "mouseout": {"state": {"target": [], "time": []}, "edge": {"target": [], "time": []}}}, "displayed_time": "16.19", "trialTime": 34407, "trial_type": "mouselab-mdp", "trial_index": 46, "time_elapsed": 2019851, "internal_node_id": "0.0-4.0-1.0-37.0"}}, {"uniqueid": "w17783226:a91400469", "current_trial": 47, "dateTime": 1691073280916, "trialdata": {"revealed_states": [], "clicked_states": [], "num_clicks_accrued": [0, 0, 0, 0, 0, 0, 0, 0, 0, 0, 0, 0, 0], "stateRewards": ["", 1, 1, 7, -11, 80, -20, -53, -14, 3, 31, 27, 2, -1, -8, -10, 33, 41, 86, 9, 78, -37, -13, -1, -2, -6, -8, -80, 75, 4, -16, -49, -74, 24], "withholdReward": false, "trial_id": "mdp_trial_39", "block": "test", "trialIndex": 40, "score": -22, "costs": 0, "simulationMode": [null, null, null, null, null], "rewards": [1, 1, 7, -11, -20], "path": ["0", "0", "1", "2", "3", "4", "6"], "rt": [440, 994, 357, 9, 426], "actions": ["up", "up", "up", "right", "right"], "actionTimes": [2317, 3829, 4705, 5226, 6158], "queries": {"click": {"state": {"target": [], "time": []}, "edge": {"target": [], "time": []}}, "mouseover": {"state": {"target": [], "time": []}, "edge": {"target": [], "time": []}}, "mouseout": {"state": {"target": [], "time": []}, "edge": {"target": [], "time": []}}}, "displayed_time": "15.89", "trialTime": 26510, "trial_type": "mouselab-mdp", "trial_index": 47, "time_elapsed": 2047846, "internal_node_id": "0.0-4.0-1.0-38.0"}}, {"uniqueid": "w17783226:a91400469", "current_trial": 48, "dateTime": 1691073306251, "trialdata": {"revealed_states": [], "clicked_states": [], "num_clicks_accrued": [0, 0, 0, 0, 0, 0, 0, 0, 0, 0, 0, 0, 0], "stateRewards": ["", 1, -2, -8, -3, 31, -84, -55, -14, 15, -58, 17, -2, -3, 7, 7, -12, 48, 67, 4, -44, -68, 46, 2, 3, -5, -7, 76, 27, 5, 11, 57, 52, 59], "withholdReward": false, "trial_id": "mdp_trial_40", "block": "test", "trialIndex": 41, "score": 68, "costs": 0, "simulationMode": [null, null, null, null, null], "rewards": [2, 3, -5, 11, 57], "path": ["0", "0", "23", "24", "25", "30", "31"], "rt": [1495, 136, 2334, 464, 626], "actions": ["left", "left", "left", "down", "right"], "actionTimes": [9072, 9718, 12564, 13556, 14701], "queries": {"click": {"state": {"target": [], "time": []}, "edge": {"target": [], "time": []}}, "mouseover": {"state": {"target": [], "time": []}, "edge": {"target": [], "time": []}}, "mouseout": {"state": {"target": [], "time": []}, "edge": {"target": [], "time": []}}}, "displayed_time": "21.59", "trialTime": 23823, "trial_type": "mouselab-mdp", "trial_index": 48, "time_elapsed": 2073181, "internal_node_id": "0.0-4.0-1.0-39.0"}}, {"uniqueid": "w17783226:a91400469", "current_trial": 49, "dateTime": 1691073451924, "trialdata": {"rt": 144596, "response": {"Q0": "$-2 to $2", "Q1": "$-16 to $16", "Q2": "$-88 to $88", "Q3": "The cost was always $1.4.", "Q4": "Neither motivated nor unmotivated"}, "question_order": [0, 1, 2, 3, 4], "trial_id": "final_quiz_control", "trial_type": "survey-multi-choice", "trial_index": 49, "time_elapsed": 2218855, "internal_node_id": "0.0-4.0-2.0"}}, {"uniqueid": "w17783226:a91400469", "current_trial": 50, "dateTime": 1691073691351, "trialdata": {"rt": 236782, "response": {"Q0": "i was taking the one with less moves", "Q1": "strategy did not improve at all", "Q2": "the its self was difficult to understand"}, "trial_id": "self_report_control", "trial_type": "survey-text", "trial_index": 50, "time_elapsed": 2458281, "internal_node_id": "0.0-4.0-3.0"}}, {"uniqueid": "w17783226:a91400469", "current_trial": 51, "dateTime": 1691073766895, "trialdata": {"rt": 75491, "response": {"gender": "male", "age": "22", "colorblind": "0", "effort": "1"}, "trial_type": "survey-html-form", "trial_index": 51, "time_elapsed": 2533827, "internal_node_id": "0.0-4.0-4.0"}}, {"uniqueid": "w17783226:a91400469", "current_trial": 52, "dateTime": 1691073851267, "trialdata": {"rt": 84328, "response": {"Q0": "the instructions were too much and not easy to understand", "Q1": "this was the first one", "Q2": ""}, "trial_type": "survey-text", "trial_index": 52, "time_elapsed": 2618198, "internal_node_id": "0.0-4.0-5.0"}}, {"uniqueid": "w17783226:a91400469", "current_trial": 53, "dateTime": 1691073864624, "trialdata": {"rt": 13316, "stimulus": "Press 'Finish HIT' in order to reach the completion code. Once the data has been saved, you will receive the code either in this window or in the original browser window where you started the experiment.\n", "response": 0, "trial_type": "html-button-response", "trial_index": 53, "time_elapsed": 2631556, "internal_node_id": "0.0-5.0"}}, {"uniqueid": "w17783226:a91400469", "current_trial": 54, "dateTime": 1691073865661, "trialdata": {"success": true, "trial_type": "fullscreen", "trial_index": 54, "time_elapsed": 2632593, "internal_node_id": "0.0-6.0"}}], "questiondata": {"params": {"CODE": "C6DMOQA6", "MIN_TIME": 14, "inspectCost": 1, "startTime": "Thu Aug 03 2023 16:00:30 GMT+0200 (South Africa Standard Time)", "bonusRate": 0.002, "variance": "1_2_4_8_44", "branching": "31123"}, "final_score": -429}, "eventdata": [{"eventtype": "initialized", "value": null, "timestamp": 1691071228858, "interval": 0}, {"eventtype": "window_resize", "value": [1536, 758], "timestamp": 1691071228858, "interval": 0}, {"eventtype": "window_resize", "value": [1536, 758], "timestamp": 1691071229665, "interval": 807}, {"eventtype": "window_resize", "value": [1536, 864], "timestamp": 1691071254345, "interval": 24680}], "useragent": "Mozilla/5.0 (Windows NT 10.0; Win64; x64) AppleWebKit/537.36 (KHTML, like Gecko) Chrome/115.0.0.0 Safari/537.36", "mode": "live", "id": "w17783226:a91400469", "status": "user data saved", "Beginhit": "2023-08-03 14:00:14.12554", "Beginexp": "2023-08-03 14:00:54.33321", "Endhit": "2023-08-03 14:44:38.586355", "psiturkStatus": 3, "browser": "<redacted>", "platform": "windows", "language": "en-US"}