{"condition": 1, "counterbalance": 0, "assignmentId": "a17991987", "workerId": "w25571813", "hitId": "h35435042", "currenttrial": 62, "bonus": 0, "data": [{"uniqueid": "w25571813:a17991987", "current_trial": 0, "dateTime": 1691070953512, "trialdata": {"success": true, "trial_type": "fullscreen", "trial_index": 0, "time_elapsed": 5956, "internal_node_id": "0.0-0.0"}}, {"uniqueid": "w25571813:a17991987", "current_trial": 1, "dateTime": 1691070980933, "trialdata": {"view_history": [{"page_index": 0, "viewing_time": 27409}], "rt": 27410, "trial_id": "exp_instructions_misaligned", "trial_type": "instructions", "trial_index": 1, "time_elapsed": 33378, "internal_node_id": "0.0-1.0"}}, {"uniqueid": "w25571813:a17991987", "current_trial": 2, "dateTime": 1691070986068, "trialdata": {"success": true, "trial_type": "fullscreen", "trial_index": 2, "time_elapsed": 38513, "internal_node_id": "0.0-2.0-0.0"}}, {"uniqueid": "w25571813:a17991987", "current_trial": 3, "dateTime": 1691071298918, "trialdata": {"view_history": [{"page_index": 0, "viewing_time": 125568}, {"page_index": 1, "viewing_time": 123557}, {"page_index": 2, "viewing_time": 34247}, {"page_index": 3, "viewing_time": 29460}], "rt": 312831, "trial_id": "mouselab_instructions_1_misaligned", "trial_type": "instructions", "trial_index": 3, "time_elapsed": 351363, "internal_node_id": "0.0-2.0-1.0"}}, {"uniqueid": "w25571813:a17991987", "current_trial": 4, "dateTime": 1691071350073, "trialdata": {"revealed_states": [], "clicked_states": ["12", "13", "14", "19", "21"], "num_clicks_accrued": [0, 0, 0, 0, 0, 0, 0, 0, 0, 0, 0, 0, 0], "stateRewards": ["", -10, -10, 10, 10, 10, -10, 10, -10, -10, -10, 10, 10, -10, -10, -10, -10, 10, 10, 10, -10, 10, -10, -10, 10, 10, 10, 10, -10, -10, 10, 10, -10, 10], "withholdReward": false, "trial_id": "practice_1", "block": "test", "trialIndex": 0, "score": -29, "costs": -2.5, "simulationMode": [null, null, null, null, null], "rewards": [10, -10, -10, -10, -10], "path": ["0", "0", "12", "13", "14", "15", "16"], "rt": [34248, 3663, 433, 580, 621], "actions": ["right", "right", "right", "up", "up"], "actionTimes": [36795, 40962, 41906, 42990, 44116], "queries": {"click": {"state": {"target": ["12", "13", "14", "19", "21"], "time": [4874, 6248, 7744, 9492, 10650]}, "edge": {"target": [], "time": []}}, "mouseover": {"state": {"target": ["12", "13", "14", "19", "21", "23", "24", "25", "26", "24", "23", "1", "2", "3", "8", "3", "2", "1", "2", "7"], "time": [3908, 5789, 7186, 8970, 10110, 17401, 17683, 18265, 18685, 19936, 20720, 21257, 21575, 21903, 22460, 22653, 22872, 23135, 23819, 29168]}, "edge": {"target": [], "time": []}}, "mouseout": {"state": {"target": ["0", "12", "13", "14", "14", "19", "21", "23", "24", "25", "26", "24", "23", "1", "2", "3", "8", "3", "2", "1", "2", "7"], "time": [1709, 5460, 6960, 7770, 8938, 10044, 16852, 17592, 18234, 18642, 19868, 20002, 20809, 21542, 21626, 22401, 22616, 22685, 23042, 23788, 29144, 29191]}, "edge": {"target": [], "time": []}}}, "displayed_time": "44.63", "trialTime": 49637, "trial_type": "mouselab-mdp", "trial_index": 4, "time_elapsed": 402517, "internal_node_id": "0.0-2.0-2.0-0.0"}}, {"uniqueid": "w25571813:a17991987", "current_trial": 5, "dateTime": 1691071363729, "trialdata": {"revealed_states": [], "clicked_states": [], "num_clicks_accrued": [0, 0, 0, 0, 0, 0, 0, 0, 0, 0, 0, 0, 0], "stateRewards": ["", 10, 10, 10, -10, 10, 10, 10, -10, -10, -10, 10, -10, -10, -10, -10, 10, 10, 10, 10, -10, 10, -10, -10, -10, 10, -10, -10, 10, 10, -10, -10, 10, 10], "withholdReward": false, "trial_id": "practice_2", "block": "test", "trialIndex": 1, "score": 13.5, "costs": 0, "simulationMode": [null, null, null, null, null], "rewards": [10, 10, 10, -10, -10], "path": ["0", "0", "1", "2", "3", "8", "9"], "rt": [1384, 165, 298, 546, 1241], "actions": ["up", "up", "up", "left", "up"], "actionTimes": [5736, 6401, 7204, 8250, 9999], "queries": {"click": {"state": {"target": [], "time": []}, "edge": {"target": [], "time": []}}, "mouseover": {"state": {"target": [], "time": []}, "edge": {"target": [], "time": []}}, "mouseout": {"state": {"target": ["20", "19", "22", "0"], "time": [3161, 3196, 3264, 3470]}, "edge": {"target": [], "time": []}}}, "displayed_time": "10.51", "trialTime": 13071, "trial_type": "mouselab-mdp", "trial_index": 5, "time_elapsed": 416173, "internal_node_id": "0.0-2.0-2.0-1.0"}}, {"uniqueid": "w25571813:a17991987", "current_trial": 6, "dateTime": 1691071423604, "trialdata": {"view_history": [{"page_index": 0, "viewing_time": 15653}, {"page_index": 1, "viewing_time": 13484}, {"page_index": 0, "viewing_time": 29181}, {"page_index": 1, "viewing_time": 1547}], "rt": 59865, "trial_id": "mouselab_instructions_2_misaligned", "trial_type": "instructions", "trial_index": 6, "time_elapsed": 476048, "internal_node_id": "0.0-2.0-3.0"}}, {"uniqueid": "w25571813:a17991987", "current_trial": 7, "dateTime": 1691071477578, "trialdata": {"rt": 53960, "response": {"Q0": "There is no cost for clicking on nodes.", "Q1": "The better I perform the higher my bonus will be.", "Q2": "No, the structure of the web will be different each time.", "Q3": "To click on the least number of nodes.", "Q4": "Any time during the round.", "Q5": "3 seconds"}, "question_order": [0, 1, 2, 3, 4, 5], "correct": {"Q0": "The cost for clicking on nodes may vary between nodes.", "Q1": "The better I perform the higher my bonus will be.", "Q2": "No, the amount of cash at each node of the web may be different each time.", "Q3": "To get the highest total score.", "Q4": "Only before moving the spider.", "Q5": "3 seconds"}, "trial_id": "mouselab_quiz_misaligned", "trial_type": "survey-multi-choice", "trial_index": 7, "time_elapsed": 530023, "internal_node_id": "0.0-2.0-4.0"}}, {"uniqueid": "w25571813:a17991987", "current_trial": 8, "dateTime": 1691071488272, "trialdata": {"success": true, "trial_type": "fullscreen", "trial_index": 8, "time_elapsed": 540716, "internal_node_id": "0.0-2.1-0.1"}}, {"uniqueid": "w25571813:a17991987", "current_trial": 9, "dateTime": 1691071552237, "trialdata": {"view_history": [{"page_index": 0, "viewing_time": 21176}, {"page_index": 1, "viewing_time": 34903}, {"page_index": 2, "viewing_time": 3513}, {"page_index": 3, "viewing_time": 4366}], "rt": 63959, "trial_id": "mouselab_instructions_1_misaligned", "trial_type": "instructions", "trial_index": 9, "time_elapsed": 604682, "internal_node_id": "0.0-2.1-1.1"}}, {"uniqueid": "w25571813:a17991987", "current_trial": 10, "dateTime": 1691071562768, "trialdata": {"revealed_states": [], "clicked_states": [], "num_clicks_accrued": [0, 0, 0, 0, 0, 0, 0, 0, 0, 0, 0, 0, 0], "stateRewards": ["", -10, -10, 10, 10, 10, -10, 10, -10, -10, -10, 10, 10, -10, -10, -10, -10, 10, 10, 10, -10, 10, -10, -10, 10, 10, 10, 10, -10, -10, 10, 10, -10, 10], "withholdReward": false, "trial_id": "practice_1", "block": "test", "trialIndex": 2, "score": 13.5, "costs": 0, "simulationMode": [null, null, null, null, null], "rewards": [-10, -10, 10, 10, 10], "path": ["0", "0", "1", "2", "3", "4", "5"], "rt": [1750, 147, 231, 389, 853], "actions": ["up", "up", "up", "right", "up"], "actionTimes": [4155, 4802, 5539, 6421, 7773], "queries": {"click": {"state": {"target": [], "time": []}, "edge": {"target": [], "time": []}}, "mouseover": {"state": {"target": [], "time": []}, "edge": {"target": [], "time": []}}, "mouseout": {"state": {"target": [], "time": []}, "edge": {"target": [], "time": []}}}, "displayed_time": "8.27", "trialTime": 9933, "trial_type": "mouselab-mdp", "trial_index": 10, "time_elapsed": 615212, "internal_node_id": "0.0-2.1-2.1-0.1"}}, {"uniqueid": "w25571813:a17991987", "current_trial": 11, "dateTime": 1691071574913, "trialdata": {"revealed_states": [], "clicked_states": [], "num_clicks_accrued": [0, 0, 0, 0, 0, 0, 0, 0, 0, 0, 0, 0, 0], "stateRewards": ["", 10, 10, 10, -10, 10, 10, 10, -10, -10, -10, 10, -10, -10, -10, -10, 10, 10, 10, 10, -10, 10, -10, -10, -10, 10, -10, -10, 10, 10, -10, -10, 10, 10], "withholdReward": false, "trial_id": "practice_2", "block": "test", "trialIndex": 3, "score": 33.5, "costs": 0, "simulationMode": [null, null, null, null, null], "rewards": [10, 10, 10, -10, 10], "path": ["0", "0", "1", "2", "3", "8", "11"], "rt": [3095, 116, 281, 988, 94], "actions": ["up", "up", "up", "left", "left"], "actionTimes": [5441, 6058, 6843, 8332, 8940], "queries": {"click": {"state": {"target": [], "time": []}, "edge": {"target": [], "time": []}}, "mouseover": {"state": {"target": [], "time": []}, "edge": {"target": [], "time": []}}, "mouseout": {"state": {"target": ["0"], "time": [11075]}, "edge": {"target": [], "time": []}}}, "displayed_time": "9.44", "trialTime": 11551, "trial_type": "mouselab-mdp", "trial_index": 11, "time_elapsed": 627357, "internal_node_id": "0.0-2.1-2.1-1.1"}}, {"uniqueid": "w25571813:a17991987", "current_trial": 12, "dateTime": 1691071586136, "trialdata": {"view_history": [{"page_index": 0, "viewing_time": 6561}, {"page_index": 1, "viewing_time": 4655}], "rt": 11216, "trial_id": "mouselab_instructions_2_misaligned", "trial_type": "instructions", "trial_index": 12, "time_elapsed": 638581, "internal_node_id": "0.0-2.1-3.1"}}, {"uniqueid": "w25571813:a17991987", "current_trial": 13, "dateTime": 1691071676337, "trialdata": {"rt": 90189, "response": {"Q0": "The cost for clicking on nodes may vary between nodes.", "Q1": "The better I perform the higher my bonus will be.", "Q2": "No, the amount of cash at each node of the web may be different each time.", "Q3": "To get the highest total score.", "Q4": "Only before moving the spider.", "Q5": "3 seconds"}, "question_order": [0, 1, 2, 3, 4, 5], "correct": {"Q0": "The cost for clicking on nodes may vary between nodes.", "Q1": "The better I perform the higher my bonus will be.", "Q2": "No, the amount of cash at each node of the web may be different each time.", "Q3": "To get the highest total score.", "Q4": "Only before moving the spider.", "Q5": "3 seconds"}, "trial_id": "mouselab_quiz_misaligned", "trial_type": "survey-multi-choice", "trial_index": 13, "time_elapsed": 728782, "internal_node_id": "0.0-2.1-4.1"}}, {"uniqueid": "w25571813:a17991987", "current_trial": 14, "dateTime": 1691071678969, "trialdata": {"rt": 2620, "stimulus": "\n<h1> Get ready to start the game! </h1>\n\nThank you for reading the instructions. Get ready start with the 40 rounds of this game.\n<br><br>\nIf you need to take a break, feel free to take one after the end of a round, before continuing to the next one.\n<br><br>\nRemember, the more money the spider gets, the bigger your bonus will be!\n<br><br>\n<div style='text-align: center;'>Press <code>space</code> to begin.</div>\n\n<br><br>\n(If, at any point, the <code>space</code> key does not take you to the next page, click once on the text and try again.)", "response": " ", "trial_id": "mdp_ready", "trial_type": "html-keyboard-response", "trial_index": 14, "time_elapsed": 731414, "internal_node_id": "0.0-4.0-0.0"}}, {"uniqueid": "w25571813:a17991987", "current_trial": 15, "dateTime": 1691071698497, "trialdata": {"revealed_states": [], "clicked_states": [], "num_clicks_accrued": [0, 0, 0, 0, 0, 0, 0, 0, 0, 0, 0, 0, 0], "stateRewards": ["", 1, -1, 8, -3, 38, 85, -20, -4, 8, 23, 73, 2, -4, 6, -13, 44, 7, -28, -11, -77, 45, -69, 1, -1, -7, -11, 75, -51, -87, 7, 36, -53, -26], "withholdReward": false, "trial_id": "mdp_trial_1", "block": "test", "trialIndex": 4, "score": 77, "costs": 0, "simulationMode": [null, null, null, null, null], "rewards": [1, -1, 8, -4, 73], "path": ["0", "0", "1", "2", "3", "8", "11"], "rt": [1400, 271, 293, 941, 94], "actions": ["up", "up", "up", "left", "left"], "actionTimes": [3949, 4733, 5538, 6993, 7586], "queries": {"click": {"state": {"target": [], "time": []}, "edge": {"target": [], "time": []}}, "mouseover": {"state": {"target": [], "time": []}, "edge": {"target": [], "time": []}}, "mouseout": {"state": {"target": [], "time": []}, "edge": {"target": [], "time": []}}}, "displayed_time": "16.55", "trialTime": 18865, "trial_type": "mouselab-mdp", "trial_index": 15, "time_elapsed": 750941, "internal_node_id": "0.0-4.0-1.0-0.0"}}, {"uniqueid": "w25571813:a17991987", "current_trial": 16, "dateTime": 1691071716899, "trialdata": {"revealed_states": [], "clicked_states": [], "num_clicks_accrued": [0, 0, 0, 0, 0, 0, 0, 0, 0, 0, 0, 0, 0], "stateRewards": ["", -2, 4, -3, -13, 63, -36, 62, 11, 78, 34, -51, 2, -2, 8, -6, -40, -18, 31, 9, 64, 39, 79, 1, 4, -4, 15, -12, 76, 73, -10, -77, 86, -4], "withholdReward": false, "trial_id": "mdp_trial_2", "block": "test", "trialIndex": 5, "score": -16, "costs": 0, "simulationMode": [null, null, null, null, null], "rewards": [2, -2, 8, -6, -18], "path": ["0", "0", "12", "13", "14", "15", "17"], "rt": [2034, 198, 236, 399, 198], "actions": ["right", "right", "right", "up", "right"], "actionTimes": [3672, 4369, 5108, 6020, 6716], "queries": {"click": {"state": {"target": [], "time": []}, "edge": {"target": [], "time": []}}, "mouseover": {"state": {"target": [], "time": []}, "edge": {"target": [], "time": []}}, "mouseout": {"state": {"target": ["0"], "time": [1316]}, "edge": {"target": [], "time": []}}}, "displayed_time": "15.64", "trialTime": 17776, "trial_type": "mouselab-mdp", "trial_index": 16, "time_elapsed": 769343, "internal_node_id": "0.0-4.0-1.0-1.0"}}, {"uniqueid": "w25571813:a17991987", "current_trial": 17, "dateTime": 1691071735602, "trialdata": {"revealed_states": [], "clicked_states": [], "num_clicks_accrued": [0, 0, 0, 0, 0, 0, 0, 0, 0, 0, 0, 0, 0], "stateRewards": ["", -1, -3, 4, -10, -5, 79, -87, -2, 53, 29, -20, -2, -1, -5, 10, 27, 86, 46, -16, -29, 40, 3, 2, 4, -1, -6, 37, 79, -29, 7, 86, -62, 29], "withholdReward": false, "trial_id": "mdp_trial_3", "block": "test", "trialIndex": 6, "score": 27, "costs": 0, "simulationMode": [null, null, null, null, null], "rewards": [-1, -3, 4, -2, 29], "path": ["0", "0", "1", "2", "3", "8", "10"], "rt": [1153, 83, 204, 1145, 96], "actions": ["up", "up", "up", "left", "down"], "actionTimes": [2862, 3446, 4152, 5805, 6409], "queries": {"click": {"state": {"target": [], "time": []}, "edge": {"target": [], "time": []}}, "mouseover": {"state": {"target": [], "time": []}, "edge": {"target": [], "time": []}}, "mouseout": {"state": {"target": ["0", "0"], "time": [281, 366]}, "edge": {"target": [], "time": []}}}, "displayed_time": "15.71", "trialTime": 18067, "trial_type": "mouselab-mdp", "trial_index": 17, "time_elapsed": 788046, "internal_node_id": "0.0-4.0-1.0-2.0"}}, {"uniqueid": "w25571813:a17991987", "current_trial": 18, "dateTime": 1691071754244, "trialdata": {"revealed_states": [], "clicked_states": [], "num_clicks_accrued": [0, 0, 0, 0, 0, 0, 0, 0, 0, 0, 0, 0, 0], "stateRewards": ["", 1, 1, -7, -9, -44, 24, -83, -15, 44, -24, 72, -2, -3, 4, -5, 57, 55, 29, -11, 22, 12, -25, -1, 2, 7, 12, 33, -8, 47, -4, 8, 50, -4], "withholdReward": false, "trial_id": "mdp_trial_4", "block": "test", "trialIndex": 7, "score": -58, "costs": 0, "simulationMode": [null, null, null, null, null], "rewards": [1, 1, -7, -9, -44], "path": ["0", "0", "1", "2", "3", "4", "5"], "rt": [1472, 175, 181, 1247, 784], "actions": ["up", "up", "up", "right", "up"], "actionTimes": [2866, 3557, 4250, 5996, 7290], "queries": {"click": {"state": {"target": [], "time": []}, "edge": {"target": [], "time": []}}, "mouseover": {"state": {"target": [], "time": []}, "edge": {"target": [], "time": []}}, "mouseout": {"state": {"target": ["0"], "time": [17348]}, "edge": {"target": [], "time": []}}}, "displayed_time": "15.40", "trialTime": 17998, "trial_type": "mouselab-mdp", "trial_index": 18, "time_elapsed": 806688, "internal_node_id": "0.0-4.0-1.0-3.0"}}, {"uniqueid": "w25571813:a17991987", "current_trial": 19, "dateTime": 1691071773321, "trialdata": {"revealed_states": [], "clicked_states": [], "num_clicks_accrued": [0, 0, 0, 0, 0, 0, 0, 0, 0, 0, 0, 0, 0], "stateRewards": ["", -2, -4, -6, 12, -58, -70, -80, 2, 16, -88, -62, 1, 2, -5, 11, 77, -35, -44, -5, 18, -83, 87, 1, -3, -5, 13, -44, -21, -86, 10, -52, 8, 29], "withholdReward": false, "trial_id": "mdp_trial_5", "block": "test", "trialIndex": 8, "score": -70, "costs": 0, "simulationMode": [null, null, null, null, null], "rewards": [-2, -4, -6, 12, -70], "path": ["0", "0", "1", "2", "3", "4", "6"], "rt": [902, 90, 150, 621, 47], "actions": ["up", "up", "up", "right", "right"], "actionTimes": [2898, 3491, 4146, 5268, 5829], "queries": {"click": {"state": {"target": [], "time": []}, "edge": {"target": [], "time": []}}, "mouseover": {"state": {"target": [], "time": []}, "edge": {"target": [], "time": []}}, "mouseout": {"state": {"target": ["0"], "time": [749]}, "edge": {"target": [], "time": []}}}, "displayed_time": "16.00", "trialTime": 18449, "trial_type": "mouselab-mdp", "trial_index": 19, "time_elapsed": 825765, "internal_node_id": "0.0-4.0-1.0-4.0"}}, {"uniqueid": "w25571813:a17991987", "current_trial": 20, "dateTime": 1691071791810, "trialdata": {"revealed_states": [], "clicked_states": [], "num_clicks_accrued": [0, 0, 0, 0, 0, 0, 0, 0, 0, 0, 0, 0, 0], "stateRewards": ["", 2, -3, -2, 14, -4, 85, 46, 15, -28, 41, 31, -1, -1, -1, 5, 62, 79, 57, 12, -73, -64, 86, -1, 1, -3, -5, 68, 11, -32, 8, -80, -21, -56], "withholdReward": false, "trial_id": "mdp_trial_6", "block": "test", "trialIndex": 9, "score": -40, "costs": 0, "simulationMode": [null, null, null, null, null], "rewards": [-1, 1, -3, -5, -32], "path": ["0", "0", "23", "24", "25", "26", "29"], "rt": [1311, 196, 228, 1070, 551], "actions": ["left", "left", "left", "up", "left"], "actionTimes": [3072, 3776, 4500, 6094, 7141], "queries": {"click": {"state": {"target": [], "time": []}, "edge": {"target": [], "time": []}}, "mouseover": {"state": {"target": [], "time": []}, "edge": {"target": [], "time": []}}, "mouseout": {"state": {"target": ["0"], "time": [1389]}, "edge": {"target": [], "time": []}}}, "displayed_time": "15.77", "trialTime": 17800, "trial_type": "mouselab-mdp", "trial_index": 20, "time_elapsed": 844254, "internal_node_id": "0.0-4.0-1.0-5.0"}}, {"uniqueid": "w25571813:a17991987", "current_trial": 21, "dateTime": 1691071809302, "trialdata": {"revealed_states": [], "clicked_states": [], "num_clicks_accrued": [0, 0, 0, 0, 0, 0, 0, 0, 0, 0, 0, 0, 0], "stateRewards": ["", -2, -1, -4, -15, -14, -67, 32, -3, -59, 63, 31, 2, -1, -7, -15, 71, -66, -27, -3, -54, -39, 72, 2, 1, 1, -13, 77, -40, 35, -9, 35, 75, 57], "withholdReward": false, "trial_id": "mdp_trial_7", "block": "test", "trialIndex": 10, "score": 68, "costs": 0, "simulationMode": [null, null, null, null, null], "rewards": [2, 1, 1, -13, 77], "path": ["0", "0", "23", "24", "25", "26", "27"], "rt": [785, 182, 78, 600, 1209], "actions": ["left", "left", "left", "up", "up"], "actionTimes": [1993, 2689, 3265, 4371, 6082], "queries": {"click": {"state": {"target": [], "time": []}, "edge": {"target": [], "time": []}}, "mouseover": {"state": {"target": [], "time": []}, "edge": {"target": [], "time": []}}, "mouseout": {"state": {"target": ["0"], "time": [816]}, "edge": {"target": [], "time": []}}}, "displayed_time": "15.21", "trialTime": 16834, "trial_type": "mouselab-mdp", "trial_index": 21, "time_elapsed": 861746, "internal_node_id": "0.0-4.0-1.0-6.0"}}, {"uniqueid": "w25571813:a17991987", "current_trial": 22, "dateTime": 1691071826342, "trialdata": {"revealed_states": [], "clicked_states": [], "num_clicks_accrued": [0, 0, 0, 0, 0, 0, 0, 0, 0, 0, 0, 0, 0], "stateRewards": ["", -1, -4, 8, 8, -68, 47, 24, -7, -61, 49, -69, -1, -1, 8, -7, 42, 1, -45, -11, 10, -63, -6, 1, 4, 6, -16, 79, -37, -58, -12, 81, 18, -53], "withholdReward": false, "trial_id": "mdp_trial_8", "block": "test", "trialIndex": 11, "score": -73, "costs": 0, "simulationMode": [null, null, null, null, null], "rewards": [-1, -4, 8, -7, -69], "path": ["0", "0", "1", "2", "3", "8", "11"], "rt": [3173, 27, 511, 368, 81], "actions": ["up", "up", "up", "left", "left"], "actionTimes": [4152, 4690, 5710, 6582, 7177], "queries": {"click": {"state": {"target": [], "time": []}, "edge": {"target": [], "time": []}}, "mouseover": {"state": {"target": [], "time": []}, "edge": {"target": [], "time": []}}, "mouseout": {"state": {"target": ["0"], "time": [617]}, "edge": {"target": [], "time": []}}}, "displayed_time": "14.98", "trialTime": 16378, "trial_type": "mouselab-mdp", "trial_index": 22, "time_elapsed": 878786, "internal_node_id": "0.0-4.0-1.0-7.0"}}, {"uniqueid": "w25571813:a17991987", "current_trial": 23, "dateTime": 1691071843923, "trialdata": {"revealed_states": [], "clicked_states": [], "num_clicks_accrued": [0, 0, 0, 0, 0, 0, 0, 0, 0, 0, 0, 0, 0], "stateRewards": ["", 1, 2, -6, -13, -51, 22, -4, -12, -44, -12, 6, -2, -2, -2, -14, -46, -4, -77, -2, 36, -79, 41, 2, -4, 2, -6, -55, 59, 70, -5, 39, -19, 24], "withholdReward": false, "trial_id": "mdp_trial_9", "block": "test", "trialIndex": 12, "score": -27, "costs": 0, "simulationMode": [null, null, null, null, null], "rewards": [1, 2, -6, -12, -12], "path": ["0", "0", "1", "2", "3", "8", "10"], "rt": [814, 85, 132, 429, 15], "actions": ["up", "up", "up", "left", "down"], "actionTimes": [2040, 2642, 3293, 4228, 4770], "queries": {"click": {"state": {"target": [], "time": []}, "edge": {"target": [], "time": []}}, "mouseover": {"state": {"target": [], "time": []}, "edge": {"target": [], "time": []}}, "mouseout": {"state": {"target": ["0"], "time": [880]}, "edge": {"target": [], "time": []}}}, "displayed_time": "15.23", "trialTime": 16916, "trial_type": "mouselab-mdp", "trial_index": 23, "time_elapsed": 896367, "internal_node_id": "0.0-4.0-1.0-8.0"}}, {"uniqueid": "w25571813:a17991987", "current_trial": 24, "dateTime": 1691071862464, "trialdata": {"revealed_states": [], "clicked_states": [], "num_clicks_accrued": [0, 0, 0, 0, 0, 0, 0, 0, 0, 0, 0, 0, 0], "stateRewards": ["", 1, 1, -3, 7, 49, 78, 26, -5, 26, 48, -43, -1, -3, 2, -5, 4, -1, -60, 10, -35, 51, 81, -2, 1, -7, -5, -39, -86, -54, 4, -3, 74, 77], "withholdReward": false, "trial_id": "mdp_trial_10", "block": "test", "trialIndex": 13, "score": 70, "costs": 0, "simulationMode": [null, null, null, null, null], "rewards": [-2, 1, -7, 4, 74], "path": ["0", "0", "23", "24", "25", "30", "32"], "rt": [728, 152, 173, 373, 135], "actions": ["left", "left", "left", "down", "down"], "actionTimes": [2685, 3353, 4029, 4907, 5554], "queries": {"click": {"state": {"target": [], "time": []}, "edge": {"target": [], "time": []}}, "mouseover": {"state": {"target": [], "time": []}, "edge": {"target": [], "time": []}}, "mouseout": {"state": {"target": ["0"], "time": [1604]}, "edge": {"target": [], "time": []}}}, "displayed_time": "15.96", "trialTime": 17861, "trial_type": "mouselab-mdp", "trial_index": 24, "time_elapsed": 914908, "internal_node_id": "0.0-4.0-1.0-9.0"}}, {"uniqueid": "w25571813:a17991987", "current_trial": 25, "dateTime": 1691071879616, "trialdata": {"revealed_states": [], "clicked_states": [], "num_clicks_accrued": [0, 0, 0, 0, 0, 0, 0, 0, 0, 0, 0, 0, 0], "stateRewards": ["", 2, 4, 7, -6, -76, -81, 2, 5, -66, -3, 36, -2, -4, 6, -2, -69, 4, -49, -6, 67, 38, -67, 2, 1, 1, 6, -68, -21, 52, -16, -16, 6, -70], "withholdReward": false, "trial_id": "mdp_trial_11", "block": "test", "trialIndex": 14, "score": 32, "costs": 0, "simulationMode": [null, null, null, null, null], "rewards": [-2, -4, 6, -6, 38], "path": ["0", "0", "12", "13", "14", "19", "21"], "rt": [966, 14, 152, 574, 87], "actions": ["right", "right", "right", "down", "down"], "actionTimes": [2115, 2627, 3290, 4376, 4976], "queries": {"click": {"state": {"target": [], "time": []}, "edge": {"target": [], "time": []}}, "mouseover": {"state": {"target": [], "time": []}, "edge": {"target": [], "time": []}}, "mouseout": {"state": {"target": ["0"], "time": [781]}, "edge": {"target": [], "time": []}}}, "displayed_time": "15.16", "trialTime": 16467, "trial_type": "mouselab-mdp", "trial_index": 25, "time_elapsed": 932060, "internal_node_id": "0.0-4.0-1.0-10.0"}}, {"uniqueid": "w25571813:a17991987", "current_trial": 26, "dateTime": 1691071897883, "trialdata": {"revealed_states": [], "clicked_states": [], "num_clicks_accrued": [0, 0, 0, 0, 0, 0, 0, 0, 0, 0, 0, 0, 0], "stateRewards": ["", -1, 4, -8, 12, 14, 69, -8, 5, -72, -14, 56, -1, -1, -1, 9, 67, 19, 11, -9, -88, -58, 3, 2, -4, -8, 4, 62, 77, -74, 5, -31, 65, 88], "withholdReward": false, "trial_id": "mdp_trial_12", "block": "test", "trialIndex": 15, "score": 56, "costs": 0, "simulationMode": [null, null, null, null, null], "rewards": [-1, 4, -8, 5, 56], "path": ["0", "0", "1", "2", "3", "8", "11"], "rt": [701, 124, 151, 745, 102], "actions": ["up", "up", "up", "left", "left"], "actionTimes": [1672, 2292, 2960, 4213, 4820], "queries": {"click": {"state": {"target": [], "time": []}, "edge": {"target": [], "time": []}}, "mouseover": {"state": {"target": [], "time": []}, "edge": {"target": [], "time": []}}, "mouseout": {"state": {"target": ["0"], "time": [607]}, "edge": {"target": [], "time": []}}}, "displayed_time": "14.98", "trialTime": 17568, "trial_type": "mouselab-mdp", "trial_index": 26, "time_elapsed": 950327, "internal_node_id": "0.0-4.0-1.0-11.0"}}, {"uniqueid": "w25571813:a17991987", "current_trial": 27, "dateTime": 1691071915481, "trialdata": {"revealed_states": [], "clicked_states": [], "num_clicks_accrued": [0, 0, 0, 0, 0, 0, 0, 0, 0, 0, 0, 0, 0], "stateRewards": ["", -2, 3, 8, -9, 59, 41, -50, -1, 82, 66, 33, 2, -2, 7, 8, 1, -38, 12, -16, 24, -37, 67, 1, 4, -2, 5, 35, -83, 28, 8, -27, 69, -64], "withholdReward": false, "trial_id": "mdp_trial_13", "block": "test", "trialIndex": 16, "score": 27, "costs": 0, "simulationMode": [null, null, null, null, null], "rewards": [2, -2, 7, 8, 12], "path": ["0", "0", "12", "13", "14", "15", "18"], "rt": [1167, 27, 58, 587, 286], "actions": ["right", "right", "right", "up", "left"], "actionTimes": [2469, 3001, 3563, 4659, 5448], "queries": {"click": {"state": {"target": [], "time": []}, "edge": {"target": [], "time": []}}, "mouseover": {"state": {"target": [], "time": []}, "edge": {"target": [], "time": []}}, "mouseout": {"state": {"target": ["0"], "time": [915]}, "edge": {"target": [], "time": []}}}, "displayed_time": "15.31", "trialTime": 16867, "trial_type": "mouselab-mdp", "trial_index": 27, "time_elapsed": 967926, "internal_node_id": "0.0-4.0-1.0-12.0"}}, {"uniqueid": "w25571813:a17991987", "current_trial": 28, "dateTime": 1691071933562, "trialdata": {"revealed_states": [], "clicked_states": [], "num_clicks_accrued": [0, 0, 0, 0, 0, 0, 0, 0, 0, 0, 0, 0, 0], "stateRewards": ["", -1, -3, 1, 13, -64, -29, 12, -4, -33, 50, 56, 2, -3, 4, 11, -64, -58, -55, 12, 47, 38, -25, -2, 2, 5, -15, 85, 7, 84, 10, 8, 57, 26], "withholdReward": false, "trial_id": "mdp_trial_14", "block": "test", "trialIndex": 17, "score": 23, "costs": 0, "simulationMode": [null, null, null, null, null], "rewards": [-2, 2, 5, 10, 8], "path": ["0", "0", "23", "24", "25", "30", "31"], "rt": [712, 72, 13, 523, 182], "actions": ["left", "left", "left", "down", "right"], "actionTimes": [2476, 3061, 3604, 4652, 5342], "queries": {"click": {"state": {"target": [], "time": []}, "edge": {"target": [], "time": []}}, "mouseover": {"state": {"target": [], "time": []}, "edge": {"target": [], "time": []}}, "mouseout": {"state": {"target": ["0"], "time": [1381]}, "edge": {"target": [], "time": []}}}, "displayed_time": "15.77", "trialTime": 17365, "trial_type": "mouselab-mdp", "trial_index": 28, "time_elapsed": 986006, "internal_node_id": "0.0-4.0-1.0-13.0"}}, {"uniqueid": "w25571813:a17991987", "current_trial": 29, "dateTime": 1691071953809, "trialdata": {"revealed_states": [], "clicked_states": [], "num_clicks_accrued": [0, 0, 0, 0, 0, 0, 0, 0, 0, 0, 0, 0, 0], "stateRewards": ["", -2, 1, -7, -8, -37, -76, -87, 11, 30, -63, 80, -1, 4, 2, -1, 42, 17, 52, -3, -75, -80, -68, 2, -3, -5, -15, -48, 82, 24, -7, 5, -22, -71], "withholdReward": false, "trial_id": "mdp_trial_15", "block": "test", "trialIndex": 18, "score": 33, "costs": 0, "simulationMode": [null, null, null, null, null], "rewards": [-2, 1, -7, 11, 30], "path": ["0", "0", "1", "2", "3", "8", "9"], "rt": [1552, 372, 60, 466, 554], "actions": ["up", "up", "up", "left", "up"], "actionTimes": [5269, 6138, 6692, 7667, 8719], "queries": {"click": {"state": {"target": [], "time": []}, "edge": {"target": [], "time": []}}, "mouseover": {"state": {"target": [], "time": []}, "edge": {"target": [], "time": []}}, "mouseout": {"state": {"target": ["0"], "time": [3358]}, "edge": {"target": [], "time": []}}}, "displayed_time": "17.72", "trialTime": 19535, "trial_type": "mouselab-mdp", "trial_index": 29, "time_elapsed": 1006253, "internal_node_id": "0.0-4.0-1.0-14.0"}}, {"uniqueid": "w25571813:a17991987", "current_trial": 30, "dateTime": 1691071972386, "trialdata": {"revealed_states": [], "clicked_states": [], "num_clicks_accrued": [0, 0, 0, 0, 0, 0, 0, 0, 0, 0, 0, 0, 0], "stateRewards": ["", -1, -3, -5, -14, -13, -47, 79, 8, -60, -64, 41, -1, 2, 3, 13, -46, 61, -79, -11, -64, -65, 23, 1, -2, 6, -14, 46, 32, 21, 7, 75, -66, 15], "withholdReward": false, "trial_id": "mdp_trial_16", "block": "test", "trialIndex": 19, "score": 23, "costs": 0, "simulationMode": [null, null, null, null, null], "rewards": [1, -2, 6, -14, 32], "path": ["0", "0", "23", "24", "25", "26", "28"], "rt": [822, 84, 122, 380, 1193], "actions": ["left", "left", "left", "up", "right"], "actionTimes": [1847, 2440, 3080, 3967, 5660], "queries": {"click": {"state": {"target": [], "time": []}, "edge": {"target": [], "time": []}}, "mouseover": {"state": {"target": [], "time": []}, "edge": {"target": [], "time": []}}, "mouseout": {"state": {"target": ["0"], "time": [643]}, "edge": {"target": [], "time": []}}}, "displayed_time": "15.03", "trialTime": 17843, "trial_type": "mouselab-mdp", "trial_index": 30, "time_elapsed": 1024830, "internal_node_id": "0.0-4.0-1.0-15.0"}}, {"uniqueid": "w25571813:a17991987", "current_trial": 31, "dateTime": 1691071989918, "trialdata": {"revealed_states": [], "clicked_states": [], "num_clicks_accrued": [0, 0, 0, 0, 0, 0, 0, 0, 0, 0, 0, 0, 0], "stateRewards": ["", -2, -2, -3, -6, -15, -11, 41, -12, -63, -76, 2, -2, -3, 8, 9, -36, -2, -18, -16, -32, -85, -17, -2, 1, 5, -16, 82, 35, -88, -1, 80, -82, -20], "withholdReward": false, "trial_id": "mdp_trial_17", "block": "test", "trialIndex": 20, "score": -30, "costs": 0, "simulationMode": [null, null, null, null, null], "rewards": [-2, -3, 8, -16, -17], "path": ["0", "0", "12", "13", "14", "19", "22"], "rt": [582, 65, 143, 690, 550], "actions": ["right", "right", "right", "down", "left"], "actionTimes": [1499, 2069, 2723, 3914, 4973], "queries": {"click": {"state": {"target": [], "time": []}, "edge": {"target": [], "time": []}}, "mouseover": {"state": {"target": [], "time": []}, "edge": {"target": [], "time": []}}, "mouseout": {"state": {"target": ["0"], "time": [543]}, "edge": {"target": [], "time": []}}}, "displayed_time": "14.92", "trialTime": 16827, "trial_type": "mouselab-mdp", "trial_index": 31, "time_elapsed": 1042362, "internal_node_id": "0.0-4.0-1.0-16.0"}}, {"uniqueid": "w25571813:a17991987", "current_trial": 32, "dateTime": 1691072007128, "trialdata": {"revealed_states": [], "clicked_states": [], "num_clicks_accrued": [0, 0, 0, 0, 0, 0, 0, 0, 0, 0, 0, 0, 0], "stateRewards": ["", -1, 3, -5, -2, -13, -9, -34, -7, -81, 32, 35, -2, -2, 1, -14, -32, 81, 7, 4, 82, 56, -8, -1, 3, -8, 6, -24, -24, -53, 2, 38, 61, 54], "withholdReward": false, "trial_id": "mdp_trial_18", "block": "test", "trialIndex": 21, "score": -39, "costs": 0, "simulationMode": [null, null, null, null, null], "rewards": [-1, 3, -5, -2, -34], "path": ["0", "0", "1", "2", "3", "4", "7"], "rt": [623, 622, 74, 142, 330], "actions": ["up", "up", "up", "right", "down"], "actionTimes": [1729, 2864, 3441, 4117, 4949], "queries": {"click": {"state": {"target": [], "time": []}, "edge": {"target": [], "time": []}}, "mouseover": {"state": {"target": [], "time": []}, "edge": {"target": [], "time": []}}, "mouseout": {"state": {"target": ["0"], "time": [732]}, "edge": {"target": [], "time": []}}}, "displayed_time": "15.11", "trialTime": 16447, "trial_type": "mouselab-mdp", "trial_index": 32, "time_elapsed": 1059573, "internal_node_id": "0.0-4.0-1.0-17.0"}}, {"uniqueid": "w25571813:a17991987", "current_trial": 33, "dateTime": 1691072025950, "trialdata": {"revealed_states": [], "clicked_states": [], "num_clicks_accrued": [0, 0, 0, 0, 0, 0, 0, 0, 0, 0, 0, 0, 0], "stateRewards": ["", 1, 1, -2, 7, -31, -6, 76, 1, -36, -16, -53, 2, 1, 7, 13, -47, -10, 47, -7, 72, 46, -56, -2, -2, -2, 11, -80, 44, 38, 16, 67, 85, -78], "withholdReward": false, "trial_id": "mdp_trial_19", "block": "test", "trialIndex": 22, "score": 1, "costs": 0, "simulationMode": [null, null, null, null, null], "rewards": [1, 1, -2, 7, -6], "path": ["0", "0", "1", "2", "3", "4", "6"], "rt": [405, 489, 49, 88, 58], "actions": ["up", "up", "up", "right", "right"], "actionTimes": [1650, 2643, 3202, 3839, 4397], "queries": {"click": {"state": {"target": [], "time": []}, "edge": {"target": [], "time": []}}, "mouseover": {"state": {"target": [], "time": []}, "edge": {"target": [], "time": []}}, "mouseout": {"state": {"target": ["0"], "time": [879]}, "edge": {"target": [], "time": []}}}, "displayed_time": "15.25", "trialTime": 18102, "trial_type": "mouselab-mdp", "trial_index": 33, "time_elapsed": 1078394, "internal_node_id": "0.0-4.0-1.0-18.0"}}, {"uniqueid": "w25571813:a17991987", "current_trial": 34, "dateTime": 1691072043786, "trialdata": {"revealed_states": [], "clicked_states": [], "num_clicks_accrued": [0, 0, 0, 0, 0, 0, 0, 0, 0, 0, 0, 0, 0], "stateRewards": ["", 2, -4, -8, -15, 71, -43, -41, 7, -17, 20, 67, -1, -1, -4, 6, 37, -24, -47, 9, 34, 57, 45, 1, 2, -4, -5, -23, 88, -5, 13, -40, 43, 44], "withholdReward": false, "trial_id": "mdp_trial_20", "block": "test", "trialIndex": 23, "score": 46, "costs": 0, "simulationMode": [null, null, null, null, null], "rewards": [2, -4, -8, -15, 71], "path": ["0", "0", "1", "2", "3", "4", "5"], "rt": [499, 648, 151, 299, 829], "actions": ["up", "up", "up", "right", "up"], "actionTimes": [1413, 2570, 3227, 4018, 5359], "queries": {"click": {"state": {"target": [], "time": []}, "edge": {"target": [], "time": []}}, "mouseover": {"state": {"target": [], "time": []}, "edge": {"target": [], "time": []}}, "mouseout": {"state": {"target": ["0"], "time": [557]}, "edge": {"target": [], "time": []}}}, "displayed_time": "14.92", "trialTime": 17055, "trial_type": "mouselab-mdp", "trial_index": 34, "time_elapsed": 1096231, "internal_node_id": "0.0-4.0-1.0-19.0"}}, {"uniqueid": "w25571813:a17991987", "current_trial": 35, "dateTime": 1691072071145, "trialdata": {"revealed_states": [], "clicked_states": ["1", "2", "3", "8", "9"], "num_clicks_accrued": [0, 0, 0, 0, 0, 0, 0, 0, 0, 0, 0, 0, 0], "stateRewards": ["", 2, 4, -6, -13, -75, -81, 30, 7, 5, 59, -65, -1, -1, 7, 14, -38, 36, -41, 1, -54, -5, 64, 2, -1, 5, 6, -19, 79, 11, 16, -33, -50, 58], "withholdReward": false, "trial_id": "mdp_trial_21", "block": "test", "trialIndex": 24, "score": -11.75, "costs": -4.75, "simulationMode": [null, null, null, null, null], "rewards": [2, -1, 5, 6, -19], "path": ["0", "0", "23", "24", "25", "26", "27"], "rt": [13233, 21, 314, 445, 157], "actions": ["left", "left", "left", "up", "up"], "actionTimes": [16461, 16993, 17824, 18775, 19429], "queries": {"click": {"state": {"target": ["1", "2", "3", "8", "9"], "time": [5562, 6816, 7834, 9049, 10236]}, "edge": {"target": [], "time": []}}, "mouseover": {"state": {"target": ["1", "2", "3", "8", "9", "10", "1", "23", "0", "23"], "time": [5117, 6375, 7466, 8281, 9810, 11221, 14239, 14920, 15500, 15714]}, "edge": {"target": [], "time": []}}, "mouseout": {"state": {"target": ["0", "1", "2", "3", "8", "9", "8", "10", "1", "23", "0", "23"], "time": [2852, 6222, 7213, 8224, 9513, 10992, 11127, 13845, 14816, 15396, 15610, 24222]}, "edge": {"target": [], "time": []}}}, "displayed_time": "19.94", "trialTime": 26609, "trial_type": "mouselab-mdp", "trial_index": 35, "time_elapsed": 1123589, "internal_node_id": "0.0-4.0-1.0-20.0"}}, {"uniqueid": "w25571813:a17991987", "current_trial": 36, "dateTime": 1691072091078, "trialdata": {"revealed_states": [], "clicked_states": ["12", "13", "14", "19", "20"], "num_clicks_accrued": [0, 0, 0, 0, 0, 0, 0, 0, 0, 0, 0, 0, 0], "stateRewards": ["", 2, 4, -5, 7, 81, 35, 6, 11, 14, -72, 42, -1, 2, 3, -7, -77, -44, -40, -15, -85, 51, -32, -2, -1, -5, 7, -74, 47, 52, 16, -49, 48, -46], "withholdReward": false, "trial_id": "mdp_trial_22", "block": "test", "trialIndex": 25, "score": -42.75, "costs": -4.75, "simulationMode": [null, null, null, null, null], "rewards": [-2, -1, -5, 16, -46], "path": ["0", "0", "23", "24", "25", "30", "33"], "rt": [9031, 281, 162, 67, 421], "actions": ["left", "left", "left", "down", "left"], "actionTimes": [10645, 11440, 12103, 12672, 13592], "queries": {"click": {"state": {"target": ["12", "13", "14", "19", "20"], "time": [3737, 4776, 5726, 6827, 7816]}, "edge": {"target": [], "time": []}}, "mouseover": {"state": {"target": ["12", "13", "14", "19", "20"], "time": [3369, 4425, 5278, 6390, 7377]}, "edge": {"target": [], "time": []}}, "mouseout": {"state": {"target": ["0", "12", "13", "14", "19", "20"], "time": [1257, 4309, 5189, 6347, 7299, 9196]}, "edge": {"target": [], "time": []}}}, "displayed_time": "15.62", "trialTime": 19173, "trial_type": "mouselab-mdp", "trial_index": 36, "time_elapsed": 1143522, "internal_node_id": "0.0-4.0-1.0-21.0"}}, {"uniqueid": "w25571813:a17991987", "current_trial": 37, "dateTime": 1691072111959, "trialdata": {"revealed_states": [], "clicked_states": [], "num_clicks_accrued": [0, 0, 0, 0, 0, 0, 0, 0, 0, 0, 0, 0, 0], "stateRewards": ["", -2, 3, -1, -9, 44, 48, -37, -3, 71, -39, 87, -1, 3, -4, 4, -21, 59, -15, -8, -1, 28, -38, 2, 4, 4, 8, -85, -72, -63, 14, 58, 63, -46], "withholdReward": false, "trial_id": "mdp_trial_23", "block": "test", "trialIndex": 26, "score": -42, "costs": 0, "simulationMode": [null, null, null, null, null], "rewards": [-2, 3, -1, -3, -39], "path": ["0", "0", "1", "2", "3", "8", "10"], "rt": [1029, 248, 313, 395, 160], "actions": ["up", "up", "up", "left", "down"], "actionTimes": [5590, 6345, 7170, 8082, 8753], "queries": {"click": {"state": {"target": [], "time": []}, "edge": {"target": [], "time": []}}, "mouseover": {"state": {"target": [], "time": []}, "edge": {"target": [], "time": []}}, "mouseout": {"state": {"target": [], "time": []}, "edge": {"target": [], "time": []}}}, "displayed_time": "18.56", "trialTime": 20147, "trial_type": "mouselab-mdp", "trial_index": 37, "time_elapsed": 1164404, "internal_node_id": "0.0-4.0-1.0-22.0"}}, {"uniqueid": "w25571813:a17991987", "current_trial": 38, "dateTime": 1691072129957, "trialdata": {"revealed_states": [], "clicked_states": [], "num_clicks_accrued": [0, 0, 0, 0, 0, 0, 0, 0, 0, 0, 0, 0, 0], "stateRewards": ["", -1, 4, -6, -5, -22, -38, -38, -2, -56, 88, 14, -1, -1, -7, -6, 61, -60, 21, 11, 57, 31, -30, -2, -2, 6, -9, -44, -70, -44, -15, 34, 16, -78], "withholdReward": false, "trial_id": "mdp_trial_24", "block": "test", "trialIndex": 27, "score": 83, "costs": 0, "simulationMode": [null, null, null, null, null], "rewards": [-1, 4, -6, -2, 88], "path": ["0", "0", "1", "2", "3", "8", "10"], "rt": [643, 318, 148, 380, 99], "actions": ["up", "up", "up", "left", "down"], "actionTimes": [2214, 3037, 3685, 4569, 5182], "queries": {"click": {"state": {"target": [], "time": []}, "edge": {"target": [], "time": []}}, "mouseover": {"state": {"target": [], "time": []}, "edge": {"target": [], "time": []}}, "mouseout": {"state": {"target": [], "time": []}, "edge": {"target": [], "time": []}}}, "displayed_time": "15.58", "trialTime": 17243, "trial_type": "mouselab-mdp", "trial_index": 38, "time_elapsed": 1182401, "internal_node_id": "0.0-4.0-1.0-23.0"}}, {"uniqueid": "w25571813:a17991987", "current_trial": 39, "dateTime": 1691072147416, "trialdata": {"revealed_states": [], "clicked_states": [], "num_clicks_accrued": [0, 0, 0, 0, 0, 0, 0, 0, 0, 0, 0, 0, 0], "stateRewards": ["", 2, -4, 1, -12, -59, -53, -74, 16, -88, -66, 66, 1, -2, 8, -9, -14, 22, 25, -1, -39, 47, -14, -1, -1, -2, 1, -4, 52, -26, 15, -7, 46, 43], "withholdReward": false, "trial_id": "mdp_trial_25", "block": "test", "trialIndex": 28, "score": 81, "costs": 0, "simulationMode": [null, null, null, null, null], "rewards": [2, -4, 1, 16, 66], "path": ["0", "0", "1", "2", "3", "8", "11"], "rt": [937, 29, 273, 198, 48], "actions": ["up", "up", "up", "left", "left"], "actionTimes": [1958, 2488, 3277, 3988, 4545], "queries": {"click": {"state": {"target": [], "time": []}, "edge": {"target": [], "time": []}}, "mouseover": {"state": {"target": [], "time": []}, "edge": {"target": [], "time": []}}, "mouseout": {"state": {"target": [], "time": []}, "edge": {"target": [], "time": []}}}, "displayed_time": "15.03", "trialTime": 16706, "trial_type": "mouselab-mdp", "trial_index": 39, "time_elapsed": 1199860, "internal_node_id": "0.0-4.0-1.0-24.0"}}, {"uniqueid": "w25571813:a17991987", "current_trial": 40, "dateTime": 1691072164398, "trialdata": {"revealed_states": [], "clicked_states": [], "num_clicks_accrued": [0, 0, 0, 0, 0, 0, 0, 0, 0, 0, 0, 0, 0], "stateRewards": ["", 1, 3, 3, -10, 52, 68, 59, 12, 7, 49, 21, -2, -3, -4, -2, -2, 63, 63, -4, 44, 43, -76, -2, -3, -6, 13, 48, 36, 12, -5, -36, -33, -11], "withholdReward": false, "trial_id": "mdp_trial_26", "block": "test", "trialIndex": 29, "score": 26, "costs": 0, "simulationMode": [null, null, null, null, null], "rewards": [1, 3, 3, 12, 7], "path": ["0", "0", "1", "2", "3", "8", "9"], "rt": [464, 390, 550, 137, 58], "actions": ["up", "up", "up", "left", "up"], "actionTimes": [1369, 2257, 3324, 4006, 4557], "queries": {"click": {"state": {"target": [], "time": []}, "edge": {"target": [], "time": []}}, "mouseover": {"state": {"target": [], "time": []}, "edge": {"target": [], "time": []}}, "mouseout": {"state": {"target": [], "time": []}, "edge": {"target": [], "time": []}}}, "displayed_time": "14.91", "trialTime": 16261, "trial_type": "mouselab-mdp", "trial_index": 40, "time_elapsed": 1216842, "internal_node_id": "0.0-4.0-1.0-25.0"}}, {"uniqueid": "w25571813:a17991987", "current_trial": 41, "dateTime": 1691072182089, "trialdata": {"revealed_states": [], "clicked_states": [], "num_clicks_accrued": [0, 0, 0, 0, 0, 0, 0, 0, 0, 0, 0, 0, 0], "stateRewards": ["", 1, 4, 5, 8, -55, -11, 8, 16, -37, 77, -22, -2, 3, -8, -10, 45, 87, -67, 4, 17, -33, -22, -1, -3, 7, 6, -39, -85, 75, -1, 7, -48, 45], "withholdReward": false, "trial_id": "mdp_trial_27", "block": "test", "trialIndex": 30, "score": 26, "costs": 0, "simulationMode": [null, null, null, null, null], "rewards": [1, 4, 5, 8, 8], "path": ["0", "0", "1", "2", "3", "4", "7"], "rt": [530, 367, 112, 480, 649], "actions": ["up", "up", "up", "right", "down"], "actionTimes": [1471, 2346, 2962, 3949, 5100], "queries": {"click": {"state": {"target": [], "time": []}, "edge": {"target": [], "time": []}}, "mouseover": {"state": {"target": [], "time": []}, "edge": {"target": [], "time": []}}, "mouseout": {"state": {"target": ["0"], "time": [15848]}, "edge": {"target": [], "time": []}}}, "displayed_time": "14.95", "trialTime": 16895, "trial_type": "mouselab-mdp", "trial_index": 41, "time_elapsed": 1234533, "internal_node_id": "0.0-4.0-1.0-26.0"}}, {"uniqueid": "w25571813:a17991987", "current_trial": 42, "dateTime": 1691072199887, "trialdata": {"revealed_states": [], "clicked_states": [], "num_clicks_accrued": [0, 0, 0, 0, 0, 0, 0, 0, 0, 0, 0, 0, 0], "stateRewards": ["", 2, -1, -2, -5, -47, -57, -33, -11, 31, -18, -72, -2, 1, -4, -8, -46, -53, -50, 15, -85, -9, 39, -2, -2, 1, 14, -1, -8, 53, -12, -41, -74, 62], "withholdReward": false, "trial_id": "mdp_trial_28", "block": "test", "trialIndex": 31, "score": -63, "costs": 0, "simulationMode": [null, null, null, null, null], "rewards": [2, -1, -2, -5, -57], "path": ["0", "0", "1", "2", "3", "4", "6"], "rt": [924, 332, 87, 154, 610], "actions": ["up", "up", "up", "right", "right"], "actionTimes": [2504, 3357, 3960, 4618, 5736], "queries": {"click": {"state": {"target": [], "time": []}, "edge": {"target": [], "time": []}}, "mouseover": {"state": {"target": [], "time": []}, "edge": {"target": [], "time": []}}, "mouseout": {"state": {"target": [], "time": []}, "edge": {"target": [], "time": []}}}, "displayed_time": "15.58", "trialTime": 17009, "trial_type": "mouselab-mdp", "trial_index": 42, "time_elapsed": 1252331, "internal_node_id": "0.0-4.0-1.0-27.0"}}, {"uniqueid": "w25571813:a17991987", "current_trial": 43, "dateTime": 1691072216309, "trialdata": {"revealed_states": [], "clicked_states": [], "num_clicks_accrued": [0, 0, 0, 0, 0, 0, 0, 0, 0, 0, 0, 0, 0], "stateRewards": ["", 1, -2, 7, -14, 88, -56, -44, -14, 64, -51, -57, -2, 3, -4, -9, -11, 19, -77, -1, 68, 75, -67, -1, 1, -2, 5, -37, 70, -34, -10, -72, 63, -41], "withholdReward": false, "trial_id": "mdp_trial_29", "block": "test", "trialIndex": 32, "score": 80, "costs": 0, "simulationMode": [null, null, null, null, null], "rewards": [1, -2, 7, -14, 88], "path": ["0", "0", "1", "2", "3", "4", "5"], "rt": [414, 253, 317, 126, 770], "actions": ["up", "up", "up", "right", "up"], "actionTimes": [1328, 2090, 2928, 3563, 4842], "queries": {"click": {"state": {"target": [], "time": []}, "edge": {"target": [], "time": []}}, "mouseover": {"state": {"target": [], "time": []}, "edge": {"target": [], "time": []}}, "mouseout": {"state": {"target": [], "time": []}, "edge": {"target": [], "time": []}}}, "displayed_time": "14.92", "trialTime": 15614, "trial_type": "mouselab-mdp", "trial_index": 43, "time_elapsed": 1268753, "internal_node_id": "0.0-4.0-1.0-28.0"}}, {"uniqueid": "w25571813:a17991987", "current_trial": 44, "dateTime": 1691072235351, "trialdata": {"revealed_states": [], "clicked_states": [], "num_clicks_accrued": [0, 0, 0, 0, 0, 0, 0, 0, 0, 0, 0, 0, 0], "stateRewards": ["", -2, -2, -7, -13, -10, 49, -68, -1, 84, 70, 88, 1, 4, 4, 12, -57, 25, 30, 8, -1, -77, 57, 2, 3, 2, 3, -18, -80, 23, -15, -41, 70, 11], "withholdReward": false, "trial_id": "mdp_trial_30", "block": "test", "trialIndex": 33, "score": -34, "costs": 0, "simulationMode": [null, null, null, null, null], "rewards": [-2, -2, -7, -13, -10], "path": ["0", "0", "1", "2", "3", "4", "5"], "rt": [908, 150, 976, 943, 229], "actions": ["up", "up", "up", "right", "up"], "actionTimes": [3931, 4589, 6080, 7525, 8259], "queries": {"click": {"state": {"target": [], "time": []}, "edge": {"target": [], "time": []}}, "mouseover": {"state": {"target": [], "time": []}, "edge": {"target": [], "time": []}}, "mouseout": {"state": {"target": [], "time": []}, "edge": {"target": [], "time": []}}}, "displayed_time": "17.03", "trialTime": 18265, "trial_type": "mouselab-mdp", "trial_index": 44, "time_elapsed": 1287795, "internal_node_id": "0.0-4.0-1.0-29.0"}}, {"uniqueid": "w25571813:a17991987", "current_trial": 45, "dateTime": 1691072256602, "trialdata": {"revealed_states": [], "clicked_states": [], "num_clicks_accrued": [0, 0, 0, 0, 0, 0, 0, 0, 0, 0, 0, 0, 0], "stateRewards": ["", 1, -3, -1, 9, -34, -40, 22, -7, 45, 53, -11, 2, 4, 5, 15, 21, 37, -49, -3, 80, -28, -34, 1, -3, 1, 1, -40, -6, -5, -16, -85, -86, 59], "withholdReward": false, "trial_id": "mdp_trial_31", "block": "test", "trialIndex": 34, "score": -34, "costs": 0, "simulationMode": [null, null, null, null, null], "rewards": [1, -3, -1, 9, -40], "path": ["0", "0", "1", "2", "3", "4", "6"], "rt": [534, 30, 723, 125, 729], "actions": ["up", "up", "up", "right", "right"], "actionTimes": [2194, 2722, 3982, 4621, 5860], "queries": {"click": {"state": {"target": [], "time": []}, "edge": {"target": [], "time": []}}, "mouseover": {"state": {"target": [], "time": []}, "edge": {"target": [], "time": []}}, "mouseout": {"state": {"target": [], "time": []}, "edge": {"target": [], "time": []}}}, "displayed_time": "15.67", "trialTime": 20459, "trial_type": "mouselab-mdp", "trial_index": 45, "time_elapsed": 1309046, "internal_node_id": "0.0-4.0-1.0-30.0"}}, {"uniqueid": "w25571813:a17991987", "current_trial": 46, "dateTime": 1691072276669, "trialdata": {"revealed_states": [], "clicked_states": [], "num_clicks_accrued": [0, 0, 0, 0, 0, 0, 0, 0, 0, 0, 0, 0, 0], "stateRewards": ["", 1, -2, -2, 10, -31, -77, 35, 9, -47, 8, 48, -2, 1, -4, -3, -26, -50, 43, -11, 76, -38, 17, 1, -1, 6, 10, 15, -9, 12, -8, 85, 11, -55], "withholdReward": false, "trial_id": "mdp_trial_32", "block": "test", "trialIndex": 35, "score": -70, "costs": 0, "simulationMode": [null, null, null, null, null], "rewards": [1, -2, -2, 10, -77], "path": ["0", "0", "1", "2", "3", "4", "6"], "rt": [721, 95, 291, 174, 462], "actions": ["up", "up", "up", "right", "right"], "actionTimes": [3557, 4190, 4990, 5671, 6644], "queries": {"click": {"state": {"target": [], "time": []}, "edge": {"target": [], "time": []}}, "mouseover": {"state": {"target": [], "time": []}, "edge": {"target": [], "time": []}}, "mouseout": {"state": {"target": [], "time": []}, "edge": {"target": [], "time": []}}}, "displayed_time": "16.84", "trialTime": 19273, "trial_type": "mouselab-mdp", "trial_index": 46, "time_elapsed": 1329114, "internal_node_id": "0.0-4.0-1.0-31.0"}}, {"uniqueid": "w25571813:a17991987", "current_trial": 47, "dateTime": 1691072294505, "trialdata": {"revealed_states": [], "clicked_states": [], "num_clicks_accrued": [0, 0, 0, 0, 0, 0, 0, 0, 0, 0, 0, 0, 0], "stateRewards": ["", 1, 4, -4, 14, 35, 51, 19, -13, 54, 78, -74, -2, -1, -3, 13, -11, -42, -73, -15, -24, -3, -69, 2, -1, 5, 16, -27, 73, 58, 9, -60, 5, -60], "withholdReward": false, "trial_id": "mdp_trial_33", "block": "test", "trialIndex": 36, "score": -5, "costs": 0, "simulationMode": [null, null, null, null, null], "rewards": [2, -1, 5, 16, -27], "path": ["0", "0", "23", "24", "25", "26", "27"], "rt": [843, 49, 104, 353, 163], "actions": ["left", "left", "left", "up", "up"], "actionTimes": [2123, 2673, 3288, 4138, 4805], "queries": {"click": {"state": {"target": [], "time": []}, "edge": {"target": [], "time": []}}, "mouseover": {"state": {"target": [], "time": []}, "edge": {"target": [], "time": []}}, "mouseout": {"state": {"target": [], "time": []}, "edge": {"target": [], "time": []}}}, "displayed_time": "15.29", "trialTime": 16980, "trial_type": "mouselab-mdp", "trial_index": 47, "time_elapsed": 1346949, "internal_node_id": "0.0-4.0-1.0-32.0"}}, {"uniqueid": "w25571813:a17991987", "current_trial": 48, "dateTime": 1691072312423, "trialdata": {"revealed_states": [], "clicked_states": [], "num_clicks_accrued": [0, 0, 0, 0, 0, 0, 0, 0, 0, 0, 0, 0, 0], "stateRewards": ["", -1, -2, -1, -10, -57, 73, -72, -16, 75, -14, -46, -2, -3, -7, -1, -61, -60, 76, -4, 50, 4, 14, 2, 2, -7, 12, -65, -32, 15, -8, -76, -25, -61], "withholdReward": false, "trial_id": "mdp_trial_34", "block": "test", "trialIndex": 37, "score": -74, "costs": 0, "simulationMode": [null, null, null, null, null], "rewards": [-2, -3, -7, -1, -61], "path": ["0", "0", "12", "13", "14", "15", "16"], "rt": [2000, 19, 301, 168, 519], "actions": ["right", "right", "right", "up", "up"], "actionTimes": [3853, 4370, 5191, 5868, 6895], "queries": {"click": {"state": {"target": [], "time": []}, "edge": {"target": [], "time": []}}, "mouseover": {"state": {"target": [], "time": []}, "edge": {"target": [], "time": []}}, "mouseout": {"state": {"target": [], "time": []}, "edge": {"target": [], "time": []}}}, "displayed_time": "15.86", "trialTime": 17092, "trial_type": "mouselab-mdp", "trial_index": 48, "time_elapsed": 1364868, "internal_node_id": "0.0-4.0-1.0-33.0"}}, {"uniqueid": "w25571813:a17991987", "current_trial": 49, "dateTime": 1691072329751, "trialdata": {"revealed_states": [], "clicked_states": [], "num_clicks_accrued": [0, 0, 0, 0, 0, 0, 0, 0, 0, 0, 0, 0, 0], "stateRewards": ["", 1, -1, -7, -7, -22, 15, -13, 13, 26, -32, 38, -1, 1, -7, -4, 16, -62, 86, 12, -54, 56, 64, -2, -1, 6, 14, -57, 37, 62, -6, -25, 50, -70], "withholdReward": false, "trial_id": "mdp_trial_35", "block": "test", "trialIndex": 38, "score": 5, "costs": 0, "simulationMode": [null, null, null, null, null], "rewards": [-1, 1, -7, -4, 16], "path": ["0", "0", "12", "13", "14", "15", "16"], "rt": [1104, 24, 93, 347, 90], "actions": ["right", "right", "right", "up", "up"], "actionTimes": [2206, 2733, 3336, 4189, 4794], "queries": {"click": {"state": {"target": [], "time": []}, "edge": {"target": [], "time": []}}, "mouseover": {"state": {"target": [], "time": []}, "edge": {"target": [], "time": []}}, "mouseout": {"state": {"target": [], "time": []}, "edge": {"target": [], "time": []}}}, "displayed_time": "15.11", "trialTime": 16522, "trial_type": "mouselab-mdp", "trial_index": 49, "time_elapsed": 1382195, "internal_node_id": "0.0-4.0-1.0-34.0"}}, {"uniqueid": "w25571813:a17991987", "current_trial": 50, "dateTime": 1691072346305, "trialdata": {"revealed_states": [], "clicked_states": [], "num_clicks_accrued": [0, 0, 0, 0, 0, 0, 0, 0, 0, 0, 0, 0, 0], "stateRewards": ["", -1, -3, -6, -2, -7, 80, -45, -3, -38, -72, 76, 2, 1, 7, 4, -62, 14, -74, 14, -87, -21, -88, -2, 1, -7, -10, 66, 56, -76, 10, -29, -72, -70], "withholdReward": false, "trial_id": "mdp_trial_36", "block": "test", "trialIndex": 39, "score": -48, "costs": 0, "simulationMode": [null, null, null, null, null], "rewards": [2, 1, 7, 4, -62], "path": ["0", "0", "12", "13", "14", "15", "16"], "rt": [981, 168, 218, 202, 380], "actions": ["right", "right", "right", "up", "up"], "actionTimes": [1419, 2082, 2803, 3501, 4385], "queries": {"click": {"state": {"target": [], "time": []}, "edge": {"target": [], "time": []}}, "mouseover": {"state": {"target": [], "time": []}, "edge": {"target": [], "time": []}}, "mouseout": {"state": {"target": [], "time": []}, "edge": {"target": [], "time": []}}}, "displayed_time": "14.44", "trialTime": 15767, "trial_type": "mouselab-mdp", "trial_index": 50, "time_elapsed": 1398750, "internal_node_id": "0.0-4.0-1.0-35.0"}}, {"uniqueid": "w25571813:a17991987", "current_trial": 51, "dateTime": 1691072365317, "trialdata": {"revealed_states": [], "clicked_states": [], "num_clicks_accrued": [0, 0, 0, 0, 0, 0, 0, 0, 0, 0, 0, 0, 0], "stateRewards": ["", 1, 4, 7, -16, -84, -6, -46, -12, -7, -49, -26, -1, 2, -4, 2, 22, 37, -64, 1, 88, -13, -10, 1, -4, -2, 5, 2, -10, -34, 9, 66, 55, 38], "withholdReward": false, "trial_id": "mdp_trial_37", "block": "test", "trialIndex": 40, "score": -26, "costs": 0, "simulationMode": [null, null, null, null, null], "rewards": [1, 4, 7, -12, -26], "path": ["0", "0", "1", "2", "3", "8", "11"], "rt": [1152, 74, 56, 468, 47], "actions": ["up", "up", "up", "left", "left"], "actionTimes": [2983, 3568, 4131, 5108, 5657], "queries": {"click": {"state": {"target": [], "time": []}, "edge": {"target": [], "time": []}}, "mouseover": {"state": {"target": [], "time": []}, "edge": {"target": [], "time": []}}, "mouseout": {"state": {"target": [], "time": []}, "edge": {"target": [], "time": []}}}, "displayed_time": "15.83", "trialTime": 18151, "trial_type": "mouselab-mdp", "trial_index": 51, "time_elapsed": 1417761, "internal_node_id": "0.0-4.0-1.0-36.0"}}, {"uniqueid": "w25571813:a17991987", "current_trial": 52, "dateTime": 1691072389186, "trialdata": {"revealed_states": [], "clicked_states": ["23", "12", "1", "8", "4", "3", "2"], "num_clicks_accrued": [0, 0, 0, 0, 0, 0, 0, 0, 0, 0, 0, 0, 0], "stateRewards": ["", 2, 2, 3, -15, 23, -14, 73, -7, -32, -20, -6, 1, 1, -5, -12, 73, 6, -84, 11, -81, -57, 13, -2, -1, -4, -8, -52, -58, 49, 13, 5, -41, -41], "withholdReward": false, "trial_id": "mdp_trial_38", "block": "test", "trialIndex": 41, "score": -25.65, "costs": -3.65, "simulationMode": [null, null, null, null, null], "rewards": [2, 2, 3, -15, -14], "path": ["0", "0", "1", "2", "3", "4", "6"], "rt": [13850, 129, 52, 303, 171], "actions": ["up", "up", "up", "right", "right"], "actionTimes": [16253, 16882, 17444, 18256, 18924], "queries": {"click": {"state": {"target": ["23", "12", "1", "8", "4", "3", "2"], "time": [3352, 4505, 5686, 7422, 8873, 10559, 11975]}, "edge": {"target": [], "time": []}}, "mouseover": {"state": {"target": ["23", "12", "1", "2", "10", "8", "3", "4", "3", "2", "1", "1"], "time": [2903, 4166, 5109, 6504, 6775, 6999, 8046, 8145, 10066, 11414, 14024, 15418]}, "edge": {"target": [], "time": []}}, "mouseout": {"state": {"target": ["0", "23", "12", "1", "2", "10", "8", "3", "4", "3", "2", "1"], "time": [2851, 3938, 4529, 6443, 6722, 6855, 8026, 8086, 9981, 11377, 12806, 15116]}, "edge": {"target": [], "time": []}}}, "displayed_time": "19.42", "trialTime": 23045, "trial_type": "mouselab-mdp", "trial_index": 52, "time_elapsed": 1441630, "internal_node_id": "0.0-4.0-1.0-37.0"}}, {"uniqueid": "w25571813:a17991987", "current_trial": 53, "dateTime": 1691072408736, "trialdata": {"revealed_states": [], "clicked_states": [], "num_clicks_accrued": [0, 0, 0, 0, 0, 0, 0, 0, 0, 0, 0, 0, 0], "stateRewards": ["", -2, -1, -6, -14, -55, 78, -13, 11, 14, -71, 59, 2, 2, 6, -6, 9, 38, 14, 7, 85, 11, 68, 1, -4, -1, -3, -63, -85, 9, -2, 63, -86, -10], "withholdReward": false, "trial_id": "mdp_trial_39", "block": "test", "trialIndex": 42, "score": 55, "costs": 0, "simulationMode": [null, null, null, null, null], "rewards": [-2, -1, -6, -14, 78], "path": ["0", "0", "1", "2", "3", "4", "6"], "rt": [839, 204, 83, 298, 66], "actions": ["up", "up", "up", "right", "right"], "actionTimes": [3863, 4587, 5169, 5968, 6548], "queries": {"click": {"state": {"target": [], "time": []}, "edge": {"target": [], "time": []}}, "mouseover": {"state": {"target": [], "time": []}, "edge": {"target": [], "time": []}}, "mouseout": {"state": {"target": ["1"], "time": [2158]}, "edge": {"target": [], "time": []}}}, "displayed_time": "17.03", "trialTime": 18809, "trial_type": "mouselab-mdp", "trial_index": 53, "time_elapsed": 1461181, "internal_node_id": "0.0-4.0-1.0-38.0"}}, {"uniqueid": "w25571813:a17991987", "current_trial": 54, "dateTime": 1691072427040, "trialdata": {"revealed_states": [], "clicked_states": [], "num_clicks_accrued": [0, 0, 0, 0, 0, 0, 0, 0, 0, 0, 0, 0, 0], "stateRewards": ["", 1, 2, -5, 14, 54, -14, -25, 16, -5, -87, 78, -1, 1, 3, -3, 52, 53, 53, -10, 73, -69, -48, 2, 3, 1, 8, -62, -7, 85, 7, 82, 52, -28], "withholdReward": false, "trial_id": "mdp_trial_40", "block": "test", "trialIndex": 43, "score": -2, "costs": 0, "simulationMode": [null, null, null, null, null], "rewards": [1, 2, -5, 14, -14], "path": ["0", "0", "1", "2", "3", "4", "6"], "rt": [851, 95, 76, 452, 459], "actions": ["up", "up", "up", "right", "right"], "actionTimes": [2653, 3243, 3833, 4823, 5796], "queries": {"click": {"state": {"target": [], "time": []}, "edge": {"target": [], "time": []}}, "mouseover": {"state": {"target": [], "time": []}, "edge": {"target": [], "time": []}}, "mouseout": {"state": {"target": ["0"], "time": [1367]}, "edge": {"target": [], "time": []}}}, "displayed_time": "15.81", "trialTime": 17470, "trial_type": "mouselab-mdp", "trial_index": 54, "time_elapsed": 1479484, "internal_node_id": "0.0-4.0-1.0-39.0"}}, {"uniqueid": "w25571813:a17991987", "current_trial": 55, "dateTime": 1691072483561, "trialdata": {"rt": 56503, "response": {"Q0": "$-2 to $2", "Q1": "$-16 to $16", "Q2": "$-32 to $32", "Q3": "The cost for clicking on nodes varied between nodes.", "Q4": "Neither motivated nor unmotivated"}, "question_order": [0, 1, 2, 3, 4], "trial_id": "final_quiz_control", "trial_type": "survey-multi-choice", "trial_index": 55, "time_elapsed": 1536005, "internal_node_id": "0.0-4.0-2.0"}}, {"uniqueid": "w25571813:a17991987", "current_trial": 56, "dateTime": 1691072545158, "trialdata": {"rt": 61576, "response": {"Q0": "The top nodes seemed to have more points", "Q1": "no", "Q2": "slightly difficult,  could not find a pattern"}, "trial_id": "self_report_control", "trial_type": "survey-text", "trial_index": 56, "time_elapsed": 1597603, "internal_node_id": "0.0-4.0-3.0"}}, {"uniqueid": "w25571813:a17991987", "current_trial": 57, "dateTime": 1691072667549, "trialdata": {"rt": 122368, "response": {"Q0": "Strongly agree", "Q1": "Neither disagree nor agree", "Q2": "Agree", "Q3": "Agree", "Q4": "Disagree", "Q5": "Agree", "Q6": "Disagree"}, "question_order": [0, 1, 2, 3, 4, 5, 6], "trial_id": "self_report_2", "trial_type": "survey-multi-choice", "trial_index": 57, "time_elapsed": 1719994, "internal_node_id": "0.0-4.0-4.0"}}, {"uniqueid": "w25571813:a17991987", "current_trial": 58, "dateTime": 1691072705431, "trialdata": {"rt": 37868, "response": {"gender": "female", "age": "29", "colorblind": "1", "effort": "0"}, "trial_type": "survey-html-form", "trial_index": 58, "time_elapsed": 1757876, "internal_node_id": "0.0-4.0-5.0"}}, {"uniqueid": "w25571813:a17991987", "current_trial": 59, "dateTime": 1691072744807, "trialdata": {"rt": 39362, "response": {"Q0": "Finding a pattern was hard", "Q1": "No", "Q2": ""}, "trial_type": "survey-text", "trial_index": 59, "time_elapsed": 1797252, "internal_node_id": "0.0-4.0-6.0"}}, {"uniqueid": "w25571813:a17991987", "current_trial": 60, "dateTime": 1691072748151, "trialdata": {"rt": 3334, "stimulus": "Press 'Finish HIT' in order to reach the completion code. Once the data has been saved, you will receive the code either in this window or in the original browser window where you started the experiment.\n", "response": 0, "trial_type": "html-button-response", "trial_index": 60, "time_elapsed": 1800596, "internal_node_id": "0.0-5.0"}}, {"uniqueid": "w25571813:a17991987", "current_trial": 61, "dateTime": 1691072749157, "trialdata": {"success": true, "trial_type": "fullscreen", "trial_index": 61, "time_elapsed": 1801602, "internal_node_id": "0.0-6.0"}}], "questiondata": {"params": {"CODE": "C6DMOQA6", "MIN_TIME": 14, "inspectCost": 1, "startTime": "Thu Aug 03 2023 15:55:44 GMT+0200 (South Africa Standard Time)", "bonusRate": 0.002, "variance": "1_2_4_8_44", "branching": "31123"}, "final_score": 7.85}, "eventdata": [{"eventtype": "initialized", "value": null, "timestamp": 1691070944258, "interval": 0}, {"eventtype": "window_resize", "value": [1440, 764], "timestamp": 1691070944258, "interval": 0}, {"eventtype": "window_resize", "value": [1440, 764], "timestamp": 1691070944759, "interval": 501}, {"eventtype": "window_resize", "value": [1440, 900], "timestamp": 1691070952721, "interval": 7962}, {"eventtype": "focus", "value": "off", "timestamp": 1691071485405, "interval": 532684}, {"eventtype": "focus", "value": "on", "timestamp": 1691071485570, "interval": 165}, {"eventtype": "window_resize", "value": [1440, 764], "timestamp": 1691071485616, "interval": 46}, {"eventtype": "window_resize", "value": [1440, 900], "timestamp": 1691071487488, "interval": 1872}, {"eventtype": "window_resize", "value": [1440, 764], "timestamp": 1691072748372, "interval": 1260884}], "useragent": "Mozilla/5.0 (Macintosh; Intel Mac OS X 10_11_6) AppleWebKit/537.36 (KHTML, like Gecko) Chrome/103.0.0.0 Safari/537.36", "mode": "live", "id": "w25571813:a17991987", "status": "user data saved", "Beginhit": "2023-08-03 13:55:39.699433", "Beginexp": "2023-08-03 13:55:53.799479", "Endhit": "2023-08-03 14:25:50.840072", "psiturkStatus": 3, "browser": "<redacted>", "platform": "macos", "language": "en-GB"}