{"condition": 1, "counterbalance": 0, "assignmentId": "a95073564", "workerId": "w62511750", "hitId": "h98958108", "currenttrial": 14, "bonus": 0, "data": [{"uniqueid": "w62511750:a95073564", "current_trial": 0, "dateTime": 1691159450051, "trialdata": {"success": true, "trial_type": "fullscreen", "trial_index": 0, "time_elapsed": 5572, "internal_node_id": "0.0-0.0"}}, {"uniqueid": "w62511750:a95073564", "current_trial": 1, "dateTime": 1691159465283, "trialdata": {"view_history": [{"page_index": 0, "viewing_time": 15227}], "rt": 15227, "trial_id": "exp_instructions_misaligned", "trial_type": "instructions", "trial_index": 1, "time_elapsed": 20804, "internal_node_id": "0.0-1.0"}}, {"uniqueid": "w62511750:a95073564", "current_trial": 2, "dateTime": 1691159468012, "trialdata": {"success": true, "trial_type": "fullscreen", "trial_index": 2, "time_elapsed": 23533, "internal_node_id": "0.0-2.0-0.0"}}, {"uniqueid": "w62511750:a95073564", "current_trial": 3, "dateTime": 1691159772644, "trialdata": {"view_history": [{"page_index": 0, "viewing_time": 188646}, {"page_index": 1, "viewing_time": 81784}, {"page_index": 2, "viewing_time": 10720}, {"page_index": 3, "viewing_time": 23480}], "rt": 304630, "trial_id": "mouselab_instructions_1_misaligned", "trial_type": "instructions", "trial_index": 3, "time_elapsed": 328165, "internal_node_id": "0.0-2.0-1.0"}}, {"uniqueid": "w62511750:a95073564", "current_trial": 4, "dateTime": 1691159948340, "trialdata": {"revealed_states": [], "clicked_states": ["12", "13", "14", "19", "21", "1", "2", "3", "11", "23", "31", "30", "33", "24", "26", "27"], "num_clicks_accrued": [0, 0, 0, 0, 0, 0, 0, 0, 0, 0, 0, 0, 0], "stateRewards": ["", -10, -10, -10, 10, 10, -10, 10, -10, -10, -10, 10, 10, 10, -10, 10, -10, 10, -10, -10, -10, -10, 10, 10, -10, -10, 10, 10, 10, 10, -10, 10, 10, 10], "withholdReward": false, "trial_id": "practice_1", "block": "test", "trialIndex": 0, "score": -14.5, "costs": -8, "simulationMode": [null, null, null, null, null], "rewards": [10, 10, -10, -10, -10], "path": ["0", "0", "12", "13", "14", "19", "21"], "rt": [163945, 583, 284, 805, 458], "actions": ["right", "right", "right", "down", "down"], "actionTimes": [166878, 167954, 168755, 170059, 171011], "queries": {"click": {"state": {"target": ["12", "13", "14", "19", "21", "1", "2", "3", "11", "23", "31", "30", "33", "24", "26", "27"], "time": [5052, 6417, 8410, 9649, 11147, 16665, 18436, 19740, 21228, 22373, 24312, 26138, 27226, 29486, 30791, 33061]}, "edge": {"target": [], "time": []}}, "mouseover": {"state": {"target": ["12", "13", "22", "14", "19", "21", "31", "31", "0", "23", "1", "2", "2", "3", "8", "11", "28", "24", "23", "24", "25", "31", "30", "30", "33", "24", "23", "23", "24", "25", "26", "29", "29", "27", "28", "16", "15", "13", "12", "1", "13", "12", "12", "0", "23", "23", "1", "23", "12", "19", "20", "5", "4", "6", "6", "4", "3", "3", "7", "12", "12", "0", "12", "0", "23", "23", "23", "23", "28", "24", "12", "4", "3", "2", "1", "1", "26", "25", "0", "1", "7", "4", "15", "12", "12", "22", "19", "12", "0", "31", "23", "23", "0", "7", "4", "5", "4", "4", "4", "6", "15", "15", "15", "15", "13", "22", "31", "30", "32", "0", "0", "1", "12", "13", "14", "14", "13", "31", "30", "0", "0", "0", "0", "0", "28", "12", "22", "19", "19", "19", "14", "19", "19", "11", "2", "2", "1", "0", "20", "12", "13", "22", "21", "0", "12", "17", "14", "30", "24", "24", "21", "17", "16", "7", "2", "30", "30", "31", "0"], "time": [4660, 5560, 7277, 8144, 9177, 10060, 15041, 15410, 15677, 15960, 16361, 17027, 17877, 19194, 20243, 20844, 21776, 21877, 22110, 22643, 23477, 23993, 24926, 25860, 26709, 27910, 27961, 28326, 29027, 29893, 30510, 30976, 32493, 32877, 33496, 34210, 34276, 34743, 34859, 35393, 36577, 36743, 37193, 37343, 37426, 38160, 38276, 39176, 40010, 40510, 40541, 43409, 43593, 43778, 44159, 44191, 44242, 44976, 46375, 46526, 47210, 48159, 48926, 49357, 49442, 49942, 50458, 51243, 51376, 52426, 56075, 56359, 56576, 56959, 58243, 58973, 59735, 59923, 60856, 61039, 61140, 61990, 62656, 63523, 66689, 66756, 68559, 69642, 69775, 70091, 74358, 75275, 75356, 77075, 77106, 77156, 77358, 78056, 78658, 79191, 79391, 80174, 81174, 81608, 82225, 82257, 86091, 86156, 86557, 91874, 92375, 92658, 93359, 94488, 94654, 95157, 95274, 95655, 95674, 97574, 98091, 99805, 100941, 102490, 104957, 105090, 105307, 106040, 106989, 107690, 107823, 109156, 110040, 114507, 116873, 117840, 117888, 117956, 119773, 124023, 124087, 124120, 124206, 125911, 125970, 126021, 128220, 128556, 129339, 130089, 132756, 132922, 133972, 134089, 134155, 135238, 137405, 164088, 164388]}, "edge": {"target": [], "time": []}}, "mouseout": {"state": {"target": ["12", "1", "10", "0", "12", "13", "22", "13", "14", "19", "19", "21", "31", "31", "0", "23", "1", "2", "2", "3", "3", "8", "11", "28", "24", "23", "24", "25", "31", "30", "30", "30", "33", "24", "23", "23", "24", "25", "26", "29", "29", "27", "28", "16", "15", "13", "12", "1", "13", "12", "12", "0", "23", "23", "1", "23", "12", "19", "20", "5", "4", "6", "6", "4", "3", "3", "7", "12", "12", "0", "12", "0", "23", "23", "23", "23", "28", "24", "12", "4", "3", "2", "1", "1", "26", "25", "0", "1", "7", "4", "15", "12", "12", "22", "19", "12", "0", "31", "23", "23", "0", "7", "4", "5", "4", "4", "4", "6", "15", "15", "15", "15", "13", "22", "31", "30", "32", "0", "0", "1", "12", "13", "14", "14", "13", "31", "30", "0", "0", "0", "0", "0", "28", "12", "22", "19", "19", "19", "14", "19", "19", "11", "2", "2", "1", "0", "20", "12", "13", "22", "21", "0", "12", "17", "14", "30", "24", "24", "21", "17", "16", "7", "2", "30", "30", "31", "0"], "time": [625, 875, 1211, 4627, 5493, 7094, 7694, 8011, 9077, 9716, 9927, 11694, 15110, 15477, 15794, 16176, 16844, 17709, 18960, 19835, 20176, 20760, 21644, 21844, 21894, 22560, 23309, 23844, 24677, 25375, 26198, 26560, 27793, 27943, 28026, 28876, 29742, 30376, 30927, 31744, 32760, 33358, 33543, 34243, 34343, 34809, 34875, 35918, 36643, 36793, 37293, 37393, 37823, 38192, 38843, 39560, 40443, 40524, 40910, 43425, 43776, 43791, 44175, 44208, 44259, 46310, 46424, 46559, 47893, 48393, 49343, 49409, 49474, 50026, 50507, 51258, 51408, 52441, 56109, 56510, 56709, 57009, 58359, 59276, 59858, 59956, 60940, 61073, 61206, 62073, 62723, 63590, 66707, 66825, 69608, 69675, 69808, 70275, 74622, 75322, 75708, 77090, 77140, 77273, 77443, 78258, 78674, 79206, 79758, 80241, 81190, 82159, 82239, 82273, 86141, 86189, 86658, 91923, 92484, 92708, 94455, 94506, 94773, 95172, 95407, 95673, 95706, 97657, 98141, 99873, 101190, 102641, 104988, 105140, 105374, 106072, 107024, 107705, 108240, 109221, 110123, 114522, 116906, 117854, 117923, 117988, 119788, 124038, 124103, 124137, 124221, 125953, 125987, 126037, 128237, 128706, 129639, 130153, 132788, 132938, 133986, 134104, 134170, 135589, 137472, 164121, 164636]}, "edge": {"target": [], "time": []}}}, "displayed_time": "171.52", "trialTime": 175210, "trial_type": "mouselab-mdp", "trial_index": 4, "time_elapsed": 503861, "internal_node_id": "0.0-2.0-2.0-0.0"}}, {"uniqueid": "w62511750:a95073564", "current_trial": 5, "dateTime": 1691160013583, "trialdata": {"revealed_states": [], "clicked_states": ["1", "2", "3", "8", "9", "23", "24", "25", "30", "32", "12", "13", "14", "19", "22", "15", "16"], "num_clicks_accrued": [0, 0, 0, 0, 0, 0, 0, 0, 0, 0, 0, 0, 0], "stateRewards": ["", -10, 10, -10, 10, 10, 10, -10, -10, -10, 10, -10, -10, -10, -10, 10, 10, -10, -10, 10, 10, -10, -10, -10, -10, -10, 10, -10, -10, 10, -10, 10, 10, -10], "withholdReward": false, "trial_id": "practice_2", "block": "test", "trialIndex": 1, "score": -15, "costs": -8.5, "simulationMode": [null, null, null, null, null], "rewards": [-10, 10, -10, -10, 10], "path": ["0", "0", "1", "2", "3", "8", "10"], "rt": [45636, 339, 152, 558, 10877], "actions": ["up", "up", "up", "left", "down"], "actionTimes": [47600, 48441, 49088, 50160, 61545], "queries": {"click": {"state": {"target": ["1", "2", "3", "8", "9", "23", "24", "25", "30", "32", "12", "13", "14", "19", "22", "15", "16"], "time": [5304, 8023, 11224, 14975, 16391, 18452, 20146, 21652, 23367, 24966, 26659, 28290, 29690, 31497, 33168, 37503, 38743]}, "edge": {"target": [], "time": []}}, "mouseover": {"state": {"target": ["31", "24", "1", "2", "3", "3", "8", "10", "8", "9", "10", "23", "24", "25", "26", "25", "30", "32", "30", "32", "32", "22", "13", "12", "13", "14", "13", "14", "19", "21", "19", "21", "19", "22", "17", "15", "18", "1", "12", "18", "15", "16", "7", "3", "2", "2", "1", "1", "2", "1", "0", "13", "12", "0", "10", "8", "18", "21", "21", "19", "21"], "time": [4054, 4489, 4838, 7289, 8653, 8804, 12788, 14155, 14539, 16071, 17719, 17952, 19888, 20404, 20921, 21352, 22103, 22802, 23152, 23670, 24717, 25487, 25553, 26338, 26919, 27519, 27921, 29152, 29902, 30135, 30369, 30821, 31204, 31937, 34401, 34568, 34719, 35387, 35586, 35785, 37168, 38536, 39619, 39853, 40571, 40920, 41768, 42369, 42571, 42853, 43419, 43704, 43937, 44587, 44870, 45270, 45603, 45769, 45968, 46087, 47070]}, "edge": {"target": [], "time": []}}, "mouseout": {"state": {"target": ["0", "0", "31", "24", "1", "2", "3", "3", "8", "10", "8", "9", "8", "10", "23", "24", "25", "26", "25", "30", "32", "30", "32", "32", "22", "13", "12", "13", "14", "13", "14", "19", "21", "19", "21", "19", "22", "17", "15", "18", "1", "12", "18", "15", "15", "16", "7", "3", "2", "2", "1", "1", "2", "1", "0", "13", "12", "0", "10", "8", "18", "21", "21", "19", "21", "15", "13", "2", "8", "8", "11", "11", "11", "2", "18"], "time": [1170, 2739, 4355, 4503, 7072, 8603, 8720, 12671, 14055, 14422, 15986, 17419, 17669, 17770, 18970, 20370, 20820, 21302, 22003, 22537, 22885, 23586, 24505, 25369, 25520, 26187, 26869, 27469, 27855, 29135, 29869, 29935, 30152, 30754, 31138, 31819, 33636, 34485, 34635, 34837, 35420, 35654, 37135, 38035, 38419, 39186, 39652, 40488, 40604, 41570, 42104, 42470, 42768, 43318, 43470, 43737, 44470, 44601, 45104, 45537, 45618, 45820, 45984, 46537, 51437, 51568, 51651, 51834, 52051, 52834, 53401, 54686, 55420, 55470, 55503]}, "edge": {"target": [], "time": []}}}, "displayed_time": "62.04", "trialTime": 65152, "trial_type": "mouselab-mdp", "trial_index": 5, "time_elapsed": 569103, "internal_node_id": "0.0-2.0-2.0-1.0"}}, {"uniqueid": "w62511750:a95073564", "current_trial": 6, "dateTime": 1691160057676, "trialdata": {"view_history": [{"page_index": 0, "viewing_time": 34393}, {"page_index": 1, "viewing_time": 9696}], "rt": 44090, "trial_id": "mouselab_instructions_2_misaligned", "trial_type": "instructions", "trial_index": 6, "time_elapsed": 613197, "internal_node_id": "0.0-2.0-3.0"}}, {"uniqueid": "w62511750:a95073564", "current_trial": 7, "dateTime": 1691160099229, "trialdata": {"rt": 41550, "response": {"Q0": "There is no cost for clicking on nodes.", "Q1": "The better I perform the higher my bonus will be.", "Q2": "No, the amount of cash at each node of the web may be different each time.", "Q3": "To get the highest total score.", "Q4": "Any time during the round.", "Q5": "10 seconds"}, "question_order": [0, 1, 2, 3, 4, 5], "correct": {"Q0": "The cost for clicking on nodes may vary between nodes.", "Q1": "The better I perform the higher my bonus will be.", "Q2": "No, the amount of cash at each node of the web may be different each time.", "Q3": "To get the highest total score.", "Q4": "Only before moving the spider.", "Q5": "3 seconds"}, "trial_id": "mouselab_quiz_misaligned", "trial_type": "survey-multi-choice", "trial_index": 7, "time_elapsed": 654750, "internal_node_id": "0.0-2.0-4.0"}}, {"uniqueid": "w62511750:a95073564", "current_trial": 8, "dateTime": 1691160106453, "trialdata": {"success": true, "trial_type": "fullscreen", "trial_index": 8, "time_elapsed": 661974, "internal_node_id": "0.0-2.1-0.1"}}, {"uniqueid": "w62511750:a95073564", "current_trial": 9, "dateTime": 1691160361277, "trialdata": {"view_history": [{"page_index": 0, "viewing_time": 83540}, {"page_index": 1, "viewing_time": 88592}, {"page_index": 2, "viewing_time": 30537}, {"page_index": 3, "viewing_time": 52153}], "rt": 254822, "trial_id": "mouselab_instructions_1_misaligned", "trial_type": "instructions", "trial_index": 9, "time_elapsed": 916798, "internal_node_id": "0.0-2.1-1.1"}}, {"uniqueid": "w62511750:a95073564", "current_trial": 10, "dateTime": 1691160467487, "trialdata": {"revealed_states": [], "clicked_states": ["1", "2", "3", "4", "5", "6", "12", "13", "14", "19", "22", "20", "15", "16", "23", "24", "25", "30", "32", "26", "27", "29", "28", "31", "33", "8", "11", "9", "10", "7", "17", "21", "18"], "num_clicks_accrued": [0, 0, 0, 0, 0, 0, 0, 0, 0, 0, 0, 0, 0], "stateRewards": ["", -10, -10, -10, 10, 10, -10, 10, -10, -10, -10, 10, 10, 10, -10, 10, -10, 10, -10, -10, -10, -10, 10, 10, -10, -10, 10, 10, 10, 10, -10, 10, 10, 10], "withholdReward": false, "trial_id": "practice_1", "block": "test", "trialIndex": 2, "score": -3, "costs": -16.5, "simulationMode": [null, null, null, null, null], "rewards": [10, 10, -10, 10, -10], "path": ["0", "0", "12", "13", "14", "15", "16"], "rt": [93599, 1231, 1084, 510, 228], "actions": ["right", "right", "right", "up", "up"], "actionTimes": [96849, 98598, 100182, 101191, 101911], "queries": {"click": {"state": {"target": ["1", "2", "3", "4", "5", "6", "12", "13", "14", "19", "22", "20", "15", "16", "23", "24", "25", "30", "32", "26", "27", "29", "28", "31", "33", "8", "11", "9", "10", "7", "17", "21", "18"], "time": [7359, 10341, 12623, 14565, 18699, 22963, 26662, 29067, 31713, 34058, 36214, 38639, 41007, 42398, 44779, 46363, 47928, 49215, 50828, 52801, 54160, 56352, 59227, 60681, 63282, 65357, 66676, 68202, 71001, 72027, 73559, 75103, 83093]}, "edge": {"target": [], "time": []}}, "mouseover": {"state": {"target": ["23", "1", "2", "3", "4", "6", "5", "7", "5", "4", "2", "7", "6", "7", "2", "10", "12", "12", "13", "14", "19", "21", "22", "20", "21", "13", "15", "16", "18", "12", "23", "24", "25", "24", "25", "30", "33", "32", "23", "26", "27", "29", "26", "28", "10", "8", "8", "10", "3", "10", "28", "28", "25", "30", "31", "30", "33", "30", "33", "33", "23", "10", "8", "3", "8", "10", "11", "9", "9", "3", "2", "7", "16", "4", "5", "4", "1", "10", "2", "7", "18", "18", "15", "17", "18", "13", "22", "21", "18", "13", "24", "26", "0", "18", "13", "19", "19", "0", "23", "0", "22", "20"], "time": [5467, 6868, 9185, 12085, 13783, 15607, 16634, 17502, 18383, 19451, 20441, 20985, 22218, 23835, 24668, 24901, 25868, 26184, 27762, 30834, 32584, 35451, 35832, 37484, 39416, 40050, 40482, 41700, 42867, 44050, 44565, 45166, 45751, 46065, 46716, 48549, 49633, 50451, 52049, 52383, 53431, 55717, 56916, 56999, 57082, 57149, 57533, 57850, 58083, 58632, 58883, 58983, 60048, 60149, 60450, 61066, 61133, 61782, 62533, 62868, 63849, 63999, 64416, 64767, 65084, 65599, 66466, 67131, 67899, 68549, 68616, 68698, 69098, 69916, 70033, 70248, 70416, 70750, 71216, 71299, 72282, 72715, 73130, 73198, 74198, 74633, 74716, 74816, 75832, 76547, 81299, 81330, 82264, 82699, 83514, 83598, 89065, 89097, 89413, 89548, 91231, 91247]}, "edge": {"target": [], "time": []}}, "mouseout": {"state": {"target": ["12", "0", "23", "1", "2", "3", "4", "6", "5", "4", "7", "4", "5", "4", "2", "7", "6", "7", "2", "10", "12", "12", "13", "13", "14", "19", "21", "22", "19", "20", "21", "22", "13", "15", "16", "18", "12", "23", "24", "25", "24", "25", "30", "33", "32", "23", "26", "27", "26", "29", "26", "28", "10", "8", "8", "10", "3", "10", "28", "28", "25", "30", "31", "31", "30", "33", "30", "33", "33", "31", "23", "10", "8", "3", "8", "10", "11", "8", "9", "9", "3", "2", "7", "16", "4", "5", "4", "1", "10", "10", "2", "7", "18", "18", "15", "17", "18", "13", "22", "21", "18", "13", "24", "26", "0", "18", "13", "19", "19", "0", "23", "0", "22", "20"], "time": [1490, 5302, 6702, 9002, 12002, 13601, 15435, 16418, 17385, 17452, 18218, 18267, 19301, 19535, 20534, 21968, 23618, 24584, 24768, 25484, 25935, 27250, 30371, 30801, 32218, 35283, 35634, 37334, 37401, 39016, 39700, 39950, 40100, 41467, 42684, 43801, 44100, 45049, 45632, 45898, 46616, 48299, 49583, 50334, 51215, 52066, 53181, 54682, 55066, 56866, 56966, 57032, 57116, 57299, 57800, 57967, 58582, 58648, 58898, 59548, 60098, 60199, 60736, 60984, 61083, 61650, 62316, 62674, 63632, 63816, 63865, 64282, 64699, 64860, 65532, 66282, 66882, 67015, 67616, 68448, 68565, 68665, 68732, 69683, 69966, 70199, 70264, 70449, 71039, 71182, 71265, 72215, 72348, 73116, 73164, 73781, 74548, 74665, 74748, 75382, 76414, 76614, 81314, 81364, 82564, 83414, 83547, 83631, 89081, 89114, 89446, 90166, 91246, 91263]}, "edge": {"target": [], "time": []}}}, "displayed_time": "102.42", "trialTime": 106071, "trial_type": "mouselab-mdp", "trial_index": 10, "time_elapsed": 1023008, "internal_node_id": "0.0-2.1-2.1-0.1"}}, {"uniqueid": "w62511750:a95073564", "current_trial": 11, "dateTime": 1691160531952, "trialdata": {"revealed_states": [], "clicked_states": ["23", "24", "25", "30", "32", "33", "31", "26", "28", "29", "27", "12", "13", "22", "19", "21", "20", "14", "17", "15", "18", "16", "1", "2", "3", "10", "8", "11", "9", "4", "7", "6", "5"], "num_clicks_accrued": [0, 0, 0, 0, 0, 0, 0, 0, 0, 0, 0, 0, 0], "stateRewards": ["", -10, 10, -10, 10, 10, 10, -10, -10, -10, 10, -10, -10, -10, -10, 10, 10, -10, -10, 10, 10, -10, -10, -10, -10, -10, 10, -10, -10, 10, -10, 10, 10, -10], "withholdReward": false, "trial_id": "practice_2", "block": "test", "trialIndex": 3, "score": -3, "costs": -16.5, "simulationMode": [null, null, null, null, null], "rewards": [-10, 10, -10, 10, 10], "path": ["0", "0", "1", "2", "3", "4", "5"], "rt": [54433, 223, 418, 540, 274], "actions": ["up", "up", "up", "right", "up"], "actionTimes": [57612, 58331, 59259, 60315, 61098], "queries": {"click": {"state": {"target": ["23", "24", "25", "30", "32", "33", "31", "26", "28", "29", "27", "12", "13", "22", "19", "21", "20", "14", "17", "15", "18", "16", "1", "2", "3", "10", "8", "11", "9", "4", "7", "6", "5"], "time": [4147, 6428, 7681, 9341, 10560, 11880, 12996, 14129, 15167, 17833, 20122, 22149, 23418, 24940, 25977, 27089, 28304, 29598, 31043, 32086, 33861, 35248, 36475, 37495, 39795, 41112, 43308, 44977, 46329, 47606, 49209, 50443, 51816]}, "edge": {"target": [], "time": []}}, "mouseover": {"state": {"target": ["23", "23", "24", "31", "24", "31", "25", "30", "32", "30", "32", "33", "31", "28", "26", "28", "27", "29", "26", "27", "27", "3", "2", "12", "0", "12", "13", "13", "22", "22", "19", "19", "21", "21", "20", "14", "14", "15", "17", "15", "18", "18", "16", "1", "2", "3", "3", "10", "8", "11", "9", "4", "4", "7", "6", "5"], "time": [3657, 3942, 4591, 5675, 5976, 6875, 7258, 8275, 9008, 9190, 9640, 11191, 12691, 13574, 13858, 14891, 15741, 16742, 18291, 18591, 19892, 20840, 20890, 20973, 21425, 21939, 22424, 23207, 23774, 24508, 25158, 25825, 26357, 26907, 27443, 28806, 29425, 30041, 30274, 31357, 32423, 33588, 34307, 35773, 36857, 37823, 39573, 40174, 42873, 43772, 45423, 46690, 46890, 48156, 49740, 51090]}, "edge": {"target": [], "time": []}}, "mouseout": {"state": {"target": ["18", "30", "0", "23", "23", "24", "31", "24", "31", "25", "25", "30", "32", "30", "32", "33", "31", "28", "26", "28", "26", "27", "26", "29", "26", "27", "27", "3", "2", "12", "0", "12", "13", "13", "22", "22", "19", "19", "21", "21", "20", "14", "14", "15", "17", "15", "18", "18", "16", "1", "2", "3", "3", "10", "8", "11", "9", "4", "4", "7", "6", "5"], "time": [2239, 2323, 3642, 3691, 4375, 5525, 5908, 6775, 7141, 7740, 8108, 8892, 9125, 9540, 10991, 12475, 13291, 13691, 14391, 15424, 15607, 16442, 16608, 18241, 18407, 19041, 20407, 20875, 20907, 21023, 21923, 22374, 23074, 23640, 24424, 25075, 25608, 26174, 26858, 27323, 28658, 29290, 29841, 30224, 31290, 32323, 33456, 34173, 35490, 36740, 37580, 38990, 40040, 42705, 43705, 45239, 46590, 46707, 48023, 49556, 51006, 52356]}, "edge": {"target": [], "time": []}}}, "displayed_time": "61.61", "trialTime": 64363, "trial_type": "mouselab-mdp", "trial_index": 11, "time_elapsed": 1087472, "internal_node_id": "0.0-2.1-2.1-1.1"}}, {"uniqueid": "w62511750:a95073564", "current_trial": 12, "dateTime": 1691160570019, "trialdata": {"view_history": [{"page_index": 0, "viewing_time": 30265}, {"page_index": 1, "viewing_time": 7799}], "rt": 38065, "trial_id": "mouselab_instructions_2_misaligned", "trial_type": "instructions", "trial_index": 12, "time_elapsed": 1125540, "internal_node_id": "0.0-2.1-3.1"}}, {"uniqueid": "w62511750:a95073564", "current_trial": 13, "dateTime": 1691160707885, "trialdata": {"rt": 137863, "response": {"Q0": "The cost for clicking on nodes may vary between nodes.", "Q1": "The better I perform the higher my bonus will be.", "Q2": "No, the amount of cash at each node of the web may be different each time.", "Q3": "To get the highest total score.", "Q4": "Any time during the round.", "Q5": "3 seconds"}, "question_order": [0, 1, 2, 3, 4, 5], "correct": {"Q0": "The cost for clicking on nodes may vary between nodes.", "Q1": "The better I perform the higher my bonus will be.", "Q2": "No, the amount of cash at each node of the web may be different each time.", "Q3": "To get the highest total score.", "Q4": "Only before moving the spider.", "Q5": "3 seconds"}, "trial_id": "mouselab_quiz_misaligned", "trial_type": "survey-multi-choice", "trial_index": 13, "time_elapsed": 1263406, "internal_node_id": "0.0-2.1-4.1"}}], "questiondata": {"params": {"CODE": "C6DMOQA6", "MIN_TIME": 14, "inspectCost": 1, "startTime": "Fri Aug 04 2023 16:30:41 GMT+0200 (South Africa Standard Time)", "bonusRate": 0.002, "variance": "1_2_4_8_44", "branching": "31123"}}, "eventdata": [{"eventtype": "initialized", "value": null, "timestamp": 1691159441178, "interval": 0}, {"eventtype": "window_resize", "value": [1026, 775], "timestamp": 1691159441178, "interval": 0}, {"eventtype": "window_resize", "value": [1026, 775], "timestamp": 1691159441603, "interval": 425}, {"eventtype": "window_resize", "value": [1920, 1080], "timestamp": 1691159449270, "interval": 7667}, {"eventtype": "focus", "value": "off", "timestamp": 1691159895089, "interval": 445819}, {"eventtype": "focus", "value": "on", "timestamp": 1691159896726, "interval": 1637}, {"eventtype": "focus", "value": "off", "timestamp": 1691160103102, "interval": 206376}, {"eventtype": "focus", "value": "on", "timestamp": 1691160103103, "interval": 1}, {"eventtype": "window_resize", "value": [1026, 775], "timestamp": 1691160103320, "interval": 217}, {"eventtype": "window_resize", "value": [1920, 1080], "timestamp": 1691160105666, "interval": 2346}, {"eventtype": "focus", "value": "off", "timestamp": 1691160112201, "interval": 6535}, {"eventtype": "focus", "value": "on", "timestamp": 1691160114068, "interval": 1867}, {"eventtype": "focus", "value": "off", "timestamp": 1691160114419, "interval": 351}, {"eventtype": "window_resize", "value": [1920, 1079], "timestamp": 1691160114624, "interval": 205}, {"eventtype": "focus", "value": "on", "timestamp": 1691160117228, "interval": 2604}, {"eventtype": "focus", "value": "off", "timestamp": 1691160117232, "interval": 4}, {"eventtype": "focus", "value": "on", "timestamp": 1691160117249, "interval": 17}, {"eventtype": "focus", "value": "off", "timestamp": 1691160117253, "interval": 4}, {"eventtype": "window_resize", "value": [1920, 1080], "timestamp": 1691160117441, "interval": 188}, {"eventtype": "focus", "value": "on", "timestamp": 1691160188270, "interval": 70829}, {"eventtype": "focus", "value": "off", "timestamp": 1691160200362, "interval": 12092}, {"eventtype": "focus", "value": "on", "timestamp": 1691160202427, "interval": 2065}, {"eventtype": "focus", "value": "off", "timestamp": 1691160202768, "interval": 341}, {"eventtype": "window_resize", "value": [1920, 1079], "timestamp": 1691160202969, "interval": 201}, {"eventtype": "focus", "value": "on", "timestamp": 1691160205118, "interval": 2149}, {"eventtype": "focus", "value": "off", "timestamp": 1691160205127, "interval": 9}, {"eventtype": "focus", "value": "on", "timestamp": 1691160205140, "interval": 13}, {"eventtype": "focus", "value": "off", "timestamp": 1691160205145, "interval": 5}, {"eventtype": "window_resize", "value": [1920, 1080], "timestamp": 1691160205326, "interval": 181}, {"eventtype": "focus", "value": "on", "timestamp": 1691160277359, "interval": 72033}, {"eventtype": "focus", "value": "off", "timestamp": 1691160283435, "interval": 6076}, {"eventtype": "focus", "value": "on", "timestamp": 1691160309062, "interval": 25627}, {"eventtype": "focus", "value": "off", "timestamp": 1691160313914, "interval": 4852}, {"eventtype": "focus", "value": "on", "timestamp": 1691160315341, "interval": 1427}, {"eventtype": "focus", "value": "off", "timestamp": 1691160315680, "interval": 339}, {"eventtype": "window_resize", "value": [1920, 1079], "timestamp": 1691160315882, "interval": 202}, {"eventtype": "focus", "value": "on", "timestamp": 1691160317471, "interval": 1589}, {"eventtype": "focus", "value": "off", "timestamp": 1691160317475, "interval": 4}, {"eventtype": "focus", "value": "on", "timestamp": 1691160317490, "interval": 15}, {"eventtype": "focus", "value": "off", "timestamp": 1691160317493, "interval": 3}, {"eventtype": "window_resize", "value": [1920, 1080], "timestamp": 1691160317683, "interval": 190}, {"eventtype": "focus", "value": "on", "timestamp": 1691160361206, "interval": 43523}, {"eventtype": "focus", "value": "off", "timestamp": 1691160710646, "interval": 349440}, {"eventtype": "focus", "value": "on", "timestamp": 1691160710646, "interval": 0}, {"eventtype": "window_resize", "value": [1026, 775], "timestamp": 1691160710856, "interval": 210}, {"eventtype": "focus", "value": "off", "timestamp": 1691160712840, "interval": 1984}, {"eventtype": "focus", "value": "on", "timestamp": 1691160754486, "interval": 41646}], "useragent": "Mozilla/5.0 (Windows NT 10.0; Win64; x64) AppleWebKit/537.36 (KHTML, like Gecko) Chrome/115.0.0.0 Safari/537.36", "mode": "live", "id": "w62511750:a95073564", "status": "user data saved", "Beginhit": "2023-08-04 14:30:38.719953", "Beginexp": "2023-08-04 14:30:50.438753", "Endhit": null, "psiturkStatus": 6, "browser": "<redacted>", "platform": "windows", "language": "en-US", "excludeReason": "quizfail"}