{"condition": 1, "counterbalance": 0, "assignmentId": "a41787817", "workerId": "w28105407", "hitId": "h11728138", "currenttrial": 56, "bonus": 0, "data": [{"uniqueid": "w28105407:a41787817", "current_trial": 0, "dateTime": 1691145761878, "trialdata": {"success": true, "trial_type": "fullscreen", "trial_index": 0, "time_elapsed": 7420, "internal_node_id": "0.0-0.0"}}, {"uniqueid": "w28105407:a41787817", "current_trial": 1, "dateTime": 1691145792165, "trialdata": {"view_history": [{"page_index": 0, "viewing_time": 30277}], "rt": 30279, "trial_id": "exp_instructions_misaligned", "trial_type": "instructions", "trial_index": 1, "time_elapsed": 37708, "internal_node_id": "0.0-1.0"}}, {"uniqueid": "w28105407:a41787817", "current_trial": 2, "dateTime": 1691145797106, "trialdata": {"success": true, "trial_type": "fullscreen", "trial_index": 2, "time_elapsed": 42649, "internal_node_id": "0.0-2.0-0.0"}}, {"uniqueid": "w28105407:a41787817", "current_trial": 3, "dateTime": 1691146230132, "trialdata": {"view_history": [{"page_index": 0, "viewing_time": 181520}, {"page_index": 1, "viewing_time": 136919}, {"page_index": 2, "viewing_time": 47556}, {"page_index": 3, "viewing_time": 67024}], "rt": 433021, "trial_id": "mouselab_instructions_1_misaligned", "trial_type": "instructions", "trial_index": 3, "time_elapsed": 475675, "internal_node_id": "0.0-2.0-1.0"}}, {"uniqueid": "w28105407:a41787817", "current_trial": 4, "dateTime": 1691146290809, "trialdata": {"revealed_states": [], "clicked_states": ["23", "24", "12", "13", "1", "2", "7", "4", "5"], "num_clicks_accrued": [0, 0, 0, 0, 0, 0, 0, 0, 0, 0, 0, 0, 0], "stateRewards": ["", -10, 10, 10, 10, 10, -10, 10, -10, 10, 10, 10, 10, -10, -10, 10, -10, 10, -10, -10, -10, -10, -10, -10, -10, 10, -10, 10, 10, 10, 10, -10, -10, 10], "withholdReward": false, "trial_id": "practice_1", "block": "test", "trialIndex": 0, "score": 29, "costs": -4.5, "simulationMode": [null, null, null, null, null], "rewards": [-10, 10, 10, 10, 10], "path": ["0", "0", "1", "2", "3", "4", "5"], "rt": [39100, 433, 9310, 550, 424], "actions": ["up", "up", "up", "right", "up"], "actionTimes": [41815, 42768, 52591, 53649, 54589], "queries": {"click": {"state": {"target": ["23", "24", "12", "13", "1", "2", "7", "4", "5"], "time": [5935, 6969, 8579, 10989, 14433, 17685, 18984, 20954, 23387]}, "edge": {"target": [], "time": []}}, "mouseover": {"state": {"target": ["23", "24", "12", "12", "13", "13", "1", "2", "7", "4", "3", "5", "4", "7", "1", "2", "2", "13", "0", "12", "12"], "time": [5397, 6649, 7986, 8248, 9605, 10630, 14081, 15320, 18635, 20648, 22282, 23115, 26181, 26434, 28431, 31048, 31533, 31681, 32016, 34364, 34665]}, "edge": {"target": [], "time": []}}, "mouseout": {"state": {"target": ["0", "23", "24", "12", "12", "13", "13", "1", "2", "7", "4", "3", "5", "4", "7", "1", "2", "2", "13", "0", "12"], "time": [5331, 6613, 7936, 8050, 9253, 10446, 11840, 15269, 17905, 20214, 22198, 22818, 25664, 26314, 26699, 30947, 31147, 31546, 31696, 34349, 34398]}, "edge": {"target": [], "time": []}}}, "displayed_time": "55.10", "trialTime": 59570, "trial_type": "mouselab-mdp", "trial_index": 4, "time_elapsed": 536352, "internal_node_id": "0.0-2.0-2.0-0.0"}}, {"uniqueid": "w28105407:a41787817", "current_trial": 5, "dateTime": 1691146397405, "trialdata": {"revealed_states": [], "clicked_states": ["12", "23", "1", "2", "7", "3", "4", "5", "6", "8", "9", "10", "11", "13", "14", "15", "16", "18", "17", "19", "21", "20", "22", "24", "25", "30", "32", "26", "27", "28", "29"], "num_clicks_accrued": [0, 0, 0, 0, 0, 0, 0, 0, 0, 0, 0, 0, 0], "stateRewards": ["", -10, 10, 10, 10, -10, -10, -10, -10, -10, -10, -10, -10, 10, 10, -10, -10, -10, -10, -10, 10, -10, -10, -10, -10, -10, 10, -10, 10, 10, -10, -10, -10, -10], "withholdReward": false, "trial_id": "practice_2", "block": "test", "trialIndex": 1, "score": -22, "costs": -15.5, "simulationMode": [null, null, null, null, null], "rewards": [-10, -10, -10, 10, 10], "path": ["0", "0", "23", "24", "25", "26", "28"], "rt": [92000, 228, 369, 149, 3984], "actions": ["left", "left", "left", "up", "right"], "actionTimes": [95245, 95993, 96882, 97548, 102048], "queries": {"click": {"state": {"target": ["12", "23", "1", "2", "7", "3", "4", "5", "6", "8", "9", "10", "11", "13", "14", "15", "16", "18", "17", "19", "21", "20", "22", "24", "25", "30", "32", "26", "27", "28", "29"], "time": [6250, 8897, 11931, 14067, 17646, 19909, 22392, 24761, 27768, 30078, 31892, 35456, 37360, 40485, 42501, 44728, 47766, 49901, 51608, 53301, 55066, 57210, 58654, 65391, 66932, 68429, 69747, 72682, 73885, 77065, 78691]}, "edge": {"target": [], "time": []}}, "mouseover": {"state": {"target": ["12", "13", "0", "23", "24", "1", "2", "7", "3", "4", "5", "4", "6", "4", "3", "8", "9", "11", "10", "11", "0", "12", "13", "13", "14", "15", "16", "17", "16", "18", "15", "17", "19", "21", "20", "19", "22", "19", "12", "12", "23", "24", "25", "30", "32", "31", "24", "28", "26", "27", "25", "28", "26", "29", "24", "23", "0"], "time": [5076, 7149, 8041, 8108, 9614, 11427, 13062, 16025, 19427, 21735, 23976, 27166, 27249, 29468, 29496, 29802, 31546, 33731, 34963, 36964, 39694, 39792, 39909, 40150, 41363, 44476, 45707, 46843, 47445, 49543, 50644, 51295, 52315, 54443, 55695, 57658, 57777, 59729, 61849, 62943, 64777, 64909, 66261, 67926, 69416, 71526, 71892, 72043, 72159, 73477, 75660, 76309, 77628, 77844, 80344, 81177, 85776]}, "edge": {"target": [], "time": []}}, "mouseout": {"state": {"target": ["12", "0", "12", "12", "13", "12", "0", "23", "24", "1", "2", "7", "3", "4", "5", "4", "6", "4", "3", "8", "9", "8", "11", "10", "11", "10", "0", "12", "13", "13", "14", "15", "16", "17", "15", "16", "16", "18", "15", "17", "19", "21", "20", "19", "22", "19", "12", "12", "23", "24", "25", "30", "32", "31", "24", "28", "26", "27", "26", "25", "28", "26", "29", "24", "23", "0"], "time": [2074, 4210, 6471, 6897, 7976, 8026, 8076, 9564, 11243, 12604, 14530, 17855, 21093, 22607, 26660, 27212, 29464, 29480, 29529, 30297, 32837, 33581, 34635, 36469, 39244, 39380, 39758, 39807, 39927, 41095, 43960, 45431, 46393, 46993, 47246, 47980, 49243, 50530, 51128, 52150, 54198, 55630, 57640, 57711, 59684, 60926, 62125, 64725, 64842, 66133, 67595, 69110, 70876, 71793, 72009, 72092, 73276, 75509, 75593, 76226, 77612, 77662, 79644, 81062, 85725, 85860]}, "edge": {"target": [], "time": []}}}, "displayed_time": "102.56", "trialTime": 106161, "trial_type": "mouselab-mdp", "trial_index": 5, "time_elapsed": 642947, "internal_node_id": "0.0-2.0-2.0-1.0"}}, {"uniqueid": "w28105407:a41787817", "current_trial": 6, "dateTime": 1691146519279, "trialdata": {"view_history": [{"page_index": 0, "viewing_time": 104288}, {"page_index": 1, "viewing_time": 17583}], "rt": 121871, "trial_id": "mouselab_instructions_2_misaligned", "trial_type": "instructions", "trial_index": 6, "time_elapsed": 764822, "internal_node_id": "0.0-2.0-3.0"}}, {"uniqueid": "w28105407:a41787817", "current_trial": 7, "dateTime": 1691146581371, "trialdata": {"rt": 62083, "response": {"Q0": "The cost for clicking on nodes may vary between nodes.", "Q1": "The better I perform the higher my bonus will be.", "Q2": "No, the amount of cash at each node of the web may be different each time.", "Q3": "To get the highest total score.", "Q4": "Only before moving the spider.", "Q5": "3 seconds"}, "question_order": [0, 1, 2, 3, 4, 5], "correct": {"Q0": "The cost for clicking on nodes may vary between nodes.", "Q1": "The better I perform the higher my bonus will be.", "Q2": "No, the amount of cash at each node of the web may be different each time.", "Q3": "To get the highest total score.", "Q4": "Only before moving the spider.", "Q5": "3 seconds"}, "trial_id": "mouselab_quiz_misaligned", "trial_type": "survey-multi-choice", "trial_index": 7, "time_elapsed": 826914, "internal_node_id": "0.0-2.0-4.0"}}, {"uniqueid": "w28105407:a41787817", "current_trial": 8, "dateTime": 1691146608126, "trialdata": {"rt": 26745, "stimulus": "\n<h1> Get ready to start the game! </h1>\n\nThank you for reading the instructions. Get ready start with the 40 rounds of this game.\n<br><br>\nIf you need to take a break, feel free to take one after the end of a round, before continuing to the next one.\n<br><br>\nRemember, the more money the spider gets, the bigger your bonus will be!\n<br><br>\n<div style='text-align: center;'>Press <code>space</code> to begin.</div>\n\n<br><br>\n(If, at any point, the <code>space</code> key does not take you to the next page, click once on the text and try again.)", "response": " ", "trial_id": "mdp_ready", "trial_type": "html-keyboard-response", "trial_index": 8, "time_elapsed": 853669, "internal_node_id": "0.0-4.0-0.0"}}, {"uniqueid": "w28105407:a41787817", "current_trial": 9, "dateTime": 1691146652278, "trialdata": {"revealed_states": [], "clicked_states": ["13", "12", "23", "24", "25", "30", "33", "31", "32"], "num_clicks_accrued": [0, 0, 0, 0, 0, 0, 0, 0, 0, 0, 0, 0, 0], "stateRewards": ["", -2, -1, -4, -15, -14, -67, 32, -3, -59, 63, 31, 2, -1, -7, -15, 71, -66, -27, -3, -54, -39, 72, 2, 1, 1, -13, 77, -40, 35, -9, 35, 75, 57], "withholdReward": false, "trial_id": "mdp_trial_1", "block": "test", "trialIndex": 2, "score": 60.85, "costs": -9.15, "simulationMode": [null, null, null, null, null], "rewards": [2, 1, 1, -9, 75], "path": ["0", "0", "23", "24", "25", "30", "32"], "rt": [26841, 356, 328, 5202, 408], "actions": ["left", "left", "left", "down", "down"], "actionTimes": [29616, 30497, 31351, 37073, 38000], "queries": {"click": {"state": {"target": ["13", "12", "23", "24", "25", "30", "33", "31", "32"], "time": [5073, 5907, 7604, 8823, 10073, 11043, 12742, 16689, 20613]}, "edge": {"target": [], "time": []}}, "mouseover": {"state": {"target": ["12", "13", "12", "0", "23", "24", "25", "30", "32", "33", "32", "31", "32", "32"], "time": [4402, 4469, 5608, 7120, 7252, 8340, 9458, 10705, 11905, 12435, 13548, 15537, 17243, 17526]}, "edge": {"target": [], "time": []}}, "mouseout": {"state": {"target": ["0", "12", "13", "12", "0", "23", "24", "25", "30", "32", "33", "30", "32", "31", "32", "32"], "time": [4385, 4436, 5491, 7086, 7186, 8108, 9307, 10688, 11648, 12100, 13173, 13226, 15380, 17191, 17343, 22428]}, "edge": {"target": [], "time": []}}}, "displayed_time": "38.52", "trialTime": 43658, "trial_type": "mouselab-mdp", "trial_index": 9, "time_elapsed": 897820, "internal_node_id": "0.0-4.0-1.0-0.0"}}, {"uniqueid": "w28105407:a41787817", "current_trial": 10, "dateTime": 1691146681734, "trialdata": {"revealed_states": [], "clicked_states": ["12", "13", "14", "19", "21", "16", "18"], "num_clicks_accrued": [0, 0, 0, 0, 0, 0, 0, 0, 0, 0, 0, 0, 0], "stateRewards": ["", 1, 2, 8, -2, 23, -69, -18, -16, 54, -21, 71, -1, -4, 7, 11, 43, -6, 88, 6, -55, 72, 43, 1, -3, -2, -1, 68, -31, -54, 4, -8, 25, -2], "withholdReward": false, "trial_id": "mdp_trial_2", "block": "test", "trialIndex": 3, "score": 91.95, "costs": -9.05, "simulationMode": [null, null, null, null, null], "rewards": [-1, -4, 7, 11, 88], "path": ["0", "0", "12", "13", "14", "15", "18"], "rt": [20248, 247, 238, 621, 436], "actions": ["right", "right", "right", "up", "left"], "actionTimes": [22160, 22933, 23670, 24786, 25734], "queries": {"click": {"state": {"target": ["12", "13", "14", "19", "21", "16", "18"], "time": [3679, 4824, 6035, 7367, 8512, 12403, 15637]}, "edge": {"target": [], "time": []}}, "mouseover": {"state": {"target": ["12", "13", "14", "19", "21", "15", "16", "16", "15", "18", "15", "17"], "time": [2778, 4502, 5614, 6926, 7984, 9901, 10435, 11979, 13054, 15330, 16385, 16589]}, "edge": {"target": [], "time": []}}, "mouseout": {"state": {"target": ["0", "12", "13", "14", "19", "21", "15", "16", "16", "15", "18", "15", "17"], "time": [2761, 4184, 5320, 6752, 7900, 9117, 10201, 11562, 13001, 15245, 16350, 16453, 18234]}, "edge": {"target": [], "time": []}}}, "displayed_time": "26.23", "trialTime": 28938, "trial_type": "mouselab-mdp", "trial_index": 10, "time_elapsed": 927275, "internal_node_id": "0.0-4.0-1.0-1.0"}}, {"uniqueid": "w28105407:a41787817", "current_trial": 11, "dateTime": 1691146705904, "trialdata": {"revealed_states": [], "clicked_states": ["23", "32", "25", "30"], "num_clicks_accrued": [0, 0, 0, 0, 0, 0, 0, 0, 0, 0, 0, 0, 0], "stateRewards": ["", -2, 3, -1, -9, 44, 48, -37, -3, 71, -39, 87, -1, 3, -4, 4, -21, 59, -15, -8, -1, 28, -38, 2, 4, 4, 8, -85, -72, -63, 14, 58, 63, -46], "withholdReward": false, "trial_id": "mdp_trial_3", "block": "test", "trialIndex": 4, "score": 82.6, "costs": -4.3999999999999995, "simulationMode": [null, null, null, null, null], "rewards": [2, 4, 4, 14, 63], "path": ["0", "0", "23", "24", "25", "30", "32"], "rt": [15231, 192, 291, 452, 256], "actions": ["left", "left", "left", "down", "down"], "actionTimes": [17695, 18401, 19199, 20192, 20961], "queries": {"click": {"state": {"target": ["23", "32", "25", "30"], "time": [3865, 6364, 10970, 12470]}, "edge": {"target": [], "time": []}}, "mouseover": {"state": {"target": ["23", "31", "25", "30", "32", "33", "30", "25", "24", "25", "25", "30", "32", "21"], "time": [3058, 5188, 5638, 5754, 6055, 7153, 8473, 8955, 9322, 9971, 10538, 11493, 13626, 15339]}, "edge": {"target": [], "time": []}}, "mouseout": {"state": {"target": ["13", "12", "0", "23", "31", "25", "30", "32", "33", "30", "25", "24", "25", "25", "25", "30", "32"], "time": [1054, 1088, 3025, 4803, 5488, 5687, 5855, 6912, 8417, 8860, 9241, 9904, 10238, 11188, 11461, 13302, 14704]}, "edge": {"target": [], "time": []}}}, "displayed_time": "21.47", "trialTime": 23486, "trial_type": "mouselab-mdp", "trial_index": 11, "time_elapsed": 951447, "internal_node_id": "0.0-4.0-1.0-2.0"}}, {"uniqueid": "w28105407:a41787817", "current_trial": 12, "dateTime": 1691146744650, "trialdata": {"revealed_states": [], "clicked_states": ["16", "15", "21", "19", "32", "30", "25", "26", "27", "23"], "num_clicks_accrued": [0, 0, 0, 0, 0, 0, 0, 0, 0, 0, 0, 0, 0], "stateRewards": ["", 2, -3, -4, -1, 25, -16, 16, 10, -71, -20, -55, 1, 3, -4, -9, 1, 32, 11, -6, 32, -50, -41, -1, 4, 4, -8, 7, -81, 70, 2, -52, 45, -10], "withholdReward": false, "trial_id": "mdp_trial_4", "block": "test", "trialIndex": 5, "score": 38.5, "costs": -15.5, "simulationMode": [null, null, null, null, null], "rewards": [-1, 4, 4, 2, 45], "path": ["0", "0", "23", "24", "25", "30", "32"], "rt": [28250, 265, 245, 429, 164], "actions": ["left", "left", "left", "down", "down"], "actionTimes": [30262, 31046, 31791, 32740, 33424], "queries": {"click": {"state": {"target": ["16", "15", "21", "19", "32", "30", "25", "26", "27", "23"], "time": [3269, 8014, 9945, 13382, 14678, 18998, 20086, 21613, 22600, 26563]}, "edge": {"target": [], "time": []}}, "mouseover": {"state": {"target": ["18", "16", "15", "15", "15", "18", "13", "21", "21", "19", "32", "32", "30", "30", "30", "25", "24", "26", "27", "24", "23"], "time": [2611, 2942, 4053, 4816, 7560, 8895, 9366, 9417, 9609, 10843, 14074, 14320, 15531, 18007, 18693, 19481, 20640, 21134, 22113, 24387, 25843]}, "edge": {"target": [], "time": []}}, "mouseout": {"state": {"target": ["21", "0", "18", "16", "15", "15", "15", "18", "13", "21", "21", "19", "32", "32", "30", "30", "30", "25", "24", "26", "27", "24"], "time": [759, 1374, 2625, 4009, 4608, 7293, 8691, 9346, 9383, 9478, 10569, 13951, 14109, 15465, 17725, 18242, 19431, 20313, 20961, 22048, 23870, 25528]}, "edge": {"target": [], "time": []}}}, "displayed_time": "33.95", "trialTime": 38202, "trial_type": "mouselab-mdp", "trial_index": 12, "time_elapsed": 990191, "internal_node_id": "0.0-4.0-1.0-3.0"}}, {"uniqueid": "w28105407:a41787817", "current_trial": 13, "dateTime": 1691146784454, "trialdata": {"revealed_states": [], "clicked_states": ["5", "4", "3", "9", "8", "10", "27", "26", "25", "24", "30", "32"], "num_clicks_accrued": [0, 0, 0, 0, 0, 0, 0, 0, 0, 0, 0, 0, 0], "stateRewards": ["", -1, 4, 3, 12, -27, 34, -33, 3, -63, 1, 6, 2, 2, -6, -11, -77, -85, 68, -6, 51, 81, -60, -2, -2, 1, 15, 20, 15, 68, -10, -14, 6, -4], "withholdReward": false, "trial_id": "mdp_trial_5", "block": "test", "trialIndex": 6, "score": 12.8, "costs": -19.2, "simulationMode": [null, null, null, null, null], "rewards": [-2, -2, 1, 15, 20], "path": ["0", "0", "23", "24", "25", "26", "27"], "rt": [31084, 196, 235, 783, 280], "actions": ["left", "left", "left", "up", "up"], "actionTimes": [32630, 33349, 34104, 35400, 36199], "queries": {"click": {"state": {"target": ["5", "4", "3", "9", "8", "10", "27", "26", "25", "24", "30", "32"], "time": [2915, 6716, 7963, 9306, 13220, 14204, 17088, 19947, 21663, 23241, 24411, 25366]}, "edge": {"target": [], "time": []}}, "mouseover": {"state": {"target": ["1", "4", "5", "4", "4", "3", "8", "9", "8", "8", "10", "28", "27", "27", "26", "25", "24", "30", "32", "31"], "time": [2099, 2165, 2515, 3997, 6315, 7585, 8486, 8923, 10403, 12830, 13679, 14941, 15079, 16771, 17691, 21201, 22552, 24008, 24947, 28003]}, "edge": {"target": [], "time": []}}, "mouseout": {"state": {"target": ["23", "0", "1", "4", "5", "4", "4", "3", "8", "9", "9", "8", "8", "10", "28", "27", "27", "26", "25", "25", "24", "30", "30", "32", "32", "31"], "time": [698, 2068, 2115, 2415, 3703, 6049, 7186, 8435, 8877, 9533, 9971, 12597, 13631, 14836, 14991, 16518, 17626, 21031, 21811, 22324, 23821, 24634, 24912, 26259, 26900, 28071]}, "edge": {"target": [], "time": []}}}, "displayed_time": "36.70", "trialTime": 39345, "trial_type": "mouselab-mdp", "trial_index": 13, "time_elapsed": 1029996, "internal_node_id": "0.0-4.0-1.0-4.0"}}, {"uniqueid": "w28105407:a41787817", "current_trial": 14, "dateTime": 1691146827054, "trialdata": {"revealed_states": [], "clicked_states": ["27", "26", "32", "21", "16", "15", "14", "5", "9"], "num_clicks_accrued": [0, 0, 0, 0, 0, 0, 0, 0, 0, 0, 0, 0, 0], "stateRewards": ["", 1, -2, -3, 14, -42, -87, -37, -11, -50, 33, -44, -2, 4, -7, 13, 48, -75, -66, 12, 23, -2, 82, 1, -4, 3, 12, 51, -15, -26, -11, -52, -29, 82], "withholdReward": false, "trial_id": "mdp_trial_6", "block": "test", "trialIndex": 7, "score": 46.05, "costs": -16.95, "simulationMode": [null, null, null, null, null], "rewards": [1, -4, 3, 12, 51], "path": ["0", "0", "23", "24", "25", "26", "27"], "rt": [34316, 147, 106, 312, 19], "actions": ["left", "left", "left", "up", "up"], "actionTimes": [36215, 36880, 37502, 38326, 38866], "queries": {"click": {"state": {"target": ["27", "26", "32", "21", "16", "15", "14", "5", "9"], "time": [3435, 7977, 9778, 13900, 17360, 21702, 22888, 25337, 29843]}, "edge": {"target": [], "time": []}}, "mouseover": {"state": {"target": ["28", "27", "26", "26", "25", "30", "32", "30", "33", "30", "31", "21", "20", "14", "15", "16", "23", "1", "4", "5", "6", "15", "14", "13", "18", "4", "5", "9", "3", "2", "1", "10", "8", "1"], "time": [2813, 3164, 4216, 7694, 8529, 9098, 9412, 11218, 11609, 13178, 13210, 13377, 14747, 15876, 16466, 16828, 18375, 19550, 19999, 20378, 21043, 21395, 22336, 23893, 24494, 24811, 24995, 27213, 30938, 31216, 31417, 32290, 32414, 33212]}, "edge": {"target": [], "time": []}}, "mouseout": {"state": {"target": ["0", "0", "28", "27", "26", "26", "25", "30", "32", "30", "33", "30", "31", "21", "20", "14", "15", "16", "23", "1", "4", "5", "6", "15", "14", "13", "18", "4", "5", "5", "5", "9", "3", "2", "1", "10", "8", "1"], "time": [927, 2513, 2846, 4076, 7412, 8491, 9065, 9178, 10682, 11360, 13145, 13195, 13245, 14620, 15043, 16114, 16566, 17928, 19066, 19597, 20245, 21028, 21059, 22285, 23711, 24345, 24728, 24846, 25566, 26165, 26938, 30719, 31094, 31304, 31966, 32343, 33144, 33278]}, "edge": {"target": [], "time": []}}}, "displayed_time": "39.38", "trialTime": 42091, "trial_type": "mouselab-mdp", "trial_index": 14, "time_elapsed": 1072596, "internal_node_id": "0.0-4.0-1.0-5.0"}}, {"uniqueid": "w28105407:a41787817", "current_trial": 15, "dateTime": 1691146879832, "trialdata": {"revealed_states": [], "clicked_states": ["21", "32", "27", "16", "15", "5", "4", "6", "9", "8", "11"], "num_clicks_accrued": [0, 0, 0, 0, 0, 0, 0, 0, 0, 0, 0, 0, 0], "stateRewards": ["", -1, -2, 4, 9, 10, -75, 39, 16, -43, 88, -19, -1, 1, 2, 4, -31, 10, 73, 12, 41, -64, -81, -2, 2, -6, 1, -81, -1, -26, 3, -59, -3, -20], "withholdReward": false, "trial_id": "mdp_trial_7", "block": "test", "trialIndex": 8, "score": -1.8499999999999979, "costs": -21.849999999999998, "simulationMode": [null, null, null, null, null], "rewards": [-1, -2, 4, 9, 10], "path": ["0", "0", "1", "2", "3", "4", "5"], "rt": [42331, 169, 266, 456, 515], "actions": ["up", "up", "up", "right", "up"], "actionTimes": [44181, 44865, 45626, 46590, 47627], "queries": {"click": {"state": {"target": ["21", "32", "27", "16", "15", "5", "4", "6", "9", "8", "11"], "time": [3730, 8243, 12877, 17491, 20746, 22570, 26652, 28191, 32024, 35447, 36636]}, "edge": {"target": [], "time": []}}, "mouseover": {"state": {"target": ["12", "13", "14", "19", "21", "19", "20", "19", "22", "32", "30", "30", "33", "25", "26", "27", "28", "28", "26", "18", "16", "15", "15", "15", "15", "17", "15", "4", "5", "4", "9", "3", "4", "6", "7", "3", "8", "9", "8", "11", "10", "2", "2", "10", "2", "2", "2", "7", "23"], "time": [2776, 2959, 3043, 3243, 3376, 4841, 5498, 7410, 7477, 7959, 9174, 9402, 10949, 12108, 12176, 12477, 14290, 15092, 16427, 16779, 17198, 18266, 18636, 18915, 19374, 19675, 20120, 22027, 22093, 23754, 25644, 26059, 26260, 27507, 30147, 30604, 30715, 31410, 33666, 36465, 38720, 39207, 39478, 39677, 40360, 40976, 41477, 42028, 42494]}, "edge": {"target": [], "time": []}}, "mouseout": {"state": {"target": ["0", "12", "13", "14", "19", "21", "19", "20", "19", "22", "32", "30", "30", "33", "25", "26", "27", "28", "28", "26", "18", "16", "15", "15", "15", "15", "17", "15", "4", "5", "4", "9", "3", "4", "6", "7", "3", "8", "9", "8", "11", "11", "8", "10", "2", "2", "10", "2", "2", "2", "7", "23"], "time": [2744, 2809, 3010, 3192, 3293, 4449, 5417, 7214, 7443, 7492, 9086, 9211, 10776, 12093, 12142, 12227, 13534, 14739, 16344, 16696, 16800, 18216, 18399, 18686, 18982, 19586, 20075, 21613, 22042, 23472, 25544, 26026, 26110, 27304, 29099, 30191, 30666, 30733, 33465, 36419, 36857, 37666, 38066, 38754, 39268, 39611, 39893, 40544, 41311, 41512, 42127, 42509]}, "edge": {"target": [], "time": []}}}, "displayed_time": "48.15", "trialTime": 52186, "trial_type": "mouselab-mdp", "trial_index": 15, "time_elapsed": 1125375, "internal_node_id": "0.0-4.0-1.0-6.0"}}, {"uniqueid": "w28105407:a41787817", "current_trial": 16, "dateTime": 1691146900613, "trialdata": {"revealed_states": [], "clicked_states": ["21", "19", "14"], "num_clicks_accrued": [0, 0, 0, 0, 0, 0, 0, 0, 0, 0, 0, 0, 0], "stateRewards": ["", -2, -3, 1, -14, 48, -49, 67, -1, -35, -48, 3, -2, 1, -4, -5, 86, -84, 39, 1, 48, 41, -42, -1, -4, 2, -7, 18, -86, 17, 7, -9, 57, -69], "withholdReward": false, "trial_id": "mdp_trial_8", "block": "test", "trialIndex": 9, "score": 32.35, "costs": -4.65, "simulationMode": [null, null, null, null, null], "rewards": [-2, 1, -4, 1, 41], "path": ["0", "0", "12", "13", "14", "19", "21"], "rt": [12227, 412, 164, 278, 548], "actions": ["right", "right", "right", "down", "down"], "actionTimes": [14134, 15057, 15742, 16540, 17609], "queries": {"click": {"state": {"target": ["21", "19", "14"], "time": [3206, 7731, 9017]}, "edge": {"target": [], "time": []}}, "mouseover": {"state": {"target": ["21", "21", "22", "14", "15", "16", "15", "19", "19", "14", "15", "15", "13", "16"], "time": [2678, 2909, 5781, 5815, 6193, 6259, 7007, 7058, 7359, 8476, 9863, 10226, 10326, 11776]}, "edge": {"target": [], "time": []}}, "mouseout": {"state": {"target": ["0", "21", "21", "22", "14", "15", "16", "15", "19", "19", "14", "15", "15", "13"], "time": [2546, 2710, 4114, 5798, 5848, 6226, 6992, 7043, 7075, 8347, 9815, 9924, 10242, 11359]}, "edge": {"target": [], "time": []}}}, "displayed_time": "18.13", "trialTime": 20163, "trial_type": "mouselab-mdp", "trial_index": 16, "time_elapsed": 1146155, "internal_node_id": "0.0-4.0-1.0-7.0"}}, {"uniqueid": "w28105407:a41787817", "current_trial": 17, "dateTime": 1691146944746, "trialdata": {"revealed_states": [], "clicked_states": ["32", "21", "16", "5", "9", "27", "26", "8", "3", "2"], "num_clicks_accrued": [0, 0, 0, 0, 0, 0, 0, 0, 0, 0, 0, 0, 0], "stateRewards": ["", -2, -3, -6, -7, 9, 16, 65, 5, -41, 20, -25, -1, -4, 1, -11, -49, -4, 71, 1, 39, -62, 52, -2, -3, 7, -9, -28, -70, 84, 8, 24, -58, 82], "withholdReward": false, "trial_id": "mdp_trial_9", "block": "test", "trialIndex": 10, "score": -64.3, "costs": -17.3, "simulationMode": [null, null, null, null, null], "rewards": [-2, -3, -6, 5, -41], "path": ["0", "0", "1", "2", "3", "8", "9"], "rt": [30925, 278, 281, 326, 836], "actions": ["up", "up", "up", "left", "up"], "actionTimes": [33785, 34586, 35370, 36216, 37576], "queries": {"click": {"state": {"target": ["32", "21", "16", "5", "9", "27", "26", "8", "3", "2"], "time": [4346, 8823, 11616, 15069, 18108, 22087, 25623, 27590, 28919, 30018]}, "edge": {"target": [], "time": []}}, "mouseover": {"state": {"target": ["32", "21", "19", "14", "15", "16", "15", "18", "7", "4", "5", "9", "8", "8", "11", "27", "26", "26", "4", "3", "8", "3", "2", "1", "0", "12", "13"], "time": [4036, 6275, 9706, 10349, 10812, 11093, 13127, 13499, 14136, 14504, 14554, 17103, 19802, 20793, 21454, 21686, 23809, 24380, 26659, 27053, 27119, 28352, 29629, 31926, 32210, 32688, 32822]}, "edge": {"target": [], "time": []}}, "mouseout": {"state": {"target": ["16", "18", "0", "32", "21", "19", "14", "15", "16", "15", "18", "7", "4", "5", "9", "8", "8", "11", "27", "27", "26", "26", "4", "3", "8", "3", "2", "2", "1", "0", "12"], "time": [1002, 1036, 3669, 5191, 9493, 9784, 10726, 10961, 13093, 13180, 13619, 14169, 14519, 15806, 19234, 20159, 21420, 21588, 22302, 22883, 24013, 26207, 26887, 27104, 28142, 29560, 30253, 31788, 32026, 32379, 32773]}, "edge": {"target": [], "time": []}}}, "displayed_time": "38.09", "trialTime": 43491, "trial_type": "mouselab-mdp", "trial_index": 17, "time_elapsed": 1190289, "internal_node_id": "0.0-4.0-1.0-8.0"}}, {"uniqueid": "w28105407:a41787817", "current_trial": 18, "dateTime": 1691146986482, "trialdata": {"revealed_states": [], "clicked_states": ["21", "32", "19", "14", "13", "12", "16", "15", "20", "22"], "num_clicks_accrued": [0, 0, 0, 0, 0, 0, 0, 0, 0, 0, 0, 0, 0], "stateRewards": ["", -2, -3, 8, -4, -30, 31, 69, 9, 66, 87, 64, -2, 2, 8, 5, 47, 16, -39, -8, -54, 51, -19, 1, -2, -2, -11, -25, -26, 43, -9, 19, -84, 86], "withholdReward": false, "trial_id": "mdp_trial_10", "block": "test", "trialIndex": 11, "score": 36.1, "costs": -14.9, "simulationMode": [null, null, null, null, null], "rewards": [-2, 2, 8, -8, 51], "path": ["0", "0", "12", "13", "14", "19", "21"], "rt": [32583, 255, 130, 447, 222], "actions": ["right", "right", "right", "down", "down"], "actionTimes": [35002, 35772, 36426, 37391, 38135], "queries": {"click": {"state": {"target": ["21", "32", "19", "14", "13", "12", "16", "15", "20", "22"], "time": [3770, 7059, 10949, 12175, 13442, 14761, 17049, 21632, 23300, 28626]}, "edge": {"target": [], "time": []}}, "mouseover": {"state": {"target": ["22", "21", "21", "32", "14", "19", "22", "13", "14", "19", "14", "13", "12", "15", "16", "15", "17", "20", "14", "15", "20", "19", "22"], "time": [3092, 3161, 3493, 5885, 8707, 9266, 9682, 9978, 10261, 10594, 11670, 13049, 14337, 16431, 16565, 18059, 18583, 19809, 21078, 21242, 22552, 27876, 28127]}, "edge": {"target": [], "time": []}}, "mouseout": {"state": {"target": ["13", "12", "0", "0", "22", "21", "21", "32", "14", "19", "22", "13", "14", "19", "14", "13", "12", "13", "15", "16", "15", "17", "20", "14", "15", "20", "19", "22"], "time": [726, 793, 1159, 3044, 3127, 3226, 4570, 7750, 9033, 9630, 9820, 10094, 10311, 11214, 12973, 14322, 15683, 15809, 16516, 17851, 18244, 18678, 21028, 21091, 22365, 24155, 27959, 29231]}, "edge": {"target": [], "time": []}}}, "displayed_time": "38.65", "trialTime": 41184, "trial_type": "mouselab-mdp", "trial_index": 18, "time_elapsed": 1232025, "internal_node_id": "0.0-4.0-1.0-9.0"}}, {"uniqueid": "w28105407:a41787817", "current_trial": 19, "dateTime": 1691147028622, "trialdata": {"revealed_states": [], "clicked_states": ["16", "21", "32", "31", "33", "30", "25", "27"], "num_clicks_accrued": [0, 0, 0, 0, 0, 0, 0, 0, 0, 0, 0, 0, 0], "stateRewards": ["", -1, 1, -6, -1, 80, 23, 2, -11, 73, -81, 59, 1, 3, 5, -1, -26, 28, -3, 16, -59, -13, -50, -2, -2, 2, 15, -50, 86, 17, -4, 37, 35, 44], "withholdReward": false, "trial_id": "mdp_trial_11", "block": "test", "trialIndex": 12, "score": 22.6, "costs": -15.4, "simulationMode": [null, null, null, null, null], "rewards": [-2, -2, 2, -4, 44], "path": ["0", "0", "23", "24", "25", "30", "33"], "rt": [33277, 116, 376, 561, 429], "actions": ["left", "left", "left", "down", "left"], "actionTimes": [35221, 35855, 36732, 37814, 38766], "queries": {"click": {"state": {"target": ["16", "21", "32", "31", "33", "30", "25", "27"], "time": [3250, 7007, 9776, 14327, 19402, 24159, 26272, 28616]}, "edge": {"target": [], "time": []}}, "mouseover": {"state": {"target": ["15", "15", "16", "15", "14", "19", "21", "21", "32", "30", "25", "30", "31", "30", "33", "30", "25", "30", "25", "24", "26", "27", "28", "24", "24"], "time": [2590, 2702, 2984, 3939, 4357, 4917, 5971, 6684, 8757, 11900, 12332, 12752, 13201, 14991, 18935, 20131, 22867, 23785, 24706, 27004, 27584, 27949, 29842, 30440, 31835]}, "edge": {"target": [], "time": []}}, "mouseout": {"state": {"target": ["22", "0", "15", "15", "16", "15", "14", "19", "21", "21", "32", "30", "25", "30", "31", "31", "30", "33", "30", "25", "30", "25", "24", "26", "27", "27", "28", "24", "24"], "time": [1035, 2506, 2635, 2717, 3907, 3993, 4881, 5420, 6485, 7523, 11297, 11941, 12685, 13018, 14547, 14955, 18485, 19618, 21323, 23721, 24392, 26490, 27541, 27867, 28840, 29189, 30159, 31652, 31937]}, "edge": {"target": [], "time": []}}}, "displayed_time": "39.29", "trialTime": 41448, "trial_type": "mouselab-mdp", "trial_index": 19, "time_elapsed": 1274164, "internal_node_id": "0.0-4.0-1.0-10.0"}}, {"uniqueid": "w28105407:a41787817", "current_trial": 20, "dateTime": 1691147048239, "trialdata": {"revealed_states": [], "clicked_states": [], "num_clicks_accrued": [0, 0, 0, 0, 0, 0, 0, 0, 0, 0, 0, 0, 0], "stateRewards": ["", -1, 1, 6, -6, 70, 66, 67, -16, -75, -35, 37, -1, 4, 4, -6, 47, -9, 63, 15, 21, -63, 13, 1, 3, -6, 10, 79, -29, 18, -15, 9, -67, -19], "withholdReward": false, "trial_id": "mdp_trial_12", "block": "test", "trialIndex": 13, "score": -36, "costs": 0, "simulationMode": [null, null, null, null, null], "rewards": [1, 3, -6, -15, -19], "path": ["0", "0", "23", "24", "25", "30", "33"], "rt": [8819, 114, 107, 1668, 693], "actions": ["left", "left", "left", "down", "left"], "actionTimes": [10609, 11243, 11868, 14049, 15256], "queries": {"click": {"state": {"target": [], "time": []}, "edge": {"target": [], "time": []}}, "mouseover": {"state": {"target": ["12", "13", "22", "21"], "time": [4262, 4379, 4446, 4529]}, "edge": {"target": [], "time": []}}, "mouseout": {"state": {"target": ["0", "0", "12", "13", "22"], "time": [846, 4228, 4312, 4394, 4460]}, "edge": {"target": [], "time": []}}}, "displayed_time": "15.79", "trialTime": 18558, "trial_type": "mouselab-mdp", "trial_index": 20, "time_elapsed": 1293782, "internal_node_id": "0.0-4.0-1.0-11.0"}}, {"uniqueid": "w28105407:a41787817", "current_trial": 21, "dateTime": 1691147070313, "trialdata": {"revealed_states": [], "clicked_states": ["21", "32"], "num_clicks_accrued": [0, 0, 0, 0, 0, 0, 0, 0, 0, 0, 0, 0, 0], "stateRewards": ["", -1, 3, 8, 10, -86, 61, -36, 10, 17, -60, 24, -1, -3, 3, 11, 50, 60, 33, -3, -20, 58, -6, 1, -4, -4, 13, -70, -71, 43, 14, 52, 82, -11], "withholdReward": false, "trial_id": "mdp_trial_13", "block": "test", "trialIndex": 14, "score": 84.7, "costs": -4.3, "simulationMode": [null, null, null, null, null], "rewards": [1, -4, -4, 14, 82], "path": ["0", "0", "23", "24", "25", "30", "32"], "rt": [12857, 48, 137, 391, 101], "actions": ["left", "left", "left", "down", "down"], "actionTimes": [14741, 15311, 15981, 16885, 17495], "queries": {"click": {"state": {"target": ["21", "32"], "time": [3075, 8169]}, "edge": {"target": [], "time": []}}, "mouseover": {"state": {"target": ["0", "12", "21", "32", "32", "20", "14", "24", "24", "23", "24"], "time": [2361, 2385, 2742, 4860, 7908, 10085, 11026, 12226, 12609, 12662, 13243]}, "edge": {"target": [], "time": []}}, "mouseout": {"state": {"target": ["21", "0", "0", "12", "21", "32", "32", "20", "14", "24", "24", "23", "24"], "time": [795, 1208, 2381, 2409, 3786, 6743, 8792, 10239, 12044, 12241, 12660, 12675, 13462]}, "edge": {"target": [], "time": []}}}, "displayed_time": "18.01", "trialTime": 21463, "trial_type": "mouselab-mdp", "trial_index": 21, "time_elapsed": 1315855, "internal_node_id": "0.0-4.0-1.0-12.0"}}, {"uniqueid": "w28105407:a41787817", "current_trial": 22, "dateTime": 1691147105259, "trialdata": {"revealed_states": [], "clicked_states": ["21", "32", "31", "33", "20", "22"], "num_clicks_accrued": [0, 0, 0, 0, 0, 0, 0, 0, 0, 0, 0, 0, 0], "stateRewards": ["", -2, -3, -5, 8, 27, 11, 43, -6, -24, -87, 69, -2, 1, 1, 9, 19, 48, -37, 9, -14, 45, 62, 1, 2, 1, 16, -81, -41, 22, 4, -6, -63, 47], "withholdReward": false, "trial_id": "mdp_trial_14", "block": "test", "trialIndex": 15, "score": 58.1, "costs": -12.9, "simulationMode": [null, null, null, null, null], "rewards": [-2, 1, 1, 9, 62], "path": ["0", "0", "12", "13", "14", "19", "22"], "rt": [24690, 725, 327, 345, 269], "actions": ["right", "right", "right", "down", "left"], "actionTimes": [26928, 28179, 29028, 29896, 30690], "queries": {"click": {"state": {"target": ["21", "32", "31", "33", "20", "22"], "time": [3416, 6862, 10416, 13438, 17396, 20721]}, "edge": {"target": [], "time": []}}, "mouseover": {"state": {"target": ["21", "21", "32", "31", "30", "33", "30", "20", "19", "22", "19", "16"], "time": [2866, 3031, 5753, 10165, 10936, 11005, 14339, 15737, 17938, 18208, 21404, 22716]}, "edge": {"target": [], "time": []}}, "mouseout": {"state": {"target": ["0", "21", "21", "32", "31", "30", "33", "30", "31", "20", "19", "22", "19", "16"], "time": [2802, 2899, 4470, 7421, 10920, 10970, 14306, 14359, 14438, 17887, 18138, 20940, 21421, 24266]}, "edge": {"target": [], "time": []}}}, "displayed_time": "31.20", "trialTime": 34082, "trial_type": "mouselab-mdp", "trial_index": 22, "time_elapsed": 1350801, "internal_node_id": "0.0-4.0-1.0-13.0"}}, {"uniqueid": "w28105407:a41787817", "current_trial": 23, "dateTime": 1691147138415, "trialdata": {"revealed_states": [], "clicked_states": ["21", "20", "22", "16", "17", "18"], "num_clicks_accrued": [0, 0, 0, 0, 0, 0, 0, 0, 0, 0, 0, 0, 0], "stateRewards": ["", 1, 3, 1, -13, 52, -28, 67, -14, 3, 63, -70, -1, -4, 7, -11, -10, 47, -18, 6, 69, -9, -61, 2, 3, -6, 10, 63, -34, 40, -6, -79, -35, -32], "withholdReward": false, "trial_id": "mdp_trial_15", "block": "test", "trialIndex": 16, "score": 64.1, "costs": -12.9, "simulationMode": [null, null, null, null, null], "rewards": [-1, -4, 7, 6, 69], "path": ["0", "0", "12", "13", "14", "19", "20"], "rt": [24868, 94, 84, 506, 274], "actions": ["right", "right", "right", "down", "right"], "actionTimes": [26734, 27339, 27930, 28939, 29732], "queries": {"click": {"state": {"target": ["21", "20", "22", "16", "17", "18"], "time": [3166, 6285, 10029, 13941, 17426, 20469]}, "edge": {"target": [], "time": []}}, "mouseover": {"state": {"target": ["12", "22", "21", "19", "20", "19", "22", "22", "14", "14", "14", "15", "16", "17", "15", "18", "13"], "time": [2508, 2558, 2891, 4184, 4395, 6963, 6997, 7349, 10813, 11608, 11981, 13342, 13576, 14855, 17910, 18280, 21465]}, "edge": {"target": [], "time": []}}, "mouseout": {"state": {"target": ["13", "12", "12", "22", "21", "19", "20", "19", "22", "22", "14", "14", "14", "15", "16", "17", "15", "18", "13"], "time": [807, 1090, 2524, 2592, 3389, 4363, 6515, 6989, 7023, 10606, 11548, 11627, 13292, 13393, 14517, 17880, 17948, 21416, 21500]}, "edge": {"target": [], "time": []}}}, "displayed_time": "30.25", "trialTime": 32514, "trial_type": "mouselab-mdp", "trial_index": 23, "time_elapsed": 1383958, "internal_node_id": "0.0-4.0-1.0-14.0"}}, {"uniqueid": "w28105407:a41787817", "current_trial": 24, "dateTime": 1691147193295, "trialdata": {"revealed_states": [], "clicked_states": ["27", "29", "28", "32", "33", "31", "21", "22", "20", "16", "17", "18"], "num_clicks_accrued": [0, 0, 0, 0, 0, 0, 0, 0, 0, 0, 0, 0, 0], "stateRewards": ["", 2, 3, -1, 6, 44, -4, -59, -14, -3, 64, 16, 1, -3, 3, 6, 3, 49, 19, 3, -49, -14, -86, 1, 2, -3, -8, -33, 14, 32, -13, -77, -47, -67], "withholdReward": false, "trial_id": "mdp_trial_16", "block": "test", "trialIndex": 17, "score": 30.200000000000006, "costs": -25.799999999999994, "simulationMode": [null, null, null, null, null], "rewards": [1, -3, 3, 6, 49], "path": ["0", "0", "12", "13", "14", "15", "17"], "rt": [45398, 396, 157, 593, 118], "actions": ["right", "right", "right", "up", "right"], "actionTimes": [47594, 48506, 49178, 50290, 50941], "queries": {"click": {"state": {"target": ["27", "29", "28", "32", "33", "31", "21", "22", "20", "16", "17", "18"], "time": [3945, 7449, 10862, 14260, 17632, 21008, 24584, 27898, 31811, 35107, 38446, 41443]}, "edge": {"target": [], "time": []}}, "mouseover": {"state": {"target": ["23", "24", "25", "26", "27", "26", "25", "29", "26", "28", "32", "32", "33", "30", "31", "31", "21", "22", "19", "20", "19", "14", "15", "16", "17", "15", "18"], "time": [3093, 3140, 3192, 3559, 3624, 4614, 4748, 5237, 7955, 8065, 11404, 11685, 15124, 18130, 18206, 18490, 21931, 25389, 28382, 28505, 32654, 32860, 33028, 33510, 35918, 39037, 39964]}, "edge": {"target": [], "time": []}}, "mouseout": {"state": {"target": ["0", "23", "24", "25", "26", "27", "26", "25", "29", "26", "28", "32", "32", "33", "30", "31", "31", "21", "22", "19", "20", "19", "14", "15", "16", "17", "15"], "time": [3091, 3124, 3156, 3507, 3590, 4514, 4708, 5163, 7928, 7995, 11323, 11438, 14766, 18097, 18166, 18227, 21531, 25114, 28346, 28419, 32614, 32724, 32972, 33487, 35598, 38965, 39596]}, "edge": {"target": [], "time": []}}}, "displayed_time": "51.49", "trialTime": 54059, "trial_type": "mouselab-mdp", "trial_index": 24, "time_elapsed": 1438837, "internal_node_id": "0.0-4.0-1.0-15.0"}}, {"uniqueid": "w28105407:a41787817", "current_trial": 25, "dateTime": 1691147227841, "trialdata": {"revealed_states": [], "clicked_states": ["9", "11", "5", "6", "3", "10"], "num_clicks_accrued": [0, 0, 0, 0, 0, 0, 0, 0, 0, 0, 0, 0, 0], "stateRewards": ["", 2, 4, 4, 9, -88, -10, 44, 16, -54, 64, 78, 1, 2, 5, 16, 80, 36, 7, -4, 9, -47, -70, -1, -3, 6, -16, 11, 80, 28, 8, -1, 34, -17], "withholdReward": false, "trial_id": "mdp_trial_17", "block": "test", "trialIndex": 18, "score": 92.3, "costs": -11.7, "simulationMode": [null, null, null, null, null], "rewards": [2, 4, 4, 16, 78], "path": ["0", "0", "1", "2", "3", "8", "11"], "rt": [24265, 104, 325, 623, 453], "actions": ["up", "up", "up", "left", "left"], "actionTimes": [25988, 26603, 27445, 28580, 29545], "queries": {"click": {"state": {"target": ["9", "11", "5", "6", "3", "10"], "time": [3007, 5884, 10519, 14071, 17403, 19077]}, "edge": {"target": [], "time": []}}, "mouseover": {"state": {"target": ["9", "11", "8", "3", "4", "6", "5", "6", "3", "10", "2", "7", "18", "16"], "time": [2601, 3989, 6904, 7247, 7688, 7851, 8071, 11241, 15137, 18583, 20108, 20418, 21207, 21782]}, "edge": {"target": [], "time": []}}, "mouseout": {"state": {"target": ["18", "12", "0", "9", "11", "8", "3", "4", "6", "5", "6", "3", "10", "2", "7", "18", "16"], "time": [714, 763, 2373, 3672, 6780, 7020, 7545, 7788, 8030, 11041, 14586, 18467, 20057, 20236, 20594, 21690, 21844]}, "edge": {"target": [], "time": []}}}, "displayed_time": "30.07", "trialTime": 33946, "trial_type": "mouselab-mdp", "trial_index": 25, "time_elapsed": 1473384, "internal_node_id": "0.0-4.0-1.0-16.0"}}, {"uniqueid": "w28105407:a41787817", "current_trial": 26, "dateTime": 1691147248493, "trialdata": {"revealed_states": [], "clicked_states": ["11", "9"], "num_clicks_accrued": [0, 0, 0, 0, 0, 0, 0, 0, 0, 0, 0, 0, 0], "stateRewards": ["", -2, 2, 5, -14, -56, 64, 84, -5, 52, 39, 85, -2, 1, 7, 8, 21, 29, -78, -9, -10, -69, 10, -2, -1, -7, 15, 72, 20, 41, -2, 52, 80, 22], "withholdReward": false, "trial_id": "mdp_trial_18", "block": "test", "trialIndex": 19, "score": 80.7, "costs": -4.3, "simulationMode": [null, null, null, null, null], "rewards": [-2, 2, 5, -5, 85], "path": ["0", "0", "1", "2", "3", "8", "11"], "rt": [11536, 64, 314, 282, 248], "actions": ["up", "up", "up", "left", "left"], "actionTimes": [14196, 14765, 15584, 16384, 17139], "queries": {"click": {"state": {"target": ["11", "9"], "time": [3807, 7835]}, "edge": {"target": [], "time": []}}, "mouseover": {"state": {"target": ["10", "11", "9", "3"], "time": [3232, 3299, 4714, 8922]}, "edge": {"target": [], "time": []}}, "mouseout": {"state": {"target": ["12", "0", "10", "11", "9"], "time": [1282, 3182, 3247, 4387, 8583]}, "edge": {"target": [], "time": []}}}, "displayed_time": "17.66", "trialTime": 19915, "trial_type": "mouselab-mdp", "trial_index": 26, "time_elapsed": 1494035, "internal_node_id": "0.0-4.0-1.0-17.0"}}, {"uniqueid": "w28105407:a41787817", "current_trial": 27, "dateTime": 1691147301030, "trialdata": {"revealed_states": [], "clicked_states": ["11", "9", "10", "7", "6", "5", "27", "29", "28", "32", "33"], "num_clicks_accrued": [0, 0, 0, 0, 0, 0, 0, 0, 0, 0, 0, 0, 0], "stateRewards": ["", 2, 4, 4, -8, -36, -33, 38, 16, -51, 57, 57, 1, 3, 4, -6, 45, 68, 87, 1, 63, 24, -55, -2, 2, -6, -13, -63, -50, 8, 2, 80, 6, 60], "withholdReward": false, "trial_id": "mdp_trial_19", "block": "test", "trialIndex": 20, "score": 32.35000000000001, "costs": -23.649999999999995, "simulationMode": [null, null, null, null, null], "rewards": [-2, 2, -6, 2, 60], "path": ["0", "0", "23", "24", "25", "30", "33"], "rt": [43407, 205, 70, 599, 608], "actions": ["left", "left", "left", "down", "left"], "actionTimes": [45302, 46020, 46601, 47728, 48857], "queries": {"click": {"state": {"target": ["11", "9", "10", "7", "6", "5", "27", "29", "28", "32", "33"], "time": [3374, 7884, 11183, 15203, 18655, 22000, 26803, 30165, 33583, 36861, 40407]}, "edge": {"target": [], "time": []}}, "mouseover": {"state": {"target": ["9", "11", "8", "3", "4", "6", "4", "5", "9", "3", "10", "2", "7", "7", "6", "5", "4", "2", "26", "26", "27", "29", "26", "28", "24", "32", "33", "30", "31"], "time": [2744, 3027, 3936, 4103, 4347, 4552, 7144, 7212, 7478, 8489, 9707, 11927, 12917, 14195, 16130, 19367, 22670, 25679, 25746, 26255, 26491, 28618, 30667, 30903, 34133, 34434, 38153, 40896, 40980]}, "edge": {"target": [], "time": []}}, "mouseout": {"state": {"target": ["3", "1", "12", "0", "9", "11", "8", "3", "4", "6", "4", "5", "9", "3", "10", "2", "7", "7", "6", "5", "4", "2", "26", "26", "27", "29", "26", "28", "24", "32", "33", "30", "31"], "time": [577, 696, 1032, 2428, 2895, 3595, 4032, 4199, 4481, 7127, 7161, 7379, 8400, 9651, 11795, 12453, 13654, 15786, 19257, 22620, 22760, 25695, 25761, 26368, 28104, 30630, 30727, 34099, 34162, 37350, 40863, 40937, 44129]}, "edge": {"target": [], "time": []}}}, "displayed_time": "49.38", "trialTime": 51747, "trial_type": "mouselab-mdp", "trial_index": 27, "time_elapsed": 1546572, "internal_node_id": "0.0-4.0-1.0-18.0"}}, {"uniqueid": "w28105407:a41787817", "current_trial": 28, "dateTime": 1691147357184, "trialdata": {"revealed_states": [], "clicked_states": ["11", "9", "5", "6", "16", "17", "18", "21", "20", "22", "32", "31", "33"], "num_clicks_accrued": [0, 0, 0, 0, 0, 0, 0, 0, 0, 0, 0, 0, 0], "stateRewards": ["", -1, -4, 8, 8, -68, 47, 24, -7, -61, 49, -69, -1, -1, 8, -7, 42, 1, -45, -11, 10, -63, -6, 1, 4, 6, -16, 79, -37, -58, -12, 81, 18, -53], "withholdReward": false, "trial_id": "mdp_trial_20", "block": "test", "trialIndex": 21, "score": 52.05000000000001, "costs": -27.949999999999992, "simulationMode": [null, null, null, null, null], "rewards": [1, 4, 6, -12, 81], "path": ["0", "0", "23", "24", "25", "30", "31"], "rt": [46524, 21, 458, 856, 580], "actions": ["left", "left", "left", "down", "right"], "actionTimes": [48207, 48733, 49694, 51101, 52195], "queries": {"click": {"state": {"target": ["11", "9", "5", "6", "16", "17", "18", "21", "20", "22", "32", "31", "33"], "time": [3256, 6920, 10020, 13029, 17217, 20615, 24000, 27580, 31047, 34615, 38499, 42137, 45287]}, "edge": {"target": [], "time": []}}, "mouseover": {"state": {"target": ["10", "11", "9", "5", "6", "16", "17", "18", "13", "21", "20", "19", "22", "32", "31", "30", "33"], "time": [2480, 2880, 6597, 7562, 10798, 13837, 17827, 22470, 24570, 24693, 28203, 31615, 31994, 38219, 39362, 42613, 42745]}, "edge": {"target": [], "time": []}}, "mouseout": {"state": {"target": ["0", "10", "11", "9", "5", "6", "16", "17", "18", "13", "21", "20", "19", "22", "32", "31", "30"], "time": [2414, 2513, 3470, 7486, 10652, 13775, 17709, 21189, 24553, 24588, 28106, 31597, 31824, 35214, 39114, 42594, 42654]}, "edge": {"target": [], "time": []}}}, "displayed_time": "52.72", "trialTime": 55254, "trial_type": "mouselab-mdp", "trial_index": 28, "time_elapsed": 1602726, "internal_node_id": "0.0-4.0-1.0-19.0"}}, {"uniqueid": "w28105407:a41787817", "current_trial": 29, "dateTime": 1691147401791, "trialdata": {"revealed_states": [], "clicked_states": ["27", "29", "28", "17", "18", "16", "5", "9"], "num_clicks_accrued": [0, 0, 0, 0, 0, 0, 0, 0, 0, 0, 0, 0, 0], "stateRewards": ["", 2, 1, -3, 7, 46, 11, -36, 16, 71, 5, 1, 2, -2, -8, -3, -4, 6, 55, 7, 68, -54, 2, 1, 1, 6, -6, 42, -4, -84, -11, -65, 63, 25], "withholdReward": false, "trial_id": "mdp_trial_21", "block": "test", "trialIndex": 22, "score": 69.8, "costs": -17.2, "simulationMode": [null, null, null, null, null], "rewards": [2, 1, -3, 16, 71], "path": ["0", "0", "1", "2", "3", "8", "9"], "rt": [35079, 368, 106, 709, 411], "actions": ["up", "up", "up", "left", "up"], "actionTimes": [37435, 38314, 38920, 40126, 41077], "queries": {"click": {"state": {"target": ["27", "29", "28", "17", "18", "16", "5", "9"], "time": [3996, 8101, 11459, 14830, 18254, 21969, 26516, 31284]}, "edge": {"target": [], "time": []}}, "mouseover": {"state": {"target": ["23", "24", "28", "27", "24", "31", "25", "11", "11", "28", "26", "29", "26", "28", "23", "18", "15", "17", "15", "18", "16", "15", "4", "5", "4", "3", "9", "9", "4", "6"], "time": [3145, 3261, 3314, 3711, 5218, 5302, 5768, 6677, 7078, 7444, 7595, 7777, 8630, 8759, 12818, 12885, 12920, 13451, 15331, 15379, 18858, 25512, 25695, 26097, 30328, 30395, 30478, 30811, 31976, 32207]}, "edge": {"target": [], "time": []}}, "mouseout": {"state": {"target": ["33", "24", "1", "0", "0", "23", "24", "28", "27", "24", "31", "25", "11", "11", "28", "26", "29", "26", "28", "23", "18", "15", "17", "15", "18", "16", "15", "4", "5", "4", "3", "9", "9", "4", "6"], "time": [695, 728, 761, 1079, 3112, 3163, 3311, 3328, 4592, 5261, 5683, 5803, 6726, 7261, 7511, 7695, 8319, 8693, 12087, 12836, 12903, 13417, 15288, 15369, 18770, 25163, 25596, 26029, 27290, 30360, 30410, 30561, 31836, 32141, 34950]}, "edge": {"target": [], "time": []}}}, "displayed_time": "41.59", "trialTime": 43792, "trial_type": "mouselab-mdp", "trial_index": 29, "time_elapsed": 1647334, "internal_node_id": "0.0-4.0-1.0-20.0"}}, {"uniqueid": "w28105407:a41787817", "current_trial": 30, "dateTime": 1691147456354, "trialdata": {"revealed_states": [], "clicked_states": ["16", "21", "20", "32", "27", "9", "11", "10", "7", "6", "5"], "num_clicks_accrued": [0, 0, 0, 0, 0, 0, 0, 0, 0, 0, 0, 0, 0], "stateRewards": ["", -2, 1, -7, 9, 8, 25, 61, -7, -17, 69, -81, 1, 4, -4, -11, 16, 67, 44, 3, 6, -45, -54, -2, 3, 6, -11, -15, 32, -47, 3, -39, -6, -88], "withholdReward": false, "trial_id": "mdp_trial_22", "block": "test", "trialIndex": 23, "score": 30.35000000000001, "costs": -23.649999999999995, "simulationMode": [null, null, null, null, null], "rewards": [-2, 1, -7, -7, 69], "path": ["0", "0", "1", "2", "3", "8", "10"], "rt": [45643, 150, 150, 405, 554], "actions": ["up", "up", "up", "left", "down"], "actionTimes": [47880, 48553, 49218, 50142, 51205], "queries": {"click": {"state": {"target": ["16", "21", "20", "32", "27", "9", "11", "10", "7", "6", "5"], "time": [4789, 8214, 11720, 15883, 19736, 23692, 27659, 30975, 34944, 38397, 41775]}, "edge": {"target": [], "time": []}}, "mouseover": {"state": {"target": ["12", "13", "14", "14", "15", "16", "15", "14", "19", "21", "20", "20", "22", "32", "31", "31", "30", "25", "26", "26", "25", "25", "26", "27", "28", "28", "10", "8", "9", "9", "3", "8", "11", "10", "2", "7", "6", "5", "4", "6"], "time": [3216, 3288, 3865, 4183, 4249, 4515, 6320, 6610, 6680, 6782, 9386, 9982, 12469, 15601, 16683, 16938, 17575, 18076, 18452, 18883, 18949, 19117, 19149, 19234, 21507, 21784, 23085, 23117, 23201, 23404, 24955, 27167, 27234, 28767, 31492, 31565, 36200, 39181, 42814, 45453]}, "edge": {"target": [], "time": []}}, "mouseout": {"state": {"target": ["12", "0", "12", "13", "14", "14", "15", "16", "15", "14", "19", "21", "20", "20", "22", "32", "31", "31", "30", "25", "26", "26", "25", "25", "26", "27", "28", "28", "10", "8", "9", "9", "3", "8", "11", "10", "2", "7", "6", "5", "4", "6"], "time": [834, 3150, 3249, 3832, 3916, 4215, 4433, 6223, 6537, 6664, 6732, 8947, 9665, 12209, 15266, 16607, 16814, 17458, 17915, 18198, 18544, 18917, 18983, 19132, 19182, 19942, 21666, 22182, 23100, 23150, 23235, 24386, 27135, 27201, 28217, 31475, 31527, 36074, 39075, 42480, 43244, 45469]}, "edge": {"target": [], "time": []}}}, "displayed_time": "51.72", "trialTime": 53742, "trial_type": "mouselab-mdp", "trial_index": 30, "time_elapsed": 1701896, "internal_node_id": "0.0-4.0-1.0-21.0"}}, {"uniqueid": "w28105407:a41787817", "current_trial": 31, "dateTime": 1691147474664, "trialdata": {"revealed_states": [], "clicked_states": ["32"], "num_clicks_accrued": [0, 0, 0, 0, 0, 0, 0, 0, 0, 0, 0, 0, 0], "stateRewards": ["", 2, 3, -2, -8, -8, -41, 74, 15, -23, -80, 1, 1, 3, 3, -15, -63, -78, 67, 13, 75, -41, 86, 2, -2, 6, -3, -8, -49, 50, -6, 83, 74, 80], "withholdReward": false, "trial_id": "mdp_trial_23", "block": "test", "trialIndex": 24, "score": 71.85, "costs": -2.15, "simulationMode": [null, null, null, null, null], "rewards": [2, -2, 6, -6, 74], "path": ["0", "0", "23", "24", "25", "30", "32"], "rt": [7883, 170, 54, 414, 196], "actions": ["left", "left", "left", "down", "down"], "actionTimes": [9821, 10505, 11086, 12032, 12750], "queries": {"click": {"state": {"target": ["32"], "time": [3642]}, "edge": {"target": [], "time": []}}, "mouseover": {"state": {"target": ["23", "31", "30", "32", "21"], "time": [2852, 2951, 3069, 3156, 4879]}, "edge": {"target": [], "time": []}}, "mouseout": {"state": {"target": ["23", "31", "30", "32"], "time": [2918, 3034, 3122, 4255]}, "edge": {"target": [], "time": []}}}, "displayed_time": "15.94", "trialTime": 17553, "trial_type": "mouselab-mdp", "trial_index": 31, "time_elapsed": 1720206, "internal_node_id": "0.0-4.0-1.0-22.0"}}, {"uniqueid": "w28105407:a41787817", "current_trial": 32, "dateTime": 1691147531569, "trialdata": {"revealed_states": [], "clicked_states": ["32", "21", "16", "20", "22", "27", "28", "29", "9", "11", "10", "5"], "num_clicks_accrued": [0, 0, 0, 0, 0, 0, 0, 0, 0, 0, 0, 0, 0], "stateRewards": ["", -2, 4, -5, -12, 85, -24, -18, -15, -78, -22, 26, -1, -1, 2, 14, -45, 52, -23, 7, -33, 24, -6, -2, -4, 5, -7, -16, 36, -39, 5, 71, -87, -23], "withholdReward": false, "trial_id": "mdp_trial_24", "block": "test", "trialIndex": 25, "score": 44.2, "costs": -25.799999999999994, "simulationMode": [null, null, null, null, null], "rewards": [-2, 4, -5, -12, 85], "path": ["0", "0", "1", "2", "3", "4", "5"], "rt": [47397, 576, 196, 447, 468], "actions": ["up", "up", "up", "right", "up"], "actionTimes": [49424, 50524, 51243, 52226, 53219], "queries": {"click": {"state": {"target": ["32", "21", "16", "20", "22", "27", "28", "29", "9", "11", "10", "5"], "time": [4300, 8185, 12098, 15679, 19301, 22594, 26017, 29534, 32877, 36251, 39897, 43283]}, "edge": {"target": [], "time": []}}, "mouseover": {"state": {"target": ["32", "21", "21", "15", "16", "17", "20", "19", "22", "24", "26", "27", "28", "26", "29", "26", "10", "8", "9", "4", "3", "8", "11", "2", "10", "2", "4", "5", "6"], "time": [3992, 5572, 7409, 9458, 9653, 12897, 15327, 16211, 16361, 20203, 20375, 20783, 23269, 26546, 26663, 30158, 30875, 30927, 30998, 34500, 34918, 35330, 35612, 37909, 38924, 40323, 40565, 41149, 43983]}, "edge": {"target": [], "time": []}}, "mouseout": {"state": {"target": ["21", "0", "32", "21", "21", "15", "16", "17", "20", "19", "22", "24", "26", "27", "28", "26", "29", "26", "10", "8", "9", "4", "3", "8", "11", "2", "10", "2", "4", "5"], "time": [941, 1441, 4851, 5800, 8755, 9513, 12752, 13049, 16189, 16307, 19766, 20239, 20430, 23162, 26525, 26642, 30120, 30191, 30910, 30964, 33408, 34884, 34991, 35503, 36711, 38636, 40303, 40362, 40999, 43823]}, "edge": {"target": [], "time": []}}}, "displayed_time": "53.75", "trialTime": 56200, "trial_type": "mouselab-mdp", "trial_index": 32, "time_elapsed": 1777111, "internal_node_id": "0.0-4.0-1.0-23.0"}}, {"uniqueid": "w28105407:a41787817", "current_trial": 33, "dateTime": 1691147582571, "trialdata": {"revealed_states": [], "clicked_states": ["5", "9", "27", "32", "21", "20", "22", "16", "17", "18"], "num_clicks_accrued": [0, 0, 0, 0, 0, 0, 0, 0, 0, 0, 0, 0, 0], "stateRewards": ["", -1, 4, -6, -5, -22, -38, -38, -2, -56, 88, 14, -1, -1, -7, -6, 61, -60, 21, 11, 57, 31, -30, -2, -2, 6, -9, -44, -70, -44, -15, 34, 16, -78], "withholdReward": false, "trial_id": "mdp_trial_25", "block": "test", "trialIndex": 26, "score": 24.5, "costs": -21.499999999999996, "simulationMode": [null, null, null, null, null], "rewards": [-1, -1, -7, -6, 61], "path": ["0", "0", "12", "13", "14", "15", "16"], "rt": [42603, 457, 66, 450, 657], "actions": ["right", "right", "right", "up", "up"], "actionTimes": [44770, 45752, 46328, 47297, 48469], "queries": {"click": {"state": {"target": ["5", "9", "27", "32", "21", "20", "22", "16", "17", "18"], "time": [3431, 6899, 10799, 14126, 18255, 22046, 25831, 29596, 34308, 38133]}, "edge": {"target": [], "time": []}}, "mouseover": {"state": {"target": ["5", "5", "9", "27", "26", "25", "30", "32", "21", "21", "20", "20", "19", "22", "14", "17", "16", "17", "17", "18", "15"], "time": [2761, 3110, 4766, 9516, 11339, 11459, 11927, 12025, 14709, 15113, 18909, 21693, 22541, 22713, 26407, 26480, 26792, 30275, 33919, 37810, 38753]}, "edge": {"target": [], "time": []}}, "mouseout": {"state": {"target": ["6", "7", "1", "0", "0", "5", "5", "9", "27", "26", "25", "30", "32", "21", "21", "20", "20", "19", "22", "14", "17", "16", "17", "17", "18", "15"], "time": [624, 675, 709, 791, 2680, 2794, 4036, 7395, 11291, 11427, 11532, 11963, 14601, 14746, 18807, 19617, 22508, 22624, 26370, 26425, 26533, 30216, 30311, 34850, 38751, 38769]}, "edge": {"target": [], "time": []}}}, "displayed_time": "48.98", "trialTime": 50301, "trial_type": "mouselab-mdp", "trial_index": 33, "time_elapsed": 1828114, "internal_node_id": "0.0-4.0-1.0-24.0"}}, {"uniqueid": "w28105407:a41787817", "current_trial": 34, "dateTime": 1691147647694, "trialdata": {"revealed_states": [], "clicked_states": ["32", "21", "16", "18", "17", "5", "6", "7", "9", "10", "11", "27", "28", "29"], "num_clicks_accrued": [0, 0, 0, 0, 0, 0, 0, 0, 0, 0, 0, 0, 0], "stateRewards": ["", 1, -3, -1, 9, -34, -40, 22, -7, 45, 53, -11, 2, 4, 5, 15, 21, 37, -49, -3, 80, -28, -34, 1, -3, 1, 1, -40, -6, -5, -16, -85, -86, 59], "withholdReward": false, "trial_id": "mdp_trial_26", "block": "test", "trialIndex": 27, "score": 12.900000000000006, "costs": -30.09999999999999, "simulationMode": [null, null, null, null, null], "rewards": [1, -3, -1, -7, 53], "path": ["0", "0", "1", "2", "3", "8", "10"], "rt": [56707, 15, 307, 369, 444], "actions": ["up", "up", "up", "left", "down"], "actionTimes": [59044, 59575, 60399, 61288, 62248], "queries": {"click": {"state": {"target": ["32", "21", "16", "18", "17", "5", "6", "7", "9", "10", "11", "27", "28", "29"], "time": [4622, 7951, 11287, 15964, 19599, 23427, 26779, 30210, 33723, 37171, 41251, 45461, 49137, 52804]}, "edge": {"target": [], "time": []}}, "mouseover": {"state": {"target": ["31", "32", "21", "21", "19", "14", "15", "16", "4", "5", "18", "15", "17", "4", "5", "6", "7", "8", "9", "11", "8", "10", "8", "11", "27", "28", "28", "26", "29", "25", "25", "30", "31", "0", "1"], "time": [4018, 4318, 6209, 6765, 8593, 8648, 9007, 9205, 14602, 14835, 15635, 16500, 18419, 20200, 20294, 25465, 27282, 30665, 30777, 34465, 34964, 35371, 38289, 40902, 45002, 46609, 48784, 52184, 52534, 53479, 53742, 54297, 54368, 56619, 56738]}, "edge": {"target": [], "time": []}}, "mouseout": {"state": {"target": ["14", "13", "12", "12", "0", "31", "32", "21", "21", "19", "14", "15", "16", "4", "5", "18", "18", "15", "17", "4", "5", "6", "7", "8", "9", "11", "8", "10", "8", "11", "27", "28", "28", "26", "29", "25", "25", "30", "31", "0"], "time": [1253, 1300, 1333, 1550, 3184, 4068, 4849, 6485, 8558, 8629, 8683, 9077, 13692, 14669, 15252, 16176, 16479, 16518, 20091, 20236, 24344, 27227, 30608, 30739, 34301, 34641, 35062, 37909, 39501, 41910, 46115, 46768, 51827, 52436, 53391, 53584, 53836, 54349, 54402, 56669]}, "edge": {"target": [], "time": []}}}, "displayed_time": "62.77", "trialTime": 64398, "trial_type": "mouselab-mdp", "trial_index": 34, "time_elapsed": 1893236, "internal_node_id": "0.0-4.0-1.0-25.0"}}, {"uniqueid": "w28105407:a41787817", "current_trial": 35, "dateTime": 1691147668745, "trialdata": {"revealed_states": [], "clicked_states": ["21"], "num_clicks_accrued": [0, 0, 0, 0, 0, 0, 0, 0, 0, 0, 0, 0, 0], "stateRewards": ["", -2, 1, -5, 2, -68, 80, 33, 10, 67, -59, 20, -1, -3, 3, 14, 74, -2, 24, -16, 63, 80, 46, -1, 4, 6, 12, 83, -38, -43, -4, 43, 14, -79], "withholdReward": false, "trial_id": "mdp_trial_27", "block": "test", "trialIndex": 28, "score": 60.85, "costs": -2.15, "simulationMode": [null, null, null, null, null], "rewards": [-1, -3, 3, -16, 80], "path": ["0", "0", "12", "13", "14", "19", "21"], "rt": [7815, 533, 113, 573, 311], "actions": ["right", "right", "right", "down", "down"], "actionTimes": [10133, 11175, 11806, 12884, 13713], "queries": {"click": {"state": {"target": ["21"], "time": [3899]}, "edge": {"target": [], "time": []}}, "mouseover": {"state": {"target": ["22", "21", "32"], "time": [3275, 3624, 5429]}, "edge": {"target": [], "time": []}}, "mouseout": {"state": {"target": ["1", "0", "0", "22", "21", "32"], "time": [1156, 1191, 3226, 3308, 4518, 7426]}, "edge": {"target": [], "time": []}}}, "displayed_time": "16.32", "trialTime": 20290, "trial_type": "mouselab-mdp", "trial_index": 35, "time_elapsed": 1914287, "internal_node_id": "0.0-4.0-1.0-26.0"}}, {"uniqueid": "w28105407:a41787817", "current_trial": 36, "dateTime": 1691147694727, "trialdata": {"revealed_states": [], "clicked_states": ["21", "16", "20", "22"], "num_clicks_accrued": [0, 0, 0, 0, 0, 0, 0, 0, 0, 0, 0, 0, 0], "stateRewards": ["", 2, -1, -1, 7, 11, -40, -22, -2, 69, 37, 8, -2, 4, -8, -12, -2, -72, -3, -12, 17, 63, 12, 1, 3, -7, 6, 25, 61, 61, -9, 28, -17, 27], "withholdReward": false, "trial_id": "mdp_trial_28", "block": "test", "trialIndex": 29, "score": 36.4, "costs": -8.6, "simulationMode": [null, null, null, null, null], "rewards": [-2, 4, -8, -12, 63], "path": ["0", "0", "12", "13", "14", "19", "21"], "rt": [17733, 325, 183, 444, 126], "actions": ["right", "right", "right", "down", "down"], "actionTimes": [19699, 20539, 21243, 22211, 22852], "queries": {"click": {"state": {"target": ["21", "16", "20", "22"], "time": [4147, 8813, 12302, 15806]}, "edge": {"target": [], "time": []}}, "mouseover": {"state": {"target": ["22", "21", "21", "1", "2", "7", "15", "16", "20", "19", "22"], "time": [3642, 3693, 3842, 6382, 6684, 8025, 8160, 8509, 10543, 12822, 12950]}, "edge": {"target": [], "time": []}}, "mouseout": {"state": {"target": ["0", "22", "21", "21", "1", "2", "7", "15", "16", "20", "19", "22"], "time": [2960, 3660, 3725, 5232, 6649, 6701, 8075, 8242, 9714, 12743, 12897, 16334]}, "edge": {"target": [], "time": []}}}, "displayed_time": "23.35", "trialTime": 25222, "trial_type": "mouselab-mdp", "trial_index": 36, "time_elapsed": 1940269, "internal_node_id": "0.0-4.0-1.0-27.0"}}, {"uniqueid": "w28105407:a41787817", "current_trial": 37, "dateTime": 1691147713811, "trialdata": {"revealed_states": [], "clicked_states": ["32"], "num_clicks_accrued": [0, 0, 0, 0, 0, 0, 0, 0, 0, 0, 0, 0, 0], "stateRewards": ["", 2, -2, -8, 9, -20, 55, -58, 14, 42, 2, 36, 1, -3, -5, 5, -58, 57, 60, 16, 57, 30, -70, -2, 1, 3, 10, 59, 23, 77, -13, -26, 88, -72], "withholdReward": false, "trial_id": "mdp_trial_29", "block": "test", "trialIndex": 30, "score": 74.85, "costs": -2.15, "simulationMode": [null, null, null, null, null], "rewards": [-2, 1, 3, -13, 88], "path": ["0", "0", "23", "24", "25", "30", "32"], "rt": [7451, 70, 88, 477, 189], "actions": ["left", "left", "left", "down", "down"], "actionTimes": [9301, 9871, 10472, 11462, 12190], "queries": {"click": {"state": {"target": ["32"], "time": [3187]}, "edge": {"target": [], "time": []}}, "mouseover": {"state": {"target": ["32", "12", "1", "0"], "time": [2866, 5515, 5823, 6916]}, "edge": {"target": [], "time": []}}, "mouseout": {"state": {"target": ["0", "32", "12", "1"], "time": [2533, 3706, 5788, 5842]}, "edge": {"target": [], "time": []}}}, "displayed_time": "15.85", "trialTime": 18012, "trial_type": "mouselab-mdp", "trial_index": 37, "time_elapsed": 1959354, "internal_node_id": "0.0-4.0-1.0-28.0"}}, {"uniqueid": "w28105407:a41787817", "current_trial": 38, "dateTime": 1691147747312, "trialdata": {"revealed_states": [], "clicked_states": ["21", "16", "32", "31", "33"], "num_clicks_accrued": [0, 0, 0, 0, 0, 0, 0, 0, 0, 0, 0, 0, 0], "stateRewards": ["", 2, 3, 8, 14, 69, -27, 17, 2, -71, -65, -10, 2, -3, 7, 8, 65, -10, 65, -12, 73, -12, 13, -2, -2, 6, 10, -79, -69, -18, 10, -85, 67, 74], "withholdReward": false, "trial_id": "mdp_trial_30", "block": "test", "trialIndex": 31, "score": 75.25, "costs": -10.75, "simulationMode": [null, null, null, null, null], "rewards": [-2, -2, 6, 10, 74], "path": ["0", "0", "23", "24", "25", "30", "33"], "rt": [23829, 108, 72, 637, 1027], "actions": ["left", "left", "left", "down", "left"], "actionTimes": [26360, 26991, 27592, 28768, 30292], "queries": {"click": {"state": {"target": ["21", "16", "32", "31", "33"], "time": [3918, 7798, 11775, 16408, 19764]}, "edge": {"target": [], "time": []}}, "mouseover": {"state": {"target": ["22", "21", "21", "13", "16", "18", "32", "22", "19", "17", "0", "23", "31", "31", "33"], "time": [3276, 3442, 3626, 7193, 7443, 8313, 8791, 12399, 12436, 15461, 15594, 15750, 15881, 16050, 17475]}, "edge": {"target": [], "time": []}}, "mouseout": {"state": {"target": ["0", "22", "21", "21", "13", "16", "18", "32", "22", "19", "17", "0", "23", "31", "31", "31", "33"], "time": [1734, 3308, 3459, 4900, 7209, 8299, 8448, 12318, 12428, 12833, 15511, 15646, 15816, 15911, 16626, 17040, 20533]}, "edge": {"target": [], "time": []}}}, "displayed_time": "30.85", "trialTime": 32657, "trial_type": "mouselab-mdp", "trial_index": 38, "time_elapsed": 1992854, "internal_node_id": "0.0-4.0-1.0-29.0"}}, {"uniqueid": "w28105407:a41787817", "current_trial": 39, "dateTime": 1691147774980, "trialdata": {"revealed_states": [], "clicked_states": ["32", "21", "31", "33"], "num_clicks_accrued": [0, 0, 0, 0, 0, 0, 0, 0, 0, 0, 0, 0, 0], "stateRewards": ["", -1, 4, -8, 12, 14, 69, -8, 5, -72, -14, 56, -1, -1, -1, 9, 67, 19, 11, -9, -88, -58, 3, 2, -4, -8, 4, 62, 77, -74, 5, -31, 65, 88], "withholdReward": false, "trial_id": "mdp_trial_31", "block": "test", "trialIndex": 32, "score": 74.4, "costs": -8.6, "simulationMode": [null, null, null, null, null], "rewards": [2, -4, -8, 5, 88], "path": ["0", "0", "23", "24", "25", "30", "33"], "rt": [19398, 140, 197, 530, 441], "actions": ["left", "left", "left", "down", "left"], "actionTimes": [21424, 22084, 22775, 23827, 24772], "queries": {"click": {"state": {"target": ["32", "21", "31", "33"], "time": [3459, 7266, 11278, 15032]}, "edge": {"target": [], "time": []}}, "mouseover": {"state": {"target": ["32", "21", "31", "31", "30", "33", "30", "24", "28"], "time": [3041, 4603, 10692, 11009, 14524, 14576, 15751, 16981, 17128]}, "edge": {"target": [], "time": []}}, "mouseout": {"state": {"target": ["0", "32", "21", "31", "31", "30", "33", "30", "31", "24", "28"], "time": [2741, 4013, 7982, 10742, 11970, 14541, 15716, 15804, 15945, 17061, 17148]}, "edge": {"target": [], "time": []}}}, "displayed_time": "25.32", "trialTime": 26739, "trial_type": "mouselab-mdp", "trial_index": 39, "time_elapsed": 2020522, "internal_node_id": "0.0-4.0-1.0-30.0"}}, {"uniqueid": "w28105407:a41787817", "current_trial": 40, "dateTime": 1691147794385, "trialdata": {"revealed_states": [], "clicked_states": ["32"], "num_clicks_accrued": [0, 0, 0, 0, 0, 0, 0, 0, 0, 0, 0, 0, 0], "stateRewards": ["", 1, 1, 6, -14, -40, 37, 16, -13, 33, -68, 49, 2, 4, 3, 6, 55, 27, 32, 10, -65, 20, -87, 2, 1, -6, -5, -42, 12, 29, -8, 16, 76, -33], "withholdReward": false, "trial_id": "mdp_trial_32", "block": "test", "trialIndex": 33, "score": 62.85, "costs": -2.15, "simulationMode": [null, null, null, null, null], "rewards": [2, 1, -6, -8, 76], "path": ["0", "0", "23", "24", "25", "30", "32"], "rt": [8071, 246, 277, 524, 207], "actions": ["left", "left", "left", "down", "down"], "actionTimes": [10227, 10968, 11768, 12804, 13536], "queries": {"click": {"state": {"target": ["32"], "time": [3488]}, "edge": {"target": [], "time": []}}, "mouseover": {"state": {"target": ["32", "32", "21"], "time": [2888, 3055, 5129]}, "edge": {"target": [], "time": []}}, "mouseout": {"state": {"target": ["28", "0", "32", "32", "21"], "time": [920, 2804, 2904, 4543, 7389]}, "edge": {"target": [], "time": []}}}, "displayed_time": "16.16", "trialTime": 18158, "trial_type": "mouselab-mdp", "trial_index": 40, "time_elapsed": 2039927, "internal_node_id": "0.0-4.0-1.0-31.0"}}, {"uniqueid": "w28105407:a41787817", "current_trial": 41, "dateTime": 1691147812053, "trialdata": {"revealed_states": [], "clicked_states": ["32"], "num_clicks_accrued": [0, 0, 0, 0, 0, 0, 0, 0, 0, 0, 0, 0, 0], "stateRewards": ["", -2, 4, -3, -13, 63, -36, 62, 11, 78, 34, -51, 2, -2, 8, -6, -40, -18, 31, 9, 64, 39, 79, 1, 4, -4, 15, -12, 76, 73, -10, -77, 86, -4], "withholdReward": false, "trial_id": "mdp_trial_33", "block": "test", "trialIndex": 34, "score": 74.85, "costs": -2.15, "simulationMode": [null, null, null, null, null], "rewards": [1, 4, -4, -10, 86], "path": ["0", "0", "23", "24", "25", "30", "32"], "rt": [8141, 680, 498, 847, 380], "actions": ["left", "left", "left", "down", "down"], "actionTimes": [9876, 11073, 12091, 13458, 14356], "queries": {"click": {"state": {"target": ["32"], "time": [2899]}, "edge": {"target": [], "time": []}}, "mouseover": {"state": {"target": ["32", "23"], "time": [2576, 5494]}, "edge": {"target": [], "time": []}}, "mouseout": {"state": {"target": ["0", "32", "23"], "time": [2241, 3702, 6108]}, "edge": {"target": [], "time": []}}}, "displayed_time": "15.74", "trialTime": 16814, "trial_type": "mouselab-mdp", "trial_index": 41, "time_elapsed": 2057596, "internal_node_id": "0.0-4.0-1.0-32.0"}}, {"uniqueid": "w28105407:a41787817", "current_trial": 42, "dateTime": 1691147832565, "trialdata": {"revealed_states": [], "clicked_states": ["32", "31"], "num_clicks_accrued": [0, 0, 0, 0, 0, 0, 0, 0, 0, 0, 0, 0, 0], "stateRewards": ["", 1, -3, -4, -11, -56, 61, -47, -16, -28, -9, 69, -2, -3, -4, -8, 40, -86, 59, -4, 80, 27, 54, -1, 3, -1, 8, 67, 23, 50, 6, 83, -43, -29], "withholdReward": false, "trial_id": "mdp_trial_34", "block": "test", "trialIndex": 35, "score": 85.7, "costs": -4.3, "simulationMode": [null, null, null, null, null], "rewards": [-1, 3, -1, 6, 83], "path": ["0", "0", "23", "24", "25", "30", "31"], "rt": [11604, 188, 215, 541, 607], "actions": ["left", "left", "left", "down", "right"], "actionTimes": [13540, 14250, 14989, 16057, 17189], "queries": {"click": {"state": {"target": ["32", "31"], "time": [3146, 7063]}, "edge": {"target": [], "time": []}}, "mouseover": {"state": {"target": ["32", "31", "21", "21"], "time": [2858, 6625, 8005, 8316]}, "edge": {"target": [], "time": []}}, "mouseout": {"state": {"target": ["0", "32", "31", "21"], "time": [2508, 3798, 7602, 8041]}, "edge": {"target": [], "time": []}}}, "displayed_time": "17.71", "trialTime": 19425, "trial_type": "mouselab-mdp", "trial_index": 42, "time_elapsed": 2078108, "internal_node_id": "0.0-4.0-1.0-33.0"}}, {"uniqueid": "w28105407:a41787817", "current_trial": 43, "dateTime": 1691147868493, "trialdata": {"revealed_states": [], "clicked_states": ["32", "31", "33", "29", "27", "28"], "num_clicks_accrued": [0, 0, 0, 0, 0, 0, 0, 0, 0, 0, 0, 0, 0], "stateRewards": ["", 2, -1, 5, 8, 75, -35, -77, 1, -9, -81, -58, 1, 2, -7, 5, 77, -16, 19, 16, -10, -18, 40, -2, 3, 7, -5, 64, 1, -62, 10, 27, 10, 65], "withholdReward": false, "trial_id": "mdp_trial_35", "block": "test", "trialIndex": 36, "score": 70.1, "costs": -12.9, "simulationMode": [null, null, null, null, null], "rewards": [-2, 3, 7, 10, 65], "path": ["0", "0", "23", "24", "25", "30", "33"], "rt": [25360, 163, 136, 386, 926], "actions": ["left", "left", "left", "down", "left"], "actionTimes": [27462, 28141, 28797, 29696, 31150], "queries": {"click": {"state": {"target": ["32", "31", "33", "29", "27", "28"], "time": [3262, 6748, 10274, 14439, 17759, 21263]}, "edge": {"target": [], "time": []}}, "mouseover": {"state": {"target": ["0", "31", "32", "31", "33", "33", "30", "25", "29", "27", "28"], "time": [2560, 2607, 2958, 5189, 7227, 7780, 10898, 11138, 12139, 15600, 18443]}, "edge": {"target": [], "time": []}}, "mouseout": {"state": {"target": ["21", "0", "0", "31", "32", "31", "33", "33", "30", "25", "29", "27"], "time": [824, 1043, 2575, 2623, 4717, 7160, 7301, 10864, 10930, 12032, 14960, 18328]}, "edge": {"target": [], "time": []}}}, "displayed_time": "31.66", "trialTime": 34851, "trial_type": "mouselab-mdp", "trial_index": 43, "time_elapsed": 2114035, "internal_node_id": "0.0-4.0-1.0-34.0"}}, {"uniqueid": "w28105407:a41787817", "current_trial": 44, "dateTime": 1691147902609, "trialdata": {"revealed_states": [], "clicked_states": ["32", "31", "33", "27", "28", "29"], "num_clicks_accrued": [0, 0, 0, 0, 0, 0, 0, 0, 0, 0, 0, 0, 0], "stateRewards": ["", -1, -3, -6, -2, -7, 80, -45, -3, -38, -72, 76, 2, 1, 7, 4, -62, 14, -74, 14, -87, -21, -88, -2, 1, -7, -10, 66, 56, -76, 10, -29, -72, -70], "withholdReward": false, "trial_id": "mdp_trial_36", "block": "test", "trialIndex": 37, "score": 35.1, "costs": -12.9, "simulationMode": [null, null, null, null, null], "rewards": [-2, 1, -7, -10, 66], "path": ["0", "0", "23", "24", "25", "26", "27"], "rt": [25053, 199, 187, 460, 51], "actions": ["left", "left", "left", "up", "up"], "actionTimes": [27835, 28549, 29260, 30243, 30804], "queries": {"click": {"state": {"target": ["32", "31", "33", "27", "28", "29"], "time": [4222, 7614, 10953, 14366, 18021, 21586]}, "edge": {"target": [], "time": []}}, "mouseover": {"state": {"target": ["31", "30", "32", "31", "33", "25", "26", "27", "28", "29"], "time": [3492, 3520, 3838, 7100, 8553, 11542, 11579, 11739, 16599, 19118]}, "edge": {"target": [], "time": []}}, "mouseout": {"state": {"target": ["28", "1", "0", "31", "30", "32", "31", "33", "25", "26", "27", "28", "29"], "time": [1616, 1699, 3451, 3505, 3535, 4923, 8173, 11473, 11561, 11683, 14876, 18498, 22383]}, "edge": {"target": [], "time": []}}}, "displayed_time": "31.32", "trialTime": 32825, "trial_type": "mouselab-mdp", "trial_index": 44, "time_elapsed": 2148149, "internal_node_id": "0.0-4.0-1.0-35.0"}}, {"uniqueid": "w28105407:a41787817", "current_trial": 45, "dateTime": 1691147958839, "trialdata": {"revealed_states": [], "clicked_states": ["32", "31", "33", "27", "28", "29", "21", "20", "22", "16"], "num_clicks_accrued": [0, 0, 0, 0, 0, 0, 0, 0, 0, 0, 0, 0, 0], "stateRewards": ["", 2, -4, -4, 13, -80, 62, 13, -11, 57, -13, -44, 1, 4, 3, -4, -29, -88, 15, 16, -58, 68, -45, -1, -3, -1, -9, -44, -86, -19, -7, -36, 59, 66], "withholdReward": false, "trial_id": "mdp_trial_37", "block": "test", "trialIndex": 38, "score": 70.5, "costs": -21.499999999999996, "simulationMode": [null, null, null, null, null], "rewards": [1, 4, 3, 16, 68], "path": ["0", "0", "12", "13", "14", "19", "21"], "rt": [40107, 543, 387, 1405, 5573], "actions": ["right", "right", "right", "down", "down"], "actionTimes": [41930, 42992, 43921, 45833, 51926], "queries": {"click": {"state": {"target": ["32", "31", "33", "27", "28", "29", "21", "20", "22", "16"], "time": [3042, 6964, 10369, 14733, 18147, 21692, 25306, 29500, 33381, 37393]}, "edge": {"target": [], "time": []}}, "mouseover": {"state": {"target": ["23", "30", "32", "31", "33", "26", "27", "28", "26", "29", "26", "24", "23", "21", "20", "22", "13", "16", "17"], "time": [2395, 2460, 2744, 6445, 7926, 11048, 11331, 15533, 18787, 18915, 22292, 22385, 22408, 23501, 29146, 33013, 36780, 37029, 38202]}, "edge": {"target": [], "time": []}}, "mouseout": {"state": {"target": ["23", "30", "32", "31", "33", "26", "27", "28", "26", "29", "26", "24", "23", "21", "20", "22", "13", "16"], "time": [2417, 2512, 3813, 7535, 10914, 11148, 15382, 18719, 18833, 22272, 22328, 22404, 22430, 25903, 30111, 33953, 36796, 37940]}, "edge": {"target": [], "time": []}}}, "displayed_time": "52.45", "trialTime": 55219, "trial_type": "mouselab-mdp", "trial_index": 45, "time_elapsed": 2204382, "internal_node_id": "0.0-4.0-1.0-36.0"}}, {"uniqueid": "w28105407:a41787817", "current_trial": 46, "dateTime": 1691148041170, "trialdata": {"revealed_states": [], "clicked_states": ["32", "31", "33", "21", "20", "22", "16", "17", "18", "5", "6", "7", "10", "11", "9", "27", "29", "28"], "num_clicks_accrued": [0, 0, 0, 0, 0, 0, 0, 0, 0, 0, 0, 0, 0], "stateRewards": ["", 2, -3, 5, 11, -79, 54, 11, -9, -78, 33, 22, -2, -1, 2, 14, 43, 34, 1, 10, 49, -65, 39, -1, 1, -1, 3, -16, -2, 11, 2, 12, 48, -65], "withholdReward": false, "trial_id": "mdp_trial_38", "block": "test", "trialIndex": 39, "score": 30.30000000000001, "costs": -38.69999999999999, "simulationMode": [null, null, null, null, null], "rewards": [2, -3, 5, 11, 54], "path": ["0", "0", "1", "2", "3", "4", "6"], "rt": [70487, 117, 2240, 878, 253], "actions": ["up", "up", "up", "right", "right"], "actionTimes": [72822, 73447, 76203, 77594, 78369], "queries": {"click": {"state": {"target": ["32", "31", "33", "21", "20", "22", "16", "17", "18", "5", "6", "7", "10", "11", "9", "27", "29", "28"], "time": [3901, 7818, 11216, 15294, 18738, 22303, 26284, 30106, 33482, 37091, 40490, 44521, 48167, 51613, 55086, 59503, 63254, 66633]}, "edge": {"target": [], "time": []}}, "mouseover": {"state": {"target": ["32", "31", "30", "33", "30", "21", "20", "20", "19", "22", "15", "16", "17", "15", "18", "12", "7", "4", "5", "6", "7", "2", "10", "8", "11", "9", "11", "27", "29", "26", "28"], "time": [3629, 7396, 8368, 8471, 11925, 15028, 15830, 16041, 19199, 19349, 22980, 23251, 29796, 30927, 31500, 34456, 35127, 35610, 36362, 38399, 41029, 45252, 45894, 48905, 50932, 52213, 58829, 59049, 62780, 63812, 64177]}, "edge": {"target": [], "time": []}}, "mouseout": {"state": {"target": ["17", "15", "18", "12", "0", "32", "31", "30", "33", "30", "31", "21", "20", "20", "19", "22", "15", "16", "17", "17", "15", "18", "12", "7", "4", "5", "6", "7", "2", "10", "8", "11", "9", "9", "11", "27", "29", "26", "28"], "time": [861, 961, 1063, 1144, 3214, 4387, 8355, 8415, 11918, 11971, 12025, 15785, 15859, 19159, 19256, 22805, 23170, 29679, 30330, 30781, 31319, 34331, 35047, 35550, 35711, 37684, 40994, 45236, 45511, 48739, 50621, 52117, 55314, 58798, 58863, 60218, 63746, 63910, 67252]}, "edge": {"target": [], "time": []}}}, "displayed_time": "78.89", "trialTime": 81384, "trial_type": "mouselab-mdp", "trial_index": 46, "time_elapsed": 2286712, "internal_node_id": "0.0-4.0-1.0-37.0"}}, {"uniqueid": "w28105407:a41787817", "current_trial": 47, "dateTime": 1691148079301, "trialdata": {"revealed_states": [], "clicked_states": ["21", "32", "31", "33", "27", "28", "29"], "num_clicks_accrued": [0, 0, 0, 0, 0, 0, 0, 0, 0, 0, 0, 0, 0], "stateRewards": ["", -1, -2, -8, 8, -27, -82, 19, -14, -62, 4, 1, -2, 2, 6, 10, 73, -51, -2, 2, 73, -48, 54, -1, 2, -4, 11, -25, 47, 86, 15, 33, 43, -42], "withholdReward": false, "trial_id": "mdp_trial_39", "block": "test", "trialIndex": 40, "score": 78.95, "costs": -15.05, "simulationMode": [null, null, null, null, null], "rewards": [-1, 2, -4, 11, 86], "path": ["0", "0", "23", "24", "25", "26", "29"], "rt": [29020, 140, 230, 587, 393], "actions": ["left", "left", "left", "up", "left"], "actionTimes": [31181, 31839, 32584, 33692, 34617], "queries": {"click": {"state": {"target": ["21", "32", "31", "33", "27", "28", "29"], "time": [3707, 7057, 10909, 14267, 17955, 21344, 24958]}, "edge": {"target": [], "time": []}}, "mouseover": {"state": {"target": ["22", "21", "32", "31", "33", "30", "31", "26", "27", "28", "29", "29", "25", "24"], "time": [3049, 3389, 5068, 10339, 11907, 14849, 16890, 17468, 17551, 19136, 21925, 23597, 25805, 28082]}, "edge": {"target": [], "time": []}}, "mouseout": {"state": {"target": ["0", "22", "21", "32", "31", "33", "30", "31", "26", "27", "28", "29", "29", "25", "24"], "time": [3001, 3066, 4267, 7629, 11501, 14816, 14881, 16910, 17484, 18635, 21819, 23245, 25551, 28034, 28099]}, "edge": {"target": [], "time": []}}}, "displayed_time": "35.13", "trialTime": 37034, "trial_type": "mouselab-mdp", "trial_index": 47, "time_elapsed": 2324843, "internal_node_id": "0.0-4.0-1.0-38.0"}}, {"uniqueid": "w28105407:a41787817", "current_trial": 48, "dateTime": 1691148104279, "trialdata": {"revealed_states": [], "clicked_states": ["32", "31", "33"], "num_clicks_accrued": [0, 0, 0, 0, 0, 0, 0, 0, 0, 0, 0, 0, 0], "stateRewards": ["", -2, 2, 3, -7, -31, -33, 29, -8, -57, 50, -83, -1, -1, 5, 13, -23, -62, 25, 5, -66, -85, 14, 1, -2, -1, 16, 71, 33, -19, -14, 5, -43, 79], "withholdReward": false, "trial_id": "mdp_trial_40", "block": "test", "trialIndex": 41, "score": 56.55, "costs": -6.449999999999999, "simulationMode": [null, null, null, null, null], "rewards": [1, -2, -1, -14, 79], "path": ["0", "0", "23", "24", "25", "30", "33"], "rt": [15378, 219, 156, 512, 670], "actions": ["left", "left", "left", "down", "left"], "actionTimes": [17734, 18464, 19134, 20159, 21360], "queries": {"click": {"state": {"target": ["32", "31", "33"], "time": [3654, 8013, 11450]}, "edge": {"target": [], "time": []}}, "mouseover": {"state": {"target": ["32", "31", "30", "33", "25", "26", "27"], "time": [3178, 7629, 8679, 8802, 12053, 12148, 12570]}, "edge": {"target": [], "time": []}}, "mouseout": {"state": {"target": ["0", "32", "31", "30", "33", "25", "26"], "time": [3012, 4310, 8673, 8727, 11977, 12100, 12235]}, "edge": {"target": [], "time": []}}}, "displayed_time": "21.88", "trialTime": 23922, "trial_type": "mouselab-mdp", "trial_index": 48, "time_elapsed": 2349821, "internal_node_id": "0.0-4.0-1.0-39.0"}}, {"uniqueid": "w28105407:a41787817", "current_trial": 49, "dateTime": 1691148208641, "trialdata": {"rt": 104355, "response": {"Q0": "$-2 to $2", "Q1": "$-16 to $16", "Q2": "$-88 to $88", "Q3": "The cost for clicking on nodes varied between nodes.", "Q4": "Very motivated"}, "question_order": [0, 1, 2, 3, 4], "trial_id": "final_quiz_control", "trial_type": "survey-multi-choice", "trial_index": 49, "time_elapsed": 2454184, "internal_node_id": "0.0-4.0-2.0"}}, {"uniqueid": "w28105407:a41787817", "current_trial": 50, "dateTime": 1691148645835, "trialdata": {"rt": 437176, "response": {"Q0": "My strategy was to look for nodes with the highest value which were nodes further away from the center by using the node-inspector couple of times", "Q1": "Yes, by using the node-inspector on nodes that are further away which have more money, and also to save money by not clicking on nodes that are near the center", "Q2": "The difficulty I faced was when the nodes which are further away had a negative amount of money or the money was low, I would lose money using the node-inspector too much trying to find the node with the highest value"}, "trial_id": "self_report_control", "trial_type": "survey-text", "trial_index": 50, "time_elapsed": 2891378, "internal_node_id": "0.0-4.0-3.0"}}, {"uniqueid": "w28105407:a41787817", "current_trial": 51, "dateTime": 1691148777440, "trialdata": {"rt": 131596, "response": {"Q0": "Disagree", "Q1": "Disagree", "Q2": "Agree", "Q3": "Strongly agree", "Q4": "Disagree", "Q5": "Strongly agree", "Q6": "Strongly disagree"}, "question_order": [0, 1, 2, 3, 4, 5, 6], "trial_id": "self_report_2", "trial_type": "survey-multi-choice", "trial_index": 51, "time_elapsed": 3022983, "internal_node_id": "0.0-4.0-4.0"}}, {"uniqueid": "w28105407:a41787817", "current_trial": 52, "dateTime": 1691148821967, "trialdata": {"rt": 44512, "response": {"gender": "female", "age": "34", "colorblind": "0", "effort": "0"}, "trial_type": "survey-html-form", "trial_index": 52, "time_elapsed": 3067510, "internal_node_id": "0.0-4.0-5.0"}}, {"uniqueid": "w28105407:a41787817", "current_trial": 53, "dateTime": 1691149003884, "trialdata": {"rt": 181901, "response": {"Q0": "no", "Q1": "yes", "Q2": "It has been a while since completing this survey so I could not remember until I started playing the game"}, "trial_type": "survey-text", "trial_index": 53, "time_elapsed": 3249427, "internal_node_id": "0.0-4.0-6.0"}}, {"uniqueid": "w28105407:a41787817", "current_trial": 54, "dateTime": 1691149016054, "trialdata": {"rt": 12161, "stimulus": "Press 'Finish HIT' in order to reach the completion code. Once the data has been saved, you will receive the code either in this window or in the original browser window where you started the experiment.\n", "response": 0, "trial_type": "html-button-response", "trial_index": 54, "time_elapsed": 3261597, "internal_node_id": "0.0-5.0"}}, {"uniqueid": "w28105407:a41787817", "current_trial": 55, "dateTime": 1691149017065, "trialdata": {"success": true, "trial_type": "fullscreen", "trial_index": 55, "time_elapsed": 3262608, "internal_node_id": "0.0-6.0"}}], "questiondata": {"params": {"CODE": "C6DMOQA6", "MIN_TIME": 14, "inspectCost": 1, "startTime": "Fri Aug 04 2023 12:42:30 GMT+0200 (South Africa Standard Time)", "bonusRate": 0.002, "variance": "1_2_4_8_44", "branching": "31123"}, "final_score": 1956.4}, "eventdata": [{"eventtype": "initialized", "value": null, "timestamp": 1691145749492, "interval": 0}, {"eventtype": "window_resize", "value": [1536, 758], "timestamp": 1691145749493, "interval": 1}, {"eventtype": "window_resize", "value": [1536, 758], "timestamp": 1691145750014, "interval": 521}, {"eventtype": "window_resize", "value": [1536, 864], "timestamp": 1691145761107, "interval": 11093}, {"eventtype": "window_resize", "value": [1536, 758], "timestamp": 1691149016480, "interval": 3255373}], "useragent": "Mozilla/5.0 (Windows NT 10.0; Win64; x64) AppleWebKit/537.36 (KHTML, like Gecko) Chrome/115.0.0.0 Safari/537.36", "mode": "live", "id": "w28105407:a41787817", "status": "user data saved", "Beginhit": "2023-08-04 10:42:20.915421", "Beginexp": "2023-08-04 10:42:41.988353", "Endhit": "2023-08-04 11:36:59.731929", "psiturkStatus": 3, "browser": "<redacted>", "platform": "windows", "language": "en-ZA", "excludeReason": "alreadyparticipated"}