{"condition": 1, "counterbalance": 0, "assignmentId": "a74235688", "workerId": "w10573274", "hitId": "h26247683", "currenttrial": 56, "bonus": 0, "data": [{"uniqueid": "w10573274:a74235688", "current_trial": 0, "dateTime": 1693566095172, "trialdata": {"success": true, "trial_type": "fullscreen", "trial_index": 0, "time_elapsed": 25890, "internal_node_id": "0.0-0.0"}}, {"uniqueid": "w10573274:a74235688", "current_trial": 1, "dateTime": 1693566139412, "trialdata": {"view_history": [{"page_index": 0, "viewing_time": 44228}], "rt": 44230, "trial_id": "exp_instructions_misaligned", "trial_type": "instructions", "trial_index": 1, "time_elapsed": 70131, "internal_node_id": "0.0-1.0"}}, {"uniqueid": "w10573274:a74235688", "current_trial": 2, "dateTime": 1693566396306, "trialdata": {"view_history": [{"page_index": 0, "viewing_time": 92075}, {"page_index": 1, "viewing_time": 111176}, {"page_index": 2, "viewing_time": 19969}, {"page_index": 3, "viewing_time": 33672}], "rt": 256891, "trial_id": "mouselab_instructions_1_misaligned", "trial_type": "instructions", "trial_index": 2, "time_elapsed": 327025, "internal_node_id": "0.0-2.0-1.0"}}, {"uniqueid": "w10573274:a74235688", "current_trial": 3, "dateTime": 1693566414127, "trialdata": {"revealed_states": [], "clicked_states": [], "num_clicks_accrued": [0, 0, 0, 0, 0, 0, 0, 0, 0, 0, 0, 0, 0], "stateRewards": ["", 10, 10, -10, -10, 10, 10, 10, -10, -10, 10, -10, 10, -10, -10, 10, -10, -10, 10, -10, -10, 10, -10, 10, 10, 10, -10, -10, 10, 10, -10, 10, 10, -10], "withholdReward": false, "trial_id": "practice_1", "block": "test", "trialIndex": 0, "score": 13.5, "costs": 0, "simulationMode": [null, null, null, null, null], "rewards": [10, 10, -10, -10, 10], "path": ["0", "0", "1", "2", "3", "4", "5"], "rt": [547, 1812, 1141, 1239, 1352], "actions": ["up", "up", "up", "right", "up"], "actionTimes": [5472, 7779, 9424, 11156, 13002], "queries": {"click": {"state": {"target": [], "time": []}, "edge": {"target": [], "time": []}}, "mouseover": {"state": {"target": [], "time": []}, "edge": {"target": [], "time": []}}, "mouseout": {"state": {"target": ["0", "1", "0", "0"], "time": [1149, 1447, 3332, 16342]}, "edge": {"target": [], "time": []}}}, "displayed_time": "13.50", "trialTime": 17012, "trial_type": "mouselab-mdp", "trial_index": 3, "time_elapsed": 344846, "internal_node_id": "0.0-2.0-2.0-0.0"}}, {"uniqueid": "w10573274:a74235688", "current_trial": 4, "dateTime": 1693566428634, "trialdata": {"revealed_states": [], "clicked_states": [], "num_clicks_accrued": [0, 0, 0, 0, 0, 0, 0, 0, 0, 0, 0, 0, 0], "stateRewards": ["", -10, 10, -10, 10, -10, -10, 10, -10, 10, -10, -10, 10, -10, -10, 10, -10, 10, -10, 10, -10, 10, 10, -10, 10, 10, -10, -10, 10, 10, -10, -10, -10, 10], "withholdReward": false, "trial_id": "practice_2", "block": "test", "trialIndex": 1, "score": -6.5, "costs": 0, "simulationMode": [null, null, null, null, null], "rewards": [-10, 10, 10, -10, -10], "path": ["0", "0", "23", "24", "25", "26", "27"], "rt": [1737, 523, 472, 553, 563], "actions": ["left", "left", "left", "up", "up"], "actionTimes": [3067, 4085, 5051, 6099, 7158], "queries": {"click": {"state": {"target": [], "time": []}, "edge": {"target": [], "time": []}}, "mouseover": {"state": {"target": [], "time": []}, "edge": {"target": [], "time": []}}, "mouseout": {"state": {"target": [], "time": []}, "edge": {"target": [], "time": []}}}, "displayed_time": "7.66", "trialTime": 14179, "trial_type": "mouselab-mdp", "trial_index": 4, "time_elapsed": 359352, "internal_node_id": "0.0-2.0-2.0-1.0"}}, {"uniqueid": "w10573274:a74235688", "current_trial": 5, "dateTime": 1693566456826, "trialdata": {"view_history": [{"page_index": 0, "viewing_time": 17605}, {"page_index": 1, "viewing_time": 10584}], "rt": 28190, "trial_id": "mouselab_instructions_2_misaligned", "trial_type": "instructions", "trial_index": 5, "time_elapsed": 387545, "internal_node_id": "0.0-2.0-3.0"}}, {"uniqueid": "w10573274:a74235688", "current_trial": 6, "dateTime": 1693566512124, "trialdata": {"rt": 55292, "response": {"Q0": "The cost for clicking on nodes may vary between nodes.", "Q1": "The better I perform the higher my bonus will be.", "Q2": "No, the amount of cash at each node of the web may be different each time.", "Q3": "To get the highest total score.", "Q4": "Only before moving the spider.", "Q5": "3 seconds"}, "question_order": [0, 1, 2, 3, 4, 5], "correct": {"Q0": "The cost for clicking on nodes may vary between nodes.", "Q1": "The better I perform the higher my bonus will be.", "Q2": "No, the amount of cash at each node of the web may be different each time.", "Q3": "To get the highest total score.", "Q4": "Only before moving the spider.", "Q5": "3 seconds"}, "trial_id": "mouselab_quiz_misaligned", "trial_type": "survey-multi-choice", "trial_index": 6, "time_elapsed": 442842, "internal_node_id": "0.0-2.0-4.0"}}, {"uniqueid": "w10573274:a74235688", "current_trial": 7, "dateTime": 1693566527451, "trialdata": {"rt": 15319, "response": {"Q0": "No"}, "question_order": [0], "trial_id": "repeat_check", "trial_type": "survey-multi-choice", "trial_index": 7, "time_elapsed": 458170, "internal_node_id": "0.0-4.0-0.0"}}, {"uniqueid": "w10573274:a74235688", "current_trial": 8, "dateTime": 1693566539847, "trialdata": {"rt": 12389, "stimulus": "\n<h1> Get ready to start the game! </h1>\n\nThank you for reading the instructions. Get ready start with the 40 rounds of this game.\n<br><br>\nIf you need to take a break, feel free to take one after the end of a round, before continuing to the next one.\n<br><br>\nRemember, the more money the spider gets, the bigger your bonus will be!\n<br><br>\n<div style='text-align: center;'>Press <code>space</code> to begin.</div>\n\n<br><br>\n(If, at any point, the <code>space</code> key does not take you to the next page, click once on the text and try again.)", "response": " ", "trial_id": "mdp_ready", "trial_type": "html-keyboard-response", "trial_index": 8, "time_elapsed": 470566, "internal_node_id": "0.0-6.0-0.0"}}, {"uniqueid": "w10573274:a74235688", "current_trial": 9, "dateTime": 1693566559709, "trialdata": {"revealed_states": [], "clicked_states": [], "num_clicks_accrued": [0, 0, 0, 0, 0, 0, 0, 0, 0, 0, 0, 0, 0], "stateRewards": ["", 1, 2, 3, 16, 63, -25, 16, -4, -14, 82, -66, -1, -3, -3, -11, -14, 19, 46, 3, -34, -82, 66, -2, -3, 4, -5, -63, 77, -37, -1, -45, -41, 84], "withholdReward": false, "trial_id": "mdp_trial_1", "block": "test", "trialIndex": 2, "score": 85, "costs": 0, "simulationMode": [null, null, null, null, null], "rewards": [1, 2, 3, 16, 63], "path": ["0", "0", "1", "2", "3", "4", "5"], "rt": [487, 342, 508, 178, 196], "actions": ["up", "up", "up", "right", "up"], "actionTimes": [2841, 3687, 4687, 5358, 6095], "queries": {"click": {"state": {"target": [], "time": []}, "edge": {"target": [], "time": []}}, "mouseover": {"state": {"target": [], "time": []}, "edge": {"target": [], "time": []}}, "mouseout": {"state": {"target": ["0", "12", "19"], "time": [9264, 9327, 9444]}, "edge": {"target": [], "time": []}}}, "displayed_time": "16.36", "trialTime": 19497, "trial_type": "mouselab-mdp", "trial_index": 9, "time_elapsed": 490427, "internal_node_id": "0.0-6.0-1.0-0.0"}}, {"uniqueid": "w10573274:a74235688", "current_trial": 10, "dateTime": 1693566581651, "trialdata": {"revealed_states": [], "clicked_states": [], "num_clicks_accrued": [0, 0, 0, 0, 0, 0, 0, 0, 0, 0, 0, 0, 0], "stateRewards": ["", -1, 3, 8, 9, -53, 20, -84, 2, -28, -62, -31, -1, -2, -7, 2, 51, 58, 45, -4, -17, -41, 36, 2, -2, -7, -15, 29, -54, -37, -16, -43, 65, -17], "withholdReward": false, "trial_id": "mdp_trial_2", "block": "test", "trialIndex": 3, "score": -16, "costs": 0, "simulationMode": [null, null, null, null, null], "rewards": [-1, 3, 8, 2, -28], "path": ["0", "0", "1", "2", "3", "8", "9"], "rt": [614, 993, 1121, 685, 796], "actions": ["up", "up", "up", "left", "up"], "actionTimes": [3454, 4941, 6569, 7767, 9060], "queries": {"click": {"state": {"target": [], "time": []}, "edge": {"target": [], "time": []}}, "mouseover": {"state": {"target": [], "time": []}, "edge": {"target": [], "time": []}}, "mouseout": {"state": {"target": ["33", "25", "24", "23", "0", "12", "13", "19"], "time": [1511, 1612, 1678, 1996, 10766, 10812, 10829, 19814]}, "edge": {"target": [], "time": []}}}, "displayed_time": "16.84", "trialTime": 21590, "trial_type": "mouselab-mdp", "trial_index": 10, "time_elapsed": 512369, "internal_node_id": "0.0-6.0-1.0-1.0"}}, {"uniqueid": "w10573274:a74235688", "current_trial": 11, "dateTime": 1693566604951, "trialdata": {"revealed_states": [], "clicked_states": [], "num_clicks_accrued": [0, 0, 0, 0, 0, 0, 0, 0, 0, 0, 0, 0, 0], "stateRewards": ["", -2, 4, -3, -13, 63, -36, 62, 11, 78, 34, -51, 2, -2, 8, -6, -40, -18, 31, 9, 64, 39, 79, 1, 4, -4, 15, -12, 76, 73, -10, -77, 86, -4], "withholdReward": false, "trial_id": "mdp_trial_3", "block": "test", "trialIndex": 4, "score": 49, "costs": 0, "simulationMode": [null, null, null, null, null], "rewards": [-2, 4, -3, -13, 63], "path": ["0", "0", "1", "2", "3", "4", "5"], "rt": [823, 184, 442, 103, 442], "actions": ["up", "up", "up", "right", "up"], "actionTimes": [2901, 3578, 4519, 5114, 6069], "queries": {"click": {"state": {"target": [], "time": []}, "edge": {"target": [], "time": []}}, "mouseover": {"state": {"target": [], "time": []}, "edge": {"target": [], "time": []}}, "mouseout": {"state": {"target": ["14", "13", "12"], "time": [1159, 1208, 1257]}, "edge": {"target": [], "time": []}}}, "displayed_time": "16.08", "trialTime": 22935, "trial_type": "mouselab-mdp", "trial_index": 11, "time_elapsed": 535669, "internal_node_id": "0.0-6.0-1.0-2.0"}}, {"uniqueid": "w10573274:a74235688", "current_trial": 12, "dateTime": 1693566626842, "trialdata": {"revealed_states": [], "clicked_states": [], "num_clicks_accrued": [0, 0, 0, 0, 0, 0, 0, 0, 0, 0, 0, 0, 0], "stateRewards": ["", -1, 4, -5, 9, 29, -75, -42, -16, 24, -28, -41, 2, -3, 1, 10, 60, 47, 55, -1, -53, 22, -40, 2, -3, -6, 4, -26, 44, 54, 15, -76, 42, 14], "withholdReward": false, "trial_id": "mdp_trial_4", "block": "test", "trialIndex": 5, "score": 21, "costs": 0, "simulationMode": [null, null, null, null, null], "rewards": [2, -3, 1, -1, 22], "path": ["0", "0", "12", "13", "14", "19", "21"], "rt": [576, 831, 13, 197, 152], "actions": ["right", "right", "right", "down", "down"], "actionTimes": [4565, 5892, 6424, 7127, 7779], "queries": {"click": {"state": {"target": [], "time": []}, "edge": {"target": [], "time": []}}, "mouseover": {"state": {"target": [], "time": []}, "edge": {"target": [], "time": []}}, "mouseout": {"state": {"target": [], "time": []}, "edge": {"target": [], "time": []}}}, "displayed_time": "17.99", "trialTime": 21526, "trial_type": "mouselab-mdp", "trial_index": 12, "time_elapsed": 557561, "internal_node_id": "0.0-6.0-1.0-3.0"}}, {"uniqueid": "w10573274:a74235688", "current_trial": 13, "dateTime": 1693566652153, "trialdata": {"revealed_states": [], "clicked_states": [], "num_clicks_accrued": [0, 0, 0, 0, 0, 0, 0, 0, 0, 0, 0, 0, 0], "stateRewards": ["", 1, 1, -3, 2, 22, -25, -11, -5, 50, 49, 3, 1, -1, 8, 14, -85, -30, 57, -6, -39, -16, 59, -2, -1, 5, 5, 59, -16, 8, 4, 67, 56, -9], "withholdReward": false, "trial_id": "mdp_trial_5", "block": "test", "trialIndex": 6, "score": 62, "costs": 0, "simulationMode": [null, null, null, null, null], "rewards": [-2, -1, 5, 4, 56], "path": ["0", "0", "23", "24", "25", "30", "32"], "rt": [904, 241, 156, 186, 631], "actions": ["left", "left", "left", "down", "down"], "actionTimes": [8474, 9220, 9869, 10548, 11677], "queries": {"click": {"state": {"target": [], "time": []}, "edge": {"target": [], "time": []}}, "mouseover": {"state": {"target": [], "time": []}, "edge": {"target": [], "time": []}}, "mouseout": {"state": {"target": ["0", "1", "12", "0", "0"], "time": [6177, 6444, 6477, 7161, 18463]}, "edge": {"target": [], "time": []}}}, "displayed_time": "21.57", "trialTime": 24936, "trial_type": "mouselab-mdp", "trial_index": 13, "time_elapsed": 582871, "internal_node_id": "0.0-6.0-1.0-4.0"}}, {"uniqueid": "w10573274:a74235688", "current_trial": 14, "dateTime": 1693566671390, "trialdata": {"revealed_states": [], "clicked_states": [], "num_clicks_accrued": [0, 0, 0, 0, 0, 0, 0, 0, 0, 0, 0, 0, 0], "stateRewards": ["", -2, 2, 8, -6, -25, 3, 87, 2, -62, -2, 74, -2, -1, 2, -1, 79, 49, -37, -14, 5, 67, -9, -1, 2, -2, 5, 15, 38, 32, -14, -38, -38, 30], "withholdReward": false, "trial_id": "mdp_trial_6", "block": "test", "trialIndex": 7, "score": 84, "costs": 0, "simulationMode": [null, null, null, null, null], "rewards": [-2, 2, 8, 2, 74], "path": ["0", "0", "1", "2", "3", "8", "11"], "rt": [584, 501, 64, 517, 110], "actions": ["up", "up", "up", "left", "left"], "actionTimes": [2111, 3104, 3667, 4687, 5312], "queries": {"click": {"state": {"target": [], "time": []}, "edge": {"target": [], "time": []}}, "mouseover": {"state": {"target": [], "time": []}, "edge": {"target": [], "time": []}}, "mouseout": {"state": {"target": [], "time": []}, "edge": {"target": [], "time": []}}}, "displayed_time": "15.53", "trialTime": 18829, "trial_type": "mouselab-mdp", "trial_index": 14, "time_elapsed": 602108, "internal_node_id": "0.0-6.0-1.0-5.0"}}, {"uniqueid": "w10573274:a74235688", "current_trial": 15, "dateTime": 1693566689121, "trialdata": {"revealed_states": [], "clicked_states": [], "num_clicks_accrued": [0, 0, 0, 0, 0, 0, 0, 0, 0, 0, 0, 0, 0], "stateRewards": ["", 2, -1, 5, 6, 10, 86, 55, 10, -45, 63, -71, 1, -2, 5, -8, -50, -72, 36, 15, 61, 12, 33, -1, -4, 6, 5, 79, -56, -21, -16, -87, 60, -81], "withholdReward": false, "trial_id": "mdp_trial_7", "block": "test", "trialIndex": 8, "score": 67, "costs": 0, "simulationMode": [null, null, null, null, null], "rewards": [2, -1, 5, 6, 55], "path": ["0", "0", "1", "2", "3", "4", "7"], "rt": [876, 499, 180, 39, 65], "actions": ["up", "up", "up", "right", "down"], "actionTimes": [2724, 3728, 4409, 4951, 5544], "queries": {"click": {"state": {"target": [], "time": []}, "edge": {"target": [], "time": []}}, "mouseover": {"state": {"target": [], "time": []}, "edge": {"target": [], "time": []}}, "mouseout": {"state": {"target": ["0", "18", "18", "13"], "time": [8563, 9196, 9294, 9361]}, "edge": {"target": [], "time": []}}}, "displayed_time": "15.85", "trialTime": 17335, "trial_type": "mouselab-mdp", "trial_index": 15, "time_elapsed": 619839, "internal_node_id": "0.0-6.0-1.0-6.0"}}, {"uniqueid": "w10573274:a74235688", "current_trial": 16, "dateTime": 1693566706951, "trialdata": {"revealed_states": [], "clicked_states": [], "num_clicks_accrued": [0, 0, 0, 0, 0, 0, 0, 0, 0, 0, 0, 0, 0], "stateRewards": ["", -2, -3, -3, 9, 79, 67, 22, -15, -56, 27, -85, -2, 4, -4, -15, -20, -32, 60, 15, 71, 57, 17, 1, 2, -8, 15, -37, -81, 82, 15, 21, -3, 2], "withholdReward": false, "trial_id": "mdp_trial_8", "block": "test", "trialIndex": 9, "score": 43, "costs": 0, "simulationMode": [null, null, null, null, null], "rewards": [-2, 4, -4, -15, 60], "path": ["0", "0", "12", "13", "14", "15", "18"], "rt": [1201, 247, 984, 1011, 1312], "actions": ["right", "right", "right", "up", "left"], "actionTimes": [3144, 3906, 5392, 6919, 8720], "queries": {"click": {"state": {"target": [], "time": []}, "edge": {"target": [], "time": []}}, "mouseover": {"state": {"target": ["0"], "time": [2556]}, "edge": {"target": [], "time": []}}, "mouseout": {"state": {"target": ["0"], "time": [12076]}, "edge": {"target": [], "time": []}}}, "displayed_time": "15.94", "trialTime": 17442, "trial_type": "mouselab-mdp", "trial_index": 16, "time_elapsed": 637669, "internal_node_id": "0.0-6.0-1.0-7.0"}}, {"uniqueid": "w10573274:a74235688", "current_trial": 17, "dateTime": 1693566725676, "trialdata": {"revealed_states": [], "clicked_states": [], "num_clicks_accrued": [0, 0, 0, 0, 0, 0, 0, 0, 0, 0, 0, 0, 0], "stateRewards": ["", -2, -4, -6, 12, -58, -70, -80, 2, 16, -88, -62, 1, 2, -5, 11, 77, -35, -44, -5, 18, -83, 87, 1, -3, -5, 13, -44, -21, -86, 10, -52, 8, 29], "withholdReward": false, "trial_id": "mdp_trial_9", "block": "test", "trialIndex": 10, "score": -58, "costs": 0, "simulationMode": [null, null, null, null, null], "rewards": [-2, -4, -6, 12, -58], "path": ["0", "0", "1", "2", "3", "4", "5"], "rt": [721, 77, 163, 54, 142], "actions": ["up", "up", "up", "right", "up"], "actionTimes": [2116, 2691, 3359, 3916, 4554], "queries": {"click": {"state": {"target": [], "time": []}, "edge": {"target": [], "time": []}}, "mouseover": {"state": {"target": [], "time": []}, "edge": {"target": [], "time": []}}, "mouseout": {"state": {"target": ["0"], "time": [910]}, "edge": {"target": [], "time": []}}}, "displayed_time": "15.40", "trialTime": 18322, "trial_type": "mouselab-mdp", "trial_index": 17, "time_elapsed": 656395, "internal_node_id": "0.0-6.0-1.0-8.0"}}, {"uniqueid": "w10573274:a74235688", "current_trial": 18, "dateTime": 1693566742654, "trialdata": {"revealed_states": [], "clicked_states": [], "num_clicks_accrued": [0, 0, 0, 0, 0, 0, 0, 0, 0, 0, 0, 0, 0], "stateRewards": ["", 1, 2, -8, 9, 18, -83, -11, 6, -64, -48, 17, -2, -2, -5, -3, -24, -3, -86, -2, 48, -41, -22, -2, 4, 7, 8, 81, 13, -48, 10, 61, 19, 57], "withholdReward": false, "trial_id": "mdp_trial_10", "block": "test", "trialIndex": 11, "score": -47, "costs": 0, "simulationMode": [null, null, null, null, null], "rewards": [1, 2, -8, 6, -48], "path": ["0", "0", "1", "2", "3", "8", "10"], "rt": [562, 196, 815, 715, 55], "actions": ["up", "up", "up", "left", "down"], "actionTimes": [1615, 2311, 3629, 4863, 5419], "queries": {"click": {"state": {"target": [], "time": []}, "edge": {"target": [], "time": []}}, "mouseover": {"state": {"target": [], "time": []}, "edge": {"target": [], "time": []}}, "mouseout": {"state": {"target": ["0"], "time": [811]}, "edge": {"target": [], "time": []}}}, "displayed_time": "15.05", "trialTime": 16567, "trial_type": "mouselab-mdp", "trial_index": 18, "time_elapsed": 673372, "internal_node_id": "0.0-6.0-1.0-9.0"}}, {"uniqueid": "w10573274:a74235688", "current_trial": 19, "dateTime": 1693566759464, "trialdata": {"revealed_states": [], "clicked_states": [], "num_clicks_accrued": [0, 0, 0, 0, 0, 0, 0, 0, 0, 0, 0, 0, 0], "stateRewards": ["", -2, -4, 4, -11, -63, -60, -7, 2, -14, 81, -43, -1, -1, -5, 7, 10, 69, 40, 8, -83, 52, 60, 1, 2, 5, -5, 16, 64, 14, -3, 29, 7, -51], "withholdReward": false, "trial_id": "mdp_trial_11", "block": "test", "trialIndex": 12, "score": -73, "costs": 0, "simulationMode": [null, null, null, null, null], "rewards": [-2, -4, 4, -11, -60], "path": ["0", "0", "1", "2", "3", "4", "6"], "rt": [713, 116, 653, 164, 105], "actions": ["up", "up", "up", "right", "right"], "actionTimes": [1824, 2445, 3599, 4260, 4868], "queries": {"click": {"state": {"target": [], "time": []}, "edge": {"target": [], "time": []}}, "mouseover": {"state": {"target": [], "time": []}, "edge": {"target": [], "time": []}}, "mouseout": {"state": {"target": ["0"], "time": [13033]}, "edge": {"target": [], "time": []}}}, "displayed_time": "15.11", "trialTime": 16424, "trial_type": "mouselab-mdp", "trial_index": 19, "time_elapsed": 690182, "internal_node_id": "0.0-6.0-1.0-10.0"}}, {"uniqueid": "w10573274:a74235688", "current_trial": 20, "dateTime": 1693566775923, "trialdata": {"revealed_states": [], "clicked_states": [], "num_clicks_accrued": [0, 0, 0, 0, 0, 0, 0, 0, 0, 0, 0, 0, 0], "stateRewards": ["", 1, 2, -5, 14, 54, -14, -25, 16, -5, -87, 78, -1, 1, 3, -3, 52, 53, 53, -10, 73, -69, -48, 2, 3, 1, 8, -62, -7, 85, 7, 82, 52, -28], "withholdReward": false, "trial_id": "mdp_trial_12", "block": "test", "trialIndex": 13, "score": 66, "costs": 0, "simulationMode": [null, null, null, null, null], "rewards": [1, 2, -5, 14, 54], "path": ["0", "0", "1", "2", "3", "4", "5"], "rt": [395, 583, 303, 79, 143], "actions": ["up", "up", "up", "right", "up"], "actionTimes": [1501, 2577, 3381, 3957, 4604], "queries": {"click": {"state": {"target": [], "time": []}, "edge": {"target": [], "time": []}}, "mouseover": {"state": {"target": [], "time": []}, "edge": {"target": [], "time": []}}, "mouseout": {"state": {"target": ["0"], "time": [912]}, "edge": {"target": [], "time": []}}}, "displayed_time": "15.11", "trialTime": 16063, "trial_type": "mouselab-mdp", "trial_index": 20, "time_elapsed": 706640, "internal_node_id": "0.0-6.0-1.0-11.0"}}, {"uniqueid": "w10573274:a74235688", "current_trial": 21, "dateTime": 1693566793710, "trialdata": {"revealed_states": [], "clicked_states": [], "num_clicks_accrued": [0, 0, 0, 0, 0, 0, 0, 0, 0, 0, 0, 0, 0], "stateRewards": ["", 1, -3, -1, 9, -34, -40, 22, -7, 45, 53, -11, 2, 4, 5, 15, 21, 37, -49, -3, 80, -28, -34, 1, -3, 1, 1, -40, -6, -5, -16, -85, -86, 59], "withholdReward": false, "trial_id": "mdp_trial_13", "block": "test", "trialIndex": 14, "score": -26, "costs": 0, "simulationMode": [null, null, null, null, null], "rewards": [2, 4, 5, -3, -34], "path": ["0", "0", "12", "13", "14", "19", "22"], "rt": [853, 470, 19, 84, 1257], "actions": ["right", "right", "right", "down", "left"], "actionTimes": [2024, 2989, 3505, 4103, 5859], "queries": {"click": {"state": {"target": [], "time": []}, "edge": {"target": [], "time": []}}, "mouseover": {"state": {"target": [], "time": []}, "edge": {"target": [], "time": []}}, "mouseout": {"state": {"target": ["0"], "time": [890]}, "edge": {"target": [], "time": []}}}, "displayed_time": "15.17", "trialTime": 17391, "trial_type": "mouselab-mdp", "trial_index": 21, "time_elapsed": 724428, "internal_node_id": "0.0-6.0-1.0-12.0"}}, {"uniqueid": "w10573274:a74235688", "current_trial": 22, "dateTime": 1693566812852, "trialdata": {"revealed_states": [], "clicked_states": [], "num_clicks_accrued": [0, 0, 0, 0, 0, 0, 0, 0, 0, 0, 0, 0, 0], "stateRewards": ["", 2, 3, 8, 11, 25, -80, 6, -4, -56, 84, -23, -2, -4, -3, 4, -51, -9, -61, -15, -64, 67, -35, 1, -1, -7, -6, 83, 59, -15, 12, -79, 56, 41], "withholdReward": false, "trial_id": "mdp_trial_14", "block": "test", "trialIndex": 15, "score": 93, "costs": 0, "simulationMode": [null, null, null, null, null], "rewards": [2, 3, 8, -4, 84], "path": ["0", "0", "1", "2", "3", "8", "10"], "rt": [1168, 129, 107, 624, 123], "actions": ["up", "up", "up", "left", "down"], "actionTimes": [2268, 2914, 3525, 4643, 5261], "queries": {"click": {"state": {"target": [], "time": []}, "edge": {"target": [], "time": []}}, "mouseover": {"state": {"target": [], "time": []}, "edge": {"target": [], "time": []}}, "mouseout": {"state": {"target": [], "time": []}, "edge": {"target": [], "time": []}}}, "displayed_time": "15.10", "trialTime": 18749, "trial_type": "mouselab-mdp", "trial_index": 22, "time_elapsed": 743571, "internal_node_id": "0.0-6.0-1.0-13.0"}}, {"uniqueid": "w10573274:a74235688", "current_trial": 23, "dateTime": 1693566834323, "trialdata": {"revealed_states": [], "clicked_states": [], "num_clicks_accrued": [0, 0, 0, 0, 0, 0, 0, 0, 0, 0, 0, 0, 0], "stateRewards": ["", -2, 1, -7, 9, 8, 25, 61, -7, -17, 69, -81, 1, 4, -4, -11, 16, 67, 44, 3, 6, -45, -54, -2, 3, 6, -11, -15, 32, -47, 3, -39, -6, -88], "withholdReward": false, "trial_id": "mdp_trial_15", "block": "test", "trialIndex": 16, "score": 54, "costs": 0, "simulationMode": [null, null, null, null, null], "rewards": [-2, 1, -7, -7, 69], "path": ["0", "0", "1", "2", "3", "8", "10"], "rt": [386, 317, 125, 285, 28], "actions": ["up", "up", "up", "left", "down"], "actionTimes": [1326, 2142, 2767, 3544, 4070], "queries": {"click": {"state": {"target": [], "time": []}, "edge": {"target": [], "time": []}}, "mouseover": {"state": {"target": [], "time": []}, "edge": {"target": [], "time": []}}, "mouseout": {"state": {"target": ["0"], "time": [10042]}, "edge": {"target": [], "time": []}}}, "displayed_time": "14.94", "trialTime": 21059, "trial_type": "mouselab-mdp", "trial_index": 23, "time_elapsed": 765041, "internal_node_id": "0.0-6.0-1.0-14.0"}}, {"uniqueid": "w10573274:a74235688", "current_trial": 24, "dateTime": 1693566850781, "trialdata": {"revealed_states": [], "clicked_states": [], "num_clicks_accrued": [0, 0, 0, 0, 0, 0, 0, 0, 0, 0, 0, 0, 0], "stateRewards": ["", -2, 2, -2, -7, -50, -62, -45, 7, 36, -24, -72, -1, -1, 8, -1, -67, 20, -52, 2, 35, -50, 80, -1, 1, 6, -6, -70, 6, 88, 8, -47, 74, -19], "withholdReward": false, "trial_id": "mdp_trial_16", "block": "test", "trialIndex": 17, "score": -67, "costs": 0, "simulationMode": [null, null, null, null, null], "rewards": [-2, 2, -2, 7, -72], "path": ["0", "0", "1", "2", "3", "8", "11"], "rt": [462, 337, 175, 528, 97], "actions": ["up", "up", "up", "left", "left"], "actionTimes": [2081, 2917, 3588, 4608, 5210], "queries": {"click": {"state": {"target": [], "time": []}, "edge": {"target": [], "time": []}}, "mouseover": {"state": {"target": [], "time": []}, "edge": {"target": [], "time": []}}, "mouseout": {"state": {"target": [], "time": []}, "edge": {"target": [], "time": []}}}, "displayed_time": "15.62", "trialTime": 16021, "trial_type": "mouselab-mdp", "trial_index": 24, "time_elapsed": 781500, "internal_node_id": "0.0-6.0-1.0-15.0"}}, {"uniqueid": "w10573274:a74235688", "current_trial": 25, "dateTime": 1693566867428, "trialdata": {"revealed_states": [], "clicked_states": [], "num_clicks_accrued": [0, 0, 0, 0, 0, 0, 0, 0, 0, 0, 0, 0, 0], "stateRewards": ["", -1, 3, 2, 9, 41, 4, -46, -12, -54, -87, -25, 2, 3, -1, 11, -77, 12, -33, -9, -32, 35, 72, 1, 3, -7, 4, 37, 65, -73, 6, 77, -43, 8], "withholdReward": false, "trial_id": "mdp_trial_17", "block": "test", "trialIndex": 18, "score": -33, "costs": 0, "simulationMode": [null, null, null, null, null], "rewards": [-1, 3, 2, 9, -46], "path": ["0", "0", "1", "2", "3", "4", "7"], "rt": [471, 230, 28, 60, 565], "actions": ["up", "up", "up", "right", "down"], "actionTimes": [1839, 2589, 3126, 3703, 4759], "queries": {"click": {"state": {"target": [], "time": []}, "edge": {"target": [], "time": []}}, "mouseover": {"state": {"target": [], "time": []}, "edge": {"target": [], "time": []}}, "mouseout": {"state": {"target": ["0", "0"], "time": [1392, 12554]}, "edge": {"target": [], "time": []}}}, "displayed_time": "15.37", "trialTime": 16196, "trial_type": "mouselab-mdp", "trial_index": 25, "time_elapsed": 798146, "internal_node_id": "0.0-6.0-1.0-16.0"}}, {"uniqueid": "w10573274:a74235688", "current_trial": 26, "dateTime": 1693566885463, "trialdata": {"revealed_states": [], "clicked_states": [], "num_clicks_accrued": [0, 0, 0, 0, 0, 0, 0, 0, 0, 0, 0, 0, 0], "stateRewards": ["", -2, -1, -6, -14, -55, 78, -13, 11, 14, -71, 59, 2, 2, 6, -6, 9, 38, 14, 7, 85, 11, 68, 1, -4, -1, -3, -63, -85, 9, -2, 63, -86, -10], "withholdReward": false, "trial_id": "mdp_trial_18", "block": "test", "trialIndex": 19, "score": -69, "costs": 0, "simulationMode": [null, null, null, null, null], "rewards": [-2, -1, -6, 11, -71], "path": ["0", "0", "1", "2", "3", "8", "10"], "rt": [737, 7, 103, 309, 126], "actions": ["up", "up", "up", "left", "down"], "actionTimes": [3662, 4162, 4790, 5596, 6213], "queries": {"click": {"state": {"target": [], "time": []}, "edge": {"target": [], "time": []}}, "mouseover": {"state": {"target": [], "time": []}, "edge": {"target": [], "time": []}}, "mouseout": {"state": {"target": [], "time": []}, "edge": {"target": [], "time": []}}}, "displayed_time": "16.93", "trialTime": 17607, "trial_type": "mouselab-mdp", "trial_index": 26, "time_elapsed": 816182, "internal_node_id": "0.0-6.0-1.0-17.0"}}, {"uniqueid": "w10573274:a74235688", "current_trial": 27, "dateTime": 1693566905310, "trialdata": {"revealed_states": [], "clicked_states": [], "num_clicks_accrued": [0, 0, 0, 0, 0, 0, 0, 0, 0, 0, 0, 0, 0], "stateRewards": ["", -1, -3, -7, -7, -76, 30, -49, 11, -70, 56, 2, 1, 4, -3, -14, -59, -83, -25, -9, -21, -67, -73, -2, 4, 4, -9, -11, -32, 60, 9, -87, 22, -64], "withholdReward": false, "trial_id": "mdp_trial_19", "block": "test", "trialIndex": 20, "score": -94, "costs": 0, "simulationMode": [null, null, null, null, null], "rewards": [-1, -3, -7, -7, -76], "path": ["0", "0", "1", "2", "3", "4", "5"], "rt": [836, 251, 89, 659, 733], "actions": ["up", "up", "up", "right", "up"], "actionTimes": [2211, 2953, 3544, 4694, 5918], "queries": {"click": {"state": {"target": [], "time": []}, "edge": {"target": [], "time": []}}, "mouseover": {"state": {"target": [], "time": []}, "edge": {"target": [], "time": []}}, "mouseout": {"state": {"target": [], "time": []}, "edge": {"target": [], "time": []}}}, "displayed_time": "15.38", "trialTime": 19384, "trial_type": "mouselab-mdp", "trial_index": 27, "time_elapsed": 836028, "internal_node_id": "0.0-6.0-1.0-18.0"}}, {"uniqueid": "w10573274:a74235688", "current_trial": 28, "dateTime": 1693566922134, "trialdata": {"revealed_states": [], "clicked_states": [], "num_clicks_accrued": [0, 0, 0, 0, 0, 0, 0, 0, 0, 0, 0, 0, 0], "stateRewards": ["", 1, 4, -8, -13, -13, -87, -77, -10, -44, 54, 42, 2, -3, -4, 12, -9, -80, 52, 9, 84, -2, -65, 1, -4, -5, -6, 8, 80, 32, 13, -59, -5, -13], "withholdReward": false, "trial_id": "mdp_trial_20", "block": "test", "trialIndex": 21, "score": 2, "costs": 0, "simulationMode": [null, null, null, null, null], "rewards": [2, -3, -4, 9, -2], "path": ["0", "0", "12", "13", "14", "19", "21"], "rt": [836, 5, 50, 42, 146], "actions": ["right", "right", "right", "down", "down"], "actionTimes": [2459, 2963, 3526, 4084, 4755], "queries": {"click": {"state": {"target": [], "time": []}, "edge": {"target": [], "time": []}}, "mouseover": {"state": {"target": [], "time": []}, "edge": {"target": [], "time": []}}, "mouseout": {"state": {"target": [], "time": []}, "edge": {"target": [], "time": []}}}, "displayed_time": "15.63", "trialTime": 16333, "trial_type": "mouselab-mdp", "trial_index": 28, "time_elapsed": 852853, "internal_node_id": "0.0-6.0-1.0-19.0"}}, {"uniqueid": "w10573274:a74235688", "current_trial": 29, "dateTime": 1693566939197, "trialdata": {"revealed_states": [], "clicked_states": [], "num_clicks_accrued": [0, 0, 0, 0, 0, 0, 0, 0, 0, 0, 0, 0, 0], "stateRewards": ["", 1, -2, -2, 10, -31, -77, 35, 9, -47, 8, 48, -2, 1, -4, -3, -26, -50, 43, -11, 76, -38, 17, 1, -1, 6, 10, 15, -9, 12, -8, 85, 11, -55], "withholdReward": false, "trial_id": "mdp_trial_21", "block": "test", "trialIndex": 22, "score": -70, "costs": 0, "simulationMode": [null, null, null, null, null], "rewards": [1, -2, -2, 10, -77], "path": ["0", "0", "1", "2", "3", "4", "6"], "rt": [751, 65, 160, 655, 5], "actions": ["up", "up", "up", "right", "right"], "actionTimes": [2308, 2874, 3535, 4680, 5196], "queries": {"click": {"state": {"target": [], "time": []}, "edge": {"target": [], "time": []}}, "mouseover": {"state": {"target": [], "time": []}, "edge": {"target": [], "time": []}}, "mouseout": {"state": {"target": [], "time": []}, "edge": {"target": [], "time": []}}}, "displayed_time": "15.56", "trialTime": 16609, "trial_type": "mouselab-mdp", "trial_index": 29, "time_elapsed": 869915, "internal_node_id": "0.0-6.0-1.0-20.0"}}, {"uniqueid": "w10573274:a74235688", "current_trial": 30, "dateTime": 1693566957329, "trialdata": {"revealed_states": [], "clicked_states": [], "num_clicks_accrued": [0, 0, 0, 0, 0, 0, 0, 0, 0, 0, 0, 0, 0], "stateRewards": ["", -2, 2, -1, -6, 22, 6, 6, -5, 70, -42, 65, 1, 3, 5, -6, -67, -9, 3, 14, 7, -62, -13, -2, 4, 1, 16, 42, -21, -52, -8, 32, 53, 81], "withholdReward": false, "trial_id": "mdp_trial_22", "block": "test", "trialIndex": 23, "score": -1, "costs": 0, "simulationMode": [null, null, null, null, null], "rewards": [-2, 2, -1, -6, 6], "path": ["0", "0", "1", "2", "3", "4", "7"], "rt": [544, 33, 53, 463, 467], "actions": ["up", "up", "up", "right", "down"], "actionTimes": [2754, 3276, 3828, 4789, 5759], "queries": {"click": {"state": {"target": [], "time": []}, "edge": {"target": [], "time": []}}, "mouseover": {"state": {"target": [], "time": []}, "edge": {"target": [], "time": []}}, "mouseout": {"state": {"target": [], "time": []}, "edge": {"target": [], "time": []}}}, "displayed_time": "16.21", "trialTime": 17658, "trial_type": "mouselab-mdp", "trial_index": 30, "time_elapsed": 888047, "internal_node_id": "0.0-6.0-1.0-21.0"}}, {"uniqueid": "w10573274:a74235688", "current_trial": 31, "dateTime": 1693566976012, "trialdata": {"revealed_states": [], "clicked_states": [], "num_clicks_accrued": [0, 0, 0, 0, 0, 0, 0, 0, 0, 0, 0, 0, 0], "stateRewards": ["", 2, -1, -4, -13, 74, 77, 3, 2, -43, -2, -11, 2, 3, 7, 11, -26, -29, -33, -3, -3, -13, -3, 1, 3, -7, 14, -59, 33, 9, -5, 34, 79, 68], "withholdReward": false, "trial_id": "mdp_trial_23", "block": "test", "trialIndex": 24, "score": 71, "costs": 0, "simulationMode": [null, null, null, null, null], "rewards": [1, 3, -7, -5, 79], "path": ["0", "0", "23", "24", "25", "30", "32"], "rt": [2275, 85, 39, 329, 381], "actions": ["left", "left", "left", "down", "down"], "actionTimes": [4023, 4605, 5142, 5966, 6850], "queries": {"click": {"state": {"target": [], "time": []}, "edge": {"target": [], "time": []}}, "mouseover": {"state": {"target": [], "time": []}, "edge": {"target": [], "time": []}}, "mouseout": {"state": {"target": [], "time": []}, "edge": {"target": [], "time": []}}}, "displayed_time": "15.75", "trialTime": 18234, "trial_type": "mouselab-mdp", "trial_index": 31, "time_elapsed": 906730, "internal_node_id": "0.0-6.0-1.0-22.0"}}, {"uniqueid": "w10573274:a74235688", "current_trial": 32, "dateTime": 1693566992456, "trialdata": {"revealed_states": [], "clicked_states": [], "num_clicks_accrued": [0, 0, 0, 0, 0, 0, 0, 0, 0, 0, 0, 0, 0], "stateRewards": ["", 2, -3, -4, -1, 25, -16, 16, 10, -71, -20, -55, 1, 3, -4, -9, 1, 32, 11, -6, 32, -50, -41, -1, 4, 4, -8, 7, -81, 70, 2, -52, 45, -10], "withholdReward": false, "trial_id": "mdp_trial_24", "block": "test", "trialIndex": 25, "score": 26, "costs": 0, "simulationMode": [null, null, null, null, null], "rewards": [1, 3, -4, -6, 32], "path": ["0", "0", "12", "13", "14", "19", "20"], "rt": [772, 84, 172, 142, 211], "actions": ["right", "right", "right", "down", "right"], "actionTimes": [2079, 2654, 3326, 3962, 4664], "queries": {"click": {"state": {"target": [], "time": []}, "edge": {"target": [], "time": []}}, "mouseover": {"state": {"target": [], "time": []}, "edge": {"target": [], "time": []}}, "mouseout": {"state": {"target": [], "time": []}, "edge": {"target": [], "time": []}}}, "displayed_time": "15.31", "trialTime": 15927, "trial_type": "mouselab-mdp", "trial_index": 32, "time_elapsed": 923174, "internal_node_id": "0.0-6.0-1.0-23.0"}}, {"uniqueid": "w10573274:a74235688", "current_trial": 33, "dateTime": 1693567010881, "trialdata": {"revealed_states": [], "clicked_states": [], "num_clicks_accrued": [0, 0, 0, 0, 0, 0, 0, 0, 0, 0, 0, 0, 0], "stateRewards": ["", 1, -1, -7, -7, -22, 15, -13, 13, 26, -32, 38, -1, 1, -7, -4, 16, -62, 86, 12, -54, 56, 64, -2, -1, 6, 14, -57, 37, 62, -6, -25, 50, -70], "withholdReward": false, "trial_id": "mdp_trial_25", "block": "test", "trialIndex": 26, "score": 5, "costs": 0, "simulationMode": [null, null, null, null, null], "rewards": [-1, 1, -7, -4, 16], "path": ["0", "0", "12", "13", "14", "15", "16"], "rt": [833, 285, 660, 391, 492], "actions": ["right", "right", "right", "up", "up"], "actionTimes": [1926, 2712, 3871, 4751, 5736], "queries": {"click": {"state": {"target": [], "time": []}, "edge": {"target": [], "time": []}}, "mouseover": {"state": {"target": [], "time": []}, "edge": {"target": [], "time": []}}, "mouseout": {"state": {"target": [], "time": []}, "edge": {"target": [], "time": []}}}, "displayed_time": "15.10", "trialTime": 17909, "trial_type": "mouselab-mdp", "trial_index": 33, "time_elapsed": 941599, "internal_node_id": "0.0-6.0-1.0-24.0"}}, {"uniqueid": "w10573274:a74235688", "current_trial": 34, "dateTime": 1693567029433, "trialdata": {"revealed_states": [], "clicked_states": [], "num_clicks_accrued": [0, 0, 0, 0, 0, 0, 0, 0, 0, 0, 0, 0, 0], "stateRewards": ["", -2, 1, -5, 2, -68, 80, 33, 10, 67, -59, 20, -1, -3, 3, 14, 74, -2, 24, -16, 63, 80, 46, -1, 4, 6, 12, 83, -38, -43, -4, 43, 14, -79], "withholdReward": false, "trial_id": "mdp_trial_26", "block": "test", "trialIndex": 27, "score": 24, "costs": 0, "simulationMode": [null, null, null, null, null], "rewards": [-2, 1, -5, 10, 20], "path": ["0", "0", "1", "2", "3", "8", "11"], "rt": [775, 199, 55, 579, 58], "actions": ["up", "up", "up", "left", "left"], "actionTimes": [4253, 4945, 5501, 6575, 7138], "queries": {"click": {"state": {"target": [], "time": []}, "edge": {"target": [], "time": []}}, "mouseover": {"state": {"target": [], "time": []}, "edge": {"target": [], "time": []}}, "mouseout": {"state": {"target": [], "time": []}, "edge": {"target": [], "time": []}}}, "displayed_time": "17.48", "trialTime": 18028, "trial_type": "mouselab-mdp", "trial_index": 34, "time_elapsed": 960151, "internal_node_id": "0.0-6.0-1.0-25.0"}}, {"uniqueid": "w10573274:a74235688", "current_trial": 35, "dateTime": 1693567047621, "trialdata": {"revealed_states": [], "clicked_states": [], "num_clicks_accrued": [0, 0, 0, 0, 0, 0, 0, 0, 0, 0, 0, 0, 0], "stateRewards": ["", -1, -3, 1, -4, -48, -63, -49, -2, -84, -19, 65, 2, -2, -2, -12, -4, 59, 9, 6, 75, 69, -13, -1, -3, -3, -2, -37, -68, -36, 13, 32, 18, -14], "withholdReward": false, "trial_id": "mdp_trial_27", "block": "test", "trialIndex": 28, "score": 60, "costs": 0, "simulationMode": [null, null, null, null, null], "rewards": [-1, -3, 1, -2, 65], "path": ["0", "0", "1", "2", "3", "8", "11"], "rt": [523, 292, 528, 386, 651], "actions": ["up", "up", "up", "left", "left"], "actionTimes": [1899, 2694, 3714, 4605, 5754], "queries": {"click": {"state": {"target": [], "time": []}, "edge": {"target": [], "time": []}}, "mouseover": {"state": {"target": [], "time": []}, "edge": {"target": [], "time": []}}, "mouseout": {"state": {"target": [], "time": []}, "edge": {"target": [], "time": []}}}, "displayed_time": "15.38", "trialTime": 17688, "trial_type": "mouselab-mdp", "trial_index": 35, "time_elapsed": 978339, "internal_node_id": "0.0-6.0-1.0-26.0"}}, {"uniqueid": "w10573274:a74235688", "current_trial": 36, "dateTime": 1693567066854, "trialdata": {"revealed_states": [], "clicked_states": [], "num_clicks_accrued": [0, 0, 0, 0, 0, 0, 0, 0, 0, 0, 0, 0, 0], "stateRewards": ["", 1, -3, -2, 14, 49, -40, -39, 2, 26, -61, 73, 1, -4, -8, 12, 79, 29, -65, -13, 55, -26, 27, -1, 3, 3, 9, -17, -60, -18, -8, 35, -88, 69], "withholdReward": false, "trial_id": "mdp_trial_28", "block": "test", "trialIndex": 29, "score": 32, "costs": 0, "simulationMode": [null, null, null, null, null], "rewards": [-1, 3, 3, -8, 35], "path": ["0", "0", "23", "24", "25", "30", "31"], "rt": [2127, 37, 226, 61, 95], "actions": ["left", "left", "left", "down", "right"], "actionTimes": [6306, 6858, 7580, 8131, 8748], "queries": {"click": {"state": {"target": [], "time": []}, "edge": {"target": [], "time": []}}, "mouseover": {"state": {"target": [], "time": []}, "edge": {"target": [], "time": []}}, "mouseout": {"state": {"target": [], "time": []}, "edge": {"target": [], "time": []}}}, "displayed_time": "18.18", "trialTime": 18738, "trial_type": "mouselab-mdp", "trial_index": 36, "time_elapsed": 997572, "internal_node_id": "0.0-6.0-1.0-27.0"}}, {"uniqueid": "w10573274:a74235688", "current_trial": 37, "dateTime": 1693567084328, "trialdata": {"revealed_states": [], "clicked_states": [], "num_clicks_accrued": [0, 0, 0, 0, 0, 0, 0, 0, 0, 0, 0, 0, 0], "stateRewards": ["", -2, 3, -5, -7, 66, 43, -60, -4, -70, -75, 4, -1, 2, 2, -13, 54, 11, -40, -1, 77, 32, 15, -2, 3, -8, -9, -35, 83, -27, 6, -74, -34, 44], "withholdReward": false, "trial_id": "mdp_trial_29", "block": "test", "trialIndex": 30, "score": 34, "costs": 0, "simulationMode": [null, null, null, null, null], "rewards": [-1, 2, 2, -1, 32], "path": ["0", "0", "12", "13", "14", "19", "21"], "rt": [731, 96, 406, 422, 528], "actions": ["right", "right", "right", "down", "down"], "actionTimes": [2651, 3245, 4155, 5071, 6111], "queries": {"click": {"state": {"target": [], "time": []}, "edge": {"target": [], "time": []}}, "mouseover": {"state": {"target": [], "time": []}, "edge": {"target": [], "time": []}}, "mouseout": {"state": {"target": [], "time": []}, "edge": {"target": [], "time": []}}}, "displayed_time": "15.92", "trialTime": 16923, "trial_type": "mouselab-mdp", "trial_index": 37, "time_elapsed": 1015046, "internal_node_id": "0.0-6.0-1.0-28.0"}}, {"uniqueid": "w10573274:a74235688", "current_trial": 38, "dateTime": 1693567101603, "trialdata": {"revealed_states": [], "clicked_states": [], "num_clicks_accrued": [0, 0, 0, 0, 0, 0, 0, 0, 0, 0, 0, 0, 0], "stateRewards": ["", -2, 1, -3, -16, -39, -52, 30, -7, -41, -59, 11, 2, 1, 8, 2, -11, -26, -42, -13, 87, -59, -48, -1, -1, -1, 16, -79, 31, 50, -1, -84, 34, -82], "withholdReward": false, "trial_id": "mdp_trial_30", "block": "test", "trialIndex": 31, "score": -70, "costs": 0, "simulationMode": [null, null, null, null, null], "rewards": [-2, 1, -3, -7, -59], "path": ["0", "0", "1", "2", "3", "8", "10"], "rt": [760, 156, 171, 403, 167], "actions": ["up", "up", "up", "left", "down"], "actionTimes": [2489, 3136, 3801, 4703, 5363], "queries": {"click": {"state": {"target": [], "time": []}, "edge": {"target": [], "time": []}}, "mouseover": {"state": {"target": [], "time": []}, "edge": {"target": [], "time": []}}, "mouseout": {"state": {"target": [], "time": []}, "edge": {"target": [], "time": []}}}, "displayed_time": "15.73", "trialTime": 16712, "trial_type": "mouselab-mdp", "trial_index": 38, "time_elapsed": 1032321, "internal_node_id": "0.0-6.0-1.0-29.0"}}, {"uniqueid": "w10573274:a74235688", "current_trial": 39, "dateTime": 1693567118315, "trialdata": {"revealed_states": [], "clicked_states": [], "num_clicks_accrued": [0, 0, 0, 0, 0, 0, 0, 0, 0, 0, 0, 0, 0], "stateRewards": ["", 2, 4, 4, 9, -88, -10, 44, 16, -54, 64, 78, 1, 2, 5, 16, 80, 36, 7, -4, 9, -47, -70, -1, -3, 6, -16, 11, 80, 28, 8, -1, 34, -17], "withholdReward": false, "trial_id": "mdp_trial_31", "block": "test", "trialIndex": 32, "score": 63, "costs": 0, "simulationMode": [null, null, null, null, null], "rewards": [2, 4, 4, 9, 44], "path": ["0", "0", "1", "2", "3", "4", "7"], "rt": [804, 114, 363, 347, 305], "actions": ["up", "up", "up", "right", "down"], "actionTimes": [2480, 3085, 3952, 4802, 5628], "queries": {"click": {"state": {"target": [], "time": []}, "edge": {"target": [], "time": []}}, "mouseover": {"state": {"target": [], "time": []}, "edge": {"target": [], "time": []}}, "mouseout": {"state": {"target": [], "time": []}, "edge": {"target": [], "time": []}}}, "displayed_time": "15.68", "trialTime": 16131, "trial_type": "mouselab-mdp", "trial_index": 39, "time_elapsed": 1049033, "internal_node_id": "0.0-6.0-1.0-30.0"}}, {"uniqueid": "w10573274:a74235688", "current_trial": 40, "dateTime": 1693567135683, "trialdata": {"revealed_states": [], "clicked_states": [], "num_clicks_accrued": [0, 0, 0, 0, 0, 0, 0, 0, 0, 0, 0, 0, 0], "stateRewards": ["", -2, -4, -2, 10, -8, -15, -47, 7, -84, 53, 5, -1, 2, -7, 3, 83, 31, 47, -1, 30, -8, 69, 2, -4, -1, 8, -7, 12, -8, -8, -13, 30, -84], "withholdReward": false, "trial_id": "mdp_trial_32", "block": "test", "trialIndex": 33, "score": 44, "costs": 0, "simulationMode": [null, null, null, null, null], "rewards": [-1, 2, -7, 3, 47], "path": ["0", "0", "12", "13", "14", "15", "18"], "rt": [646, 397, 28, 435, 219], "actions": ["right", "right", "right", "up", "left"], "actionTimes": [2069, 2970, 3501, 4457, 5207], "queries": {"click": {"state": {"target": [], "time": []}, "edge": {"target": [], "time": []}}, "mouseover": {"state": {"target": [], "time": []}, "edge": {"target": [], "time": []}}, "mouseout": {"state": {"target": [], "time": []}, "edge": {"target": [], "time": []}}}, "displayed_time": "15.43", "trialTime": 16831, "trial_type": "mouselab-mdp", "trial_index": 40, "time_elapsed": 1066401, "internal_node_id": "0.0-6.0-1.0-31.0"}}, {"uniqueid": "w10573274:a74235688", "current_trial": 41, "dateTime": 1693567153593, "trialdata": {"revealed_states": [], "clicked_states": [], "num_clicks_accrued": [0, 0, 0, 0, 0, 0, 0, 0, 0, 0, 0, 0, 0], "stateRewards": ["", 1, -1, 4, -2, -75, -75, 84, -9, -60, -79, 59, 2, -4, 8, 9, -17, -82, 80, 14, -4, 49, 49, -1, 3, 6, -11, -33, 34, 55, 9, -57, 5, 59], "withholdReward": false, "trial_id": "mdp_trial_33", "block": "test", "trialIndex": 34, "score": -40, "costs": 0, "simulationMode": [null, null, null, null, null], "rewards": [-1, 3, 6, 9, -57], "path": ["0", "0", "23", "24", "25", "30", "31"], "rt": [2112, 170, 259, 84, 60], "actions": ["left", "left", "left", "down", "right"], "actionTimes": [4120, 4800, 5556, 6134, 6691], "queries": {"click": {"state": {"target": [], "time": []}, "edge": {"target": [], "time": []}}, "mouseover": {"state": {"target": [], "time": []}, "edge": {"target": [], "time": []}}, "mouseout": {"state": {"target": [], "time": []}, "edge": {"target": [], "time": []}}}, "displayed_time": "16.01", "trialTime": 17315, "trial_type": "mouselab-mdp", "trial_index": 41, "time_elapsed": 1084311, "internal_node_id": "0.0-6.0-1.0-32.0"}}, {"uniqueid": "w10573274:a74235688", "current_trial": 42, "dateTime": 1693567171516, "trialdata": {"revealed_states": [], "clicked_states": [], "num_clicks_accrued": [0, 0, 0, 0, 0, 0, 0, 0, 0, 0, 0, 0, 0], "stateRewards": ["", -2, -1, 3, -3, 71, -58, -21, 7, -10, -75, -37, 2, 4, -1, -12, -79, -29, -48, 3, -41, -10, -30, -1, -2, 1, -15, 13, 66, 22, -1, -42, -86, -55], "withholdReward": false, "trial_id": "mdp_trial_34", "block": "test", "trialIndex": 35, "score": -24, "costs": 0, "simulationMode": [null, null, null, null, null], "rewards": [-2, -1, 3, -3, -21], "path": ["0", "0", "1", "2", "3", "4", "7"], "rt": [1061, 132, 99, 165, 41], "actions": ["up", "up", "up", "right", "down"], "actionTimes": [2426, 3052, 3669, 4336, 4877], "queries": {"click": {"state": {"target": [], "time": []}, "edge": {"target": [], "time": []}}, "mouseover": {"state": {"target": [], "time": []}, "edge": {"target": [], "time": []}}, "mouseout": {"state": {"target": [], "time": []}, "edge": {"target": [], "time": []}}}, "displayed_time": "15.37", "trialTime": 17327, "trial_type": "mouselab-mdp", "trial_index": 42, "time_elapsed": 1102234, "internal_node_id": "0.0-6.0-1.0-33.0"}}, {"uniqueid": "w10573274:a74235688", "current_trial": 43, "dateTime": 1693567189770, "trialdata": {"revealed_states": [], "clicked_states": [], "num_clicks_accrued": [0, 0, 0, 0, 0, 0, 0, 0, 0, 0, 0, 0, 0], "stateRewards": ["", 2, -1, 3, -12, -83, 6, -33, 9, 28, 24, -50, -2, -1, -2, -5, -87, 37, 82, 12, 80, -5, 10, -2, -3, -6, 9, 22, -1, 16, 9, 77, -62, 58], "withholdReward": false, "trial_id": "mdp_trial_35", "block": "test", "trialIndex": 36, "score": 27, "costs": 0, "simulationMode": [null, null, null, null, null], "rewards": [-2, -1, -2, -5, 37], "path": ["0", "0", "12", "13", "14", "15", "17"], "rt": [655, 474, 183, 521, 110], "actions": ["right", "right", "right", "up", "right"], "actionTimes": [2043, 3023, 3698, 4719, 5326], "queries": {"click": {"state": {"target": [], "time": []}, "edge": {"target": [], "time": []}}, "mouseover": {"state": {"target": [], "time": []}, "edge": {"target": [], "time": []}}, "mouseout": {"state": {"target": [], "time": []}, "edge": {"target": [], "time": []}}}, "displayed_time": "15.39", "trialTime": 17642, "trial_type": "mouselab-mdp", "trial_index": 43, "time_elapsed": 1120488, "internal_node_id": "0.0-6.0-1.0-34.0"}}, {"uniqueid": "w10573274:a74235688", "current_trial": 44, "dateTime": 1693567210047, "trialdata": {"revealed_states": [], "clicked_states": [], "num_clicks_accrued": [0, 0, 0, 0, 0, 0, 0, 0, 0, 0, 0, 0, 0], "stateRewards": ["", -1, 4, -3, 3, 57, -61, 5, -11, 23, -1, 34, -2, -4, -1, -13, 27, 38, -36, 4, -45, 21, 88, 1, -2, -1, 1, -69, -5, -78, -12, -9, 38, -54], "withholdReward": false, "trial_id": "mdp_trial_36", "block": "test", "trialIndex": 37, "score": -48, "costs": 0, "simulationMode": [null, null, null, null, null], "rewards": [-2, -4, -1, 4, -45], "path": ["0", "0", "12", "13", "14", "19", "20"], "rt": [2044, 283, 93, 5, 52], "actions": ["right", "right", "right", "down", "right"], "actionTimes": [6223, 7043, 7635, 8128, 8694], "queries": {"click": {"state": {"target": [], "time": []}, "edge": {"target": [], "time": []}}, "mouseover": {"state": {"target": [], "time": []}, "edge": {"target": [], "time": []}}, "mouseout": {"state": {"target": [], "time": []}, "edge": {"target": [], "time": []}}}, "displayed_time": "18.18", "trialTime": 19692, "trial_type": "mouselab-mdp", "trial_index": 44, "time_elapsed": 1140765, "internal_node_id": "0.0-6.0-1.0-35.0"}}, {"uniqueid": "w10573274:a74235688", "current_trial": 45, "dateTime": 1693567227977, "trialdata": {"revealed_states": [], "clicked_states": [], "num_clicks_accrued": [0, 0, 0, 0, 0, 0, 0, 0, 0, 0, 0, 0, 0], "stateRewards": ["", 2, -1, 1, 10, -52, 86, -22, -2, -14, -63, 38, 1, 3, 7, -8, 11, -32, -27, 9, -71, 40, -87, -2, -1, 5, -7, 12, 31, -57, 13, 86, -58, 29], "withholdReward": false, "trial_id": "mdp_trial_37", "block": "test", "trialIndex": 38, "score": -67, "costs": 0, "simulationMode": [null, null, null, null, null], "rewards": [1, 3, 7, 9, -87], "path": ["0", "0", "12", "13", "14", "19", "22"], "rt": [953, 90, 19, 422, 306], "actions": ["right", "right", "right", "down", "left"], "actionTimes": [2646, 3237, 3749, 4685, 5486], "queries": {"click": {"state": {"target": [], "time": []}, "edge": {"target": [], "time": []}}, "mouseover": {"state": {"target": [], "time": []}, "edge": {"target": [], "time": []}}, "mouseout": {"state": {"target": [], "time": []}, "edge": {"target": [], "time": []}}}, "displayed_time": "15.70", "trialTime": 17395, "trial_type": "mouselab-mdp", "trial_index": 45, "time_elapsed": 1158695, "internal_node_id": "0.0-6.0-1.0-36.0"}}, {"uniqueid": "w10573274:a74235688", "current_trial": 46, "dateTime": 1693567245656, "trialdata": {"revealed_states": [], "clicked_states": [], "num_clicks_accrued": [0, 0, 0, 0, 0, 0, 0, 0, 0, 0, 0, 0, 0], "stateRewards": ["", 1, -2, -8, -13, 4, 34, -84, -4, -49, 88, -70, -1, 3, -4, 10, -77, 13, -34, 15, -21, -16, 27, 1, -2, 8, -8, -6, 38, -26, 6, -15, 66, -3], "withholdReward": false, "trial_id": "mdp_trial_38", "block": "test", "trialIndex": 39, "score": -26, "costs": 0, "simulationMode": [null, null, null, null, null], "rewards": [-1, 3, -4, 10, -34], "path": ["0", "0", "12", "13", "14", "15", "18"], "rt": [763, 407, 49, 178, 163], "actions": ["right", "right", "right", "up", "left"], "actionTimes": [2291, 3196, 3739, 4434, 5086], "queries": {"click": {"state": {"target": [], "time": []}, "edge": {"target": [], "time": []}}, "mouseover": {"state": {"target": [], "time": []}, "edge": {"target": [], "time": []}}, "mouseout": {"state": {"target": [], "time": []}, "edge": {"target": [], "time": []}}}, "displayed_time": "15.53", "trialTime": 17133, "trial_type": "mouselab-mdp", "trial_index": 46, "time_elapsed": 1176374, "internal_node_id": "0.0-6.0-1.0-37.0"}}, {"uniqueid": "w10573274:a74235688", "current_trial": 47, "dateTime": 1693567262788, "trialdata": {"revealed_states": [], "clicked_states": [], "num_clicks_accrued": [0, 0, 0, 0, 0, 0, 0, 0, 0, 0, 0, 0, 0], "stateRewards": ["", -1, -2, -1, -10, -57, 73, -72, -16, 75, -14, -46, -2, -3, -7, -1, -61, -60, 76, -4, 50, 4, 14, 2, 2, -7, 12, -65, -32, 15, -8, -76, -25, -61], "withholdReward": false, "trial_id": "mdp_trial_39", "block": "test", "trialIndex": 40, "score": -34, "costs": 0, "simulationMode": [null, null, null, null, null], "rewards": [-1, -2, -1, -16, -14], "path": ["0", "0", "1", "2", "3", "8", "10"], "rt": [398, 151, 108, 185, 402], "actions": ["up", "up", "up", "left", "down"], "actionTimes": [1804, 2459, 3066, 3743, 4643], "queries": {"click": {"state": {"target": [], "time": []}, "edge": {"target": [], "time": []}}, "mouseover": {"state": {"target": [], "time": []}, "edge": {"target": [], "time": []}}, "mouseout": {"state": {"target": [], "time": []}, "edge": {"target": [], "time": []}}}, "displayed_time": "15.41", "trialTime": 16565, "trial_type": "mouselab-mdp", "trial_index": 47, "time_elapsed": 1193506, "internal_node_id": "0.0-6.0-1.0-38.0"}}, {"uniqueid": "w10573274:a74235688", "current_trial": 48, "dateTime": 1693567285190, "trialdata": {"revealed_states": [], "clicked_states": [], "num_clicks_accrued": [0, 0, 0, 0, 0, 0, 0, 0, 0, 0, 0, 0, 0], "stateRewards": ["", -1, 2, -7, -12, -62, 12, -13, 5, 77, -71, 83, 1, -4, 7, 15, -42, -87, -4, 5, -25, 44, 88, -1, 4, -5, -8, 14, 51, 8, -5, 83, -24, -19], "withholdReward": false, "trial_id": "mdp_trial_40", "block": "test", "trialIndex": 41, "score": -80, "costs": 0, "simulationMode": [null, null, null, null, null], "rewards": [-1, 2, -7, -12, -62], "path": ["0", "0", "1", "2", "3", "4", "5"], "rt": [473, 344, 182, 150, 167], "actions": ["up", "up", "up", "right", "up"], "actionTimes": [1964, 2809, 3481, 4133, 4799], "queries": {"click": {"state": {"target": [], "time": []}, "edge": {"target": [], "time": []}}, "mouseover": {"state": {"target": [], "time": []}, "edge": {"target": [], "time": []}}, "mouseout": {"state": {"target": [], "time": []}, "edge": {"target": [], "time": []}}}, "displayed_time": "15.49", "trialTime": 21808, "trial_type": "mouselab-mdp", "trial_index": 48, "time_elapsed": 1215909, "internal_node_id": "0.0-6.0-1.0-39.0"}}, {"uniqueid": "w10573274:a74235688", "current_trial": 49, "dateTime": 1693567344914, "trialdata": {"rt": 59714, "response": {"Q0": "$-88 to $88", "Q1": "$-32 to $32", "Q2": "$-32 to $32", "Q3": "The cost for clicking on nodes varied between nodes.", "Q4": "Very motivated"}, "question_order": [0, 1, 2, 3, 4], "trial_id": "final_quiz_control", "trial_type": "survey-multi-choice", "trial_index": 49, "time_elapsed": 1275633, "internal_node_id": "0.0-6.0-2.0"}}, {"uniqueid": "w10573274:a74235688", "current_trial": 50, "dateTime": 1693567473931, "trialdata": {"rt": 129006, "response": {"Q0": "I had to focus on the side that i was winning the most cash. The higher side had more higher money so to focus on that. Trust your gut.", "Q1": "not really, I just used my strategy.", "Q2": "It was not really difficult if you use your strategy."}, "trial_id": "self_report_control", "trial_type": "survey-text", "trial_index": 50, "time_elapsed": 1404649, "internal_node_id": "0.0-6.0-3.0"}}, {"uniqueid": "w10573274:a74235688", "current_trial": 51, "dateTime": 1693567521395, "trialdata": {"rt": 47458, "response": {"Q0": "Agree", "Q1": "Disagree", "Q2": "Disagree", "Q3": "Agree", "Q4": "Neither disagree nor agree", "Q5": "Disagree", "Q6": "Agree"}, "question_order": [0, 1, 2, 3, 4, 5, 6], "trial_id": "self_report_2", "trial_type": "survey-multi-choice", "trial_index": 51, "time_elapsed": 1452114, "internal_node_id": "0.0-6.0-4.0"}}, {"uniqueid": "w10573274:a74235688", "current_trial": 52, "dateTime": 1693567554330, "trialdata": {"rt": 32928, "response": {"gender": "male", "age": "30", "colorblind": "0", "effort": "0"}, "trial_type": "survey-html-form", "trial_index": 52, "time_elapsed": 1485049, "internal_node_id": "0.0-6.0-5.0"}}, {"uniqueid": "w10573274:a74235688", "current_trial": 53, "dateTime": 1693567591129, "trialdata": {"rt": 36792, "response": {"Q0": "not really", "Q1": "no . this is my first time", "Q2": "it was fun"}, "trial_type": "survey-text", "trial_index": 53, "time_elapsed": 1521848, "internal_node_id": "0.0-6.0-6.0"}}, {"uniqueid": "w10573274:a74235688", "current_trial": 54, "dateTime": 1693567620474, "trialdata": {"rt": 29340, "stimulus": "<h1>Completion Code Instructions (1/2)</h1>\n<br><br><br><br>\nYou have reached the end of the experiment! The completion code consists of two parts: (1) a code with 2 characters (2) a code with 6 characters. On this page, you will receive the second part of the code. The first part of the completion code will be on the next page.\n<br><br>\nThe second part of your completion code is: <b>EWEK22</b>\n<br><br>\nPlease note this down. Then, press 'Finish HIT' in order to find the first part of your completion code. Once the data has been saved, you will receive this code either in this window or in the original browser window where you started the experiment.\n", "response": 0, "trial_type": "html-button-response", "trial_index": 54, "time_elapsed": 1551193, "internal_node_id": "0.0-6.0-7.0"}}, {"uniqueid": "w10573274:a74235688", "current_trial": 55, "dateTime": 1693567621478, "trialdata": {"success": true, "trial_type": "fullscreen", "trial_index": 55, "time_elapsed": 1552196, "internal_node_id": "0.0-7.0"}}], "questiondata": {"params": {"CODE": "C6DMOQA6", "MIN_TIME": 14, "inspectCost": 1, "startTime": "Fri Sep 01 2023 13:01:07 GMT+0200 (South Africa Standard Time)", "bonusRate": 0.002, "variance": "1_2_4_8_44", "branching": "31123"}, "final_score": 69}, "eventdata": [{"eventtype": "initialized", "value": null, "timestamp": 1693566066484, "interval": 0}, {"eventtype": "window_resize", "value": [1364, 714], "timestamp": 1693566066484, "interval": 0}, {"eventtype": "window_resize", "value": [1364, 714], "timestamp": 1693566067040, "interval": 556}, {"eventtype": "window_resize", "value": [1366, 768], "timestamp": 1693566094389, "interval": 27349}, {"eventtype": "window_resize", "value": [1364, 714], "timestamp": 1693567620729, "interval": 1526340}], "useragent": "Mozilla/5.0 (Windows NT 10.0; Win64; x64) AppleWebKit/537.36 (KHTML, like Gecko) Chrome/116.0.0.0 Safari/537.36 Edg/116.0.1938.62", "mode": "live", "id": "w10573274:a74235688", "status": "user data saved", "Beginhit": "2023-09-01 11:01:02.310365", "Beginexp": "2023-09-01 11:01:34.542949", "Endhit": "2023-09-01 11:27:01.96856", "psiturkStatus": 3, "browser": "<redacted>", "platform": "windows", "language": "en-US"}