{"condition": 0, "counterbalance": 0, "assignmentId": "a75978586", "workerId": "w11594719", "hitId": "h56878259", "currenttrial": 61, "bonus": 0, "data": [{"uniqueid": "w11594719:a75978586", "current_trial": 0, "dateTime": 1691142340396, "trialdata": {"success": true, "trial_type": "fullscreen", "trial_index": 0, "time_elapsed": 12441, "internal_node_id": "0.0-0.0"}}, {"uniqueid": "w11594719:a75978586", "current_trial": 1, "dateTime": 1691142351856, "trialdata": {"view_history": [{"page_index": 0, "viewing_time": 11451}], "rt": 11451, "trial_id": "exp_instructions_control", "trial_type": "instructions", "trial_index": 1, "time_elapsed": 23901, "internal_node_id": "0.0-1.0"}}, {"uniqueid": "w11594719:a75978586", "current_trial": 2, "dateTime": 1691142356573, "trialdata": {"success": true, "trial_type": "fullscreen", "trial_index": 2, "time_elapsed": 28618, "internal_node_id": "0.0-2.0-0.0"}}, {"uniqueid": "w11594719:a75978586", "current_trial": 3, "dateTime": 1691142450864, "trialdata": {"view_history": [{"page_index": 0, "viewing_time": 43993}, {"page_index": 1, "viewing_time": 18131}, {"page_index": 0, "viewing_time": 1875}, {"page_index": 1, "viewing_time": 1362}, {"page_index": 2, "viewing_time": 22729}, {"page_index": 3, "viewing_time": 6199}], "rt": 94289, "trial_id": "mouselab_instructions_1_control", "trial_type": "instructions", "trial_index": 3, "time_elapsed": 122909, "internal_node_id": "0.0-2.0-1.0"}}, {"uniqueid": "w11594719:a75978586", "current_trial": 4, "dateTime": 1691142480146, "trialdata": {"revealed_states": [], "clicked_states": [], "num_clicks_accrued": [0, 0, 0, 0, 0, 0, 0, 0, 0, 0, 0, 0, 0], "stateRewards": ["", 10, 10, 10, -10, 10, 10, 10, -10, 10, 10, -10, -10, 10, -10, 10, 10, -10, -10, 10, 10, 10, 10, 10, -10, -10, -10, -10, -10, 10, -10, -10, 10, -10], "withholdReward": false, "trial_id": "practice_1", "block": "test", "trialIndex": 0, "score": 13.5, "costs": 0, "simulationMode": [null, null, null, null, null], "rewards": [-10, 10, -10, 10, 10], "path": ["0", "0", "12", "13", "14", "19", "20"], "rt": [6863, 940, 2841, 1127, 1089], "actions": ["right", "right", "right", "down", "right"], "actionTimes": [13894, 15339, 18696, 20348, 21952], "queries": {"click": {"state": {"target": [], "time": []}, "edge": {"target": [], "time": []}}, "mouseover": {"state": {"target": ["0"], "time": [8998]}, "edge": {"target": [], "time": []}}, "mouseout": {"state": {"target": ["19", "22", "14", "20", "19", "22", "0", "12", "13"], "time": [1787, 1828, 2432, 5683, 5717, 6084, 9203, 24816, 24834]}, "edge": {"target": [], "time": []}}}, "displayed_time": "22.45", "trialTime": 28315, "trial_type": "mouselab-mdp", "trial_index": 4, "time_elapsed": 152190, "internal_node_id": "0.0-2.0-2.0-0.0"}}, {"uniqueid": "w11594719:a75978586", "current_trial": 5, "dateTime": 1691142500694, "trialdata": {"revealed_states": [], "clicked_states": [], "num_clicks_accrued": [0, 0, 0, 0, 0, 0, 0, 0, 0, 0, 0, 0, 0], "stateRewards": ["", -10, 10, -10, -10, -10, -10, -10, 10, -10, 10, -10, -10, -10, 10, -10, -10, 10, 10, -10, 10, 10, -10, 10, 10, 10, 10, 10, -10, 10, 10, -10, 10, 10], "withholdReward": false, "trial_id": "practice_2", "block": "test", "trialIndex": 1, "score": -26.5, "costs": 0, "simulationMode": [null, null, null, null, null], "rewards": [-10, 10, -10, -10, -10], "path": ["0", "0", "1", "2", "3", "4", "6"], "rt": [2160, 885, 727, 1156, 896], "actions": ["up", "up", "up", "right", "right"], "actionTimes": [7627, 9026, 10259, 11926, 13325], "queries": {"click": {"state": {"target": [], "time": []}, "edge": {"target": [], "time": []}}, "mouseover": {"state": {"target": [], "time": []}, "edge": {"target": [], "time": []}}, "mouseout": {"state": {"target": ["17", "2", "0", "12"], "time": [3797, 3848, 16381, 16399]}, "edge": {"target": [], "time": []}}}, "displayed_time": "13.84", "trialTime": 20112, "trial_type": "mouselab-mdp", "trial_index": 5, "time_elapsed": 172738, "internal_node_id": "0.0-2.0-2.0-1.0"}}, {"uniqueid": "w11594719:a75978586", "current_trial": 6, "dateTime": 1691142536170, "trialdata": {"view_history": [{"page_index": 0, "viewing_time": 23593}, {"page_index": 1, "viewing_time": 11878}], "rt": 35472, "trial_id": "mouselab_instructions_2_control", "trial_type": "instructions", "trial_index": 6, "time_elapsed": 208215, "internal_node_id": "0.0-2.0-3.0"}}, {"uniqueid": "w11594719:a75978586", "current_trial": 7, "dateTime": 1691142597908, "trialdata": {"rt": 61733, "response": {"Q0": "There is no cost for clicking on nodes.", "Q1": "No.", "Q2": "No, the amount of cash at each node of the web may be different each time.", "Q3": "To get the highest total score.", "Q4": "Any time during the round.", "Q5": "3 seconds"}, "question_order": [0, 1, 2, 3, 4, 5], "correct": {"Q0": "The cost for clicking on nodes may vary between nodes.", "Q1": "The better I perform the higher my bonus will be.", "Q2": "No, the amount of cash at each node of the web may be different each time.", "Q3": "To get the highest total score.", "Q4": "Only before moving the spider.", "Q5": "3 seconds"}, "trial_id": "mouselab_quiz_control", "trial_type": "survey-multi-choice", "trial_index": 7, "time_elapsed": 269953, "internal_node_id": "0.0-2.0-4.0"}}, {"uniqueid": "w11594719:a75978586", "current_trial": 8, "dateTime": 1691142609766, "trialdata": {"success": true, "trial_type": "fullscreen", "trial_index": 8, "time_elapsed": 281811, "internal_node_id": "0.0-2.1-0.1"}}, {"uniqueid": "w11594719:a75978586", "current_trial": 9, "dateTime": 1691142726418, "trialdata": {"view_history": [{"page_index": 0, "viewing_time": 23881}, {"page_index": 1, "viewing_time": 65414}, {"page_index": 2, "viewing_time": 10504}, {"page_index": 3, "viewing_time": 16851}], "rt": 116650, "trial_id": "mouselab_instructions_1_control", "trial_type": "instructions", "trial_index": 9, "time_elapsed": 398463, "internal_node_id": "0.0-2.1-1.1"}}, {"uniqueid": "w11594719:a75978586", "current_trial": 10, "dateTime": 1691142757693, "trialdata": {"revealed_states": [], "clicked_states": ["23", "24", "25"], "num_clicks_accrued": [0, 0, 0, 0, 0, 0, 0, 0, 0, 0, 0, 0, 0], "stateRewards": ["", 10, 10, 10, -10, 10, 10, 10, -10, 10, 10, -10, -10, 10, -10, 10, 10, -10, -10, 10, 10, 10, 10, 10, -10, -10, -10, -10, -10, 10, -10, -10, 10, -10], "withholdReward": false, "trial_id": "practice_1", "block": "test", "trialIndex": 2, "score": -28, "costs": -1.5, "simulationMode": [null, null, null, null, null], "rewards": [10, -10, -10, -10, -10], "path": ["0", "0", "23", "24", "25", "30", "31"], "rt": [14159, 414, 1552, 229, 2056], "actions": ["left", "left", "left", "down", "right"], "actionTimes": [17718, 18640, 20700, 21440, 24014], "queries": {"click": {"state": {"target": ["23", "24", "25"], "time": [7776, 9867, 12572]}, "edge": {"target": [], "time": []}}, "mouseover": {"state": {"target": ["1", "1", "28", "29", "25", "24", "23", "24", "25", "26", "25", "26", "28", "1"], "time": [4838, 5157, 5825, 5910, 6228, 6412, 6998, 8876, 10920, 11337, 12091, 13682, 14952, 15006]}, "edge": {"target": [], "time": []}}, "mouseout": {"state": {"target": ["12", "14", "20", "20", "18", "1", "0", "1", "1", "28", "29", "25", "24", "23", "24", "25", "26", "25", "26", "28", "1", "15", "17", "17"], "time": [1214, 1247, 1303, 1637, 1740, 1788, 2323, 4905, 5792, 5860, 6111, 6362, 6964, 8859, 10821, 11303, 11990, 12683, 14937, 14968, 15040, 25903, 25921, 27310]}, "edge": {"target": [], "time": []}}}, "displayed_time": "24.52", "trialTime": 30812, "trial_type": "mouselab-mdp", "trial_index": 10, "time_elapsed": 429737, "internal_node_id": "0.0-2.1-2.1-0.1"}}, {"uniqueid": "w11594719:a75978586", "current_trial": 11, "dateTime": 1691142785182, "trialdata": {"revealed_states": [], "clicked_states": ["4", "17", "13"], "num_clicks_accrued": [0, 0, 0, 0, 0, 0, 0, 0, 0, 0, 0, 0, 0], "stateRewards": ["", -10, 10, -10, -10, -10, -10, -10, 10, -10, 10, -10, -10, -10, 10, -10, -10, 10, 10, -10, 10, 10, -10, 10, 10, 10, 10, 10, -10, 10, 10, -10, 10, 10], "withholdReward": false, "trial_id": "practice_2", "block": "test", "trialIndex": 3, "score": -8, "costs": -1.5, "simulationMode": [null, null, null, null, null], "rewards": [-10, -10, 10, -10, 10], "path": ["0", "0", "12", "13", "14", "15", "17"], "rt": [13773, 673, 410, 588, 483], "actions": ["right", "right", "right", "up", "right"], "actionTimes": [17109, 18289, 19214, 20315, 21299], "queries": {"click": {"state": {"target": ["4", "17", "13"], "time": [5911, 8727, 13452]}, "edge": {"target": [], "time": []}}, "mouseover": {"state": {"target": ["1", "7", "4", "7", "18", "15", "17", "19", "14", "13", "0"], "time": [4055, 4377, 5212, 6991, 7610, 7645, 8146, 10223, 11680, 11982, 15230]}, "edge": {"target": [], "time": []}}, "mouseout": {"state": {"target": ["22", "23", "1", "7", "4", "7", "18", "15", "17", "19", "14", "13", "0", "12"], "time": [1880, 1965, 4073, 4412, 6959, 7175, 7627, 7801, 9489, 11243, 11931, 14761, 24415, 24433]}, "edge": {"target": [], "time": []}}}, "displayed_time": "21.80", "trialTime": 27039, "trial_type": "mouselab-mdp", "trial_index": 11, "time_elapsed": 457226, "internal_node_id": "0.0-2.1-2.1-1.1"}}, {"uniqueid": "w11594719:a75978586", "current_trial": 12, "dateTime": 1691142795851, "trialdata": {"view_history": [{"page_index": 0, "viewing_time": 8085}, {"page_index": 1, "viewing_time": 2580}], "rt": 10665, "trial_id": "mouselab_instructions_2_control", "trial_type": "instructions", "trial_index": 12, "time_elapsed": 467896, "internal_node_id": "0.0-2.1-3.1"}}, {"uniqueid": "w11594719:a75978586", "current_trial": 13, "dateTime": 1691142830980, "trialdata": {"rt": 35126, "response": {"Q0": "The cost for clicking on nodes may vary between nodes.", "Q1": "The better I perform the higher my bonus will be.", "Q2": "No, the amount of cash at each node of the web may be different each time.", "Q3": "To get the highest total score.", "Q4": "Only before moving the spider.", "Q5": "3 seconds"}, "question_order": [0, 1, 2, 3, 4, 5], "correct": {"Q0": "The cost for clicking on nodes may vary between nodes.", "Q1": "The better I perform the higher my bonus will be.", "Q2": "No, the amount of cash at each node of the web may be different each time.", "Q3": "To get the highest total score.", "Q4": "Only before moving the spider.", "Q5": "3 seconds"}, "trial_id": "mouselab_quiz_control", "trial_type": "survey-multi-choice", "trial_index": 13, "time_elapsed": 503025, "internal_node_id": "0.0-2.1-4.1"}}, {"uniqueid": "w11594719:a75978586", "current_trial": 14, "dateTime": 1691142837354, "trialdata": {"rt": 6363, "stimulus": "\n<h1> Get ready to start the game! </h1>\n\nThank you for reading the instructions. Get ready start with the 40 rounds of this game.\n<br><br>\nIf you need to take a break, feel free to take one after the end of a round, before continuing to the next one.\n<br><br>\nRemember, the more money the spider gets, the bigger your bonus will be!\n<br><br>\n<div style='text-align: center;'>Press <code>space</code> to begin.</div>\n\n<br><br>\n(If, at any point, the <code>space</code> key does not take you to the next page, click once on the text and try again.)", "response": " ", "trial_id": "mdp_ready", "trial_type": "html-keyboard-response", "trial_index": 14, "time_elapsed": 509399, "internal_node_id": "0.0-4.0-0.0"}}, {"uniqueid": "w11594719:a75978586", "current_trial": 15, "dateTime": 1691142868784, "trialdata": {"revealed_states": [], "clicked_states": ["1"], "num_clicks_accrued": [0, 0, 0, 0, 0, 0, 0, 0, 0, 0, 0, 0, 0], "stateRewards": ["", -1, 2, 6, 11, 21, -21, -21, -6, 48, -71, 88, -1, -3, 3, 7, 64, 2, 9, -4, 37, -67, 72, 2, 2, -8, -8, -10, 71, -40, -3, 73, 80, 47], "withholdReward": false, "trial_id": "mdp_trial_1", "block": "test", "trialIndex": 4, "score": -73.4, "costs": -1.4, "simulationMode": [null, null, null, null, null], "rewards": [-1, -3, 3, -4, -67], "path": ["0", "0", "12", "13", "14", "19", "21"], "rt": [11281, 1491, 442, 799, 443], "actions": ["right", "right", "right", "down", "down"], "actionTimes": [18663, 20671, 21634, 22945, 23895], "queries": {"click": {"state": {"target": ["1"], "time": [10154]}, "edge": {"target": [], "time": []}}, "mouseover": {"state": {"target": ["1", "1", "18", "15", "17", "15", "15", "17", "13", "12"], "time": [8952, 9794, 11089, 11679, 11740, 12105, 12961, 14268, 17454, 17502]}, "edge": {"target": [], "time": []}}, "mouseout": {"state": {"target": ["21", "0", "0", "1", "1", "18", "15", "17", "15", "15", "17", "13", "12"], "time": [3563, 6430, 8901, 8976, 10258, 11657, 11707, 12056, 12175, 14013, 17426, 17468, 28047]}, "edge": {"target": [], "time": []}}}, "displayed_time": "24.41", "trialTime": 30955, "trial_type": "mouselab-mdp", "trial_index": 15, "time_elapsed": 540829, "internal_node_id": "0.0-4.0-1.0-0.0"}}, {"uniqueid": "w11594719:a75978586", "current_trial": 16, "dateTime": 1691142898800, "trialdata": {"revealed_states": [], "clicked_states": ["2", "24", "26"], "num_clicks_accrued": [0, 0, 0, 0, 0, 0, 0, 0, 0, 0, 0, 0, 0], "stateRewards": ["", 2, 2, 3, -15, 23, -14, 73, -7, -32, -20, -6, 1, 1, -5, -12, 73, 6, -84, 11, -81, -57, 13, -2, -1, -4, -8, -52, -58, 49, 13, 5, -41, -41], "withholdReward": false, "trial_id": "mdp_trial_2", "block": "test", "trialIndex": 5, "score": -36.2, "costs": -4.199999999999999, "simulationMode": [null, null, null, null, null], "rewards": [2, 2, 3, -7, -32], "path": ["0", "0", "1", "2", "3", "8", "9"], "rt": [17261, 1145, 418, 916, 1562], "actions": ["up", "up", "up", "left", "up"], "actionTimes": [20817, 22466, 23400, 24821, 26885], "queries": {"click": {"state": {"target": ["2", "24", "26"], "time": [5160, 8475, 10557]}, "edge": {"target": [], "time": []}}, "mouseover": {"state": {"target": ["1", "2", "10", "24", "28", "24", "28", "26", "12", "12", "1"], "time": [4161, 4680, 5755, 5923, 7342, 7847, 9008, 9373, 11886, 13707, 15567]}, "edge": {"target": [], "time": []}}, "mouseout": {"state": {"target": ["19", "0", "1", "2", "10", "24", "28", "24", "28", "26", "12", "12", "1", "13"], "time": [2132, 4091, 4312, 5671, 5859, 7325, 7361, 8583, 9024, 11418, 12754, 15153, 16772, 28628]}, "edge": {"target": [], "time": []}}}, "displayed_time": "27.40", "trialTime": 29543, "trial_type": "mouselab-mdp", "trial_index": 16, "time_elapsed": 570844, "internal_node_id": "0.0-4.0-1.0-1.0"}}, {"uniqueid": "w11594719:a75978586", "current_trial": 17, "dateTime": 1691142930460, "trialdata": {"revealed_states": [], "clicked_states": ["6", "16", "7", "2", "3", "4", "28"], "num_clicks_accrued": [0, 0, 0, 0, 0, 0, 0, 0, 0, 0, 0, 0, 0], "stateRewards": ["", -2, 3, -5, -7, 66, 43, -60, -4, -70, -75, 4, -1, 2, 2, -13, 54, 11, -40, -1, 77, 32, 15, -2, 3, -8, -9, -35, 83, -27, 6, -74, -34, 44], "withholdReward": false, "trial_id": "mdp_trial_3", "block": "test", "trialIndex": 6, "score": 22.2, "costs": -9.8, "simulationMode": [null, null, null, null, null], "rewards": [-2, 3, -5, -7, 43], "path": ["0", "0", "1", "2", "3", "4", "6"], "rt": [19168, 792, 1098, 828, 451], "actions": ["up", "up", "up", "right", "right"], "actionTimes": [22846, 24154, 25766, 27104, 28066], "queries": {"click": {"state": {"target": ["6", "16", "7", "2", "3", "4", "28"], "time": [5024, 7451, 9259, 11764, 13899, 16003, 20078]}, "edge": {"target": [], "time": []}}, "mouseover": {"state": {"target": ["6", "6", "16", "7", "2", "3", "4", "7", "12", "0", "23", "28", "1", "1"], "time": [4228, 4630, 5621, 8715, 11245, 12992, 15484, 18196, 18882, 18952, 19018, 19638, 20616, 22065]}, "edge": {"target": [], "time": []}}, "mouseout": {"state": {"target": ["0", "6", "6", "16", "7", "2", "3", "4", "7", "12", "0", "23", "28", "1"], "time": [4142, 4395, 5514, 8033, 11194, 12925, 15452, 18144, 18248, 18932, 18985, 19036, 20581, 20632]}, "edge": {"target": [], "time": []}}}, "displayed_time": "28.58", "trialTime": 31170, "trial_type": "mouselab-mdp", "trial_index": 17, "time_elapsed": 602505, "internal_node_id": "0.0-4.0-1.0-2.0"}}, {"uniqueid": "w11594719:a75978586", "current_trial": 18, "dateTime": 1691142961154, "trialdata": {"revealed_states": [], "clicked_states": ["26", "8", "18", "31", "30", "25", "33", "32"], "num_clicks_accrued": [0, 0, 0, 0, 0, 0, 0, 0, 0, 0, 0, 0, 0], "stateRewards": ["", -2, 2, 3, -7, 76, 63, 21, 15, 35, -8, -44, 1, 1, -2, -12, 23, 24, 76, -9, 46, 66, -49, -2, -1, 7, 12, 40, -71, -45, -6, 38, -49, 46], "withholdReward": false, "trial_id": "mdp_trial_4", "block": "test", "trialIndex": 7, "score": 32.8, "costs": -11.200000000000001, "simulationMode": [null, null, null, null, null], "rewards": [-2, -1, 7, -6, 46], "path": ["0", "0", "23", "24", "25", "30", "33"], "rt": [18779, 404, 600, 678, 659], "actions": ["left", "left", "left", "down", "left"], "actionTimes": [21781, 22690, 23794, 24974, 26144], "queries": {"click": {"state": {"target": ["26", "8", "18", "31", "30", "25", "33", "32"], "time": [4272, 5953, 7798, 9679, 12182, 13891, 16519, 18900]}, "edge": {"target": [], "time": []}}, "mouseover": {"state": {"target": ["24", "26", "8", "4", "6", "18", "0", "0", "31", "30", "30", "25", "33", "32", "31"], "time": [3519, 3755, 5566, 6521, 6587, 7259, 8700, 8983, 9066, 10409, 10707, 13253, 14797, 18159, 20321]}, "edge": {"target": [], "time": []}}, "mouseout": {"state": {"target": ["1", "12", "0", "24", "26", "8", "4", "6", "18", "0", "0", "31", "30", "30", "25", "33", "33", "32", "31"], "time": [1202, 1308, 3502, 3537, 5081, 6481, 6543, 6656, 8499, 8834, 9004, 10357, 10575, 13069, 14695, 16628, 17543, 20271, 20340]}, "edge": {"target": [], "time": []}}}, "displayed_time": "26.66", "trialTime": 30237, "trial_type": "mouselab-mdp", "trial_index": 18, "time_elapsed": 633198, "internal_node_id": "0.0-4.0-1.0-3.0"}}, {"uniqueid": "w11594719:a75978586", "current_trial": 19, "dateTime": 1691142984729, "trialdata": {"revealed_states": [], "clicked_states": ["7", "16", "4", "3", "5", "6"], "num_clicks_accrued": [0, 0, 0, 0, 0, 0, 0, 0, 0, 0, 0, 0, 0], "stateRewards": ["", 2, -1, -1, -9, -81, -30, 55, -6, 78, 25, 62, 2, 4, -1, 9, -85, 1, -19, 1, -60, 12, -34, 1, 4, -1, -13, -24, -16, -83, -8, 16, 43, 9], "withholdReward": false, "trial_id": "mdp_trial_5", "block": "test", "trialIndex": 8, "score": 37.6, "costs": -8.4, "simulationMode": [null, null, null, null, null], "rewards": [2, -1, -1, -9, 55], "path": ["0", "0", "1", "2", "3", "4", "7"], "rt": [13992, 412, 352, 928, 331], "actions": ["up", "up", "up", "right", "down"], "actionTimes": [16574, 17499, 18386, 19826, 20670], "queries": {"click": {"state": {"target": ["7", "16", "4", "3", "5", "6"], "time": [4159, 6139, 8307, 9891, 11548, 13418]}, "edge": {"target": [], "time": []}}, "mouseover": {"state": {"target": ["7", "16", "16", "17", "6", "4", "3", "5", "6", "2", "10", "8", "2"], "time": [3648, 4677, 4993, 7150, 7422, 7820, 9157, 10856, 12142, 14791, 14839, 15238, 15389]}, "edge": {"target": [], "time": []}}, "mouseout": {"state": {"target": ["0", "0", "0", "7", "16", "16", "17", "16", "6", "4", "3", "5", "6", "2", "10", "8", "2", "1", "0"], "time": [964, 1117, 3226, 4637, 4755, 6901, 7322, 7386, 7801, 8943, 10602, 12109, 14155, 14823, 14889, 15322, 15423, 22436, 22487]}, "edge": {"target": [], "time": []}}}, "displayed_time": "21.17", "trialTime": 23105, "trial_type": "mouselab-mdp", "trial_index": 19, "time_elapsed": 656774, "internal_node_id": "0.0-4.0-1.0-4.0"}}, {"uniqueid": "w11594719:a75978586", "current_trial": 20, "dateTime": 1691143006265, "trialdata": {"revealed_states": [], "clicked_states": ["23", "10", "26", "3", "8"], "num_clicks_accrued": [0, 0, 0, 0, 0, 0, 0, 0, 0, 0, 0, 0, 0], "stateRewards": ["", 2, -4, 4, 9, 69, 9, -75, 12, -86, 66, 25, -1, 3, 2, -13, -88, -3, 1, 4, -69, 49, -84, 2, -1, 4, 2, -18, -81, -52, -15, -69, -54, 25], "withholdReward": false, "trial_id": "mdp_trial_6", "block": "test", "trialIndex": 9, "score": 73, "costs": -7, "simulationMode": [null, null, null, null, null], "rewards": [2, -4, 4, 12, 66], "path": ["0", "0", "1", "2", "3", "8", "10"], "rt": [12411, 331, 402, 758, 300], "actions": ["up", "up", "up", "left", "down"], "actionTimes": [15088, 15927, 16835, 18096, 18912], "queries": {"click": {"state": {"target": ["23", "10", "26", "3", "8"], "time": [4725, 6443, 8262, 10405, 12722]}, "edge": {"target": [], "time": []}}, "mouseover": {"state": {"target": ["23", "24", "28", "10", "26", "2", "2", "3", "8", "2"], "time": [3275, 5458, 5527, 5944, 7786, 9293, 9764, 9996, 11186, 13448]}, "edge": {"target": [], "time": []}}, "mouseout": {"state": {"target": ["0", "23", "24", "28", "10", "26", "2", "2", "3", "8", "2"], "time": [3226, 5392, 5509, 5845, 7369, 9059, 9328, 9788, 11153, 13416, 14071]}, "edge": {"target": [], "time": []}}}, "displayed_time": "19.41", "trialTime": 21057, "trial_type": "mouselab-mdp", "trial_index": 20, "time_elapsed": 678310, "internal_node_id": "0.0-4.0-1.0-5.0"}}, {"uniqueid": "w11594719:a75978586", "current_trial": 21, "dateTime": 1691143041091, "trialdata": {"revealed_states": [], "clicked_states": ["7", "9", "3", "6", "8", "11", "10"], "num_clicks_accrued": [0, 0, 0, 0, 0, 0, 0, 0, 0, 0, 0, 0, 0], "stateRewards": ["", -2, -3, 7, -13, 60, 9, 37, -6, 37, 20, 1, 2, -2, -8, 6, -80, -31, -10, -7, 70, -65, -44, -1, 1, 7, 6, -11, 73, -85, 16, -21, 47, 34], "withholdReward": false, "trial_id": "mdp_trial_7", "block": "test", "trialIndex": 10, "score": 23.2, "costs": -9.8, "simulationMode": [null, null, null, null, null], "rewards": [-2, -3, 7, -6, 37], "path": ["0", "0", "1", "2", "3", "8", "9"], "rt": [22769, 337, 529, 450, 1204], "actions": ["up", "up", "up", "left", "up"], "actionTimes": [25906, 26745, 27771, 28733, 30442], "queries": {"click": {"state": {"target": ["7", "9", "3", "6", "8", "11", "10"], "time": [4559, 6127, 9728, 11612, 14638, 17577, 21605]}, "edge": {"target": [], "time": []}}, "mouseover": {"state": {"target": ["2", "7", "7", "2", "8", "9", "3", "5", "3", "6", "8", "10", "10", "11", "11", "2", "10", "12", "0"], "time": [3761, 3791, 4122, 5164, 5281, 5651, 7101, 8328, 8579, 11060, 14241, 16318, 16740, 16786, 17121, 20403, 20801, 23618, 25010]}, "edge": {"target": [], "time": []}}, "mouseout": {"state": {"target": ["1", "0", "2", "7", "7", "2", "8", "9", "3", "5", "3", "6", "8", "8", "10", "10", "11", "11", "2", "10", "12", "0", "12", "13", "22"], "time": [2186, 3669, 3774, 3824, 5148, 5180, 5350, 7006, 7593, 8478, 9838, 13837, 14753, 16301, 16351, 16769, 16803, 19982, 20605, 22668, 23668, 25043, 32323, 32357, 32948]}, "edge": {"target": [], "time": []}}}, "displayed_time": "30.95", "trialTime": 34384, "trial_type": "mouselab-mdp", "trial_index": 21, "time_elapsed": 713135, "internal_node_id": "0.0-4.0-1.0-6.0"}}, {"uniqueid": "w11594719:a75978586", "current_trial": 22, "dateTime": 1691143068251, "trialdata": {"revealed_states": [], "clicked_states": ["15", "12", "14", "19"], "num_clicks_accrued": [0, 0, 0, 0, 0, 0, 0, 0, 0, 0, 0, 0, 0], "stateRewards": ["", -2, 2, -1, -6, 22, 6, 6, -5, 70, -42, 65, 1, 3, 5, -6, -67, -9, 3, 14, 7, -62, -13, -2, 4, 1, 16, 42, -21, -52, -8, 32, 53, 81], "withholdReward": false, "trial_id": "mdp_trial_8", "block": "test", "trialIndex": 11, "score": 24.4, "costs": -5.6, "simulationMode": [null, null, null, null, null], "rewards": [1, 3, 5, 14, 7], "path": ["0", "0", "12", "13", "14", "19", "20"], "rt": [16900, 313, 396, 751, 1303], "actions": ["right", "right", "right", "down", "right"], "actionTimes": [18756, 19598, 20499, 21758, 23566], "queries": {"click": {"state": {"target": ["15", "12", "14", "19"], "time": [3286, 6452, 9242, 11260]}, "edge": {"target": [], "time": []}}, "mouseover": {"state": {"target": ["18", "15", "14", "19", "13", "12", "13", "19", "14", "19", "21", "22"], "time": [2460, 2894, 4356, 4388, 5656, 5993, 6988, 7069, 8736, 10418, 13582, 15035]}, "edge": {"target": [], "time": []}}, "mouseout": {"state": {"target": ["0", "18", "15", "14", "19", "13", "12", "13", "19", "14", "19", "21"], "time": [2389, 2810, 4337, 4371, 5105, 5926, 6984, 7004, 7167, 10401, 13412, 15002]}, "edge": {"target": [], "time": []}}}, "displayed_time": "24.07", "trialTime": 26715, "trial_type": "mouselab-mdp", "trial_index": 22, "time_elapsed": 740296, "internal_node_id": "0.0-4.0-1.0-7.0"}}, {"uniqueid": "w11594719:a75978586", "current_trial": 23, "dateTime": 1691143102228, "trialdata": {"revealed_states": [], "clicked_states": ["2", "10", "8", "4", "3", "7", "13", "24", "28"], "num_clicks_accrued": [0, 0, 0, 0, 0, 0, 0, 0, 0, 0, 0, 0, 0], "stateRewards": ["", 1, 2, -6, -13, -51, 22, -4, -12, -44, -12, 6, -2, -2, -2, -14, -46, -4, -77, -2, 36, -79, 41, 2, -4, 2, -6, -55, 59, 70, -5, 39, -19, 24], "withholdReward": false, "trial_id": "mdp_trial_9", "block": "test", "trialIndex": 12, "score": 40.4, "costs": -12.600000000000001, "simulationMode": [null, null, null, null, null], "rewards": [2, -4, 2, -6, 59], "path": ["0", "0", "23", "24", "25", "26", "28"], "rt": [24925, 375, 456, 509, 304], "actions": ["left", "left", "left", "up", "right"], "actionTimes": [27932, 28821, 29786, 30795, 31613], "queries": {"click": {"state": {"target": ["2", "10", "8", "4", "3", "7", "13", "24", "28"], "time": [4702, 7697, 10250, 12279, 14249, 16107, 19086, 21303, 23585]}, "edge": {"target": [], "time": []}}, "mouseover": {"state": {"target": ["1", "2", "10", "10", "8", "3", "4", "3", "7", "7", "13", "12", "23", "24", "28"], "time": [3631, 4285, 5462, 7291, 9729, 10770, 11107, 13015, 15258, 15594, 18673, 19680, 19733, 19788, 22176]}, "edge": {"target": [], "time": []}}, "mouseout": {"state": {"target": ["22", "12", "12", "0", "1", "2", "10", "10", "8", "3", "4", "3", "7", "7", "13", "12", "23", "24", "28"], "time": [1269, 1442, 2091, 3580, 3700, 4814, 6080, 9679, 10754, 10786, 12914, 15244, 15295, 18287, 19664, 19702, 19758, 21414, 26911]}, "edge": {"target": [], "time": []}}}, "displayed_time": "32.11", "trialTime": 33526, "trial_type": "mouselab-mdp", "trial_index": 23, "time_elapsed": 774272, "internal_node_id": "0.0-4.0-1.0-8.0"}}, {"uniqueid": "w11594719:a75978586", "current_trial": 24, "dateTime": 1691143131033, "trialdata": {"revealed_states": [], "clicked_states": ["4", "6", "3"], "num_clicks_accrued": [0, 0, 0, 0, 0, 0, 0, 0, 0, 0, 0, 0, 0], "stateRewards": ["", -1, 3, 1, -7, 56, 76, 57, 3, 11, -9, 14, 1, -2, 2, 8, -77, -3, 79, -5, 88, 24, -66, -2, -1, 7, -7, -30, 14, -76, 11, -36, 28, -6], "withholdReward": false, "trial_id": "mdp_trial_10", "block": "test", "trialIndex": 13, "score": 67.8, "costs": -4.199999999999999, "simulationMode": [null, null, null, null, null], "rewards": [-1, 3, 1, -7, 76], "path": ["0", "0", "1", "2", "3", "4", "6"], "rt": [11849, 278, 318, 416, 265], "actions": ["up", "up", "up", "right", "right"], "actionTimes": [17744, 18528, 19348, 20267, 21039], "queries": {"click": {"state": {"target": ["4", "6", "3"], "time": [7220, 9227, 12775]}, "edge": {"target": [], "time": []}}, "mouseover": {"state": {"target": ["1", "3", "4", "6", "16", "7", "2", "8", "3", "4", "3", "2", "1", "2", "4", "1", "1"], "time": [6429, 6449, 6831, 7688, 9847, 10584, 10652, 11153, 11704, 11889, 12275, 14452, 14569, 15056, 15975, 16345, 16749]}, "edge": {"target": [], "time": []}}, "mouseout": {"state": {"target": ["23", "18", "4", "3", "0", "0", "1", "3", "4", "6", "16", "7", "2", "8", "3", "4", "3", "2", "1", "2", "3", "4", "1"], "time": [699, 1050, 3436, 3730, 4449, 6410, 6445, 6529, 7329, 9816, 10534, 10634, 11051, 11354, 11742, 12186, 14404, 14502, 14953, 15456, 15941, 16311, 16362]}, "edge": {"target": [], "time": []}}}, "displayed_time": "21.55", "trialTime": 28346, "trial_type": "mouselab-mdp", "trial_index": 24, "time_elapsed": 803078, "internal_node_id": "0.0-4.0-1.0-9.0"}}, {"uniqueid": "w11594719:a75978586", "current_trial": 25, "dateTime": 1691143156283, "trialdata": {"revealed_states": [], "clicked_states": ["27", "11", "3", "2"], "num_clicks_accrued": [0, 0, 0, 0, 0, 0, 0, 0, 0, 0, 0, 0, 0], "stateRewards": ["", -1, 2, 7, 8, 75, 67, -11, 6, 52, -17, 38, -1, 4, -8, 14, 74, -37, -17, -12, 52, 55, 71, -2, -1, -5, 2, 21, 6, -88, -14, 64, -61, -47], "withholdReward": false, "trial_id": "mdp_trial_11", "block": "test", "trialIndex": 14, "score": 46.4, "costs": -5.6, "simulationMode": [null, null, null, null, null], "rewards": [-1, 2, 7, 6, 38], "path": ["0", "0", "1", "2", "3", "8", "11"], "rt": [14921, 268, 388, 704, 253], "actions": ["up", "up", "up", "left", "left"], "actionTimes": [17611, 18388, 19279, 20485, 21253], "queries": {"click": {"state": {"target": ["27", "11", "3", "2"], "time": [4064, 6345, 10480, 12699]}, "edge": {"target": [], "time": []}}, "mouseover": {"state": {"target": ["28", "27", "11", "28", "2", "3", "2", "1"], "time": [3224, 3625, 4733, 8851, 9503, 9739, 12159, 14914]}, "edge": {"target": [], "time": []}}, "mouseout": {"state": {"target": ["1", "0", "28", "27", "11", "28", "2", "3", "2", "1"], "time": [1608, 3154, 3391, 4633, 7162, 8884, 9521, 11955, 14879, 16200]}, "edge": {"target": [], "time": []}}}, "displayed_time": "21.75", "trialTime": 24729, "trial_type": "mouselab-mdp", "trial_index": 25, "time_elapsed": 828327, "internal_node_id": "0.0-4.0-1.0-10.0"}}, {"uniqueid": "w11594719:a75978586", "current_trial": 26, "dateTime": 1691143194597, "trialdata": {"revealed_states": [], "clicked_states": ["15", "13", "19", "26", "25", "3", "8", "6", "11"], "num_clicks_accrued": [0, 0, 0, 0, 0, 0, 0, 0, 0, 0, 0, 0, 0], "stateRewards": ["", 1, 2, -5, 14, 54, -14, -25, 16, -5, -87, 78, -1, 1, 3, -3, 52, 53, 53, -10, 73, -69, -48, 2, 3, 1, 8, -62, -7, 85, 7, 82, 52, -28], "withholdReward": false, "trial_id": "mdp_trial_12", "block": "test", "trialIndex": 15, "score": 79.4, "costs": -12.600000000000001, "simulationMode": [null, null, null, null, null], "rewards": [1, 2, -5, 16, 78], "path": ["0", "0", "1", "2", "3", "8", "11"], "rt": [27150, 481, 332, 494, 213], "actions": ["up", "up", "up", "left", "left"], "actionTimes": [30923, 31913, 32751, 33768, 34490], "queries": {"click": {"state": {"target": ["15", "13", "19", "26", "25", "3", "8", "6", "11"], "time": [5206, 7450, 10516, 14179, 16772, 20772, 22769, 25059, 27240]}, "edge": {"target": [], "time": []}}, "mouseover": {"state": {"target": ["15", "15", "14", "13", "22", "19", "21", "28", "26", "25", "24", "10", "3", "3", "8", "4", "6", "4", "11", "8", "10"], "time": [4426, 4793, 6002, 6888, 9714, 9935, 12598, 13336, 13771, 16494, 18561, 19900, 19935, 20338, 21765, 23640, 23842, 26273, 26785, 29479, 29548]}, "edge": {"target": [], "time": []}}, "mouseout": {"state": {"target": ["13", "0", "15", "15", "14", "13", "22", "19", "21", "28", "26", "25", "24", "10", "3", "3", "8", "4", "6", "4", "11", "8", "10"], "time": [2586, 4342, 4625, 5968, 6821, 9681, 9902, 12563, 12934, 13453, 16099, 16880, 19398, 19918, 19969, 21576, 23539, 23725, 26268, 26288, 29462, 29497, 29567]}, "edge": {"target": [], "time": []}}}, "displayed_time": "35.00", "trialTime": 37798, "trial_type": "mouselab-mdp", "trial_index": 26, "time_elapsed": 866642, "internal_node_id": "0.0-4.0-1.0-11.0"}}, {"uniqueid": "w11594719:a75978586", "current_trial": 27, "dateTime": 1691143234040, "trialdata": {"revealed_states": [], "clicked_states": ["15", "14", "8", "9", "11", "26", "25", "32", "30", "31", "33"], "num_clicks_accrued": [0, 0, 0, 0, 0, 0, 0, 0, 0, 0, 0, 0, 0], "stateRewards": ["", 2, -1, 5, 8, 75, -35, -77, 1, -9, -81, -58, 1, 2, -7, 5, 77, -16, 19, 16, -10, -18, 40, -2, 3, 7, -5, 64, 1, -62, 10, 27, 10, 65], "withholdReward": false, "trial_id": "mdp_trial_13", "block": "test", "trialIndex": 16, "score": 67.6, "costs": -15.400000000000002, "simulationMode": [null, null, null, null, null], "rewards": [-2, 3, 7, 10, 65], "path": ["0", "0", "23", "24", "25", "30", "33"], "rt": [28999, 335, 483, 298, 955], "actions": ["left", "left", "left", "down", "left"], "actionTimes": [32305, 33153, 34141, 34942, 36409], "queries": {"click": {"state": {"target": ["15", "14", "8", "9", "11", "26", "25", "32", "30", "31", "33"], "time": [5739, 7770, 9800, 11906, 13775, 15942, 18022, 21971, 24351, 26318, 28972]}, "edge": {"target": [], "time": []}}, "mouseover": {"state": {"target": ["1", "18", "15", "14", "18", "3", "8", "9", "11", "26", "25", "23", "12", "13", "14", "15", "13", "32", "31", "30", "31", "33", "33", "30"], "time": [4553, 5354, 5381, 6752, 8427, 8448, 9079, 11290, 12386, 15474, 17336, 19183, 19223, 19256, 19334, 19946, 21039, 21487, 23332, 23898, 24976, 27796, 28570, 30534]}, "edge": {"target": [], "time": []}}, "mouseout": {"state": {"target": ["0", "1", "18", "15", "14", "18", "3", "8", "9", "11", "11", "26", "25", "23", "12", "13", "14", "15", "13", "32", "31", "30", "31", "30", "33", "33", "30", "31"], "time": [4503, 5305, 5377, 6667, 8410, 8443, 8464, 11222, 12379, 13885, 14573, 17286, 19164, 19203, 19240, 19316, 19679, 21023, 21055, 22964, 23449, 24463, 27754, 27790, 27827, 30518, 30701, 30801]}, "edge": {"target": [], "time": []}}}, "displayed_time": "36.92", "trialTime": 38930, "trial_type": "mouselab-mdp", "trial_index": 27, "time_elapsed": 906084, "internal_node_id": "0.0-4.0-1.0-12.0"}}, {"uniqueid": "w11594719:a75978586", "current_trial": 28, "dateTime": 1691143253060, "trialdata": {"revealed_states": [], "clicked_states": ["15", "14", "20"], "num_clicks_accrued": [0, 0, 0, 0, 0, 0, 0, 0, 0, 0, 0, 0, 0], "stateRewards": ["", 2, 1, -3, 7, 46, 11, -36, 16, 71, 5, 1, 2, -2, -8, -3, -4, 6, 55, 7, 68, -54, 2, 1, 1, 6, -6, 42, -4, -84, -11, -65, 63, 25], "withholdReward": false, "trial_id": "mdp_trial_14", "block": "test", "trialIndex": 17, "score": 62.8, "costs": -4.199999999999999, "simulationMode": [null, null, null, null, null], "rewards": [2, -2, -8, 7, 68], "path": ["0", "0", "12", "13", "14", "19", "20"], "rt": [9657, 310, 407, 152, 332], "actions": ["right", "right", "right", "down", "right"], "actionTimes": [12509, 13327, 14243, 14908, 15742], "queries": {"click": {"state": {"target": ["15", "14", "20"], "time": [4519, 6476, 8471]}, "edge": {"target": [], "time": []}}, "mouseover": {"state": {"target": ["1", "18", "15", "14", "19", "20", "21", "22", "12"], "time": [3559, 3896, 4064, 5368, 6916, 7319, 9461, 11334, 11602]}, "edge": {"target": [], "time": []}}, "mouseout": {"state": {"target": ["13", "12", "1", "18", "15", "14", "19", "20", "21", "22"], "time": [1127, 1250, 3592, 4030, 5209, 6899, 6982, 9097, 11317, 11352]}, "edge": {"target": [], "time": []}}}, "displayed_time": "16.85", "trialTime": 18518, "trial_type": "mouselab-mdp", "trial_index": 28, "time_elapsed": 925104, "internal_node_id": "0.0-4.0-1.0-13.0"}}, {"uniqueid": "w11594719:a75978586", "current_trial": 29, "dateTime": 1691143279221, "trialdata": {"revealed_states": [], "clicked_states": ["11", "26", "28", "27", "32"], "num_clicks_accrued": [0, 0, 0, 0, 0, 0, 0, 0, 0, 0, 0, 0, 0], "stateRewards": ["", 2, 3, 8, 14, 69, -27, 17, 2, -71, -65, -10, 2, -3, 7, 8, 65, -10, 65, -12, 73, -12, 13, -2, -2, 6, 10, -79, -69, -18, 10, -85, 67, 74], "withholdReward": false, "trial_id": "mdp_trial_15", "block": "test", "trialIndex": 18, "score": 72, "costs": -7, "simulationMode": [null, null, null, null, null], "rewards": [-2, -2, 6, 10, 67], "path": ["0", "0", "23", "24", "25", "30", "32"], "rt": [15640, 241, 435, 804, 533], "actions": ["left", "left", "left", "down", "down"], "actionTimes": [19341, 20093, 21042, 22367, 23415], "queries": {"click": {"state": {"target": ["11", "26", "28", "27", "32"], "time": [5798, 7866, 10019, 12425, 16050]}, "edge": {"target": [], "time": []}}, "mouseover": {"state": {"target": ["10", "11", "28", "26", "28", "28", "27", "29", "25", "30", "32"], "time": [4688, 5470, 6489, 6748, 8479, 8981, 11824, 14654, 15040, 15374, 15592]}, "edge": {"target": [], "time": []}}, "mouseout": {"state": {"target": ["12", "1", "18", "1", "0", "10", "11", "28", "26", "28", "28", "27", "27", "29", "25", "30", "32"], "time": [731, 1202, 1488, 2805, 4416, 4722, 6316, 6686, 7981, 8578, 11756, 12539, 14620, 14988, 15090, 15541, 18252]}, "edge": {"target": [], "time": []}}}, "displayed_time": "23.93", "trialTime": 25655, "trial_type": "mouselab-mdp", "trial_index": 29, "time_elapsed": 951265, "internal_node_id": "0.0-4.0-1.0-14.0"}}, {"uniqueid": "w11594719:a75978586", "current_trial": 30, "dateTime": 1691143302467, "trialdata": {"revealed_states": [], "clicked_states": ["1", "17", "22", "20", "21"], "num_clicks_accrued": [0, 0, 0, 0, 0, 0, 0, 0, 0, 0, 0, 0, 0], "stateRewards": ["", 2, -1, 5, 6, 10, 86, 55, 10, -45, 63, -71, 1, -2, 5, -8, -50, -72, 36, 15, 61, 12, 33, -1, -4, 6, 5, 79, -56, -21, -16, -87, 60, -81], "withholdReward": false, "trial_id": "mdp_trial_16", "block": "test", "trialIndex": 19, "score": 73, "costs": -7, "simulationMode": [null, null, null, null, null], "rewards": [1, -2, 5, 15, 61], "path": ["0", "0", "12", "13", "14", "19", "20"], "rt": [14878, 364, 631, 255, 352], "actions": ["right", "right", "right", "down", "right"], "actionTimes": [17050, 17919, 19057, 19819, 20671], "queries": {"click": {"state": {"target": ["1", "17", "22", "20", "21"], "time": [3303, 5159, 7948, 11584, 13975]}, "edge": {"target": [], "time": []}}, "mouseover": {"state": {"target": ["1", "18", "17", "17", "20", "19", "22", "30", "33", "30", "19", "20", "20", "21"], "time": [2756, 3817, 3871, 4324, 6012, 7131, 7533, 9471, 9996, 10215, 10631, 10653, 11084, 13129]}, "edge": {"target": [], "time": []}}, "mouseout": {"state": {"target": ["12", "13", "13", "12", "1", "18", "17", "17", "20", "19", "22", "30", "33", "30", "19", "20", "20", "21"], "time": [846, 951, 1134, 1218, 3412, 3835, 3889, 5794, 6330, 7402, 9297, 9977, 10198, 10232, 10649, 10849, 12981, 15477]}, "edge": {"target": [], "time": []}}}, "displayed_time": "21.17", "trialTime": 22686, "trial_type": "mouselab-mdp", "trial_index": 30, "time_elapsed": 974511, "internal_node_id": "0.0-4.0-1.0-15.0"}}, {"uniqueid": "w11594719:a75978586", "current_trial": 31, "dateTime": 1691143325704, "trialdata": {"revealed_states": [], "clicked_states": ["2", "6", "16", "5"], "num_clicks_accrued": [0, 0, 0, 0, 0, 0, 0, 0, 0, 0, 0, 0, 0], "stateRewards": ["", 2, 4, -5, 7, 81, 35, 6, 11, 14, -72, 42, -1, 2, 3, -7, -77, -44, -40, -15, -85, 51, -32, -2, -1, -5, 7, -74, 47, 52, 16, -49, 48, -46], "withholdReward": false, "trial_id": "mdp_trial_17", "block": "test", "trialIndex": 20, "score": 83.4, "costs": -5.6, "simulationMode": [null, null, null, null, null], "rewards": [2, 4, -5, 7, 81], "path": ["0", "0", "1", "2", "3", "4", "5"], "rt": [12759, 294, 1602, 323, 696], "actions": ["up", "up", "up", "right", "up"], "actionTimes": [15249, 16049, 18160, 18996, 20202], "queries": {"click": {"state": {"target": ["2", "6", "16", "5"], "time": [3939, 5895, 8136, 11485]}, "edge": {"target": [], "time": []}}, "mouseover": {"state": {"target": ["1", "2", "4", "6", "16", "16", "4", "5", "5", "4", "3", "2"], "time": [3083, 3454, 4396, 4849, 6392, 6877, 9473, 9702, 11033, 13973, 14057, 14141]}, "edge": {"target": [], "time": []}}, "mouseout": {"state": {"target": ["22", "12", "1", "2", "4", "6", "6", "16", "16", "16", "4", "5", "5", "4", "3", "2"], "time": [1154, 1593, 3253, 4052, 4413, 6006, 6355, 6540, 8785, 9035, 9507, 9952, 13702, 14007, 14075, 21711]}, "edge": {"target": [], "time": []}}}, "displayed_time": "20.71", "trialTime": 22716, "trial_type": "mouselab-mdp", "trial_index": 31, "time_elapsed": 997748, "internal_node_id": "0.0-4.0-1.0-16.0"}}, {"uniqueid": "w11594719:a75978586", "current_trial": 32, "dateTime": 1691143354923, "trialdata": {"revealed_states": [], "clicked_states": ["26", "27", "9", "7", "21", "20"], "num_clicks_accrued": [0, 0, 0, 0, 0, 0, 0, 0, 0, 0, 0, 0, 0], "stateRewards": ["", 2, 4, 7, -6, -76, -81, 2, 5, -66, -3, 36, -2, -4, 6, -2, -69, 4, -49, -6, 67, 38, -67, 2, 1, 1, 6, -68, -21, 52, -16, -16, 6, -70], "withholdReward": false, "trial_id": "mdp_trial_18", "block": "test", "trialIndex": 21, "score": 52.6, "costs": -8.4, "simulationMode": [null, null, null, null, null], "rewards": [-2, -4, 6, -6, 67], "path": ["0", "0", "12", "13", "14", "19", "20"], "rt": [19153, 325, 415, 297, 324], "actions": ["right", "right", "right", "down", "right"], "actionTimes": [21651, 22509, 23438, 24241, 25076], "queries": {"click": {"state": {"target": ["26", "27", "9", "7", "21", "20"], "time": [3862, 5868, 8969, 11684, 16081, 18324]}, "edge": {"target": [], "time": []}}, "mouseover": {"state": {"target": ["23", "26", "27", "10", "2", "9", "5", "6", "4", "7", "16", "17", "19", "21", "20", "20", "19", "22"], "time": [3164, 3352, 4362, 6924, 6967, 8461, 9703, 10275, 10689, 10873, 13519, 13837, 14222, 15603, 17023, 17359, 20611, 20624]}, "edge": {"target": [], "time": []}}, "mouseout": {"state": {"target": ["14", "13", "12", "0", "0", "23", "26", "27", "10", "2", "9", "5", "6", "4", "7", "16", "17", "19", "21", "20", "20", "19", "22"], "time": [952, 985, 1023, 1106, 1357, 3182, 4327, 5977, 6942, 7193, 9083, 9721, 10465, 10773, 11793, 13586, 13887, 14323, 16872, 17042, 20588, 20619, 20639]}, "edge": {"target": [], "time": []}}}, "displayed_time": "25.61", "trialTime": 28702, "trial_type": "mouselab-mdp", "trial_index": 32, "time_elapsed": 1026967, "internal_node_id": "0.0-4.0-1.0-17.0"}}, {"uniqueid": "w11594719:a75978586", "current_trial": 33, "dateTime": 1691143376570, "trialdata": {"revealed_states": [], "clicked_states": ["2", "5", "17"], "num_clicks_accrued": [0, 0, 0, 0, 0, 0, 0, 0, 0, 0, 0, 0, 0], "stateRewards": ["", 2, -3, -8, 14, -7, -51, 73, 2, 36, 36, -43, -1, 3, -4, 1, 6, 87, -65, 15, 61, -42, -83, -1, 3, -2, -7, 30, -48, 35, 13, 26, 60, 78], "withholdReward": false, "trial_id": "mdp_trial_19", "block": "test", "trialIndex": 22, "score": 81.8, "costs": -4.199999999999999, "simulationMode": [null, null, null, null, null], "rewards": [-1, 3, -4, 1, 87], "path": ["0", "0", "12", "13", "14", "15", "17"], "rt": [10396, 266, 440, 529, 301], "actions": ["right", "right", "right", "up", "right"], "actionTimes": [14637, 15425, 16371, 17411, 18221], "queries": {"click": {"state": {"target": ["2", "5", "17"], "time": [5696, 8425, 11226]}, "edge": {"target": [], "time": []}}, "mouseover": {"state": {"target": ["1", "2", "3", "4", "5", "17"], "time": [4913, 5269, 7415, 7467, 7900, 10727]}, "edge": {"target": [], "time": []}}, "mouseout": {"state": {"target": ["0", "1", "2", "3", "4", "5", "17"], "time": [994, 5151, 7364, 7434, 7515, 9094, 19637]}, "edge": {"target": [], "time": []}}}, "displayed_time": "18.73", "trialTime": 21130, "trial_type": "mouselab-mdp", "trial_index": 33, "time_elapsed": 1048615, "internal_node_id": "0.0-4.0-1.0-18.0"}}, {"uniqueid": "w11594719:a75978586", "current_trial": 34, "dateTime": 1691143407510, "trialdata": {"revealed_states": [], "clicked_states": ["29", "32", "33", "31", "20", "21", "22"], "num_clicks_accrued": [0, 0, 0, 0, 0, 0, 0, 0, 0, 0, 0, 0, 0], "stateRewards": ["", -2, -4, -2, 10, -8, -15, -47, 7, -84, 53, 5, -1, 2, -7, 3, 83, 31, 47, -1, 30, -8, 69, 2, -4, -1, 8, -7, 12, -8, -8, -13, 30, -84], "withholdReward": false, "trial_id": "mdp_trial_20", "block": "test", "trialIndex": 23, "score": 52.2, "costs": -9.8, "simulationMode": [null, null, null, null, null], "rewards": [-1, 2, -7, -1, 69], "path": ["0", "0", "12", "13", "14", "19", "22"], "rt": [22819, 239, 348, 319, 425], "actions": ["right", "right", "right", "down", "left"], "actionTimes": [24827, 25573, 26435, 27261, 28187], "queries": {"click": {"state": {"target": ["29", "32", "33", "31", "20", "21", "22"], "time": [4567, 7756, 10683, 13261, 16038, 18493, 20920]}, "edge": {"target": [], "time": []}}, "mouseover": {"state": {"target": ["29", "30", "32", "31", "30", "33", "30", "31", "31", "22", "19", "20", "21", "22"], "time": [3870, 6567, 7219, 9648, 9984, 10236, 12315, 12364, 12847, 14976, 15012, 15511, 17940, 20470]}, "edge": {"target": [], "time": []}}, "mouseout": {"state": {"target": ["0", "0", "29", "30", "32", "31", "30", "33", "30", "31", "31", "22", "19", "20", "21", "22"], "time": [1052, 3433, 6316, 7168, 8865, 9945, 10068, 12298, 12331, 12463, 14892, 14994, 15461, 17656, 20219, 22614]}, "edge": {"target": [], "time": []}}}, "displayed_time": "28.70", "trialTime": 30422, "trial_type": "mouselab-mdp", "trial_index": 34, "time_elapsed": 1079555, "internal_node_id": "0.0-4.0-1.0-19.0"}}, {"uniqueid": "w11594719:a75978586", "current_trial": 35, "dateTime": 1691143452648, "trialdata": {"revealed_states": [], "clicked_states": ["5", "6", "3", "9", "11", "10", "28", "29", "32", "22", "14", "16"], "num_clicks_accrued": [0, 0, 0, 0, 0, 0, 0, 0, 0, 0, 0, 0, 0], "stateRewards": ["", 1, 2, -3, -6, 50, -7, 7, -7, -80, 21, -1, 2, 2, 4, -1, 33, 84, 1, 14, -53, 81, 6, -2, -2, -3, -9, -87, -38, -59, -5, -74, -3, -71], "withholdReward": false, "trial_id": "mdp_trial_21", "block": "test", "trialIndex": 24, "score": 23.2, "costs": -16.8, "simulationMode": [null, null, null, null, null], "rewards": [2, 2, 4, -1, 33], "path": ["0", "0", "12", "13", "14", "15", "16"], "rt": [36974, 282, 338, 298, 206], "actions": ["right", "right", "right", "up", "up"], "actionTimes": [39199, 39993, 40834, 41631, 42375], "queries": {"click": {"state": {"target": ["5", "6", "3", "9", "11", "10", "28", "29", "32", "22", "14", "16"], "time": [3953, 6294, 9384, 11888, 14778, 17182, 19388, 22266, 25305, 28855, 32430, 35006]}, "edge": {"target": [], "time": []}}, "mouseover": {"state": {"target": ["1", "2", "5", "6", "6", "6", "4", "3", "8", "8", "3", "9", "11", "11", "10", "28", "28", "26", "29", "32", "22", "19", "14", "14", "15", "16"], "time": [2901, 2925, 3522, 4582, 5388, 5854, 8448, 8470, 8494, 8816, 8884, 11345, 13809, 14293, 16506, 18166, 18466, 21511, 21613, 24627, 28395, 31160, 31311, 31629, 34408, 34445]}, "edge": {"target": [], "time": []}}, "mouseout": {"state": {"target": ["12", "0", "1", "2", "5", "6", "6", "6", "4", "3", "8", "8", "3", "9", "11", "11", "10", "28", "28", "26", "29", "32", "22", "19", "14", "14", "15", "16", "18"], "time": [1256, 2853, 2921, 3056, 4498, 4607, 5485, 8433, 8466, 8490, 8548, 8849, 11178, 13806, 13857, 16404, 18132, 18216, 21494, 21544, 24308, 26990, 31143, 31245, 31395, 34380, 34426, 36772, 44085]}, "edge": {"target": [], "time": []}}}, "displayed_time": "42.88", "trialTime": 44610, "trial_type": "mouselab-mdp", "trial_index": 35, "time_elapsed": 1124692, "internal_node_id": "0.0-4.0-1.0-20.0"}}, {"uniqueid": "w11594719:a75978586", "current_trial": 36, "dateTime": 1691143486234, "trialdata": {"revealed_states": [], "clicked_states": ["8", "11", "9", "17", "33", "32", "21", "22", "6"], "num_clicks_accrued": [0, 0, 0, 0, 0, 0, 0, 0, 0, 0, 0, 0, 0], "stateRewards": ["", -1, -3, -7, -7, -76, 30, -49, 11, -70, 56, 2, 1, 4, -3, -14, -59, -83, -25, -9, -21, -67, -73, -2, 4, 4, -9, -11, -32, 60, 9, -87, 22, -64], "withholdReward": false, "trial_id": "mdp_trial_22", "block": "test", "trialIndex": 25, "score": -0.6000000000000014, "costs": -12.600000000000001, "simulationMode": [null, null, null, null, null], "rewards": [-1, -3, -7, -7, 30], "path": ["0", "0", "1", "2", "3", "4", "6"], "rt": [25904, 339, 168, 133, 218], "actions": ["up", "up", "up", "right", "right"], "actionTimes": [28089, 28932, 29614, 30249, 30969], "queries": {"click": {"state": {"target": ["8", "11", "9", "17", "33", "32", "21", "22", "6"], "time": [3724, 5691, 7696, 9700, 13236, 15753, 18578, 21207, 24796]}, "edge": {"target": [], "time": []}}, "mouseover": {"state": {"target": ["1", "10", "8", "11", "9", "6", "17", "15", "12", "0", "23", "24", "25", "33", "33", "30", "32", "21", "20", "20", "19", "22", "13", "18", "7", "4", "4", "6"], "time": [2854, 2992, 3059, 4421, 6279, 8255, 8894, 11551, 11869, 11906, 11954, 12230, 12273, 12473, 12807, 14555, 15268, 18098, 20260, 20495, 20646, 20714, 23074, 23225, 23262, 23280, 23929, 24366]}, "edge": {"target": [], "time": []}}, "mouseout": {"state": {"target": ["1", "1", "10", "8", "11", "9", "6", "17", "15", "12", "0", "23", "24", "25", "33", "33", "30", "32", "21", "20", "20", "19", "22", "13", "18", "7", "4", "4", "6", "7", "1"], "time": [943, 2872, 3009, 4318, 6196, 8205, 8286, 11517, 11568, 11902, 11937, 12226, 12255, 12388, 12540, 14470, 15234, 15871, 18698, 20280, 20613, 20696, 21317, 23108, 23259, 23276, 23294, 24046, 27175, 32633, 32722]}, "edge": {"target": [], "time": []}}}, "displayed_time": "31.48", "trialTime": 33078, "trial_type": "mouselab-mdp", "trial_index": 36, "time_elapsed": 1158279, "internal_node_id": "0.0-4.0-1.0-21.0"}}, {"uniqueid": "w11594719:a75978586", "current_trial": 37, "dateTime": 1691143509468, "trialdata": {"revealed_states": [], "clicked_states": ["27", "20", "18"], "num_clicks_accrued": [0, 0, 0, 0, 0, 0, 0, 0, 0, 0, 0, 0, 0], "stateRewards": ["", 1, 2, 7, 13, 88, -71, 27, 3, 60, 5, -53, -2, 2, -6, -1, -30, 79, 47, -4, -14, 46, 68, 1, 1, 8, 10, -14, 86, 48, -11, -67, -44, 5], "withholdReward": false, "trial_id": "mdp_trial_23", "block": "test", "trialIndex": 26, "score": 35.8, "costs": -4.199999999999999, "simulationMode": [null, null, null, null, null], "rewards": [-2, 2, -6, -1, 47], "path": ["0", "0", "12", "13", "14", "15", "18"], "rt": [15172, 181, 337, 712, 82], "actions": ["right", "right", "right", "up", "left"], "actionTimes": [17483, 18179, 19022, 20254, 20843], "queries": {"click": {"state": {"target": ["27", "20", "18"], "time": [3221, 6261, 10209]}, "edge": {"target": [], "time": []}}, "mouseover": {"state": {"target": ["23", "24", "26", "27", "15", "20", "14", "15", "18", "18", "15", "15", "13", "31", "30", "33", "23", "0", "12"], "time": [2530, 2566, 2633, 2767, 4741, 5798, 8409, 8831, 9114, 9783, 13248, 13635, 13687, 13905, 14306, 14640, 16611, 16653, 16688]}, "edge": {"target": [], "time": []}}, "mouseout": {"state": {"target": ["0", "23", "24", "26", "27", "15", "20", "14", "15", "18", "18", "15", "15", "13", "31", "30", "33", "23", "0"], "time": [1653, 2548, 2583, 2699, 3795, 4763, 8362, 8796, 9047, 9215, 13228, 13302, 13669, 13738, 14272, 14358, 16578, 16629, 16671]}, "edge": {"target": [], "time": []}}}, "displayed_time": "21.36", "trialTime": 22704, "trial_type": "mouselab-mdp", "trial_index": 37, "time_elapsed": 1181512, "internal_node_id": "0.0-4.0-1.0-22.0"}}, {"uniqueid": "w11594719:a75978586", "current_trial": 38, "dateTime": 1691143530934, "trialdata": {"revealed_states": [], "clicked_states": ["26", "9", "17", "22", "20"], "num_clicks_accrued": [0, 0, 0, 0, 0, 0, 0, 0, 0, 0, 0, 0, 0], "stateRewards": ["", 1, 4, 7, -16, -84, -6, -46, -12, -7, -49, -26, -1, 2, -4, 2, 22, 37, -64, 1, 88, -13, -10, 1, -4, -2, 5, 2, -10, -34, 9, 66, 55, 38], "withholdReward": false, "trial_id": "mdp_trial_24", "block": "test", "trialIndex": 27, "score": 79, "costs": -7, "simulationMode": [null, null, null, null, null], "rewards": [-1, 2, -4, 1, 88], "path": ["0", "0", "12", "13", "14", "19", "20"], "rt": [13468, 249, 371, 154, 368], "actions": ["right", "right", "right", "down", "right"], "actionTimes": [15713, 16476, 17352, 18007, 18873], "queries": {"click": {"state": {"target": ["26", "9", "17", "22", "20"], "time": [3741, 5683, 7799, 9868, 12296]}, "edge": {"target": [], "time": []}}, "mouseover": {"state": {"target": ["23", "28", "26", "11", "9", "5", "16", "15", "17", "14", "22", "22", "19", "20", "21"], "time": [2970, 3005, 3326, 4249, 4518, 6191, 6761, 6786, 7181, 8322, 8469, 9316, 11749, 11785, 13893]}, "edge": {"target": [], "time": []}}, "mouseout": {"state": {"target": ["12", "0", "23", "28", "26", "11", "9", "5", "16", "15", "17", "14", "22", "22", "19", "20"], "time": [1109, 2952, 2987, 3041, 4214, 4265, 6141, 6208, 6780, 6818, 8303, 8372, 8485, 11715, 11766, 13561]}, "edge": {"target": [], "time": []}}}, "displayed_time": "19.38", "trialTime": 20928, "trial_type": "mouselab-mdp", "trial_index": 38, "time_elapsed": 1202978, "internal_node_id": "0.0-4.0-1.0-23.0"}}, {"uniqueid": "w11594719:a75978586", "current_trial": 39, "dateTime": 1691143561504, "trialdata": {"revealed_states": [], "clicked_states": ["26", "27", "9", "6", "17", "18", "21", "20"], "num_clicks_accrued": [0, 0, 0, 0, 0, 0, 0, 0, 0, 0, 0, 0, 0], "stateRewards": ["", 1, -3, -2, 14, 49, -40, -39, 2, 26, -61, 73, 1, -4, -8, 12, 79, 29, -65, -13, 55, -26, 27, -1, 3, 3, 9, -17, -60, -18, -8, 35, -88, 69], "withholdReward": false, "trial_id": "mdp_trial_25", "block": "test", "trialIndex": 28, "score": 19.799999999999997, "costs": -11.200000000000001, "simulationMode": [null, null, null, null, null], "rewards": [1, -4, -8, -13, 55], "path": ["0", "0", "12", "13", "14", "19", "20"], "rt": [22676, 293, 368, 203, 293], "actions": ["right", "right", "right", "down", "right"], "actionTimes": [25014, 25813, 26692, 27398, 28191], "queries": {"click": {"state": {"target": ["26", "27", "9", "6", "17", "18", "21", "20"], "time": [3844, 5835, 7990, 10181, 13158, 16830, 19034, 21786]}, "edge": {"target": [], "time": []}}, "mouseover": {"state": {"target": ["23", "24", "25", "29", "26", "29", "29", "27", "8", "3", "9", "6", "16", "17", "17", "15", "18", "18", "13", "21", "20"], "time": [2951, 2985, 3023, 3137, 3456, 4448, 4722, 5049, 6426, 6491, 7244, 9371, 12248, 12400, 12685, 15312, 15432, 16503, 17602, 18350, 21260]}, "edge": {"target": [], "time": []}}, "mouseout": {"state": {"target": ["21", "0", "23", "24", "25", "29", "26", "29", "29", "27", "8", "3", "9", "6", "16", "17", "17", "15", "18", "18", "13", "21", "20"], "time": [926, 2934, 2968, 3006, 3039, 3305, 4382, 4547, 4790, 6360, 6444, 6744, 8111, 12231, 12300, 12534, 15295, 15347, 15516, 17580, 17620, 20890, 23521]}, "edge": {"target": [], "time": []}}}, "displayed_time": "28.70", "trialTime": 30023, "trial_type": "mouselab-mdp", "trial_index": 39, "time_elapsed": 1233549, "internal_node_id": "0.0-4.0-1.0-24.0"}}, {"uniqueid": "w11594719:a75978586", "current_trial": 40, "dateTime": 1691143580359, "trialdata": {"revealed_states": [], "clicked_states": ["10", "6", "17"], "num_clicks_accrued": [0, 0, 0, 0, 0, 0, 0, 0, 0, 0, 0, 0, 0], "stateRewards": ["", -1, -2, 8, -6, -79, -6, 87, 9, -5, -66, -38, 2, 2, 5, -6, -82, 74, 85, -8, 67, -30, -15, 1, -2, -2, -2, 87, 64, 49, 7, 2, -38, -9], "withholdReward": false, "trial_id": "mdp_trial_26", "block": "test", "trialIndex": 29, "score": 72.8, "costs": -4.199999999999999, "simulationMode": [null, null, null, null, null], "rewards": [2, 2, 5, -6, 74], "path": ["0", "0", "12", "13", "14", "15", "17"], "rt": [8635, 113, 600, 651, 468], "actions": ["right", "right", "right", "up", "right"], "actionTimes": [11203, 11828, 12935, 14093, 15070], "queries": {"click": {"state": {"target": ["10", "6", "17"], "time": [3979, 5945, 7901]}, "edge": {"target": [], "time": []}}, "mouseover": {"state": {"target": ["10", "10", "2", "6", "16", "17", "19", "19"], "time": [3220, 3553, 4431, 5084, 6689, 6807, 8832, 9517]}, "edge": {"target": [], "time": []}}, "mouseout": {"state": {"target": ["22", "28", "0", "10", "10", "2", "6", "16", "17", "19"], "time": [1037, 1558, 3149, 3269, 4427, 4447, 6655, 6706, 8399, 8919]}, "edge": {"target": [], "time": []}}}, "displayed_time": "16.57", "trialTime": 18325, "trial_type": "mouselab-mdp", "trial_index": 40, "time_elapsed": 1252404, "internal_node_id": "0.0-4.0-1.0-25.0"}}, {"uniqueid": "w11594719:a75978586", "current_trial": 41, "dateTime": 1691143600211, "trialdata": {"revealed_states": [], "clicked_states": ["10", "6"], "num_clicks_accrued": [0, 0, 0, 0, 0, 0, 0, 0, 0, 0, 0, 0, 0], "stateRewards": ["", 2, 3, -6, -5, -3, 55, 40, 11, 61, 11, 51, 2, -4, -6, 9, -25, 29, -15, -6, 7, -77, -2, -2, -4, 1, 14, -43, -1, 56, -12, -54, 41, -74], "withholdReward": false, "trial_id": "mdp_trial_27", "block": "test", "trialIndex": 30, "score": 46.2, "costs": -2.8, "simulationMode": [null, null, null, null, null], "rewards": [2, 3, -6, -5, 55], "path": ["0", "0", "1", "2", "3", "4", "6"], "rt": [9132, 272, 378, 17, 379], "actions": ["up", "up", "up", "right", "right"], "actionTimes": [13008, 13793, 14668, 15199, 16093], "queries": {"click": {"state": {"target": ["10", "6"], "time": [5390, 7520]}, "edge": {"target": [], "time": []}}, "mouseover": {"state": {"target": ["1", "10", "2", "6", "4", "3", "9", "11", "8", "3", "4", "7", "2"], "time": [4604, 4939, 6102, 6935, 8617, 8681, 9160, 9461, 10483, 10516, 10567, 10902, 11320]}, "edge": {"target": [], "time": []}}, "mouseout": {"state": {"target": ["19", "12", "1", "0", "1", "10", "2", "6", "6", "4", "3", "9", "11", "8", "3", "4", "7"], "time": [1248, 1281, 2971, 4540, 4705, 6098, 6118, 8460, 8611, 8648, 9078, 9361, 10466, 10500, 10535, 10734, 10951]}, "edge": {"target": [], "time": []}}}, "displayed_time": "17.88", "trialTime": 19311, "trial_type": "mouselab-mdp", "trial_index": 41, "time_elapsed": 1272256, "internal_node_id": "0.0-4.0-1.0-26.0"}}, {"uniqueid": "w11594719:a75978586", "current_trial": 42, "dateTime": 1691143617958, "trialdata": {"revealed_states": [], "clicked_states": ["26", "27", "10"], "num_clicks_accrued": [0, 0, 0, 0, 0, 0, 0, 0, 0, 0, 0, 0, 0], "stateRewards": ["", -2, -3, 1, -7, 39, -67, 16, 5, -20, 73, 66, -1, 4, 5, -3, 23, -68, -87, -8, 3, -3, 17, 1, -4, -2, -13, -32, 34, 61, -5, -11, -18, 12], "withholdReward": false, "trial_id": "mdp_trial_28", "block": "test", "trialIndex": 31, "score": 69.8, "costs": -4.199999999999999, "simulationMode": [null, null, null, null, null], "rewards": [-2, -3, 1, 5, 73], "path": ["0", "0", "1", "2", "3", "8", "10"], "rt": [8594, 285, 328, 79, 287], "actions": ["up", "up", "up", "left", "down"], "actionTimes": [10831, 11628, 12459, 13045, 13841], "queries": {"click": {"state": {"target": ["26", "27", "10"], "time": [3617, 5474, 7689]}, "edge": {"target": [], "time": []}}, "mouseover": {"state": {"target": ["28", "26", "27", "9", "5", "10", "28", "30", "32"], "time": [2841, 3246, 4436, 6031, 6432, 7216, 8645, 8702, 9527]}, "edge": {"target": [], "time": []}}, "mouseout": {"state": {"target": ["2", "1", "28", "26", "27", "9", "5", "10", "28", "30", "32"], "time": [1063, 1185, 2928, 4071, 5996, 6060, 6785, 7797, 8664, 9163, 9802]}, "edge": {"target": [], "time": []}}}, "displayed_time": "16.24", "trialTime": 17193, "trial_type": "mouselab-mdp", "trial_index": 42, "time_elapsed": 1290003, "internal_node_id": "0.0-4.0-1.0-27.0"}}, {"uniqueid": "w11594719:a75978586", "current_trial": 43, "dateTime": 1691143637894, "trialdata": {"revealed_states": [], "clicked_states": ["17", "20", "15"], "num_clicks_accrued": [0, 0, 0, 0, 0, 0, 0, 0, 0, 0, 0, 0, 0], "stateRewards": ["", -2, -4, -2, -13, -15, 87, -19, -6, -80, 30, 12, 1, 1, -8, 2, 55, 56, 15, 11, -68, -7, 55, -2, 3, -3, -3, 48, 62, 4, 1, -3, 69, -33], "withholdReward": false, "trial_id": "mdp_trial_29", "block": "test", "trialIndex": 32, "score": 47.8, "costs": -4.199999999999999, "simulationMode": [null, null, null, null, null], "rewards": [1, 1, -8, 2, 56], "path": ["0", "0", "12", "13", "14", "15", "17"], "rt": [10394, 420, 436, 257, 150], "actions": ["right", "right", "right", "up", "right"], "actionTimes": [12753, 13685, 14621, 15381, 16044], "queries": {"click": {"state": {"target": ["17", "20", "15"], "time": [3958, 6510, 8478]}, "edge": {"target": [], "time": []}}, "mouseover": {"state": {"target": ["12", "13", "14", "17", "20", "15", "16"], "time": [3007, 3042, 3109, 3461, 5655, 7767, 10847]}, "edge": {"target": [], "time": []}}, "mouseout": {"state": {"target": ["0", "12", "13", "14", "17", "17", "20", "15", "16", "15"], "time": [1627, 3025, 3076, 3293, 4075, 4856, 7384, 10643, 11666, 11802]}, "edge": {"target": [], "time": []}}}, "displayed_time": "16.55", "trialTime": 19387, "trial_type": "mouselab-mdp", "trial_index": 43, "time_elapsed": 1309939, "internal_node_id": "0.0-4.0-1.0-28.0"}}, {"uniqueid": "w11594719:a75978586", "current_trial": 44, "dateTime": 1691143665696, "trialdata": {"revealed_states": [], "clicked_states": ["2", "6", "17", "15", "14", "20"], "num_clicks_accrued": [0, 0, 0, 0, 0, 0, 0, 0, 0, 0, 0, 0, 0], "stateRewards": ["", 1, 1, 7, -11, 80, -20, -53, -14, 3, 31, 27, 2, -1, -8, -10, 33, 41, 86, 9, 78, -37, -13, -1, -2, -6, -8, -80, 75, 4, -16, -49, -74, 24], "withholdReward": false, "trial_id": "mdp_trial_30", "block": "test", "trialIndex": 33, "score": 71.6, "costs": -8.4, "simulationMode": [null, null, null, null, null], "rewards": [2, -1, -8, 9, 78], "path": ["0", "0", "12", "13", "14", "19", "20"], "rt": [18788, 241, 284, 193, 308], "actions": ["right", "right", "right", "down", "right"], "actionTimes": [22286, 23054, 23836, 24534, 25350], "queries": {"click": {"state": {"target": ["2", "6", "17", "15", "14", "20"], "time": [5932, 8025, 10032, 13730, 16470, 19060]}, "edge": {"target": [], "time": []}}, "mouseover": {"state": {"target": ["1", "2", "2", "6", "16", "17", "17", "12", "31", "30", "31", "19", "20", "19", "14", "15", "14", "20", "21", "21", "19"], "time": [4684, 5006, 5524, 6385, 8534, 8676, 9114, 11278, 11344, 11382, 11774, 12257, 12628, 12711, 12795, 13247, 15961, 18372, 19918, 21351, 21402]}, "edge": {"target": [], "time": []}}, "mouseout": {"state": {"target": ["1", "2", "2", "6", "16", "17", "17", "12", "31", "30", "31", "19", "20", "19", "14", "15", "14", "20", "21", "21", "19"], "time": [4988, 5023, 6043, 8517, 8582, 8710, 11243, 11297, 11363, 11748, 11791, 12291, 12667, 12745, 13195, 15894, 18121, 19867, 19984, 21385, 26894]}, "edge": {"target": [], "time": []}}}, "displayed_time": "25.85", "trialTime": 27245, "trial_type": "mouselab-mdp", "trial_index": 44, "time_elapsed": 1337740, "internal_node_id": "0.0-4.0-1.0-29.0"}}, {"uniqueid": "w11594719:a75978586", "current_trial": 45, "dateTime": 1691143684712, "trialdata": {"revealed_states": [], "clicked_states": ["26", "5", "11"], "num_clicks_accrued": [0, 0, 0, 0, 0, 0, 0, 0, 0, 0, 0, 0, 0], "stateRewards": ["", -2, 2, 8, -6, -25, 3, 87, 2, -62, -2, 74, -2, -1, 2, -1, 79, 49, -37, -14, 5, 67, -9, -1, 2, -2, 5, 15, 38, 32, -14, -38, -38, 30], "withholdReward": false, "trial_id": "mdp_trial_31", "block": "test", "trialIndex": 34, "score": 79.8, "costs": -4.199999999999999, "simulationMode": [null, null, null, null, null], "rewards": [-2, 2, 8, 2, 74], "path": ["0", "0", "1", "2", "3", "8", "11"], "rt": [9682, 255, 294, 131, 269], "actions": ["up", "up", "up", "left", "left"], "actionTimes": [12299, 13069, 13877, 14517, 15293], "queries": {"click": {"state": {"target": ["26", "5", "11"], "time": [3867, 6232, 8225]}, "edge": {"target": [], "time": []}}, "mouseover": {"state": {"target": ["23", "26", "10", "3", "5", "8", "11", "11", "30", "33", "33", "24", "23", "1"], "time": [3059, 3342, 4668, 4726, 5188, 7085, 7136, 7497, 9191, 9241, 10525, 10596, 10712, 10830]}, "edge": {"target": [], "time": []}}, "mouseout": {"state": {"target": ["0", "23", "26", "10", "3", "5", "8", "11", "11", "30", "33", "33", "24", "23"], "time": [3039, 3090, 4336, 4689, 4762, 7048, 7103, 7231, 8773, 9209, 9258, 10559, 10613, 10730]}, "edge": {"target": [], "time": []}}}, "displayed_time": "16.62", "trialTime": 18453, "trial_type": "mouselab-mdp", "trial_index": 45, "time_elapsed": 1356757, "internal_node_id": "0.0-4.0-1.0-30.0"}}, {"uniqueid": "w11594719:a75978586", "current_trial": 46, "dateTime": 1691143709688, "trialdata": {"revealed_states": [], "clicked_states": ["17", "16", "7", "29", "25"], "num_clicks_accrued": [0, 0, 0, 0, 0, 0, 0, 0, 0, 0, 0, 0, 0], "stateRewards": ["", 2, -1, -1, 7, 11, -40, -22, -2, 69, 37, 8, -2, 4, -8, -12, -2, -72, -3, -12, 17, 63, 12, 1, 3, -7, 6, 25, 61, 61, -9, 28, -17, 27], "withholdReward": false, "trial_id": "mdp_trial_32", "block": "test", "trialIndex": 35, "score": 57, "costs": -7, "simulationMode": [null, null, null, null, null], "rewards": [1, 3, -7, 6, 61], "path": ["0", "0", "23", "24", "25", "26", "29"], "rt": [16995, 221, 331, 693, 236], "actions": ["left", "left", "left", "up", "left"], "actionTimes": [18866, 19605, 20446, 21647, 22409], "queries": {"click": {"state": {"target": ["17", "16", "7", "29", "25"], "time": [4812, 7177, 9791, 12119, 14707]}, "edge": {"target": [], "time": []}}, "mouseover": {"state": {"target": ["23", "1", "18", "15", "17", "17", "17", "15", "16", "7", "2", "3", "7", "2", "28", "26", "29", "25", "24"], "time": [2653, 2758, 2808, 3259, 3293, 3661, 4364, 5963, 6627, 8325, 8361, 8662, 9305, 10552, 10675, 10835, 11417, 13313, 17563]}, "edge": {"target": [], "time": []}}, "mouseout": {"state": {"target": ["1", "0", "23", "1", "18", "15", "17", "17", "17", "15", "16", "7", "2", "3", "7", "2", "28", "26", "29", "25"], "time": [828, 2619, 2708, 2776, 2842, 3278, 3344, 3730, 5943, 6094, 8305, 8343, 8384, 8754, 10499, 10572, 10757, 11003, 13215, 17515]}, "edge": {"target": [], "time": []}}}, "displayed_time": "22.91", "trialTime": 24402, "trial_type": "mouselab-mdp", "trial_index": 46, "time_elapsed": 1381732, "internal_node_id": "0.0-4.0-1.0-31.0"}}, {"uniqueid": "w11594719:a75978586", "current_trial": 47, "dateTime": 1691143731523, "trialdata": {"revealed_states": [], "clicked_states": ["25", "21", "20"], "num_clicks_accrued": [0, 0, 0, 0, 0, 0, 0, 0, 0, 0, 0, 0, 0], "stateRewards": ["", -2, 4, -7, -3, -76, 39, -28, 10, 14, 12, 60, 2, -3, 6, -10, 88, -34, -41, -3, 72, -13, -56, 1, 3, 2, 8, -51, 23, -57, 1, 14, -46, -16], "withholdReward": false, "trial_id": "mdp_trial_33", "block": "test", "trialIndex": 36, "score": 69.8, "costs": -4.199999999999999, "simulationMode": [null, null, null, null, null], "rewards": [2, -3, 6, -3, 72], "path": ["0", "0", "12", "13", "14", "19", "20"], "rt": [10508, 360, 652, 144, 296], "actions": ["right", "right", "right", "down", "right"], "actionTimes": [15338, 16212, 17378, 18024, 18829], "queries": {"click": {"state": {"target": ["25", "21", "20"], "time": [6727, 9542, 11982]}, "edge": {"target": [], "time": []}}, "mouseover": {"state": {"target": ["28", "25", "23", "0", "12", "13", "20", "21", "20", "17", "15", "18"], "time": [5729, 5964, 7330, 7356, 7377, 7401, 8257, 8979, 11475, 13737, 13774, 13806]}, "edge": {"target": [], "time": []}}, "mouseout": {"state": {"target": ["24", "0", "12", "22", "22", "0", "28", "25", "23", "0", "12", "13", "20", "21", "20", "17", "15", "18"], "time": [435, 469, 521, 587, 838, 5492, 5830, 7309, 7351, 7373, 7395, 7419, 8693, 11157, 13422, 13770, 13788, 13824]}, "edge": {"target": [], "time": []}}}, "displayed_time": "19.34", "trialTime": 21272, "trial_type": "mouselab-mdp", "trial_index": 47, "time_elapsed": 1403568, "internal_node_id": "0.0-4.0-1.0-32.0"}}, {"uniqueid": "w11594719:a75978586", "current_trial": 48, "dateTime": 1691143760286, "trialdata": {"revealed_states": [], "clicked_states": ["28", "10", "5", "17", "14", "32", "33"], "num_clicks_accrued": [0, 0, 0, 0, 0, 0, 0, 0, 0, 0, 0, 0, 0], "stateRewards": ["", -2, -3, -6, -7, 9, 16, 65, 5, -41, 20, -25, -1, -4, 1, -11, -49, -4, 71, 1, 39, -62, 52, -2, -3, 7, -9, -28, -70, 84, 8, 24, -58, 82], "withholdReward": false, "trial_id": "mdp_trial_34", "block": "test", "trialIndex": 37, "score": 82.2, "costs": -9.8, "simulationMode": [null, null, null, null, null], "rewards": [-2, -3, 7, 8, 82], "path": ["0", "0", "23", "24", "25", "30", "33"], "rt": [20278, 201, 322, 208, 494], "actions": ["left", "left", "left", "down", "left"], "actionTimes": [22791, 23507, 24332, 25039, 26044], "queries": {"click": {"state": {"target": ["28", "10", "5", "17", "14", "32", "33"], "time": [4048, 6239, 8828, 11180, 13845, 16747, 19611]}, "edge": {"target": [], "time": []}}, "mouseover": {"state": {"target": ["28", "26", "28", "8", "3", "3", "10", "7", "4", "5", "6", "16", "17", "14", "14", "32", "30", "33", "33", "30", "31"], "time": [3114, 3386, 3621, 4897, 5116, 5572, 5765, 7730, 7859, 7943, 9722, 9843, 10666, 13134, 13403, 16249, 18779, 18828, 19209, 21134, 21148]}, "edge": {"target": [], "time": []}}, "mouseout": {"state": {"target": ["1", "28", "26", "28", "8", "3", "3", "10", "7", "4", "5", "6", "16", "17", "14", "14", "32", "30", "33", "33", "30", "31"], "time": [1453, 3336, 3571, 4157, 4933, 5197, 5632, 6346, 7825, 7892, 9687, 9777, 10272, 12468, 13153, 15764, 17893, 18796, 19081, 19720, 21144, 21163]}, "edge": {"target": [], "time": []}}}, "displayed_time": "26.56", "trialTime": 28177, "trial_type": "mouselab-mdp", "trial_index": 48, "time_elapsed": 1432330, "internal_node_id": "0.0-4.0-1.0-33.0"}}, {"uniqueid": "w11594719:a75978586", "current_trial": 49, "dateTime": 1691143785836, "trialdata": {"revealed_states": [], "clicked_states": ["1", "5", "17", "20", "21", "22"], "num_clicks_accrued": [0, 0, 0, 0, 0, 0, 0, 0, 0, 0, 0, 0, 0], "stateRewards": ["", 2, 4, -6, -13, -75, -81, 30, 7, 5, 59, -65, -1, -1, 7, 14, -38, 36, -41, 1, -54, -5, 64, 2, -1, 5, 6, -19, 79, 11, 16, -33, -50, 58], "withholdReward": false, "trial_id": "mdp_trial_35", "block": "test", "trialIndex": 38, "score": 61.6, "costs": -8.4, "simulationMode": [null, null, null, null, null], "rewards": [-1, -1, 7, 1, 64], "path": ["0", "0", "12", "13", "14", "19", "22"], "rt": [17667, 284, 327, 112, 388], "actions": ["right", "right", "right", "down", "left"], "actionTimes": [19924, 20720, 21548, 22171, 23071], "queries": {"click": {"state": {"target": ["1", "5", "17", "20", "21", "22"], "time": [3627, 6067, 8433, 11659, 14599, 16640]}, "edge": {"target": [], "time": []}}, "mouseover": {"state": {"target": ["1", "1", "7", "16", "4", "5", "17", "20", "20", "21", "21", "22", "31", "31"], "time": [2822, 3162, 4154, 4539, 5146, 5588, 7967, 10797, 11217, 12928, 14083, 15676, 17537, 18869]}, "edge": {"target": [], "time": []}}, "mouseout": {"state": {"target": ["0", "1", "1", "7", "16", "4", "5", "17", "17", "20", "20", "21", "21", "22", "31", "31"], "time": [1129, 2943, 4134, 4171, 4802, 5204, 6546, 8548, 10095, 10982, 12827, 13395, 15257, 17302, 18235, 18903]}, "edge": {"target": [], "time": []}}}, "displayed_time": "23.59", "trialTime": 24977, "trial_type": "mouselab-mdp", "trial_index": 49, "time_elapsed": 1457880, "internal_node_id": "0.0-4.0-1.0-34.0"}}, {"uniqueid": "w11594719:a75978586", "current_trial": 50, "dateTime": 1691143814399, "trialdata": {"revealed_states": [], "clicked_states": ["11", "6", "17", "14", "20", "33"], "num_clicks_accrued": [0, 0, 0, 0, 0, 0, 0, 0, 0, 0, 0, 0, 0], "stateRewards": ["", -2, -4, -8, 8, 63, -50, -19, -7, -17, -31, 31, 1, 3, -5, 12, -35, -63, -29, -4, -17, -75, -79, -2, -3, -2, 8, -3, -85, 10, -2, -82, -82, 56], "withholdReward": false, "trial_id": "mdp_trial_36", "block": "test", "trialIndex": 39, "score": 38.6, "costs": -8.4, "simulationMode": [null, null, null, null, null], "rewards": [-2, -3, -2, -2, 56], "path": ["0", "0", "23", "24", "25", "30", "33"], "rt": [20049, 253, 270, 203, 251], "actions": ["left", "left", "left", "down", "left"], "actionTimes": [22750, 23518, 24291, 24992, 25744], "queries": {"click": {"state": {"target": ["11", "6", "17", "14", "20", "33"], "time": [5555, 8393, 11334, 13761, 16129, 19405]}, "edge": {"target": [], "time": []}}, "mouseover": {"state": {"target": ["10", "11", "11", "8", "3", "4", "6", "6", "4", "3", "17", "14", "20", "33", "33"], "time": [3492, 3847, 5070, 6429, 6467, 6518, 6541, 7866, 9178, 9330, 10846, 13261, 15423, 18437, 19005]}, "edge": {"target": [], "time": []}}, "mouseout": {"state": {"target": ["0", "10", "11", "11", "8", "3", "4", "6", "6", "4", "3", "17", "14", "20", "33", "33"], "time": [1962, 3509, 3949, 5671, 6447, 6499, 6536, 7197, 9130, 9246, 9850, 13160, 15356, 17116, 18488, 21533]}, "edge": {"target": [], "time": []}}}, "displayed_time": "26.25", "trialTime": 27998, "trial_type": "mouselab-mdp", "trial_index": 50, "time_elapsed": 1486443, "internal_node_id": "0.0-4.0-1.0-35.0"}}, {"uniqueid": "w11594719:a75978586", "current_trial": 51, "dateTime": 1691143836372, "trialdata": {"revealed_states": [], "clicked_states": ["6", "16", "18", "29"], "num_clicks_accrued": [0, 0, 0, 0, 0, 0, 0, 0, 0, 0, 0, 0, 0], "stateRewards": ["", -1, -2, 4, 9, 10, -75, 39, 16, -43, 88, -19, -1, 1, 2, 4, -31, 10, 73, 12, 41, -64, -81, -2, 2, -6, 1, -81, -1, -26, 3, -59, -3, -20], "withholdReward": false, "trial_id": "mdp_trial_37", "block": "test", "trialIndex": 40, "score": 73.4, "costs": -5.6, "simulationMode": [null, null, null, null, null], "rewards": [-1, 1, 2, 4, 73], "path": ["0", "0", "12", "13", "14", "15", "18"], "rt": [11418, 201, 298, 742, 102], "actions": ["right", "right", "right", "up", "left"], "actionTimes": [14158, 14870, 15672, 16923, 17536], "queries": {"click": {"state": {"target": ["6", "16", "18", "29"], "time": [4008, 6375, 8392, 11069]}, "edge": {"target": [], "time": []}}, "mouseover": {"state": {"target": ["7", "6", "16", "16", "18", "31", "30", "33", "29", "28", "1"], "time": [3206, 3517, 5308, 5955, 7756, 9224, 9260, 9298, 9895, 12523, 13190]}, "edge": {"target": [], "time": []}}, "mouseout": {"state": {"target": ["22", "0", "7", "6", "16", "16", "18", "31", "30", "33", "29", "28", "1", "12"], "time": [1092, 3155, 3309, 5259, 5427, 7400, 8504, 9242, 9280, 9726, 12473, 12603, 13222, 19215]}, "edge": {"target": [], "time": []}}}, "displayed_time": "18.04", "trialTime": 21376, "trial_type": "mouselab-mdp", "trial_index": 51, "time_elapsed": 1508417, "internal_node_id": "0.0-4.0-1.0-36.0"}}, {"uniqueid": "w11594719:a75978586", "current_trial": 52, "dateTime": 1691143859460, "trialdata": {"revealed_states": [], "clicked_states": ["10", "16", "9", "11", "29"], "num_clicks_accrued": [0, 0, 0, 0, 0, 0, 0, 0, 0, 0, 0, 0, 0], "stateRewards": ["", -2, -4, 6, 14, -34, 49, 36, -8, -3, 32, -4, 1, -2, 1, -8, -20, -71, -57, -7, -86, -62, -16, -2, -3, -5, 11, 23, -21, 53, 5, -5, 85, 73], "withholdReward": false, "trial_id": "mdp_trial_38", "block": "test", "trialIndex": 41, "score": 47, "costs": -7, "simulationMode": [null, null, null, null, null], "rewards": [-2, -3, -5, 11, 53], "path": ["0", "0", "23", "24", "25", "26", "29"], "rt": [14640, 210, 281, 361, 243], "actions": ["left", "left", "left", "up", "left"], "actionTimes": [16813, 17533, 18321, 19187, 19940], "queries": {"click": {"state": {"target": ["10", "16", "9", "11", "29"], "time": [3668, 5796, 7688, 10342, 13816]}, "edge": {"target": [], "time": []}}, "mouseover": {"state": {"target": ["10", "10", "7", "16", "5", "9", "3", "8", "11", "25", "25", "29", "26", "28"], "time": [2789, 3194, 4185, 4285, 6479, 6748, 8909, 9391, 9863, 12390, 12977, 13393, 15472, 15507]}, "edge": {"target": [], "time": []}}, "mouseout": {"state": {"target": ["0", "10", "10", "7", "16", "5", "9", "9", "3", "8", "11", "25", "25", "29", "26", "28"], "time": [1321, 2807, 3775, 4203, 6329, 6680, 7795, 8524, 9359, 9459, 12072, 12507, 12992, 15421, 15490, 15990]}, "edge": {"target": [], "time": []}}}, "displayed_time": "20.45", "trialTime": 22509, "trial_type": "mouselab-mdp", "trial_index": 52, "time_elapsed": 1531504, "internal_node_id": "0.0-4.0-1.0-37.0"}}, {"uniqueid": "w11594719:a75978586", "current_trial": 53, "dateTime": 1691143891088, "trialdata": {"revealed_states": [], "clicked_states": ["21", "20", "16", "11", "3", "6", "32", "29"], "num_clicks_accrued": [0, 0, 0, 0, 0, 0, 0, 0, 0, 0, 0, 0, 0], "stateRewards": ["", 1, -2, -8, -3, 31, -84, -55, -14, 15, -58, 17, -2, -3, 7, 7, -12, 48, 67, 4, -44, -68, 46, 2, 3, -5, -7, 76, 27, 5, 11, 57, 52, 59], "withholdReward": false, "trial_id": "mdp_trial_39", "block": "test", "trialIndex": 42, "score": 51.8, "costs": -11.200000000000001, "simulationMode": [null, null, null, null, null], "rewards": [2, 3, -5, 11, 52], "path": ["0", "0", "23", "24", "25", "30", "32"], "rt": [22887, 165, 355, 733, 220], "actions": ["left", "left", "left", "down", "down"], "actionTimes": [25042, 25720, 26584, 27829, 28561], "queries": {"click": {"state": {"target": ["21", "20", "16", "11", "3", "6", "32", "29"], "time": [3598, 6560, 8864, 10856, 13360, 15590, 18339, 22013]}, "edge": {"target": [], "time": []}}, "mouseover": {"state": {"target": ["21", "20", "20", "14", "16", "7", "11", "11", "3", "4", "6", "6", "4", "10", "28", "30", "32", "32", "25", "29", "26", "24"], "time": [3072, 4398, 6095, 7350, 7631, 9240, 9311, 9928, 12158, 14121, 14144, 15065, 16136, 16178, 16261, 17243, 17293, 17862, 21312, 21518, 22759, 22814]}, "edge": {"target": [], "time": []}}, "mouseout": {"state": {"target": ["12", "0", "21", "20", "20", "14", "16", "7", "11", "11", "3", "4", "6", "6", "4", "10", "28", "30", "32", "32", "25", "29", "26", "24", "22"], "time": [925, 2652, 3705, 4555, 7330, 7368, 8990, 9262, 9379, 12108, 14081, 14140, 14199, 16130, 16158, 16198, 16592, 17261, 17477, 19667, 21397, 22740, 22779, 22907, 30019]}, "edge": {"target": [], "time": []}}}, "displayed_time": "29.07", "trialTime": 31019, "trial_type": "mouselab-mdp", "trial_index": 53, "time_elapsed": 1563132, "internal_node_id": "0.0-4.0-1.0-38.0"}}, {"uniqueid": "w11594719:a75978586", "current_trial": 54, "dateTime": 1691143912567, "trialdata": {"revealed_states": [], "clicked_states": ["7", "20", "22", "21"], "num_clicks_accrued": [0, 0, 0, 0, 0, 0, 0, 0, 0, 0, 0, 0, 0], "stateRewards": ["", -1, 1, 8, -8, -49, 62, -78, 16, 28, -81, 78, -2, -3, -1, -4, 67, 49, -2, -13, -16, -39, 83, 1, -4, 4, -5, -20, 7, 84, 7, -32, -59, 19], "withholdReward": false, "trial_id": "mdp_trial_40", "block": "test", "trialIndex": 43, "score": 58.4, "costs": -5.6, "simulationMode": [null, null, null, null, null], "rewards": [-2, -3, -1, -13, 83], "path": ["0", "0", "12", "13", "14", "19", "22"], "rt": [11087, 328, 274, 271, 420], "actions": ["right", "right", "right", "down", "left"], "actionTimes": [13700, 14527, 15310, 16095, 17015], "queries": {"click": {"state": {"target": ["7", "20", "22", "21"], "time": [4398, 7048, 9054, 11035]}, "edge": {"target": [], "time": []}}, "mouseover": {"state": {"target": ["1", "7", "16", "17", "20", "21", "22", "21"], "time": [3551, 3892, 4935, 5781, 6586, 7595, 7880, 9539]}, "edge": {"target": [], "time": []}}, "mouseout": {"state": {"target": ["19", "19", "13", "12", "1", "7", "16", "17", "20", "21", "22", "21", "22"], "time": [889, 1094, 1127, 1160, 3640, 4899, 4991, 5825, 7511, 7633, 9505, 11955, 12271]}, "edge": {"target": [], "time": []}}}, "displayed_time": "17.52", "trialTime": 20840, "trial_type": "mouselab-mdp", "trial_index": 54, "time_elapsed": 1584612, "internal_node_id": "0.0-4.0-1.0-39.0"}}, {"uniqueid": "w11594719:a75978586", "current_trial": 55, "dateTime": 1691143966999, "trialdata": {"rt": 54426, "response": {"Q0": "$-16 to 16", "Q1": "$-32 to $32", "Q2": "$-88 to $88", "Q3": "The cost was always $1.4.", "Q4": "Very unmotivated"}, "question_order": [0, 1, 2, 3, 4], "trial_id": "final_quiz_control", "trial_type": "survey-multi-choice", "trial_index": 55, "time_elapsed": 1639044, "internal_node_id": "0.0-4.0-2.0"}}, {"uniqueid": "w11594719:a75978586", "current_trial": 56, "dateTime": 1691144057099, "trialdata": {"rt": 90063, "response": {"Q0": "I used the corner nodes  on each web in order to determine my higest value  ", "Q1": "Yes  ,  I started using he cash gained in the path to to main node i required . ", "Q2": "It was not difficult at all and quite fun "}, "trial_id": "self_report_control", "trial_type": "survey-text", "trial_index": 56, "time_elapsed": 1729144, "internal_node_id": "0.0-4.0-3.0"}}, {"uniqueid": "w11594719:a75978586", "current_trial": 57, "dateTime": 1691144093219, "trialdata": {"rt": 36114, "response": {"gender": "female", "age": "36", "colorblind": "0", "effort": "0"}, "trial_type": "survey-html-form", "trial_index": 57, "time_elapsed": 1765263, "internal_node_id": "0.0-4.0-4.0"}}, {"uniqueid": "w11594719:a75978586", "current_trial": 58, "dateTime": 1691144120224, "trialdata": {"rt": 26997, "response": {"Q0": "No ", "Q1": "no ", "Q2": ""}, "trial_type": "survey-text", "trial_index": 58, "time_elapsed": 1792269, "internal_node_id": "0.0-4.0-5.0"}}, {"uniqueid": "w11594719:a75978586", "current_trial": 59, "dateTime": 1691144123749, "trialdata": {"rt": 3519, "stimulus": "Press 'Finish HIT' in order to reach the completion code. Once the data has been saved, you will receive the code either in this window or in the original browser window where you started the experiment.\n", "response": 0, "trial_type": "html-button-response", "trial_index": 59, "time_elapsed": 1795794, "internal_node_id": "0.0-5.0"}}, {"uniqueid": "w11594719:a75978586", "current_trial": 60, "dateTime": 1691144124754, "trialdata": {"success": true, "trial_type": "fullscreen", "trial_index": 60, "time_elapsed": 1796799, "internal_node_id": "0.0-6.0"}}], "questiondata": {"params": {"CODE": "C6DMOQA6", "MIN_TIME": 14, "inspectCost": 1, "startTime": "Fri Aug 04 2023 11:45:24 GMT+0200 (South Africa Standard Time)", "bonusRate": 0.002, "variance": "1_2_4_8_44", "branching": "31123"}, "final_score": 1968}, "eventdata": [{"eventtype": "initialized", "value": null, "timestamp": 1691142324036, "interval": 0}, {"eventtype": "window_resize", "value": [1024, 654], "timestamp": 1691142324036, "interval": 0}, {"eventtype": "window_resize", "value": [1024, 654], "timestamp": 1691142324530, "interval": 494}, {"eventtype": "window_resize", "value": [1366, 670], "timestamp": 1691142334333, "interval": 9803}, {"eventtype": "window_resize", "value": [1366, 768], "timestamp": 1691142339606, "interval": 5273}, {"eventtype": "focus", "value": "off", "timestamp": 1691142606013, "interval": 266407}, {"eventtype": "focus", "value": "on", "timestamp": 1691142606013, "interval": 0}, {"eventtype": "window_resize", "value": [1366, 670], "timestamp": 1691142606221, "interval": 208}, {"eventtype": "window_resize", "value": [1366, 768], "timestamp": 1691142608983, "interval": 2762}, {"eventtype": "window_resize", "value": [1366, 670], "timestamp": 1691144123972, "interval": 1514989}], "useragent": "Mozilla/5.0 (Windows NT 10.0; Win64; x64) AppleWebKit/537.36 (KHTML, like Gecko) Chrome/115.0.0.0 Safari/537.36", "mode": "live", "id": "w11594719:a75978586", "status": "user data saved", "Beginhit": "2023-08-04 09:45:16.808476", "Beginexp": "2023-08-04 09:45:39.77623", "Endhit": "2023-08-04 10:15:25.310681", "psiturkStatus": 3, "browser": "<redacted>", "platform": "windows", "language": "en-US"}