{"condition": 1, "counterbalance": 0, "assignmentId": "a82806006", "workerId": "w12790815", "hitId": "h53960648", "currenttrial": 56, "bonus": 0, "data": [{"uniqueid": "w12790815:a82806006", "current_trial": 0, "dateTime": 1691159354295, "trialdata": {"success": true, "trial_type": "fullscreen", "trial_index": 0, "time_elapsed": 3428, "internal_node_id": "0.0-0.0"}}, {"uniqueid": "w12790815:a82806006", "current_trial": 1, "dateTime": 1691159363565, "trialdata": {"view_history": [{"page_index": 0, "viewing_time": 9268}], "rt": 9268, "trial_id": "exp_instructions_misaligned", "trial_type": "instructions", "trial_index": 1, "time_elapsed": 12698, "internal_node_id": "0.0-1.0"}}, {"uniqueid": "w12790815:a82806006", "current_trial": 2, "dateTime": 1691159368172, "trialdata": {"success": true, "trial_type": "fullscreen", "trial_index": 2, "time_elapsed": 17305, "internal_node_id": "0.0-2.0-0.0"}}, {"uniqueid": "w12790815:a82806006", "current_trial": 3, "dateTime": 1691159540019, "trialdata": {"view_history": [{"page_index": 0, "viewing_time": 31074}, {"page_index": 1, "viewing_time": 78021}, {"page_index": 2, "viewing_time": 39205}, {"page_index": 3, "viewing_time": 23545}], "rt": 171845, "trial_id": "mouselab_instructions_1_misaligned", "trial_type": "instructions", "trial_index": 3, "time_elapsed": 189152, "internal_node_id": "0.0-2.0-1.0"}}, {"uniqueid": "w12790815:a82806006", "current_trial": 4, "dateTime": 1691159565725, "trialdata": {"revealed_states": [], "clicked_states": [], "num_clicks_accrued": [0, 0, 0, 0, 0, 0, 0, 0, 0, 0, 0, 0, 0], "stateRewards": ["", 10, -10, -10, -10, 10, 10, -10, -10, 10, -10, 10, -10, -10, 10, -10, -10, -10, -10, 10, -10, 10, -10, 10, 10, -10, 10, -10, 10, 10, 10, -10, 10, 10], "withholdReward": false, "trial_id": "practice_1", "block": "test", "trialIndex": 0, "score": 13.5, "costs": 0, "simulationMode": [null, null, null, null, null], "rewards": [10, 10, -10, 10, -10], "path": ["0", "0", "23", "24", "25", "26", "27"], "rt": [5629, 3329, 1987, 676, 2571], "actions": ["left", "left", "left", "up", "up"], "actionTimes": [7649, 11477, 13952, 15124, 18186], "queries": {"click": {"state": {"target": [], "time": []}, "edge": {"target": [], "time": []}}, "mouseover": {"state": {"target": ["0", "23"], "time": [4597, 4864]}, "edge": {"target": [], "time": []}}, "mouseout": {"state": {"target": ["12", "0", "0", "23", "24", "26", "27", "27", "26", "31"], "time": [747, 1480, 4647, 17248, 17598, 17664, 17748, 17948, 18015, 20898]}, "edge": {"target": [], "time": []}}}, "displayed_time": "18.72", "trialTime": 25291, "trial_type": "mouselab-mdp", "trial_index": 4, "time_elapsed": 214857, "internal_node_id": "0.0-2.0-2.0-0.0"}}, {"uniqueid": "w12790815:a82806006", "current_trial": 5, "dateTime": 1691159589741, "trialdata": {"revealed_states": [], "clicked_states": ["23", "24", "25", "26", "27", "29", "28", "1"], "num_clicks_accrued": [0, 0, 0, 0, 0, 0, 0, 0, 0, 0, 0, 0, 0], "stateRewards": ["", 10, 10, 10, -10, -10, -10, 10, 10, -10, 10, -10, -10, 10, -10, -10, 10, 10, -10, -10, 10, 10, 10, -10, -10, -10, -10, 10, 10, 10, 10, -10, -10, -10], "withholdReward": false, "trial_id": "practice_2", "block": "test", "trialIndex": 1, "score": -10.5, "costs": -4, "simulationMode": [null, null, null, null, null], "rewards": [-10, 10, -10, -10, 10], "path": ["0", "0", "12", "13", "14", "15", "16"], "rt": [16875, 194, 94, 21, 419], "actions": ["right", "right", "right", "up", "up"], "actionTimes": [18522, 19217, 19801, 20311, 21242], "queries": {"click": {"state": {"target": ["23", "24", "25", "26", "27", "29", "28", "1"], "time": [2666, 4824, 6833, 8805, 10264, 11602, 12830, 15681]}, "edge": {"target": [], "time": []}}, "mouseover": {"state": {"target": ["23", "24", "25", "24", "25", "26", "27", "29", "28", "23", "12", "1", "12", "0", "23"], "time": [2138, 3188, 4088, 4672, 5338, 7822, 9622, 10788, 11989, 13272, 14389, 15055, 16155, 16405, 16456]}, "edge": {"target": [], "time": []}}, "mouseout": {"state": {"target": ["21", "0", "23", "24", "25", "24", "25", "26", "27", "29", "26", "28", "23", "12", "1", "12", "0"], "time": [337, 2071, 3105, 3871, 4622, 5188, 7755, 9472, 10739, 11922, 11972, 13222, 13289, 14605, 16005, 16372, 16439]}, "edge": {"target": [], "time": []}}}, "displayed_time": "21.74", "trialTime": 23880, "trial_type": "mouselab-mdp", "trial_index": 5, "time_elapsed": 238874, "internal_node_id": "0.0-2.0-2.0-1.0"}}, {"uniqueid": "w12790815:a82806006", "current_trial": 6, "dateTime": 1691159629486, "trialdata": {"view_history": [{"page_index": 0, "viewing_time": 35085}, {"page_index": 1, "viewing_time": 4659}], "rt": 39744, "trial_id": "mouselab_instructions_2_misaligned", "trial_type": "instructions", "trial_index": 6, "time_elapsed": 278619, "internal_node_id": "0.0-2.0-3.0"}}, {"uniqueid": "w12790815:a82806006", "current_trial": 7, "dateTime": 1691159670675, "trialdata": {"rt": 41187, "response": {"Q0": "The cost for clicking on nodes may vary between nodes.", "Q1": "The better I perform the higher my bonus will be.", "Q2": "No, the amount of cash at each node of the web may be different each time.", "Q3": "To get the highest total score.", "Q4": "Only before moving the spider.", "Q5": "3 seconds"}, "question_order": [0, 1, 2, 3, 4, 5], "correct": {"Q0": "The cost for clicking on nodes may vary between nodes.", "Q1": "The better I perform the higher my bonus will be.", "Q2": "No, the amount of cash at each node of the web may be different each time.", "Q3": "To get the highest total score.", "Q4": "Only before moving the spider.", "Q5": "3 seconds"}, "trial_id": "mouselab_quiz_misaligned", "trial_type": "survey-multi-choice", "trial_index": 7, "time_elapsed": 319808, "internal_node_id": "0.0-2.0-4.0"}}, {"uniqueid": "w12790815:a82806006", "current_trial": 8, "dateTime": 1691159690201, "trialdata": {"rt": 19521, "stimulus": "\n<h1> Get ready to start the game! </h1>\n\nThank you for reading the instructions. Get ready start with the 40 rounds of this game.\n<br><br>\nIf you need to take a break, feel free to take one after the end of a round, before continuing to the next one.\n<br><br>\nRemember, the more money the spider gets, the bigger your bonus will be!\n<br><br>\n<div style='text-align: center;'>Press <code>space</code> to begin.</div>\n\n<br><br>\n(If, at any point, the <code>space</code> key does not take you to the next page, click once on the text and try again.)", "response": " ", "trial_id": "mdp_ready", "trial_type": "html-keyboard-response", "trial_index": 8, "time_elapsed": 339334, "internal_node_id": "0.0-4.0-0.0"}}, {"uniqueid": "w12790815:a82806006", "current_trial": 9, "dateTime": 1691159713985, "trialdata": {"revealed_states": [], "clicked_states": ["26", "27", "28", "29"], "num_clicks_accrued": [0, 0, 0, 0, 0, 0, 0, 0, 0, 0, 0, 0, 0], "stateRewards": ["", -2, 4, -7, -3, -76, 39, -28, 10, 14, 12, 60, 2, -3, 6, -10, 88, -34, -41, -3, 72, -13, -56, 1, 3, 2, 8, -51, 23, -57, 1, 14, -46, -16], "withholdReward": false, "trial_id": "mdp_trial_1", "block": "test", "trialIndex": 2, "score": 29, "costs": -8, "simulationMode": [null, null, null, null, null, null], "rewards": [1, 3, 2, 8, 23], "path": ["0", "0", "23", "24", "25", "26", "28"], "rt": [11448, 485, 112, 130, 138, 86], "actions": ["left", "left", "left", "left", "up", "right"], "actionTimes": [15720, 16207, 16849, 17467, 18109, 18689], "queries": {"click": {"state": {"target": ["26", "27", "28", "29"], "time": [5586, 6897, 10004, 13704]}, "edge": {"target": [], "time": []}}, "mouseover": {"state": {"target": ["23", "24", "26", "27", "28", "28", "26", "29", "25", "31"], "time": [4835, 4935, 5035, 6385, 7552, 9635, 10702, 10835, 14052, 14119]}, "edge": {"target": [], "time": []}}, "mouseout": {"state": {"target": ["10", "0", "0", "0", "12", "0", "23", "24", "26", "27", "26", "28", "28", "26", "29", "25", "31"], "time": [1151, 1584, 2235, 2901, 2935, 3734, 4885, 4952, 6318, 7352, 7451, 9369, 10668, 10735, 13969, 14069, 14152]}, "edge": {"target": [], "time": []}}}, "displayed_time": "19.19", "trialTime": 23631, "trial_type": "mouselab-mdp", "trial_index": 9, "time_elapsed": 363117, "internal_node_id": "0.0-4.0-1.0-0.0"}}, {"uniqueid": "w12790815:a82806006", "current_trial": 10, "dateTime": 1691159734776, "trialdata": {"revealed_states": [], "clicked_states": ["15", "16", "18", "17"], "num_clicks_accrued": [0, 0, 0, 0, 0, 0, 0, 0, 0, 0, 0, 0, 0], "stateRewards": ["", 1, -3, -4, -11, -56, 61, -47, -16, -28, -9, 69, -2, -3, -4, -8, 40, -86, 59, -4, 80, 27, 54, -1, 3, -1, 8, 67, 23, 50, 6, 83, -43, -29], "withholdReward": false, "trial_id": "mdp_trial_2", "block": "test", "trialIndex": 3, "score": 34, "costs": -8, "simulationMode": [null, null, null, null, null], "rewards": [-2, -3, -4, -8, 59], "path": ["0", "0", "12", "13", "14", "15", "18"], "rt": [12623, 417, 91, 60, 2], "actions": ["right", "right", "right", "up", "left"], "actionTimes": [14132, 15049, 15639, 16191, 16699], "queries": {"click": {"state": {"target": ["15", "16", "18", "17"], "time": [3739, 4982, 7966, 10806]}, "edge": {"target": [], "time": []}}, "mouseover": {"state": {"target": ["12", "13", "14", "15", "16", "18", "17"], "time": [2213, 2280, 2959, 3047, 4480, 5880, 8497]}, "edge": {"target": [], "time": []}}, "mouseout": {"state": {"target": ["0", "12", "13", "14", "15", "15", "16", "15", "18", "17"], "time": [2164, 2246, 2863, 3013, 4263, 4413, 5513, 5596, 8347, 11480]}, "edge": {"target": [], "time": []}}}, "displayed_time": "17.21", "trialTime": 20649, "trial_type": "mouselab-mdp", "trial_index": 10, "time_elapsed": 383909, "internal_node_id": "0.0-4.0-1.0-1.0"}}, {"uniqueid": "w12790815:a82806006", "current_trial": 11, "dateTime": 1691159757907, "trialdata": {"revealed_states": [], "clicked_states": ["4", "7", "5", "6"], "num_clicks_accrued": [0, 0, 0, 0, 0, 0, 0, 0, 0, 0, 0, 0, 0], "stateRewards": ["", 1, 1, 7, -11, 80, -20, -53, -14, 3, 31, 27, 2, -1, -8, -10, 33, 41, 86, 9, 78, -37, -13, -1, -2, -6, -8, -80, 75, 4, -16, -49, -74, 24], "withholdReward": false, "trial_id": "mdp_trial_3", "block": "test", "trialIndex": 4, "score": 70, "costs": -8, "simulationMode": [null, null, null, null, null], "rewards": [1, 1, 7, -11, 80], "path": ["0", "0", "1", "2", "3", "4", "5"], "rt": [15049, 260, 82, 1, 427], "actions": ["up", "up", "up", "right", "up"], "actionTimes": [17373, 18131, 18704, 19207, 20165], "queries": {"click": {"state": {"target": ["4", "7", "5", "6"], "time": [4871, 7267, 10890, 14104]}, "edge": {"target": [], "time": []}}, "mouseover": {"state": {"target": ["7", "6", "7", "4", "7", "4", "5", "6", "6", "6", "17", "16"], "time": [3387, 3850, 4087, 4570, 5354, 8104, 8287, 11471, 11771, 12954, 15188, 15455]}, "edge": {"target": [], "time": []}}, "mouseout": {"state": {"target": ["0", "0", "7", "6", "7", "4", "7", "4", "5", "6", "6", "6", "17", "16", "17", "21"], "time": [1920, 3220, 3520, 4004, 4487, 5304, 8070, 8154, 11421, 11487, 12754, 14404, 15254, 15471, 22305, 22371]}, "edge": {"target": [], "time": []}}}, "displayed_time": "20.66", "trialTime": 23003, "trial_type": "mouselab-mdp", "trial_index": 11, "time_elapsed": 407040, "internal_node_id": "0.0-4.0-1.0-2.0"}}, {"uniqueid": "w12790815:a82806006", "current_trial": 12, "dateTime": 1691159793884, "trialdata": {"revealed_states": [], "clicked_states": ["8", "10", "11", "9", "5"], "num_clicks_accrued": [0, 0, 0, 0, 0, 0, 0, 0, 0, 0, 0, 0, 0], "stateRewards": ["", 2, -1, 5, 8, 75, -35, -77, 1, -9, -81, -58, 1, 2, -7, 5, 77, -16, 19, 16, -10, -18, 40, -2, 3, 7, -5, 64, 1, -62, 10, 27, 10, 65], "withholdReward": false, "trial_id": "mdp_trial_4", "block": "test", "trialIndex": 5, "score": 78.85, "costs": -10.15, "simulationMode": [null, null, null, null, null], "rewards": [2, -1, 5, 8, 75], "path": ["0", "0", "1", "2", "3", "4", "5"], "rt": [19457, 240, 330, 67, 72], "actions": ["up", "up", "up", "right", "up"], "actionTimes": [20645, 21386, 22210, 22764, 23336], "queries": {"click": {"state": {"target": ["8", "10", "11", "9", "5"], "time": [3175, 5859, 9518, 12818, 16761]}, "edge": {"target": [], "time": []}}, "mouseover": {"state": {"target": ["2", "3", "8", "11", "10", "8", "10", "11", "11", "9", "9", "3", "2", "7", "13", "14", "18", "7", "4", "5", "5", "4", "6", "6"], "time": [1911, 2178, 2261, 2628, 2844, 2927, 3644, 6361, 6479, 9795, 9978, 13562, 13612, 13845, 14812, 14845, 15112, 15295, 16011, 16095, 16645, 17078, 17129, 17395]}, "edge": {"target": [], "time": []}}, "mouseout": {"state": {"target": ["0", "2", "3", "8", "11", "10", "8", "8", "10", "11", "11", "9", "9", "3", "2", "7", "13", "14", "18", "7", "4", "5", "5", "4", "6", "6"], "time": [1644, 2027, 2228, 2561, 2744, 2878, 3210, 3528, 6295, 6378, 9745, 9845, 13228, 13595, 13828, 14345, 14828, 15028, 15145, 15462, 16062, 16412, 17012, 17095, 17195, 25546]}, "edge": {"target": [], "time": []}}}, "displayed_time": "23.83", "trialTime": 35854, "trial_type": "mouselab-mdp", "trial_index": 12, "time_elapsed": 443017, "internal_node_id": "0.0-4.0-1.0-3.0"}}, {"uniqueid": "w12790815:a82806006", "current_trial": 13, "dateTime": 1691159815552, "trialdata": {"revealed_states": [], "clicked_states": ["22", "21", "20"], "num_clicks_accrued": [0, 0, 0, 0, 0, 0, 0, 0, 0, 0, 0, 0, 0], "stateRewards": ["", 2, -1, 4, -9, -43, 7, 54, -13, 38, -40, -83, -1, 2, -8, -10, 34, -33, 11, -14, -79, 65, 26, 1, 2, 4, 10, 21, 1, 86, 4, -53, 28, -29], "withholdReward": false, "trial_id": "mdp_trial_5", "block": "test", "trialIndex": 6, "score": 37.55, "costs": -6.449999999999999, "simulationMode": [null, null, null, null, null], "rewards": [-1, 2, -8, -14, 65], "path": ["0", "0", "12", "13", "14", "19", "21"], "rt": [11888, 265, 383, 41, 5], "actions": ["right", "right", "right", "down", "down"], "actionTimes": [13096, 13860, 14760, 15302, 15817], "queries": {"click": {"state": {"target": ["22", "21", "20"], "time": [2857, 6271, 9767]}, "edge": {"target": [], "time": []}}, "mouseover": {"state": {"target": ["21", "22", "21", "20", "20"], "time": [2309, 2543, 3193, 6710, 6993]}, "edge": {"target": [], "time": []}}, "mouseout": {"state": {"target": ["0", "0", "21", "22", "21", "20", "20"], "time": [625, 2059, 2376, 3143, 6510, 6810, 10028]}, "edge": {"target": [], "time": []}}}, "displayed_time": "16.33", "trialTime": 21534, "trial_type": "mouselab-mdp", "trial_index": 13, "time_elapsed": 464685, "internal_node_id": "0.0-4.0-1.0-4.0"}}, {"uniqueid": "w12790815:a82806006", "current_trial": 14, "dateTime": 1691159832017, "trialdata": {"revealed_states": [], "clicked_states": ["31"], "num_clicks_accrued": [0, 0, 0, 0, 0, 0, 0, 0, 0, 0, 0, 0, 0], "stateRewards": ["", 2, 4, 4, -8, -36, -33, 38, 16, -51, 57, 57, 1, 3, 4, -6, 45, 68, 87, 1, 63, 24, -55, -2, 2, -6, -13, -63, -50, 8, 2, 80, 6, 60], "withholdReward": false, "trial_id": "mdp_trial_6", "block": "test", "trialIndex": 7, "score": 73.85, "costs": -2.15, "simulationMode": [null, null, null, null, null], "rewards": [-2, 2, -6, 2, 80], "path": ["0", "0", "23", "24", "25", "30", "31"], "rt": [5794, 269, 103, 53, 24], "actions": ["left", "left", "left", "down", "right"], "actionTimes": [6954, 7713, 8313, 8863, 9401], "queries": {"click": {"state": {"target": ["31"], "time": [2669]}, "edge": {"target": [], "time": []}}, "mouseover": {"state": {"target": ["0", "32", "32", "31", "32"], "time": [1594, 1909, 2125, 2342, 2959]}, "edge": {"target": [], "time": []}}, "mouseout": {"state": {"target": ["0", "32", "32", "31"], "time": [1642, 1942, 2209, 2842]}, "edge": {"target": [], "time": []}}}, "displayed_time": "15.16", "trialTime": 16314, "trial_type": "mouselab-mdp", "trial_index": 14, "time_elapsed": 481149, "internal_node_id": "0.0-4.0-1.0-5.0"}}, {"uniqueid": "w12790815:a82806006", "current_trial": 15, "dateTime": 1691159850855, "trialdata": {"revealed_states": [], "clicked_states": ["20", "21", "22"], "num_clicks_accrued": [0, 0, 0, 0, 0, 0, 0, 0, 0, 0, 0, 0, 0], "stateRewards": ["", -2, -1, -3, -1, -78, -6, 2, -1, 22, -88, 32, 2, 2, -7, -8, -51, -17, 54, 2, -44, 54, 75, 2, -2, -8, -15, -29, 12, -67, 15, -1, -47, -47], "withholdReward": false, "trial_id": "mdp_trial_7", "block": "test", "trialIndex": 8, "score": 67.55, "costs": -6.449999999999999, "simulationMode": [null, null, null, null, null], "rewards": [2, 2, -7, 2, 75], "path": ["0", "0", "12", "13", "14", "19", "22"], "rt": [11695, 111, 51, 392, 173], "actions": ["right", "right", "right", "down", "left"], "actionTimes": [13219, 13827, 14368, 15276, 15939], "queries": {"click": {"state": {"target": ["20", "21", "22"], "time": [3068, 6248, 9469]}, "edge": {"target": [], "time": []}}, "mouseover": {"state": {"target": ["12", "13", "19", "21", "20", "21", "22"], "time": [2533, 2565, 2616, 2798, 2865, 4499, 7016]}, "edge": {"target": [], "time": []}}, "mouseout": {"state": {"target": ["32", "12", "0", "12", "13", "19", "21", "20", "21", "22"], "time": [915, 1182, 2515, 2549, 2582, 2649, 2832, 3282, 6449, 9699]}, "edge": {"target": [], "time": []}}}, "displayed_time": "16.43", "trialTime": 18692, "trial_type": "mouselab-mdp", "trial_index": 15, "time_elapsed": 499988, "internal_node_id": "0.0-4.0-1.0-6.0"}}, {"uniqueid": "w12790815:a82806006", "current_trial": 16, "dateTime": 1691159868787, "trialdata": {"revealed_states": [], "clicked_states": ["17", "16"], "num_clicks_accrued": [0, 0, 0, 0, 0, 0, 0, 0, 0, 0, 0, 0, 0], "stateRewards": ["", 1, -3, -2, 14, 49, -40, -39, 2, 26, -61, 73, 1, -4, -8, 12, 79, 29, -65, -13, 55, -26, 27, -1, 3, 3, 9, -17, -60, -18, -8, 35, -88, 69], "withholdReward": false, "trial_id": "mdp_trial_8", "block": "test", "trialIndex": 9, "score": 75.7, "costs": -4.3, "simulationMode": [null, null, null, null, null], "rewards": [1, -4, -8, 12, 79], "path": ["0", "0", "12", "13", "14", "15", "16"], "rt": [8722, 267, 84, 20, 41], "actions": ["right", "right", "right", "up", "up"], "actionTimes": [10501, 11268, 11852, 12372, 12942], "queries": {"click": {"state": {"target": ["17", "16"], "time": [3316, 6602]}, "edge": {"target": [], "time": []}}, "mouseover": {"state": {"target": ["12", "13", "17", "16", "17", "16", "18"], "time": [2367, 2385, 2450, 2650, 3217, 3534, 6850]}, "edge": {"target": [], "time": []}}, "mouseout": {"state": {"target": ["12", "13", "17", "16", "17", "16"], "time": [2384, 2400, 2600, 3083, 3386, 6784]}, "edge": {"target": [], "time": []}}}, "displayed_time": "15.78", "trialTime": 17790, "trial_type": "mouselab-mdp", "trial_index": 16, "time_elapsed": 517920, "internal_node_id": "0.0-4.0-1.0-7.0"}}, {"uniqueid": "w12790815:a82806006", "current_trial": 17, "dateTime": 1691159887132, "trialdata": {"revealed_states": [], "clicked_states": ["31", "32", "33"], "num_clicks_accrued": [0, 0, 0, 0, 0, 0, 0, 0, 0, 0, 0, 0, 0], "stateRewards": ["", -2, -3, -6, -7, 9, 16, 65, 5, -41, 20, -25, -1, -4, 1, -11, -49, -4, 71, 1, 39, -62, 52, -2, -3, 7, -9, -28, -70, 84, 8, 24, -58, 82], "withholdReward": false, "trial_id": "mdp_trial_9", "block": "test", "trialIndex": 10, "score": 85.55, "costs": -6.449999999999999, "simulationMode": [null, null, null, null, null], "rewards": [-2, -3, 7, 8, 82], "path": ["0", "0", "23", "24", "25", "30", "33"], "rt": [12388, 134, 109, 90, 108], "actions": ["left", "left", "left", "down", "left"], "actionTimes": [13371, 14021, 14645, 15227, 15829], "queries": {"click": {"state": {"target": ["31", "32", "33"], "time": [3069, 6361, 9550]}, "edge": {"target": [], "time": []}}, "mouseover": {"state": {"target": ["23", "28", "31", "32", "33", "30", "31", "14"], "time": [1935, 2019, 2619, 5035, 6802, 9852, 9870, 12886]}, "edge": {"target": [], "time": []}}, "mouseout": {"state": {"target": ["18", "12", "0", "23", "28", "31", "32", "33", "30", "31"], "time": [535, 568, 1918, 1952, 2052, 3269, 6585, 9835, 9869, 9885]}, "edge": {"target": [], "time": []}}}, "displayed_time": "16.32", "trialTime": 18203, "trial_type": "mouselab-mdp", "trial_index": 17, "time_elapsed": 536265, "internal_node_id": "0.0-4.0-1.0-8.0"}}, {"uniqueid": "w12790815:a82806006", "current_trial": 18, "dateTime": 1691159911311, "trialdata": {"revealed_states": [], "clicked_states": ["28", "27", "29", "33", "32"], "num_clicks_accrued": [0, 0, 0, 0, 0, 0, 0, 0, 0, 0, 0, 0, 0], "stateRewards": ["", 2, 1, -3, 7, 46, 11, -36, 16, 71, 5, 1, 2, -2, -8, -3, -4, 6, 55, 7, 68, -54, 2, 1, 1, 6, -6, 42, -4, -84, -11, -65, 63, 25], "withholdReward": false, "trial_id": "mdp_trial_10", "block": "test", "trialIndex": 11, "score": 49.25, "costs": -10.75, "simulationMode": [null, null, null, null, null], "rewards": [1, 1, 6, -11, 63], "path": ["0", "0", "23", "24", "25", "30", "32"], "rt": [17522, 43, 14, 386, 73], "actions": ["left", "left", "left", "down", "down"], "actionTimes": [18933, 19468, 19988, 20894, 21468], "queries": {"click": {"state": {"target": ["28", "27", "29", "33", "32"], "time": [2311, 5487, 8727, 11929, 15076]}, "edge": {"target": [], "time": []}}, "mouseover": {"state": {"target": ["28", "27", "29", "29", "33", "32", "32", "31"], "time": [2123, 3089, 5906, 6173, 10106, 12290, 12473, 15356]}, "edge": {"target": [], "time": []}}, "mouseout": {"state": {"target": ["14", "13", "12", "0", "28", "27", "29", "29", "33", "32", "32"], "time": [889, 922, 1022, 1806, 2472, 5723, 5923, 9056, 12206, 12339, 15240]}, "edge": {"target": [], "time": []}}}, "displayed_time": "21.96", "trialTime": 24036, "trial_type": "mouselab-mdp", "trial_index": 18, "time_elapsed": 560444, "internal_node_id": "0.0-4.0-1.0-9.0"}}, {"uniqueid": "w12790815:a82806006", "current_trial": 19, "dateTime": 1691159928035, "trialdata": {"revealed_states": [], "clicked_states": ["18", "16"], "num_clicks_accrued": [0, 0, 0, 0, 0, 0, 0, 0, 0, 0, 0, 0, 0], "stateRewards": ["", -2, -4, -6, 12, -58, -70, -80, 2, 16, -88, -62, 1, 2, -5, 11, 77, -35, -44, -5, 18, -83, 87, 1, -3, -5, 13, -44, -21, -86, 10, -52, 8, 29], "withholdReward": false, "trial_id": "mdp_trial_11", "block": "test", "trialIndex": 12, "score": 81.7, "costs": -4.3, "simulationMode": [null, null, null, null, null], "rewards": [1, 2, -5, 11, 77], "path": ["0", "0", "12", "13", "14", "15", "16"], "rt": [8523, 54, 27, 20, 51], "actions": ["right", "right", "right", "up", "up"], "actionTimes": [9740, 10293, 10815, 11325, 11889], "queries": {"click": {"state": {"target": ["18", "16"], "time": [2453, 5650]}, "edge": {"target": [], "time": []}}, "mouseover": {"state": {"target": ["12", "14", "15", "18", "16", "16", "17"], "time": [1937, 1987, 2120, 2270, 2670, 2987, 5937]}, "edge": {"target": [], "time": []}}, "mouseout": {"state": {"target": ["31", "0", "0", "12", "14", "15", "18", "16", "16"], "time": [536, 770, 1920, 1954, 2004, 2221, 2604, 2704, 5837]}, "edge": {"target": [], "time": []}}}, "displayed_time": "15.22", "trialTime": 16590, "trial_type": "mouselab-mdp", "trial_index": 19, "time_elapsed": 577168, "internal_node_id": "0.0-4.0-1.0-10.0"}}, {"uniqueid": "w12790815:a82806006", "current_trial": 20, "dateTime": 1691159954688, "trialdata": {"revealed_states": [], "clicked_states": ["10", "11", "9", "5", "6", "7"], "num_clicks_accrued": [0, 0, 0, 0, 0, 0, 0, 0, 0, 0, 0, 0, 0], "stateRewards": ["", -1, 3, 2, 9, 41, 4, -46, -12, -54, -87, -25, 2, 3, -1, 11, -77, 12, -33, -9, -32, 35, 72, 1, 3, -7, 4, 37, 65, -73, 6, 77, -43, 8], "withholdReward": false, "trial_id": "mdp_trial_12", "block": "test", "trialIndex": 13, "score": 41.1, "costs": -12.9, "simulationMode": [null, null, null, null, null], "rewards": [-1, 3, 2, 9, 41], "path": ["0", "0", "1", "2", "3", "4", "5"], "rt": [20667, 250, 11, 277, 97], "actions": ["up", "up", "up", "right", "up"], "actionTimes": [22417, 23161, 23671, 24455, 25041], "queries": {"click": {"state": {"target": ["10", "11", "9", "5", "6", "7"], "time": [2796, 6066, 9247, 12387, 15599, 18768]}, "edge": {"target": [], "time": []}}, "mouseover": {"state": {"target": ["10", "11", "10", "11", "9", "9", "3", "4", "5", "5", "6", "7"], "time": [2242, 2292, 2592, 4959, 6359, 6859, 9542, 9842, 10043, 10493, 12693, 15993]}, "edge": {"target": [], "time": []}}, "mouseout": {"state": {"target": ["17", "13", "12", "0", "10", "11", "10", "11", "9", "9", "3", "4", "5", "5", "6", "7"], "time": [1191, 1258, 1491, 2209, 2259, 2442, 2992, 6292, 6376, 9442, 9792, 9992, 10077, 12609, 15843, 19026]}, "edge": {"target": [], "time": []}}}, "displayed_time": "25.54", "trialTime": 26513, "trial_type": "mouselab-mdp", "trial_index": 20, "time_elapsed": 603821, "internal_node_id": "0.0-4.0-1.0-11.0"}}, {"uniqueid": "w12790815:a82806006", "current_trial": 21, "dateTime": 1691159973810, "trialdata": {"revealed_states": [], "clicked_states": ["22", "21", "20"], "num_clicks_accrued": [0, 0, 0, 0, 0, 0, 0, 0, 0, 0, 0, 0, 0], "stateRewards": ["", -2, 2, 3, -7, -31, -33, 29, -8, -57, 50, -83, -1, -1, 5, 13, -23, -62, 25, 5, -66, -85, 14, 1, -2, -1, 16, 71, 33, -19, -14, 5, -43, 79], "withholdReward": false, "trial_id": "mdp_trial_13", "block": "test", "trialIndex": 14, "score": -83.45, "costs": -6.449999999999999, "simulationMode": [null, null, null, null, null], "rewards": [-1, -1, 5, 5, -85], "path": ["0", "0", "12", "13", "14", "19", "21"], "rt": [11268, 84, 356, 311, 78], "actions": ["right", "right", "right", "down", "down"], "actionTimes": [12713, 13327, 14183, 14987, 15555], "queries": {"click": {"state": {"target": ["22", "21", "20"], "time": [2468, 5771, 8946]}, "edge": {"target": [], "time": []}}, "mouseover": {"state": {"target": ["21", "21", "22", "21", "21", "20", "20", "17"], "time": [1974, 2208, 2291, 2625, 4975, 6075, 6342, 9658]}, "edge": {"target": [], "time": []}}, "mouseout": {"state": {"target": ["12", "0", "21", "21", "22", "21", "21", "20", "20"], "time": [941, 1908, 1991, 2225, 2608, 2642, 5992, 6092, 9159]}, "edge": {"target": [], "time": []}}}, "displayed_time": "16.04", "trialTime": 18983, "trial_type": "mouselab-mdp", "trial_index": 21, "time_elapsed": 622943, "internal_node_id": "0.0-4.0-1.0-12.0"}}, {"uniqueid": "w12790815:a82806006", "current_trial": 22, "dateTime": 1691159999645, "trialdata": {"revealed_states": [], "clicked_states": ["29", "27", "28", "33", "32"], "num_clicks_accrued": [0, 0, 0, 0, 0, 0, 0, 0, 0, 0, 0, 0, 0], "stateRewards": ["", 2, -3, 5, 11, -79, 54, 11, -9, -78, 33, 22, -2, -1, 2, 14, 43, 34, 1, 10, 49, -65, 39, -1, 1, -1, 3, -16, -2, 11, 2, 12, 48, -65], "withholdReward": false, "trial_id": "mdp_trial_14", "block": "test", "trialIndex": 15, "score": 38.25, "costs": -10.75, "simulationMode": [null, null, null, null, null], "rewards": [-1, 1, -1, 2, 48], "path": ["0", "0", "23", "24", "25", "30", "32"], "rt": [19878, 48, 367, 39, 83], "actions": ["left", "left", "left", "down", "down"], "actionTimes": [21534, 22070, 22956, 23494, 24088], "queries": {"click": {"state": {"target": ["29", "27", "28", "33", "32"], "time": [3764, 6986, 10224, 13688, 16907]}, "edge": {"target": [], "time": []}}, "mouseover": {"state": {"target": ["22", "19", "20", "20", "19", "22", "19", "12", "0", "24", "25", "29", "27", "28", "28", "0", "32", "33", "32", "31"], "time": [2220, 2238, 2270, 2504, 2604, 2753, 3087, 3188, 3205, 3254, 3304, 3637, 4187, 7287, 7471, 10588, 11254, 13304, 14004, 17221]}, "edge": {"target": [], "time": []}}, "mouseout": {"state": {"target": ["17", "15", "1", "0", "22", "19", "20", "20", "19", "22", "19", "12", "0", "24", "25", "29", "27", "28", "28", "0", "32", "33", "32"], "time": [1070, 1103, 1220, 2153, 2237, 2254, 2287, 2570, 2671, 3070, 3120, 3204, 3220, 3270, 3337, 3904, 7221, 7337, 10421, 10604, 11338, 13921, 17104]}, "edge": {"target": [], "time": []}}}, "displayed_time": "24.59", "trialTime": 25696, "trial_type": "mouselab-mdp", "trial_index": 22, "time_elapsed": 648778, "internal_node_id": "0.0-4.0-1.0-13.0"}}, {"uniqueid": "w12790815:a82806006", "current_trial": 23, "dateTime": 1691160017081, "trialdata": {"revealed_states": [], "clicked_states": ["18", "16", "17"], "num_clicks_accrued": [0, 0, 0, 0, 0, 0, 0, 0, 0, 0, 0, 0, 0], "stateRewards": ["", 1, 4, 5, -5, 58, -80, 75, 6, 25, -39, 46, 2, -2, 4, 2, 59, 31, -22, -12, -61, 15, 72, 1, -2, -7, 8, 77, 76, -23, -7, 71, -15, -3], "withholdReward": false, "trial_id": "mdp_trial_15", "block": "test", "trialIndex": 16, "score": 58.55, "costs": -6.449999999999999, "simulationMode": [null, null, null, null, null], "rewards": [2, -2, 4, 2, 59], "path": ["0", "0", "12", "13", "14", "15", "16"], "rt": [11029, 332, 47, 16, 383], "actions": ["right", "right", "right", "up", "up"], "actionTimes": [12924, 13769, 14317, 14835, 15719], "queries": {"click": {"state": {"target": ["18", "16", "17"], "time": [2984, 6187, 9664]}, "edge": {"target": [], "time": []}}, "mouseover": {"state": {"target": ["22", "22", "15", "18", "16", "16", "17"], "time": [2468, 2568, 2651, 2851, 3435, 5835, 6935]}, "edge": {"target": [], "time": []}}, "mouseout": {"state": {"target": ["31", "0", "22", "22", "15", "18", "16", "16", "17"], "time": [1384, 2401, 2535, 2585, 2685, 3135, 4985, 6368, 9902]}, "edge": {"target": [], "time": []}}}, "displayed_time": "16.22", "trialTime": 17296, "trial_type": "mouselab-mdp", "trial_index": 23, "time_elapsed": 666214, "internal_node_id": "0.0-4.0-1.0-14.0"}}, {"uniqueid": "w12790815:a82806006", "current_trial": 24, "dateTime": 1691160034153, "trialdata": {"revealed_states": [], "clicked_states": ["10"], "num_clicks_accrued": [0, 0, 0, 0, 0, 0, 0, 0, 0, 0, 0, 0, 0], "stateRewards": ["", 1, 2, -3, 6, -88, 74, -45, 7, -46, 40, -77, 1, -4, 4, 3, 22, -25, -59, 8, -83, 19, -60, -1, -1, -1, -8, 26, -29, 64, -7, -88, -51, -55], "withholdReward": false, "trial_id": "mdp_trial_16", "block": "test", "trialIndex": 17, "score": 44.85, "costs": -2.15, "simulationMode": [null, null, null, null, null], "rewards": [1, 2, -3, 7, 40], "path": ["0", "0", "1", "2", "3", "8", "10"], "rt": [5182, 17, 2, 386, 57], "actions": ["up", "up", "up", "left", "down"], "actionTimes": [7175, 7687, 8189, 9089, 9643], "queries": {"click": {"state": {"target": ["10"], "time": [2950]}, "edge": {"target": [], "time": []}}, "mouseover": {"state": {"target": ["11", "10", "11"], "time": [2519, 2785, 5185]}, "edge": {"target": [], "time": []}}, "mouseout": {"state": {"target": ["14", "13", "0", "11", "10", "11"], "time": [868, 884, 2402, 2718, 3006, 13669]}, "edge": {"target": [], "time": []}}}, "displayed_time": "15.99", "trialTime": 16933, "trial_type": "mouselab-mdp", "trial_index": 24, "time_elapsed": 683286, "internal_node_id": "0.0-4.0-1.0-15.0"}}, {"uniqueid": "w12790815:a82806006", "current_trial": 25, "dateTime": 1691160055455, "trialdata": {"revealed_states": [], "clicked_states": ["7", "6", "5", "9"], "num_clicks_accrued": [0, 0, 0, 0, 0, 0, 0, 0, 0, 0, 0, 0, 0], "stateRewards": ["", -1, 2, -2, 13, -56, -28, 10, 14, 53, -80, -29, 1, -3, -3, -14, 14, 9, -40, -9, 18, 18, 48, 1, 1, 1, -9, 64, -39, -9, 7, -52, -78, 7], "withholdReward": false, "trial_id": "mdp_trial_17", "block": "test", "trialIndex": 18, "score": 57.4, "costs": -8.6, "simulationMode": [null, null, null, null, null], "rewards": [-1, 2, -2, 14, 53], "path": ["0", "0", "1", "2", "3", "8", "9"], "rt": [15731, 76, 61, 13, 30], "actions": ["up", "up", "up", "left", "up"], "actionTimes": [17278, 17853, 18405, 18923, 19473], "queries": {"click": {"state": {"target": ["7", "6", "5", "9"], "time": [3229, 6471, 9617, 13065]}, "edge": {"target": [], "time": []}}, "mouseover": {"state": {"target": ["12", "18", "15", "18", "7", "7", "6", "6", "5", "16", "3", "9", "9", "11", "11"], "time": [2276, 2342, 2361, 2726, 2943, 3193, 4059, 4375, 6793, 12229, 12409, 12642, 12909, 13326, 13509]}, "edge": {"target": [], "time": []}}, "mouseout": {"state": {"target": ["16", "0", "12", "18", "15", "18", "7", "7", "6", "6", "5", "5", "16", "3", "9", "9", "9", "11"], "time": [992, 1408, 2326, 2359, 2709, 2742, 2976, 3409, 4141, 6659, 9687, 9825, 12259, 12476, 12725, 13070, 13293, 13342]}, "edge": {"target": [], "time": []}}}, "displayed_time": "19.96", "trialTime": 21125, "trial_type": "mouselab-mdp", "trial_index": 25, "time_elapsed": 704588, "internal_node_id": "0.0-4.0-1.0-16.0"}}, {"uniqueid": "w12790815:a82806006", "current_trial": 26, "dateTime": 1691160072187, "trialdata": {"revealed_states": [], "clicked_states": ["28", "27"], "num_clicks_accrued": [0, 0, 0, 0, 0, 0, 0, 0, 0, 0, 0, 0, 0], "stateRewards": ["", -1, -3, 1, 13, -64, -29, 12, -4, -33, 50, 56, 2, -3, 4, 11, -64, -58, -55, 12, 47, 38, -25, -2, 2, 5, -15, 85, 7, 84, 10, 8, 57, 26], "withholdReward": false, "trial_id": "mdp_trial_18", "block": "test", "trialIndex": 19, "score": 70.7, "costs": -4.3, "simulationMode": [null, null, null, null, null], "rewards": [-2, 2, 5, -15, 85], "path": ["0", "0", "23", "24", "25", "26", "27"], "rt": [8063, 40, 16, 767, 80], "actions": ["left", "left", "left", "up", "up"], "actionTimes": [9789, 10328, 10854, 12122, 12702], "queries": {"click": {"state": {"target": ["28", "27"], "time": [2803, 5995]}, "edge": {"target": [], "time": []}}, "mouseover": {"state": {"target": ["0", "31", "30", "25", "28", "27", "29"], "time": [2037, 2154, 2370, 2504, 2637, 3520, 6387]}, "edge": {"target": [], "time": []}}, "mouseout": {"state": {"target": ["11", "0", "0", "31", "30", "25", "28", "27"], "time": [1137, 1805, 2054, 2320, 2404, 2537, 2954, 6187]}, "edge": {"target": [], "time": []}}}, "displayed_time": "15.73", "trialTime": 16568, "trial_type": "mouselab-mdp", "trial_index": 26, "time_elapsed": 721320, "internal_node_id": "0.0-4.0-1.0-17.0"}}, {"uniqueid": "w12790815:a82806006", "current_trial": 27, "dateTime": 1691160089031, "trialdata": {"revealed_states": [], "clicked_states": ["28"], "num_clicks_accrued": [0, 0, 0, 0, 0, 0, 0, 0, 0, 0, 0, 0, 0], "stateRewards": ["", -1, 2, 6, 11, 21, -21, -21, -6, 48, -71, 88, -1, -3, 3, 7, 64, 2, 9, -4, 37, -67, 72, 2, 2, -8, -8, -10, 71, -40, -3, 73, 80, 47], "withholdReward": false, "trial_id": "mdp_trial_19", "block": "test", "trialIndex": 20, "score": 56.85, "costs": -2.15, "simulationMode": [null, null, null, null, null], "rewards": [2, 2, -8, -8, 71], "path": ["0", "0", "23", "24", "25", "26", "28"], "rt": [5162, 301, 73, 464, 115], "actions": ["left", "left", "left", "up", "right"], "actionTimes": [6855, 7651, 8223, 9196, 9815], "queries": {"click": {"state": {"target": ["28"], "time": [3162]}, "edge": {"target": [], "time": []}}, "mouseover": {"state": {"target": ["22", "19", "19", "14", "15", "18", "1", "28", "28", "27", "27"], "time": [2099, 2132, 2282, 2348, 2398, 2531, 2682, 2765, 2932, 3382, 3532]}, "edge": {"target": [], "time": []}}, "mouseout": {"state": {"target": ["29", "26", "28", "0", "22", "19", "19", "14", "15", "18", "1", "28", "28", "27"], "time": [965, 981, 1198, 2049, 2115, 2149, 2332, 2382, 2415, 2631, 2699, 2799, 3315, 3432]}, "edge": {"target": [], "time": []}}}, "displayed_time": "15.70", "trialTime": 16689, "trial_type": "mouselab-mdp", "trial_index": 27, "time_elapsed": 738164, "internal_node_id": "0.0-4.0-1.0-18.0"}}, {"uniqueid": "w12790815:a82806006", "current_trial": 28, "dateTime": 1691160106128, "trialdata": {"revealed_states": [], "clicked_states": ["31", "32"], "num_clicks_accrued": [0, 0, 0, 0, 0, 0, 0, 0, 0, 0, 0, 0, 0], "stateRewards": ["", -2, 3, 3, -14, 62, 36, 49, 16, 11, 17, -84, 2, -1, 6, 2, -82, -73, 49, -6, -87, 48, 50, -1, -2, -1, -16, -11, 37, -44, 4, 55, 73, -10], "withholdReward": false, "trial_id": "mdp_trial_20", "block": "test", "trialIndex": 21, "score": 68.7, "costs": -4.3, "simulationMode": [null, null, null, null, null], "rewards": [-1, -2, -1, 4, 73], "path": ["0", "0", "23", "24", "25", "30", "32"], "rt": [8942, 97, 39, 25, 93], "actions": ["left", "left", "left", "down", "down"], "actionTimes": [10559, 11149, 11690, 12226, 12810], "queries": {"click": {"state": {"target": ["31", "32"], "time": [2643, 6253]}, "edge": {"target": [], "time": []}}, "mouseover": {"state": {"target": ["31", "31", "32", "32", "33", "30", "19"], "time": [2215, 2533, 4698, 4915, 6949, 9984, 10083]}, "edge": {"target": [], "time": []}}, "mouseout": {"state": {"target": ["27", "27", "10", "0", "31", "31", "32", "32", "33", "30"], "time": [548, 648, 681, 2132, 2248, 2815, 4715, 6598, 9967, 10000]}, "edge": {"target": [], "time": []}}}, "displayed_time": "15.62", "trialTime": 16936, "trial_type": "mouselab-mdp", "trial_index": 28, "time_elapsed": 755261, "internal_node_id": "0.0-4.0-1.0-19.0"}}, {"uniqueid": "w12790815:a82806006", "current_trial": 29, "dateTime": 1691160122277, "trialdata": {"revealed_states": [], "clicked_states": ["28"], "num_clicks_accrued": [0, 0, 0, 0, 0, 0, 0, 0, 0, 0, 0, 0, 0], "stateRewards": ["", 1, 2, 2, -15, -84, 28, -26, 13, 31, 86, 30, -2, 1, -1, -8, 66, -40, -1, -10, -32, 57, -17, 1, 2, -2, 9, -23, 77, 85, 12, -32, -62, -35], "withholdReward": false, "trial_id": "mdp_trial_21", "block": "test", "trialIndex": 22, "score": 84.85, "costs": -2.15, "simulationMode": [null, null, null, null, null], "rewards": [1, 2, -2, 9, 77], "path": ["0", "0", "23", "24", "25", "26", "28"], "rt": [5463, 345, 88, 359, 98], "actions": ["left", "left", "left", "up", "right"], "actionTimes": [6630, 7465, 8041, 8895, 9485], "queries": {"click": {"state": {"target": ["28"], "time": [2892]}, "edge": {"target": [], "time": []}}, "mouseover": {"state": {"target": ["0", "30", "28", "10", "10", "28", "25", "25", "28", "27", "27"], "time": [1635, 1818, 1902, 1952, 2219, 2269, 2302, 2486, 2752, 3669, 3752]}, "edge": {"target": [], "time": []}}, "mouseout": {"state": {"target": ["19", "24", "23", "0", "30", "28", "10", "10", "28", "25", "25", "28", "27", "27", "3", "4", "6", "16", "23", "28", "28", "28", "24"], "time": [518, 785, 885, 1669, 1852, 1919, 1969, 2252, 2285, 2335, 2502, 3085, 3685, 10686, 11152, 11187, 11219, 11536, 12436, 12752, 13003, 13219, 13319]}, "edge": {"target": [], "time": []}}}, "displayed_time": "15.17", "trialTime": 15969, "trial_type": "mouselab-mdp", "trial_index": 29, "time_elapsed": 771410, "internal_node_id": "0.0-4.0-1.0-20.0"}}, {"uniqueid": "w12790815:a82806006", "current_trial": 30, "dateTime": 1691160139644, "trialdata": {"revealed_states": [], "clicked_states": ["28", "27"], "num_clicks_accrued": [0, 0, 0, 0, 0, 0, 0, 0, 0, 0, 0, 0, 0], "stateRewards": ["", -2, -1, -4, -15, -14, -67, 32, -3, -59, 63, 31, 2, -1, -7, -15, 71, -66, -27, -3, -54, -39, 72, 2, 1, 1, -13, 77, -40, 35, -9, 35, 75, 57], "withholdReward": false, "trial_id": "mdp_trial_22", "block": "test", "trialIndex": 23, "score": 63.7, "costs": -4.3, "simulationMode": [null, null, null, null, null], "rewards": [2, 1, 1, -13, 77], "path": ["0", "0", "23", "24", "25", "26", "27"], "rt": [8722, 34, 28, 25, 26], "actions": ["left", "left", "left", "up", "up"], "actionTimes": [10391, 10923, 11467, 11981, 12515], "queries": {"click": {"state": {"target": ["28", "27"], "time": [3333, 6542]}, "edge": {"target": [], "time": []}}, "mouseover": {"state": {"target": ["0", "15", "7", "2", "10", "27", "28", "26", "27", "27", "27", "29"], "time": [1705, 2387, 2437, 2471, 2504, 2654, 2854, 3521, 3605, 4304, 4471, 6888]}, "edge": {"target": [], "time": []}}, "mouseout": {"state": {"target": ["0", "0", "15", "7", "2", "10", "27", "28", "26", "27", "27", "27"], "time": [1537, 1738, 2404, 2454, 2487, 2521, 2721, 3488, 3588, 3638, 4321, 6705]}, "edge": {"target": [], "time": []}}}, "displayed_time": "15.67", "trialTime": 17205, "trial_type": "mouselab-mdp", "trial_index": 30, "time_elapsed": 788777, "internal_node_id": "0.0-4.0-1.0-21.0"}}, {"uniqueid": "w12790815:a82806006", "current_trial": 31, "dateTime": 1691160156351, "trialdata": {"revealed_states": [], "clicked_states": ["28", "27"], "num_clicks_accrued": [0, 0, 0, 0, 0, 0, 0, 0, 0, 0, 0, 0, 0], "stateRewards": ["", -2, -2, -3, -6, -15, -11, 41, -12, -63, -76, 2, -2, -3, 8, 9, -36, -2, -18, -16, -32, -85, -17, -2, 1, 5, -16, 82, 35, -88, -1, 80, -82, -20], "withholdReward": false, "trial_id": "mdp_trial_23", "block": "test", "trialIndex": 24, "score": 65.7, "costs": -4.3, "simulationMode": [null, null, null, null, null], "rewards": [-2, 1, 5, -16, 82], "path": ["0", "0", "23", "24", "25", "26", "27"], "rt": [8531, 50, 32, 336, 128], "actions": ["left", "left", "left", "up", "up"], "actionTimes": [10153, 10719, 11267, 12121, 12747], "queries": {"click": {"state": {"target": ["28", "27"], "time": [3126, 6388]}, "edge": {"target": [], "time": []}}, "mouseover": {"state": {"target": ["23", "28", "28", "27", "27", "29"], "time": [2301, 2434, 2934, 3351, 3853, 6668]}, "edge": {"target": [], "time": []}}, "mouseout": {"state": {"target": ["29", "10", "2", "0", "23", "28", "28", "27", "27", "29", "26", "28", "23"], "time": [1084, 1150, 1167, 2251, 2368, 2534, 3301, 3484, 6618, 15168, 15218, 15251, 15452]}, "edge": {"target": [], "time": []}}}, "displayed_time": "15.62", "trialTime": 16540, "trial_type": "mouselab-mdp", "trial_index": 31, "time_elapsed": 805483, "internal_node_id": "0.0-4.0-1.0-22.0"}}, {"uniqueid": "w12790815:a82806006", "current_trial": 32, "dateTime": 1691160178816, "trialdata": {"revealed_states": [], "clicked_states": ["18", "16", "17", "28"], "num_clicks_accrued": [0, 0, 0, 0, 0, 0, 0, 0, 0, 0, 0, 0, 0], "stateRewards": ["", 2, -1, 8, -2, -16, 69, -39, -7, -13, -27, -86, 2, -2, 2, 13, -34, -16, -20, -5, 19, 81, 32, -2, -1, 2, -14, 20, 80, 58, 4, 70, 12, 73], "withholdReward": false, "trial_id": "mdp_trial_24", "block": "test", "trialIndex": 25, "score": 56.4, "costs": -8.6, "simulationMode": [null, null, null, null, null], "rewards": [-2, -1, 2, -14, 80], "path": ["0", "0", "23", "24", "25", "26", "28"], "rt": [14164, 4, 6, 293, 53], "actions": ["left", "left", "left", "up", "right"], "actionTimes": [15331, 15838, 16357, 17161, 17704], "queries": {"click": {"state": {"target": ["18", "16", "17", "28"], "time": [1995, 5182, 8350, 11529]}, "edge": {"target": [], "time": []}}, "mouseover": {"state": {"target": ["17", "15", "18", "15", "16", "17", "17", "14", "26", "28", "27"], "time": [1583, 1633, 1683, 2183, 2485, 5433, 5516, 8583, 8950, 8983, 11817]}, "edge": {"target": [], "time": []}}, "mouseout": {"state": {"target": ["0", "17", "15", "18", "15", "16", "17", "17", "14", "26", "28", "27", "10", "2", "7"], "time": [1433, 1616, 1649, 2166, 2200, 5349, 5450, 8550, 8616, 8966, 11700, 20500, 20550, 20567, 20584]}, "edge": {"target": [], "time": []}}}, "displayed_time": "18.22", "trialTime": 22303, "trial_type": "mouselab-mdp", "trial_index": 32, "time_elapsed": 827949, "internal_node_id": "0.0-4.0-1.0-23.0"}}, {"uniqueid": "w12790815:a82806006", "current_trial": 33, "dateTime": 1691160201721, "trialdata": {"revealed_states": [], "clicked_states": ["28", "27", "29", "31", "32"], "num_clicks_accrued": [0, 0, 0, 0, 0, 0, 0, 0, 0, 0, 0, 0, 0], "stateRewards": ["", 2, 3, 6, -5, -74, -53, 17, -12, 46, 44, 18, -2, 4, 1, -8, 22, -23, -49, 9, -45, 55, 81, 1, -1, -7, -16, -83, -71, -45, 2, 51, 82, 61], "withholdReward": false, "trial_id": "mdp_trial_25", "block": "test", "trialIndex": 26, "score": 66.25, "costs": -10.75, "simulationMode": [null, null, null, null, null], "rewards": [1, -1, -7, 2, 82], "path": ["0", "0", "23", "24", "25", "30", "32"], "rt": [17690, 41, 42, 376, 129], "actions": ["left", "left", "left", "down", "down"], "actionTimes": [18581, 19127, 19662, 20545, 21181], "queries": {"click": {"state": {"target": ["28", "27", "29", "31", "32"], "time": [1455, 4810, 8002, 11179, 14742]}, "edge": {"target": [], "time": []}}, "mouseover": {"state": {"target": ["0", "23", "24", "25", "28", "27", "29", "29", "26", "28", "14", "17", "15", "13", "31", "32", "33"], "time": [983, 1033, 1084, 1133, 1350, 2617, 5034, 5301, 8268, 8303, 8418, 8667, 8984, 9084, 9901, 11451, 15185]}, "edge": {"target": [], "time": []}}, "mouseout": {"state": {"target": ["0", "0", "23", "24", "25", "28", "27", "29", "29", "26", "28", "14", "17", "15", "13", "31", "32"], "time": [733, 1000, 1067, 1117, 1167, 1633, 4984, 5051, 8267, 8301, 8317, 8434, 8967, 9017, 9134, 11351, 15101]}, "edge": {"target": [], "time": []}}}, "displayed_time": "21.67", "trialTime": 22741, "trial_type": "mouselab-mdp", "trial_index": 33, "time_elapsed": 850854, "internal_node_id": "0.0-4.0-1.0-24.0"}}, {"uniqueid": "w12790815:a82806006", "current_trial": 34, "dateTime": 1691160221000, "trialdata": {"revealed_states": [], "clicked_states": ["28", "27", "29", "31"], "num_clicks_accrued": [0, 0, 0, 0, 0, 0, 0, 0, 0, 0, 0, 0, 0], "stateRewards": ["", -2, 4, -5, -12, 85, -24, -18, -15, -78, -22, 26, -1, -1, 2, 14, -45, 52, -23, 7, -33, 24, -6, -2, -4, 5, -7, -16, 36, -39, 5, 71, -87, -23], "withholdReward": false, "trial_id": "mdp_trial_26", "block": "test", "trialIndex": 27, "score": 66.4, "costs": -8.6, "simulationMode": [null, null, null, null, null], "rewards": [-2, -4, 5, 5, 71], "path": ["0", "0", "23", "24", "25", "30", "31"], "rt": [13883, 54, 18, 335, 106], "actions": ["left", "left", "left", "down", "right"], "actionTimes": [15028, 15581, 16095, 16929, 17533], "queries": {"click": {"state": {"target": ["28", "27", "29", "31"], "time": [1729, 4982, 8101, 11289]}, "edge": {"target": [], "time": []}}, "mouseover": {"state": {"target": ["23", "24", "28", "11", "24", "27", "29", "33", "30", "31", "32"], "time": [1292, 1326, 1542, 1992, 4443, 4742, 5176, 8527, 8609, 8660, 11726]}, "edge": {"target": [], "time": []}}, "mouseout": {"state": {"target": ["33", "24", "0", "23", "24", "28", "11", "24", "28", "27", "29", "33", "30", "31"], "time": [709, 742, 1259, 1309, 1443, 1909, 2026, 4476, 4509, 5126, 8310, 8576, 8626, 11510]}, "edge": {"target": [], "time": []}}}, "displayed_time": "18.03", "trialTime": 19111, "trial_type": "mouselab-mdp", "trial_index": 34, "time_elapsed": 870132, "internal_node_id": "0.0-4.0-1.0-25.0"}}, {"uniqueid": "w12790815:a82806006", "current_trial": 35, "dateTime": 1691160253271, "trialdata": {"revealed_states": [], "clicked_states": ["28", "27", "29", "31", "32", "33", "18"], "num_clicks_accrued": [0, 0, 0, 0, 0, 0, 0, 0, 0, 0, 0, 0, 0], "stateRewards": ["", 1, -1, 8, 4, 76, -33, -17, -3, -1, -54, -74, -2, 2, -5, 13, -51, 63, 83, 1, 84, 29, -36, 2, -1, 7, -12, -10, -44, -43, -14, 8, -69, 19], "withholdReward": false, "trial_id": "mdp_trial_27", "block": "test", "trialIndex": 28, "score": 75.95, "costs": -15.05, "simulationMode": [null, null, null, null, null], "rewards": [-2, 2, -5, 13, 83], "path": ["0", "0", "12", "13", "14", "15", "18"], "rt": [25325, 283, 71, 418, 100], "actions": ["right", "right", "right", "up", "left"], "actionTimes": [26841, 27642, 28214, 29144, 29742], "queries": {"click": {"state": {"target": ["28", "27", "29", "31", "32", "33", "18"], "time": [2559, 5885, 9185, 12327, 15516, 18631, 23110]}, "edge": {"target": [], "time": []}}, "mouseover": {"state": {"target": ["23", "24", "26", "28", "2", "7", "6", "7", "2", "28", "27", "27", "29", "31", "32", "33", "30", "22", "13", "18", "18", "16"], "time": [1807, 1857, 1990, 2008, 2057, 2075, 2174, 2224, 2242, 2307, 5157, 5590, 7691, 9824, 12691, 15791, 19008, 19774, 22708, 22741, 23008, 23341]}, "edge": {"target": [], "time": []}}, "mouseout": {"state": {"target": ["32", "23", "1", "0", "23", "24", "26", "28", "2", "7", "6", "7", "2", "28", "27", "27", "27", "29", "31", "32", "33", "30", "22", "13", "18", "18", "16", "13", "22"], "time": [923, 1006, 1240, 1775, 1840, 1890, 2007, 2024, 2074, 2091, 2207, 2240, 2257, 2840, 5207, 5954, 7508, 9374, 12558, 15724, 18991, 19025, 22692, 22725, 22791, 23241, 31209, 31325, 31376]}, "edge": {"target": [], "time": []}}}, "displayed_time": "30.24", "trialTime": 32096, "trial_type": "mouselab-mdp", "trial_index": 35, "time_elapsed": 902404, "internal_node_id": "0.0-4.0-1.0-26.0"}}, {"uniqueid": "w12790815:a82806006", "current_trial": 36, "dateTime": 1691160281735, "trialdata": {"revealed_states": [], "clicked_states": ["28", "27", "29", "33", "32", "31"], "num_clicks_accrued": [0, 0, 0, 0, 0, 0, 0, 0, 0, 0, 0, 0, 0], "stateRewards": ["", 1, 3, 3, -10, 52, 68, 59, 12, 7, 49, 21, -2, -3, -4, -2, -2, 63, 63, -4, 44, 43, -76, -2, -3, -6, 13, 48, 36, 12, -5, -36, -33, -11], "withholdReward": false, "trial_id": "mdp_trial_28", "block": "test", "trialIndex": 29, "score": 37.1, "costs": -12.9, "simulationMode": [null, null, null, null, null], "rewards": [-2, -3, -6, 13, 48], "path": ["0", "0", "23", "24", "25", "26", "27"], "rt": [20973, 284, 13, 305, 60], "actions": ["left", "left", "left", "up", "up"], "actionTimes": [21975, 22748, 23261, 24087, 24658], "queries": {"click": {"state": {"target": ["28", "27", "29", "33", "32", "31"], "time": [2596, 6026, 9413, 12611, 15700, 18819]}, "edge": {"target": [], "time": []}}, "mouseover": {"state": {"target": ["0", "31", "31", "23", "28", "28", "27", "27", "26", "29", "33", "33", "32", "31"], "time": [1329, 1462, 1612, 2195, 2262, 2479, 4445, 5939, 7063, 7629, 10579, 11146, 12896, 15996]}, "edge": {"target": [], "time": []}}, "mouseout": {"state": {"target": ["0", "0", "31", "31", "23", "28", "28", "27", "27", "26", "29", "33", "33", "32", "31"], "time": [845, 1379, 1512, 1629, 2229, 2296, 2762, 4529, 6262, 7096, 9613, 10963, 12830, 15880, 20380]}, "edge": {"target": [], "time": []}}}, "displayed_time": "25.16", "trialTime": 28297, "trial_type": "mouselab-mdp", "trial_index": 36, "time_elapsed": 930868, "internal_node_id": "0.0-4.0-1.0-27.0"}}, {"uniqueid": "w12790815:a82806006", "current_trial": 37, "dateTime": 1691160302263, "trialdata": {"revealed_states": [], "clicked_states": ["28", "27", "29", "18"], "num_clicks_accrued": [0, 0, 0, 0, 0, 0, 0, 0, 0, 0, 0, 0, 0], "stateRewards": ["", 1, -3, 4, 13, -72, 52, 5, 5, -58, 5, 14, 2, 1, 3, -14, -86, -4, 73, 6, -58, -50, 49, 2, -3, -4, 2, 33, -41, 42, -11, 81, 45, 53], "withholdReward": false, "trial_id": "mdp_trial_29", "block": "test", "trialIndex": 30, "score": 56.4, "costs": -8.6, "simulationMode": [null, null, null, null, null], "rewards": [2, 1, 3, -14, 73], "path": ["0", "0", "12", "13", "14", "15", "18"], "rt": [15199, 9, 88, 65, 91], "actions": ["right", "right", "right", "up", "left"], "actionTimes": [16227, 16735, 17347, 17907, 18501], "queries": {"click": {"state": {"target": ["28", "27", "29", "18"], "time": [1699, 4825, 8281, 12195]}, "edge": {"target": [], "time": []}}, "mouseover": {"state": {"target": ["23", "28", "27", "27", "29", "15", "17", "15", "18", "16"], "time": [1374, 1474, 2174, 2524, 5057, 11808, 11841, 11941, 12074, 12574]}, "edge": {"target": [], "time": []}}, "mouseout": {"state": {"target": ["0", "23", "28", "28", "27", "27", "29", "15", "17", "15", "18"], "time": [1290, 1390, 1766, 1924, 2391, 5024, 8508, 11825, 11874, 12007, 12324]}, "edge": {"target": [], "time": []}}}, "displayed_time": "19.01", "trialTime": 20351, "trial_type": "mouselab-mdp", "trial_index": 37, "time_elapsed": 951395, "internal_node_id": "0.0-4.0-1.0-28.0"}}, {"uniqueid": "w12790815:a82806006", "current_trial": 38, "dateTime": 1691160328485, "trialdata": {"revealed_states": [], "clicked_states": ["28", "27", "29", "10", "11", "9"], "num_clicks_accrued": [0, 0, 0, 0, 0, 0, 0, 0, 0, 0, 0, 0, 0], "stateRewards": ["", 2, 4, 7, 7, -79, -2, -21, -5, -53, 47, -21, 1, -3, -1, 7, 83, 7, 84, -7, 80, -37, 69, 2, -4, 5, 2, 4, -20, -30, 7, 71, 44, -81], "withholdReward": false, "trial_id": "mdp_trial_30", "block": "test", "trialIndex": 31, "score": 42.1, "costs": -12.9, "simulationMode": [null, null, null, null, null], "rewards": [2, 4, 7, -5, 47], "path": ["0", "0", "1", "2", "3", "8", "10"], "rt": [20322, 314, 9, 361, 107], "actions": ["up", "up", "up", "left", "down"], "actionTimes": [21522, 22340, 22852, 23720, 24316], "queries": {"click": {"state": {"target": ["28", "27", "29", "10", "11", "9"], "time": [2362, 5558, 8762, 11957, 15228, 18367]}, "edge": {"target": [], "time": []}}, "mouseover": {"state": {"target": ["23", "24", "28", "27", "29", "26", "28", "2", "10", "11", "9", "8", "10", "10"], "time": [1707, 1774, 2107, 5076, 5974, 9108, 9143, 9291, 9424, 12275, 15608, 18658, 18709, 18942]}, "edge": {"target": [], "time": []}}, "mouseout": {"state": {"target": ["16", "18", "0", "0", "23", "24", "28", "27", "29", "26", "28", "2", "10", "11", "9", "8", "10", "10"], "time": [473, 507, 723, 1691, 1741, 1808, 2574, 5808, 9091, 9142, 9175, 9375, 12192, 15508, 18642, 18675, 18727, 19708]}, "edge": {"target": [], "time": []}}}, "displayed_time": "24.81", "trialTime": 26039, "trial_type": "mouselab-mdp", "trial_index": 38, "time_elapsed": 977617, "internal_node_id": "0.0-4.0-1.0-29.0"}}, {"uniqueid": "w12790815:a82806006", "current_trial": 39, "dateTime": 1691160356781, "trialdata": {"revealed_states": [], "clicked_states": ["10", "11", "9", "5", "6", "7"], "num_clicks_accrued": [0, 0, 0, 0, 0, 0, 0, 0, 0, 0, 0, 0, 0], "stateRewards": ["", 2, -3, -8, 14, -7, -51, 73, 2, 36, 36, -43, -1, 3, -4, 1, 6, 87, -65, 15, 61, -42, -83, -1, 3, -2, -7, 30, -48, 35, 13, 26, 60, 78], "withholdReward": false, "trial_id": "mdp_trial_31", "block": "test", "trialIndex": 32, "score": 65.1, "costs": -12.9, "simulationMode": [null, null, null, null, null], "rewards": [2, -3, -8, 14, 73], "path": ["0", "0", "1", "2", "3", "4", "7"], "rt": [22114, 3, 3, 286, 55], "actions": ["up", "up", "up", "right", "down"], "actionTimes": [23499, 23996, 24513, 25330, 25882], "queries": {"click": {"state": {"target": ["10", "11", "9", "5", "6", "7"], "time": [3575, 6740, 9995, 13373, 16459, 19590]}, "edge": {"target": [], "time": []}}, "mouseover": {"state": {"target": ["12", "15", "6", "7", "2", "1", "0", "22", "14", "26", "9", "11", "10", "11", "9", "9", "5", "5", "6", "7", "18"], "time": [1809, 1859, 2008, 2075, 2108, 2142, 2175, 2242, 2292, 2675, 3092, 3258, 3342, 4259, 7009, 7325, 10175, 10642, 13659, 17092, 22359]}, "edge": {"target": [], "time": []}}, "mouseout": {"state": {"target": ["0", "0", "12", "15", "6", "7", "2", "1", "0", "22", "14", "26", "9", "11", "10", "11", "9", "9", "5", "5", "6", "7", "18"], "time": [875, 1792, 1825, 1875, 2025, 2092, 2125, 2158, 2192, 2258, 2308, 2692, 3109, 3309, 4026, 6942, 7042, 10108, 10208, 13575, 16675, 20159, 22909]}, "edge": {"target": [], "time": []}}}, "displayed_time": "26.38", "trialTime": 28118, "trial_type": "mouselab-mdp", "trial_index": 39, "time_elapsed": 1005913, "internal_node_id": "0.0-4.0-1.0-30.0"}}, {"uniqueid": "w12790815:a82806006", "current_trial": 40, "dateTime": 1691160383830, "trialdata": {"revealed_states": [], "clicked_states": ["7", "6", "5", "9", "11", "10"], "num_clicks_accrued": [0, 0, 0, 0, 0, 0, 0, 0, 0, 0, 0, 0, 0], "stateRewards": ["", -2, 4, 3, 5, -61, 4, 30, 1, -47, 83, 10, 1, 4, 7, -14, 19, -74, -83, 6, -2, -2, -65, -1, -2, 4, -11, 12, -1, -68, 11, -38, -28, 66], "withholdReward": false, "trial_id": "mdp_trial_32", "block": "test", "trialIndex": 33, "score": 76.1, "costs": -12.9, "simulationMode": [null, null, null, null, null], "rewards": [-2, 4, 3, 1, 83], "path": ["0", "0", "1", "2", "3", "8", "10"], "rt": [20533, 62, 94, 93, 61], "actions": ["up", "up", "up", "left", "down"], "actionTimes": [22098, 22661, 23243, 23825, 24377], "queries": {"click": {"state": {"target": ["7", "6", "5", "9", "11", "10"], "time": [2566, 5786, 8954, 12132, 15218, 18410]}, "edge": {"target": [], "time": []}}, "mouseover": {"state": {"target": ["1", "10", "2", "7", "6", "5", "9", "11", "10", "2", "7", "18"], "time": [1946, 2046, 2264, 2330, 2980, 6280, 9614, 12364, 15515, 18649, 18698, 19199]}, "edge": {"target": [], "time": []}}, "mouseout": {"state": {"target": ["1", "1", "10", "2", "7", "6", "5", "9", "11", "10", "2", "7"], "time": [1213, 1963, 2213, 2313, 2697, 6030, 9248, 12298, 15397, 18633, 18681, 18715]}, "edge": {"target": [], "time": []}}}, "displayed_time": "24.90", "trialTime": 26871, "trial_type": "mouselab-mdp", "trial_index": 40, "time_elapsed": 1032963, "internal_node_id": "0.0-4.0-1.0-31.0"}}, {"uniqueid": "w12790815:a82806006", "current_trial": 41, "dateTime": 1691160401076, "trialdata": {"revealed_states": [], "clicked_states": ["10", "11"], "num_clicks_accrued": [0, 0, 0, 0, 0, 0, 0, 0, 0, 0, 0, 0, 0], "stateRewards": ["", -1, 1, -2, 5, 73, 15, 61, 8, 7, 38, 76, 2, 2, -4, -6, -6, -26, 43, -5, -45, -85, -35, -2, 1, -4, 15, -10, 69, 72, -11, 84, -49, -38], "withholdReward": false, "trial_id": "mdp_trial_33", "block": "test", "trialIndex": 34, "score": 77.7, "costs": -4.3, "simulationMode": [null, null, null, null, null], "rewards": [-1, 1, -2, 8, 76], "path": ["0", "0", "1", "2", "3", "8", "11"], "rt": [8027, 53, 71, 13, 22], "actions": ["up", "up", "up", "left", "left"], "actionTimes": [10348, 10904, 11472, 11980, 12507], "queries": {"click": {"state": {"target": ["10", "11"], "time": [3378, 6545]}, "edge": {"target": [], "time": []}}, "mouseover": {"state": {"target": ["23", "24", "10", "11", "9", "9", "3"], "time": [2733, 2783, 3283, 3683, 6783, 7066, 9900]}, "edge": {"target": [], "time": []}}, "mouseout": {"state": {"target": ["18", "0", "23", "24", "10", "11", "9", "9", "3", "1"], "time": [682, 2716, 2766, 2916, 3583, 6716, 6799, 9866, 9916, 14016]}, "edge": {"target": [], "time": []}}}, "displayed_time": "16.32", "trialTime": 17068, "trial_type": "mouselab-mdp", "trial_index": 41, "time_elapsed": 1050209, "internal_node_id": "0.0-4.0-1.0-32.0"}}, {"uniqueid": "w12790815:a82806006", "current_trial": 42, "dateTime": 1691160417702, "trialdata": {"revealed_states": [], "clicked_states": ["10", "11"], "num_clicks_accrued": [0, 0, 0, 0, 0, 0, 0, 0, 0, 0, 0, 0, 0], "stateRewards": ["", 1, 1, -5, 10, -31, 73, 14, -8, -23, 63, -70, -1, 2, 8, 7, 25, -59, 27, -10, -40, -71, -15, -2, 3, -8, -5, -19, 77, -34, 7, 67, 63, 19], "withholdReward": false, "trial_id": "mdp_trial_34", "block": "test", "trialIndex": 35, "score": 47.7, "costs": -4.3, "simulationMode": [null, null, null, null, null], "rewards": [1, 1, -5, -8, 63], "path": ["0", "0", "1", "2", "3", "8", "10"], "rt": [7061, 10, 12, 335, 52], "actions": ["up", "up", "up", "left", "down"], "actionTimes": [8378, 8888, 9422, 10262, 10812], "queries": {"click": {"state": {"target": ["10", "11"], "time": [2141, 5330]}, "edge": {"target": [], "time": []}}, "mouseover": {"state": {"target": ["1", "10", "11", "9", "9"], "time": [1792, 2009, 2393, 5576, 5893]}, "edge": {"target": [], "time": []}}, "mouseout": {"state": {"target": ["1", "10", "11", "9", "9", "23"], "time": [1843, 2214, 5510, 5676, 12643, 12710]}, "edge": {"target": [], "time": []}}}, "displayed_time": "15.32", "trialTime": 16437, "trial_type": "mouselab-mdp", "trial_index": 42, "time_elapsed": 1066834, "internal_node_id": "0.0-4.0-1.0-33.0"}}, {"uniqueid": "w12790815:a82806006", "current_trial": 43, "dateTime": 1691160443167, "trialdata": {"revealed_states": [], "clicked_states": ["7", "6", "5", "9", "11", "10"], "num_clicks_accrued": [0, 0, 0, 0, 0, 0, 0, 0, 0, 0, 0, 0, 0], "stateRewards": ["", 2, 4, -3, 16, -58, 30, -35, 11, -60, 47, 27, -2, -1, -7, -16, 23, -70, 68, -10, -65, -43, -34, -2, 1, 7, 9, -63, 34, -31, -8, -12, -86, 59], "withholdReward": false, "trial_id": "mdp_trial_35", "block": "test", "trialIndex": 36, "score": 48.1, "costs": -12.9, "simulationMode": [null, null, null, null, null], "rewards": [2, 4, -3, 11, 47], "path": ["0", "0", "1", "2", "3", "8", "10"], "rt": [20626, 48, 26, 15, 16], "actions": ["up", "up", "up", "left", "down"], "actionTimes": [21515, 22080, 22608, 23114, 23649], "queries": {"click": {"state": {"target": ["7", "6", "5", "9", "11", "10"], "time": [1662, 4825, 8281, 11411, 14497, 17657]}, "edge": {"target": [], "time": []}}, "mouseover": {"state": {"target": ["1", "10", "2", "7", "6", "5", "9", "11", "10", "1", "18", "15", "18"], "time": [1164, 1230, 1330, 1580, 2180, 5214, 8730, 11648, 14765, 18248, 18315, 18515, 19181]}, "edge": {"target": [], "time": []}}, "mouseout": {"state": {"target": ["1", "10", "2", "7", "6", "5", "9", "11", "10", "1", "18", "15", "18"], "time": [1180, 1313, 1364, 1797, 5064, 8614, 11598, 14698, 18181, 18265, 18348, 18815, 21065]}, "edge": {"target": [], "time": []}}}, "displayed_time": "24.17", "trialTime": 25289, "trial_type": "mouselab-mdp", "trial_index": 43, "time_elapsed": 1092299, "internal_node_id": "0.0-4.0-1.0-34.0"}}, {"uniqueid": "w12790815:a82806006", "current_trial": 44, "dateTime": 1691160469847, "trialdata": {"revealed_states": [], "clicked_states": ["10", "11", "9", "5", "6", "7"], "num_clicks_accrued": [0, 0, 0, 0, 0, 0, 0, 0, 0, 0, 0, 0, 0], "stateRewards": ["", 1, -2, -3, 14, -42, -87, -37, -11, -50, 33, -44, -2, 4, -7, 13, 48, -75, -66, 12, 23, -2, 82, 1, -4, 3, 12, 51, -15, -26, -11, -52, -29, 82], "withholdReward": false, "trial_id": "mdp_trial_36", "block": "test", "trialIndex": 37, "score": 5.100000000000001, "costs": -12.9, "simulationMode": [null, null, null, null, null], "rewards": [1, -2, -3, -11, 33], "path": ["0", "0", "1", "2", "3", "8", "10"], "rt": [20717, 17, 66, 11, 405], "actions": ["up", "up", "up", "left", "down"], "actionTimes": [21883, 22393, 22975, 23487, 24397], "queries": {"click": {"state": {"target": ["10", "11", "9", "5", "6", "7"], "time": [2868, 6064, 9285, 12549, 15648, 18735]}, "edge": {"target": [], "time": []}}, "mouseover": {"state": {"target": ["6", "2", "10", "11", "9", "4", "4", "5", "6", "7"], "time": [1840, 1906, 1972, 3073, 6489, 9723, 11623, 12156, 12906, 16207]}, "edge": {"target": [], "time": []}}, "mouseout": {"state": {"target": ["1", "0", "0", "6", "2", "10", "11", "9", "4", "4", "5", "6", "7"], "time": [688, 788, 1656, 1856, 1939, 3006, 6423, 9623, 11356, 11923, 12806, 15841, 19024]}, "edge": {"target": [], "time": []}}}, "displayed_time": "24.89", "trialTime": 26493, "trial_type": "mouselab-mdp", "trial_index": 44, "time_elapsed": 1118979, "internal_node_id": "0.0-4.0-1.0-35.0"}}, {"uniqueid": "w12790815:a82806006", "current_trial": 45, "dateTime": 1691160501588, "trialdata": {"revealed_states": [], "clicked_states": ["10", "11", "9", "5", "6", "7", "18", "16"], "num_clicks_accrued": [0, 0, 0, 0, 0, 0, 0, 0, 0, 0, 0, 0, 0], "stateRewards": ["", -2, 1, 6, -2, -10, -78, -69, 14, -15, 7, -1, 1, -1, -2, 13, 77, 32, 87, 5, -74, 30, -26, 1, 3, 4, 12, 39, 54, -43, 2, 10, 23, 13], "withholdReward": false, "trial_id": "mdp_trial_37", "block": "test", "trialIndex": 38, "score": 80.8, "costs": -17.2, "simulationMode": [null, null, null, null, null], "rewards": [1, -1, -2, 13, 87], "path": ["0", "0", "12", "13", "14", "15", "18"], "rt": [25461, 205, 71, 3, 69], "actions": ["right", "right", "right", "up", "left"], "actionTimes": [26800, 27501, 28065, 28564, 29163], "queries": {"click": {"state": {"target": ["10", "11", "9", "5", "6", "7", "18", "16"], "time": [2146, 5163, 8279, 11428, 14554, 17591, 20750, 23788]}, "edge": {"target": [], "time": []}}, "mouseover": {"state": {"target": ["10", "11", "9", "5", "5", "6", "7", "18", "16"], "time": [1908, 2392, 5475, 8642, 8942, 11742, 15026, 19176, 21042]}, "edge": {"target": [], "time": []}}, "mouseout": {"state": {"target": ["12", "0", "10", "11", "9", "5", "5", "6", "7", "18", "16", "11"], "time": [774, 941, 2308, 5392, 8542, 8758, 11659, 14809, 17942, 20893, 24209, 31376]}, "edge": {"target": [], "time": []}}}, "displayed_time": "29.66", "trialTime": 31551, "trial_type": "mouselab-mdp", "trial_index": 45, "time_elapsed": 1150720, "internal_node_id": "0.0-4.0-1.0-36.0"}}, {"uniqueid": "w12790815:a82806006", "current_trial": 46, "dateTime": 1691160527985, "trialdata": {"revealed_states": [], "clicked_states": ["10", "11", "9", "28", "27", "29"], "num_clicks_accrued": [0, 0, 0, 0, 0, 0, 0, 0, 0, 0, 0, 0, 0], "stateRewards": ["", -1, -2, -8, 8, -27, -82, 19, -14, -62, 4, 1, -2, 2, 6, 10, 73, -51, -2, 2, 73, -48, 54, -1, 2, -4, 11, -25, 47, 86, 15, 33, 43, -42], "withholdReward": false, "trial_id": "mdp_trial_38", "block": "test", "trialIndex": 39, "score": 81.1, "costs": -12.9, "simulationMode": [null, null, null, null, null], "rewards": [-1, 2, -4, 11, 86], "path": ["0", "0", "23", "24", "25", "26", "29"], "rt": [21347, 35, 368, 49, 18], "actions": ["left", "left", "left", "up", "left"], "actionTimes": [22428, 22960, 23844, 24392, 24910], "queries": {"click": {"state": {"target": ["10", "11", "9", "28", "27", "29"], "time": [2507, 5702, 8762, 12376, 15610, 18691]}, "edge": {"target": [], "time": []}}, "mouseover": {"state": {"target": ["18", "10", "10", "11", "9", "5", "6", "15", "6", "4", "2", "28", "27", "29", "33", "33"], "time": [1740, 1907, 2190, 2990, 6007, 9091, 9374, 10224, 10875, 11691, 11808, 12041, 12708, 15875, 19241, 20008]}, "edge": {"target": [], "time": []}}, "mouseout": {"state": {"target": ["28", "18", "10", "10", "11", "9", "5", "6", "15", "6", "4", "2", "28", "27", "27", "29", "33"], "time": [457, 1757, 2007, 2691, 5908, 9041, 9108, 9391, 10791, 10908, 11758, 11841, 12591, 15681, 15791, 18941, 19725]}, "edge": {"target": [], "time": []}}}, "displayed_time": "25.41", "trialTime": 26212, "trial_type": "mouselab-mdp", "trial_index": 46, "time_elapsed": 1177118, "internal_node_id": "0.0-4.0-1.0-37.0"}}, {"uniqueid": "w12790815:a82806006", "current_trial": 47, "dateTime": 1691160547833, "trialdata": {"revealed_states": [], "clicked_states": ["28", "27", "29", "33"], "num_clicks_accrued": [0, 0, 0, 0, 0, 0, 0, 0, 0, 0, 0, 0, 0], "stateRewards": ["", -1, 2, -6, 6, -82, -19, -39, -16, -83, 11, -33, -2, -2, 4, -6, -82, -1, -19, -6, -10, -67, -41, -2, 1, -7, 16, -23, -78, -52, 14, 31, -71, 74], "withholdReward": false, "trial_id": "mdp_trial_39", "block": "test", "trialIndex": 40, "score": 71.4, "costs": -8.6, "simulationMode": [null, null, null, null, null], "rewards": [-2, 1, -7, 14, 74], "path": ["0", "0", "23", "24", "25", "30", "33"], "rt": [14447, 38, 38, 60, 88], "actions": ["left", "left", "left", "down", "left"], "actionTimes": [15848, 16380, 16930, 17502, 18080], "queries": {"click": {"state": {"target": ["28", "27", "29", "33"], "time": [2398, 5628, 8817, 12019]}, "edge": {"target": [], "time": []}}, "mouseover": {"state": {"target": ["23", "28", "27", "29", "33", "32"], "time": [1973, 2273, 2606, 5873, 9840, 12557]}, "edge": {"target": [], "time": []}}, "mouseout": {"state": {"target": ["33", "33", "24", "23", "0", "23", "28", "27", "29", "33"], "time": [623, 756, 823, 872, 1940, 2023, 2540, 5840, 9090, 12341]}, "edge": {"target": [], "time": []}}}, "displayed_time": "18.57", "trialTime": 19658, "trial_type": "mouselab-mdp", "trial_index": 47, "time_elapsed": 1196965, "internal_node_id": "0.0-4.0-1.0-38.0"}}, {"uniqueid": "w12790815:a82806006", "current_trial": 48, "dateTime": 1691160564459, "trialdata": {"revealed_states": [], "clicked_states": ["22"], "num_clicks_accrued": [0, 0, 0, 0, 0, 0, 0, 0, 0, 0, 0, 0, 0], "stateRewards": ["", -2, 4, -3, -13, 63, -36, 62, 11, 78, 34, -51, 2, -2, 8, -6, -40, -18, 31, 9, 64, 39, 79, 1, 4, -4, 15, -12, 76, 73, -10, -77, 86, -4], "withholdReward": false, "trial_id": "mdp_trial_40", "block": "test", "trialIndex": 41, "score": 93.85, "costs": -2.15, "simulationMode": [null, null, null, null, null], "rewards": [2, -2, 8, 9, 79], "path": ["0", "0", "12", "13", "14", "19", "22"], "rt": [4461, 289, 70, 446, 115], "actions": ["right", "right", "right", "down", "left"], "actionTimes": [6162, 6957, 7522, 8481, 9084], "queries": {"click": {"state": {"target": ["22"], "time": [2391]}, "edge": {"target": [], "time": []}}, "mouseover": {"state": {"target": ["12", "13", "22", "21"], "time": [2001, 2067, 2184, 3168]}, "edge": {"target": [], "time": []}}, "mouseout": {"state": {"target": ["32", "12", "13", "22"], "time": [1017, 2034, 2117, 2584]}, "edge": {"target": [], "time": []}}}, "displayed_time": "15.70", "trialTime": 16444, "trial_type": "mouselab-mdp", "trial_index": 48, "time_elapsed": 1213591, "internal_node_id": "0.0-4.0-1.0-39.0"}}, {"uniqueid": "w12790815:a82806006", "current_trial": 49, "dateTime": 1691160645730, "trialdata": {"rt": 81269, "response": {"Q0": "$-2 to $2", "Q1": "$-32 to $32", "Q2": "$-88 to $88", "Q3": "The cost for clicking on nodes varied between nodes.", "Q4": "Very motivated"}, "question_order": [0, 1, 2, 3, 4], "trial_id": "final_quiz_control", "trial_type": "survey-multi-choice", "trial_index": 49, "time_elapsed": 1294862, "internal_node_id": "0.0-4.0-2.0"}}, {"uniqueid": "w12790815:a82806006", "current_trial": 50, "dateTime": 1691160816793, "trialdata": {"rt": 171058, "response": {"Q0": "The first few rounds I inspected more than I did in the ones that followed.\n\nAt one point I saw that the most impact was to be made with the last nodes, so I just inspected those until I either hit about 6 inspections and just chose the highest one, or I saw something above 60 and went for that.", "Q1": "Yes, after a few rounds I only inspected the last nodes in the chains.", "Q2": "In the first few rounds I improved I think, but after that my performance was pretty stable in my opinion (besides the one time that I accidentally went for a high cost node)."}, "trial_id": "self_report_control", "trial_type": "survey-text", "trial_index": 50, "time_elapsed": 1465926, "internal_node_id": "0.0-4.0-3.0"}}, {"uniqueid": "w12790815:a82806006", "current_trial": 51, "dateTime": 1691160881028, "trialdata": {"rt": 64232, "response": {"Q0": "Strongly disagree", "Q1": "Strongly disagree", "Q2": "Strongly disagree", "Q3": "Agree", "Q4": "Strongly disagree", "Q5": "Agree", "Q6": "Disagree"}, "question_order": [0, 1, 2, 3, 4, 5, 6], "trial_id": "self_report_2", "trial_type": "survey-multi-choice", "trial_index": 51, "time_elapsed": 1530160, "internal_node_id": "0.0-4.0-4.0"}}, {"uniqueid": "w12790815:a82806006", "current_trial": 52, "dateTime": 1691160913680, "trialdata": {"rt": 32649, "response": {"gender": "male", "age": "28", "colorblind": "0", "effort": "0"}, "trial_type": "survey-html-form", "trial_index": 52, "time_elapsed": 1562813, "internal_node_id": "0.0-4.0-5.0"}}, {"uniqueid": "w12790815:a82806006", "current_trial": 53, "dateTime": 1691161030112, "trialdata": {"rt": 116426, "response": {"Q0": "Not hard in particular, but it did have a learning curve to figure out that the nodes at the end were the highest paying ones.", "Q1": "I have not participated in Web of Cash before.", "Q2": "It was quite fun to do! I'm quite curious to see what was the actual intention is of this research."}, "trial_type": "survey-text", "trial_index": 53, "time_elapsed": 1679245, "internal_node_id": "0.0-4.0-6.0"}}, {"uniqueid": "w12790815:a82806006", "current_trial": 54, "dateTime": 1691161032122, "trialdata": {"rt": 2007, "stimulus": "Press 'Finish HIT' in order to reach the completion code. Once the data has been saved, you will receive the code either in this window or in the original browser window where you started the experiment.\n", "response": 0, "trial_type": "html-button-response", "trial_index": 54, "time_elapsed": 1681255, "internal_node_id": "0.0-5.0"}}, {"uniqueid": "w12790815:a82806006", "current_trial": 55, "dateTime": 1691161033125, "trialdata": {"success": true, "trial_type": "fullscreen", "trial_index": 55, "time_elapsed": 1682258, "internal_node_id": "0.0-6.0"}}], "questiondata": {"params": {"CODE": "C6DMOQA6", "MIN_TIME": 14, "inspectCost": 1, "startTime": "Fri Aug 04 2023 16:29:10 GMT+0200 (Central European Summer Time)", "bonusRate": 0.002, "variance": "1_2_4_8_44", "branching": "31123"}, "final_score": 2297.75}, "eventdata": [{"eventtype": "initialized", "value": null, "timestamp": 1691159349657, "interval": 0}, {"eventtype": "window_resize", "value": [1032, 786], "timestamp": 1691159349657, "interval": 0}, {"eventtype": "window_resize", "value": [1032, 786], "timestamp": 1691159350000, "interval": 343}, {"eventtype": "window_resize", "value": [2560, 1440], "timestamp": 1691159353504, "interval": 3504}, {"eventtype": "focus", "value": "off", "timestamp": 1691159357762, "interval": 4258}, {"eventtype": "focus", "value": "on", "timestamp": 1691159357930, "interval": 168}, {"eventtype": "focus", "value": "off", "timestamp": 1691159358357, "interval": 427}, {"eventtype": "focus", "value": "on", "timestamp": 1691159358462, "interval": 105}, {"eventtype": "focus", "value": "off", "timestamp": 1691159466032, "interval": 107570}, {"eventtype": "focus", "value": "on", "timestamp": 1691159472554, "interval": 6522}, {"eventtype": "focus", "value": "off", "timestamp": 1691159472998, "interval": 444}, {"eventtype": "focus", "value": "on", "timestamp": 1691159477203, "interval": 4205}, {"eventtype": "window_resize", "value": [1032, 786], "timestamp": 1691161032356, "interval": 1555153}], "useragent": "Mozilla/5.0 (Windows NT 10.0; Win64; x64) AppleWebKit/537.36 (KHTML, like Gecko) Chrome/115.0.0.0 Safari/537.36", "mode": "live", "id": "w12790815:a82806006", "status": "user data saved", "Beginhit": "2023-08-04 14:29:09.917609", "Beginexp": "2023-08-04 14:29:15.821431", "Endhit": "2023-08-04 14:57:15.08598", "psiturkStatus": 3, "browser": "<redacted>", "platform": "windows", "language": "en-US"}