{"condition": 0, "counterbalance": 0, "assignmentId": "a76083074", "workerId": "w22146322", "hitId": "h87819227", "currenttrial": 41, "bonus": 0, "data": [{"uniqueid": "w22146322:a76083074", "current_trial": 0, "dateTime": 1691070931879, "trialdata": {"success": true, "trial_type": "fullscreen", "trial_index": 0, "time_elapsed": 3374, "internal_node_id": "0.0-0.0"}}, {"uniqueid": "w22146322:a76083074", "current_trial": 1, "dateTime": 1691070947693, "trialdata": {"view_history": [{"page_index": 0, "viewing_time": 15809}], "rt": 15810, "trial_id": "exp_instructions_control", "trial_type": "instructions", "trial_index": 1, "time_elapsed": 19189, "internal_node_id": "0.0-1.0"}}, {"uniqueid": "w22146322:a76083074", "current_trial": 2, "dateTime": 1691070950653, "trialdata": {"success": true, "trial_type": "fullscreen", "trial_index": 2, "time_elapsed": 22149, "internal_node_id": "0.0-2.0-0.0"}}, {"uniqueid": "w22146322:a76083074", "current_trial": 3, "dateTime": 1691071320485, "trialdata": {"view_history": [{"page_index": 0, "viewing_time": 51679}, {"page_index": 1, "viewing_time": 70836}, {"page_index": 2, "viewing_time": 11124}, {"page_index": 3, "viewing_time": 236191}], "rt": 369830, "trial_id": "mouselab_instructions_1_control", "trial_type": "instructions", "trial_index": 3, "time_elapsed": 391980, "internal_node_id": "0.0-2.0-1.0"}}, {"uniqueid": "w22146322:a76083074", "current_trial": 4, "dateTime": 1691071335068, "trialdata": {"revealed_states": [], "clicked_states": [], "num_clicks_accrued": [0, 0, 0, 0, 0, 0, 0, 0, 0, 0, 0, 0, 0], "stateRewards": ["", 10, -10, -10, 10, 10, -10, -10, -10, 10, -10, -10, 10, -10, -10, 10, -10, -10, -10, 10, 10, 10, 10, 10, -10, 10, 10, 10, 10, 10, 10, -10, 10, -10], "withholdReward": false, "trial_id": "practice_1", "block": "test", "trialIndex": 0, "score": -26.5, "costs": 0, "simulationMode": [null, null, null, null, null], "rewards": [10, -10, -10, -10, -10], "path": ["0", "0", "1", "2", "3", "8", "11"], "rt": [2438, 746, 2080, 196, 709], "actions": ["up", "up", "up", "left", "left"], "actionTimes": [5368, 6660, 9290, 10033, 11276], "queries": {"click": {"state": {"target": [], "time": []}, "edge": {"target": [], "time": []}}, "mouseover": {"state": {"target": [], "time": []}, "edge": {"target": [], "time": []}}, "mouseout": {"state": {"target": ["0"], "time": [2111]}, "edge": {"target": [], "time": []}}}, "displayed_time": "11.81", "trialTime": 14243, "trial_type": "mouselab-mdp", "trial_index": 4, "time_elapsed": 406564, "internal_node_id": "0.0-2.0-2.0-0.0"}}, {"uniqueid": "w22146322:a76083074", "current_trial": 5, "dateTime": 1691071347274, "trialdata": {"revealed_states": [], "clicked_states": [], "num_clicks_accrued": [0, 0, 0, 0, 0, 0, 0, 0, 0, 0, 0, 0, 0], "stateRewards": ["", 10, -10, 10, -10, -10, 10, -10, 10, 10, 10, 10, -10, 10, 10, -10, 10, -10, -10, 10, -10, -10, -10, -10, 10, 10, 10, 10, -10, 10, 10, 10, 10, -10], "withholdReward": false, "trial_id": "practice_2", "block": "test", "trialIndex": 1, "score": 13.5, "costs": 0, "simulationMode": [null, null, null, null, null], "rewards": [-10, 10, 10, 10, -10], "path": ["0", "0", "12", "13", "14", "19", "20"], "rt": [1483, 236, 229, 399, 509], "actions": ["right", "right", "right", "down", "right"], "actionTimes": [5420, 6191, 6948, 7884, 8940], "queries": {"click": {"state": {"target": [], "time": []}, "edge": {"target": [], "time": []}}, "mouseover": {"state": {"target": ["0"], "time": [4381]}, "edge": {"target": [], "time": []}}, "mouseout": {"state": {"target": ["0"], "time": [4414]}, "edge": {"target": [], "time": []}}}, "displayed_time": "9.48", "trialTime": 11908, "trial_type": "mouselab-mdp", "trial_index": 5, "time_elapsed": 418770, "internal_node_id": "0.0-2.0-2.0-1.0"}}, {"uniqueid": "w22146322:a76083074", "current_trial": 6, "dateTime": 1691071395065, "trialdata": {"view_history": [{"page_index": 0, "viewing_time": 44817}, {"page_index": 1, "viewing_time": 2971}], "rt": 47788, "trial_id": "mouselab_instructions_2_control", "trial_type": "instructions", "trial_index": 6, "time_elapsed": 466561, "internal_node_id": "0.0-2.0-3.0"}}, {"uniqueid": "w22146322:a76083074", "current_trial": 7, "dateTime": 1691071494563, "trialdata": {"rt": 99490, "response": {"Q0": "The cost for clicking on nodes may vary between nodes.", "Q1": "The better I perform the higher my bonus will be.", "Q2": "No, the amount of cash at each node of the web may be different each time.", "Q3": "To get the highest total score.", "Q4": "Only before moving the spider.", "Q5": "3 seconds"}, "question_order": [0, 1, 2, 3, 4, 5], "correct": {"Q0": "The cost for clicking on nodes may vary between nodes.", "Q1": "The better I perform the higher my bonus will be.", "Q2": "No, the amount of cash at each node of the web may be different each time.", "Q3": "To get the highest total score.", "Q4": "Only before moving the spider.", "Q5": "3 seconds"}, "trial_id": "mouselab_quiz_control", "trial_type": "survey-multi-choice", "trial_index": 7, "time_elapsed": 566059, "internal_node_id": "0.0-2.0-4.0"}}, {"uniqueid": "w22146322:a76083074", "current_trial": 8, "dateTime": 1691071576859, "trialdata": {"rt": 82275, "stimulus": "\n<h1> Get ready to start the game! </h1>\n\nThank you for reading the instructions. Get ready start with the 40 rounds of this game.\n<br><br>\nIf you need to take a break, feel free to take one after the end of a round, before continuing to the next one.\n<br><br>\nRemember, the more money the spider gets, the bigger your bonus will be!\n<br><br>\n<div style='text-align: center;'>Press <code>space</code> to begin.</div>\n\n<br><br>\n(If, at any point, the <code>space</code> key does not take you to the next page, click once on the text and try again.)", "response": " ", "trial_id": "mdp_ready", "trial_type": "html-keyboard-response", "trial_index": 8, "time_elapsed": 648355, "internal_node_id": "0.0-4.0-0.0"}}, {"uniqueid": "w22146322:a76083074", "current_trial": 9, "dateTime": 1691071598683, "trialdata": {"revealed_states": [], "clicked_states": [], "num_clicks_accrued": [0, 0, 0, 0, 0, 0, 0, 0, 0, 0, 0, 0, 0], "stateRewards": ["", 2, 4, 4, -8, -36, -33, 38, 16, -51, 57, 57, 1, 3, 4, -6, 45, 68, 87, 1, 63, 24, -55, -2, 2, -6, -13, -63, -50, 8, 2, 80, 6, 60], "withholdReward": false, "trial_id": "mdp_trial_1", "block": "test", "trialIndex": 2, "score": 40, "costs": 0, "simulationMode": [null, null, null, null, null], "rewards": [2, 4, 4, -8, 38], "path": ["0", "0", "1", "2", "3", "4", "7"], "rt": [6368, 1512, 663, 449, 1003], "actions": ["up", "up", "up", "right", "down"], "actionTimes": [8789, 10840, 12052, 13052, 14604], "queries": {"click": {"state": {"target": [], "time": []}, "edge": {"target": [], "time": []}}, "mouseover": {"state": {"target": ["1", "2", "3", "2", "1"], "time": [3986, 4207, 5292, 6801, 6842]}, "edge": {"target": [], "time": []}}, "mouseout": {"state": {"target": ["32", "33", "29", "1", "12", "0", "1", "2", "3", "2", "1"], "time": [793, 816, 855, 1249, 1291, 3905, 4058, 5213, 6776, 6826, 6875]}, "edge": {"target": [], "time": []}}}, "displayed_time": "16.43", "trialTime": 21535, "trial_type": "mouselab-mdp", "trial_index": 9, "time_elapsed": 670178, "internal_node_id": "0.0-4.0-1.0-0.0"}}, {"uniqueid": "w22146322:a76083074", "current_trial": 10, "dateTime": 1691071622002, "trialdata": {"revealed_states": [], "clicked_states": ["1"], "num_clicks_accrued": [0, 0, 0, 0, 0, 0, 0, 0, 0, 0, 0, 0, 0], "stateRewards": ["", -2, -4, 6, 14, -34, 49, 36, -8, -3, 32, -4, 1, -2, 1, -8, -20, -71, -57, -7, -86, -62, -16, -2, -3, -5, 11, 23, -21, 53, 5, -5, 85, 73], "withholdReward": false, "trial_id": "mdp_trial_2", "block": "test", "trialIndex": 3, "score": 78.6, "costs": -1.4, "simulationMode": [null, null, null, null, null], "rewards": [-2, -3, -5, 5, 85], "path": ["0", "0", "23", "24", "25", "30", "32"], "rt": [7304, 1379, 584, 1382, 2822], "actions": ["left", "left", "left", "down", "down"], "actionTimes": [11076, 12999, 14132, 16060, 19430], "queries": {"click": {"state": {"target": ["1"], "time": [6104]}, "edge": {"target": [], "time": []}}, "mouseover": {"state": {"target": ["1", "0", "23", "0"], "time": [5958, 7071, 7172, 8371]}, "edge": {"target": [], "time": []}}, "mouseout": {"state": {"target": ["23", "0", "1", "1", "0", "23"], "time": [3185, 4982, 6222, 7038, 7092, 8330]}, "edge": {"target": [], "time": []}}}, "displayed_time": "19.97", "trialTime": 23019, "trial_type": "mouselab-mdp", "trial_index": 10, "time_elapsed": 693498, "internal_node_id": "0.0-4.0-1.0-1.0"}}, {"uniqueid": "w22146322:a76083074", "current_trial": 11, "dateTime": 1691071643136, "trialdata": {"revealed_states": [], "clicked_states": [], "num_clicks_accrued": [0, 0, 0, 0, 0, 0, 0, 0, 0, 0, 0, 0, 0], "stateRewards": ["", -1, -3, 3, 5, 56, 39, 50, -1, -80, 33, -46, 1, -2, -6, -8, 87, 48, 54, -11, -20, -64, -54, -2, 3, -7, -3, 12, 88, 35, -16, -46, -70, -3], "withholdReward": false, "trial_id": "mdp_trial_3", "block": "test", "trialIndex": 4, "score": 33, "costs": 0, "simulationMode": [null, null, null, null, null], "rewards": [1, -2, -6, -8, 48], "path": ["0", "0", "12", "13", "14", "15", "17"], "rt": [4327, 999, 858, 1964, 903], "actions": ["right", "right", "right", "up", "right"], "actionTimes": [8616, 10155, 11560, 14063, 15512], "queries": {"click": {"state": {"target": [], "time": []}, "edge": {"target": [], "time": []}}, "mouseover": {"state": {"target": [], "time": []}, "edge": {"target": [], "time": []}}, "mouseout": {"state": {"target": ["0", "22", "0", "0", "0"], "time": [1090, 2137, 3791, 7144, 19931]}, "edge": {"target": [], "time": []}}}, "displayed_time": "18.30", "trialTime": 20840, "trial_type": "mouselab-mdp", "trial_index": 11, "time_elapsed": 714632, "internal_node_id": "0.0-4.0-1.0-2.0"}}, {"uniqueid": "w22146322:a76083074", "current_trial": 12, "dateTime": 1691071663601, "trialdata": {"revealed_states": [], "clicked_states": [], "num_clicks_accrued": [0, 0, 0, 0, 0, 0, 0, 0, 0, 0, 0, 0, 0], "stateRewards": ["", -2, -3, 7, -13, 60, 9, 37, -6, 37, 20, 1, 2, -2, -8, 6, -80, -31, -10, -7, 70, -65, -44, -1, 1, 7, 6, -11, 73, -85, 16, -21, 47, 34], "withholdReward": false, "trial_id": "mdp_trial_4", "block": "test", "trialIndex": 5, "score": 16, "costs": 0, "simulationMode": [null, null, null, null, null], "rewards": [-2, -3, 7, -6, 20], "path": ["0", "0", "1", "2", "3", "8", "10"], "rt": [2061, 1366, 1308, 686, 1056], "actions": ["up", "up", "up", "left", "down"], "actionTimes": [6364, 8255, 10108, 11331, 12932], "queries": {"click": {"state": {"target": [], "time": []}, "edge": {"target": [], "time": []}}, "mouseover": {"state": {"target": [], "time": []}, "edge": {"target": [], "time": []}}, "mouseout": {"state": {"target": ["33", "25", "23"], "time": [3245, 3292, 3665]}, "edge": {"target": [], "time": []}}}, "displayed_time": "18.32", "trialTime": 20180, "trial_type": "mouselab-mdp", "trial_index": 12, "time_elapsed": 735097, "internal_node_id": "0.0-4.0-1.0-3.0"}}, {"uniqueid": "w22146322:a76083074", "current_trial": 13, "dateTime": 1691071685341, "trialdata": {"revealed_states": [], "clicked_states": ["13"], "num_clicks_accrued": [0, 0, 0, 0, 0, 0, 0, 0, 0, 0, 0, 0, 0], "stateRewards": ["", 1, 2, 3, 16, 63, -25, 16, -4, -14, 82, -66, -1, -3, -3, -11, -14, 19, 46, 3, -34, -82, 66, -2, -3, 4, -5, -63, 77, -37, -1, -45, -41, 84], "withholdReward": false, "trial_id": "mdp_trial_5", "block": "test", "trialIndex": 6, "score": 83.6, "costs": -1.4, "simulationMode": [null, null, null, null, null], "rewards": [1, 2, 3, 16, 63], "path": ["0", "0", "1", "2", "3", "4", "5"], "rt": [5321, 970, 1054, 763, 1327], "actions": ["up", "up", "up", "right", "up"], "actionTimes": [8727, 10224, 11821, 13125, 14989], "queries": {"click": {"state": {"target": ["13"], "time": [5196]}, "edge": {"target": [], "time": []}}, "mouseover": {"state": {"target": ["1", "25", "26", "1", "13", "14", "13", "12", "23", "24"], "time": [4211, 4453, 4589, 4680, 4735, 4770, 5051, 6022, 6061, 6099]}, "edge": {"target": [], "time": []}}, "mouseout": {"state": {"target": ["1", "0", "1", "25", "26", "1", "13", "14", "13", "12", "23", "24", "23"], "time": [2638, 4138, 4243, 4526, 4623, 4696, 4752, 4968, 6002, 6042, 6081, 7257, 20875]}, "edge": {"target": [], "time": []}}}, "displayed_time": "17.43", "trialTime": 21457, "trial_type": "mouselab-mdp", "trial_index": 13, "time_elapsed": 756837, "internal_node_id": "0.0-4.0-1.0-4.0"}}, {"uniqueid": "w22146322:a76083074", "current_trial": 14, "dateTime": 1691071707415, "trialdata": {"revealed_states": [], "clicked_states": [], "num_clicks_accrued": [0, 0, 0, 0, 0, 0, 0, 0, 0, 0, 0, 0, 0], "stateRewards": ["", -1, -2, -1, -10, -57, 73, -72, -16, 75, -14, -46, -2, -3, -7, -1, -61, -60, 76, -4, 50, 4, 14, 2, 2, -7, 12, -65, -32, 15, -8, -76, -25, -61], "withholdReward": false, "trial_id": "mdp_trial_6", "block": "test", "trialIndex": 7, "score": 34, "costs": 0, "simulationMode": [null, null, null, null, null], "rewards": [-2, -3, -7, -4, 50], "path": ["0", "0", "12", "13", "14", "19", "20"], "rt": [1444, 374, 682, 699, 1284], "actions": ["right", "right", "right", "down", "right"], "actionTimes": [3045, 3960, 5181, 6429, 8261], "queries": {"click": {"state": {"target": [], "time": []}, "edge": {"target": [], "time": []}}, "mouseover": {"state": {"target": [], "time": []}, "edge": {"target": [], "time": []}}, "mouseout": {"state": {"target": ["1"], "time": [999]}, "edge": {"target": [], "time": []}}}, "displayed_time": "15.62", "trialTime": 21783, "trial_type": "mouselab-mdp", "trial_index": 14, "time_elapsed": 778911, "internal_node_id": "0.0-4.0-1.0-5.0"}}, {"uniqueid": "w22146322:a76083074", "current_trial": 15, "dateTime": 1691071728055, "trialdata": {"revealed_states": [], "clicked_states": ["24"], "num_clicks_accrued": [0, 0, 0, 0, 0, 0, 0, 0, 0, 0, 0, 0, 0], "stateRewards": ["", 2, -1, 5, 6, 10, 86, 55, 10, -45, 63, -71, 1, -2, 5, -8, -50, -72, 36, 15, 61, 12, 33, -1, -4, 6, 5, 79, -56, -21, -16, -87, 60, -81], "withholdReward": false, "trial_id": "mdp_trial_7", "block": "test", "trialIndex": 8, "score": 65.6, "costs": -1.4, "simulationMode": [null, null, null, null, null], "rewards": [2, -1, 5, 6, 55], "path": ["0", "0", "1", "2", "3", "4", "7"], "rt": [5498, 1487, 2209, 1976, 1615], "actions": ["up", "up", "up", "right", "down"], "actionTimes": [7743, 9770, 12518, 15030, 17198], "queries": {"click": {"state": {"target": ["24"], "time": [3681]}, "edge": {"target": [], "time": []}}, "mouseover": {"state": {"target": ["0", "23", "24", "1"], "time": [3111, 3152, 3400, 4781]}, "edge": {"target": [], "time": []}}, "mouseout": {"state": {"target": ["1", "8", "9", "5", "18", "12", "0", "23", "24", "1"], "time": [1286, 1349, 1383, 1480, 1560, 1631, 3121, 3311, 4700, 4803]}, "edge": {"target": [], "time": []}}}, "displayed_time": "17.74", "trialTime": 20350, "trial_type": "mouselab-mdp", "trial_index": 15, "time_elapsed": 799550, "internal_node_id": "0.0-4.0-1.0-6.0"}}, {"uniqueid": "w22146322:a76083074", "current_trial": 16, "dateTime": 1691071746098, "trialdata": {"revealed_states": [], "clicked_states": [], "num_clicks_accrued": [0, 0, 0, 0, 0, 0, 0, 0, 0, 0, 0, 0, 0], "stateRewards": ["", 1, -2, -8, -13, 4, 34, -84, -4, -49, 88, -70, -1, 3, -4, 10, -77, 13, -34, 15, -21, -16, 27, 1, -2, 8, -8, -6, 38, -26, 6, -15, 66, -3], "withholdReward": false, "trial_id": "mdp_trial_8", "block": "test", "trialIndex": 9, "score": -83, "costs": 0, "simulationMode": [null, null, null, null, null], "rewards": [1, -2, -8, -4, -70], "path": ["0", "0", "1", "2", "3", "8", "11"], "rt": [5104, 920, 813, 1226, 1964], "actions": ["up", "up", "up", "left", "left"], "actionTimes": [7017, 8484, 9840, 11617, 14117], "queries": {"click": {"state": {"target": [], "time": []}, "edge": {"target": [], "time": []}}, "mouseover": {"state": {"target": ["1", "2", "3", "8", "11"], "time": [4385, 4650, 4974, 5008, 5168]}, "edge": {"target": [], "time": []}}, "mouseout": {"state": {"target": ["13", "12", "1", "2", "3", "8"], "time": [937, 1007, 4490, 4684, 4983, 5082]}, "edge": {"target": [], "time": []}}}, "displayed_time": "15.93", "trialTime": 17739, "trial_type": "mouselab-mdp", "trial_index": 16, "time_elapsed": 817594, "internal_node_id": "0.0-4.0-1.0-7.0"}}, {"uniqueid": "w22146322:a76083074", "current_trial": 17, "dateTime": 1691071764985, "trialdata": {"revealed_states": [], "clicked_states": ["21"], "num_clicks_accrued": [0, 0, 0, 0, 0, 0, 0, 0, 0, 0, 0, 0, 0], "stateRewards": ["", -2, 2, -5, 1, 42, -63, -58, -6, 2, 16, 81, -2, 4, 7, -10, 33, 3, -33, -2, -52, -84, -27, 2, -3, -3, 15, -74, -14, -5, -5, -84, 79, -31], "withholdReward": false, "trial_id": "mdp_trial_9", "block": "test", "trialIndex": 10, "score": -35.4, "costs": -1.4, "simulationMode": [null, null, null, null, null], "rewards": [-2, 4, 7, -10, -33], "path": ["0", "0", "12", "13", "14", "15", "18"], "rt": [4212, 1100, 1450, 576, 791], "actions": ["right", "right", "right", "up", "left"], "actionTimes": [6975, 8610, 10591, 11711, 13039], "queries": {"click": {"state": {"target": ["21"], "time": [3896]}, "edge": {"target": [], "time": []}}, "mouseover": {"state": {"target": ["0", "22", "21", "8"], "time": [3496, 3552, 3608, 4960]}, "edge": {"target": [], "time": []}}, "mouseout": {"state": {"target": ["11", "11", "8", "3", "2", "1", "0", "0", "22", "21", "8"], "time": [1849, 1872, 1937, 1976, 2080, 2211, 2428, 3512, 3577, 4890, 4981]}, "edge": {"target": [], "time": []}}}, "displayed_time": "16.79", "trialTime": 18598, "trial_type": "mouselab-mdp", "trial_index": 17, "time_elapsed": 836481, "internal_node_id": "0.0-4.0-1.0-8.0"}}, {"uniqueid": "w22146322:a76083074", "current_trial": 18, "dateTime": 1691071787088, "trialdata": {"revealed_states": [], "clicked_states": ["33"], "num_clicks_accrued": [0, 0, 0, 0, 0, 0, 0, 0, 0, 0, 0, 0, 0], "stateRewards": ["", -1, -4, -3, 1, -45, -67, -24, 14, 32, 22, 22, -1, 1, -5, -7, 72, 84, -79, -5, 19, -40, -2, -1, -2, 8, -3, 84, -25, -28, 11, 64, -66, 77], "withholdReward": false, "trial_id": "mdp_trial_10", "block": "test", "trialIndex": 11, "score": 91.6, "costs": -1.4, "simulationMode": [null, null, null, null, null], "rewards": [-1, -2, 8, 11, 77], "path": ["0", "0", "23", "24", "25", "30", "33"], "rt": [7098, 1281, 954, 1033, 990], "actions": ["left", "left", "left", "down", "left"], "actionTimes": [11509, 13327, 14829, 16405, 17941], "queries": {"click": {"state": {"target": ["33"], "time": [5658]}, "edge": {"target": [], "time": []}}, "mouseover": {"state": {"target": ["31", "30", "33", "33"], "time": [5224, 5252, 5353, 5556]}, "edge": {"target": [], "time": []}}, "mouseout": {"state": {"target": ["11", "11", "0", "31", "30", "33", "33"], "time": [1769, 2171, 5137, 5240, 5280, 5459, 6916]}, "edge": {"target": [], "time": []}}}, "displayed_time": "18.48", "trialTime": 21808, "trial_type": "mouselab-mdp", "trial_index": 18, "time_elapsed": 858584, "internal_node_id": "0.0-4.0-1.0-9.0"}}, {"uniqueid": "w22146322:a76083074", "current_trial": 19, "dateTime": 1691071808356, "trialdata": {"revealed_states": [], "clicked_states": ["27"], "num_clicks_accrued": [0, 0, 0, 0, 0, 0, 0, 0, 0, 0, 0, 0, 0], "stateRewards": ["", -1, 2, -6, 6, 43, 78, 78, -2, 55, -29, -17, -2, -4, 1, -15, 13, 7, -79, 8, -28, -68, 36, -1, -3, 3, -16, 84, -18, 87, 10, 32, 13, -81], "withholdReward": false, "trial_id": "mdp_trial_11", "block": "test", "trialIndex": 12, "score": 65.6, "costs": -1.4, "simulationMode": [null, null, null, null, null], "rewards": [-1, -3, 3, -16, 84], "path": ["0", "0", "23", "24", "25", "26", "27"], "rt": [7029, 1008, 1410, 1065, 1339], "actions": ["left", "left", "left", "up", "up"], "actionTimes": [11137, 12679, 14630, 16232, 18122], "queries": {"click": {"state": {"target": ["27"], "time": [5456]}, "edge": {"target": [], "time": []}}, "mouseover": {"state": {"target": ["28", "27"], "time": [5129, 5177]}, "edge": {"target": [], "time": []}}, "mouseout": {"state": {"target": ["13", "20", "21", "22", "12", "0", "0", "28", "27"], "time": [1310, 1349, 1706, 1721, 1761, 2591, 5056, 5136, 6340]}, "edge": {"target": [], "time": []}}}, "displayed_time": "18.66", "trialTime": 20981, "trial_type": "mouselab-mdp", "trial_index": 19, "time_elapsed": 879852, "internal_node_id": "0.0-4.0-1.0-10.0"}}, {"uniqueid": "w22146322:a76083074", "current_trial": 20, "dateTime": 1691071827231, "trialdata": {"revealed_states": [], "clicked_states": ["8"], "num_clicks_accrued": [0, 0, 0, 0, 0, 0, 0, 0, 0, 0, 0, 0, 0], "stateRewards": ["", 1, -4, 6, -3, 40, 76, -51, 5, -24, -63, 44, -2, -2, 8, 1, 76, -85, -58, 10, 59, 20, 11, -2, 3, -3, 3, -82, -10, 54, -7, -57, -6, -32], "withholdReward": false, "trial_id": "mdp_trial_12", "block": "test", "trialIndex": 13, "score": -52.4, "costs": -1.4, "simulationMode": [null, null, null, null, null], "rewards": [1, -4, 6, -3, -51], "path": ["0", "0", "1", "2", "3", "4", "7"], "rt": [7065, 871, 1319, 465, 321], "actions": ["up", "up", "up", "right", "down"], "actionTimes": [10011, 11414, 13276, 14284, 15157], "queries": {"click": {"state": {"target": ["8"], "time": [5473]}, "edge": {"target": [], "time": []}}, "mouseover": {"state": {"target": ["1", "10", "8", "5"], "time": [4666, 4722, 5173, 7007]}, "edge": {"target": [], "time": []}}, "mouseout": {"state": {"target": ["10", "1", "0", "1", "10", "8", "5", "6", "4"], "time": [2007, 2111, 4480, 4681, 5126, 5543, 7033, 17897, 17945]}, "edge": {"target": [], "time": []}}}, "displayed_time": "16.97", "trialTime": 18590, "trial_type": "mouselab-mdp", "trial_index": 20, "time_elapsed": 898726, "internal_node_id": "0.0-4.0-1.0-11.0"}}, {"uniqueid": "w22146322:a76083074", "current_trial": 21, "dateTime": 1691071846444, "trialdata": {"revealed_states": [], "clicked_states": ["20"], "num_clicks_accrued": [0, 0, 0, 0, 0, 0, 0, 0, 0, 0, 0, 0, 0], "stateRewards": ["", 2, 3, -1, 6, 44, -4, -59, -14, -3, 64, 16, 1, -3, 3, 6, 3, 49, 19, 3, -49, -14, -86, 1, 2, -3, -8, -33, 14, 32, -13, -77, -47, -67], "withholdReward": false, "trial_id": "mdp_trial_13", "block": "test", "trialIndex": 14, "score": 22.6, "costs": -1.4, "simulationMode": [null, null, null, null, null], "rewards": [1, 2, -3, -8, 32], "path": ["0", "0", "23", "24", "25", "26", "29"], "rt": [7218, 1366, 827, 566, 581], "actions": ["left", "left", "left", "up", "left"], "actionTimes": [9463, 11362, 12736, 13839, 14967], "queries": {"click": {"state": {"target": ["20"], "time": [3790]}, "edge": {"target": [], "time": []}}, "mouseover": {"state": {"target": ["12", "22", "21", "20"], "time": [3035, 3059, 3086, 3518]}, "edge": {"target": [], "time": []}}, "mouseout": {"state": {"target": ["0", "12", "22", "21", "20"], "time": [3023, 3047, 3070, 3099, 4335]}, "edge": {"target": [], "time": []}}}, "displayed_time": "16.26", "trialTime": 18928, "trial_type": "mouselab-mdp", "trial_index": 21, "time_elapsed": 917940, "internal_node_id": "0.0-4.0-1.0-12.0"}}, {"uniqueid": "w22146322:a76083074", "current_trial": 22, "dateTime": 1691071864885, "trialdata": {"revealed_states": [], "clicked_states": ["5"], "num_clicks_accrued": [0, 0, 0, 0, 0, 0, 0, 0, 0, 0, 0, 0, 0], "stateRewards": ["", -2, -1, -5, 10, -36, -70, 68, -9, 86, 71, -10, 2, -4, 7, -7, 66, 44, -66, -13, -69, 43, 15, -2, 2, 6, -13, 62, 57, 50, -10, -69, 42, -72], "withholdReward": false, "trial_id": "mdp_trial_14", "block": "test", "trialIndex": 15, "score": 67.6, "costs": -1.4, "simulationMode": [null, null, null, null, null], "rewards": [-2, -1, -5, -9, 86], "path": ["0", "0", "1", "2", "3", "8", "9"], "rt": [6019, 1202, 925, 934, 1655], "actions": ["up", "up", "up", "left", "up"], "actionTimes": [7537, 9276, 10745, 12217, 14417], "queries": {"click": {"state": {"target": ["5"], "time": [3220]}, "edge": {"target": [], "time": []}}, "mouseover": {"state": {"target": ["7", "6", "5"], "time": [2375, 2399, 2811]}, "edge": {"target": [], "time": []}}, "mouseout": {"state": {"target": ["1", "12", "0", "7", "6", "5"], "time": [865, 977, 2319, 2388, 2413, 4192]}, "edge": {"target": [], "time": []}}}, "displayed_time": "15.53", "trialTime": 18153, "trial_type": "mouselab-mdp", "trial_index": 22, "time_elapsed": 936381, "internal_node_id": "0.0-4.0-1.0-13.0"}}, {"uniqueid": "w22146322:a76083074", "current_trial": 23, "dateTime": 1691071882861, "trialdata": {"revealed_states": [], "clicked_states": ["29"], "num_clicks_accrued": [0, 0, 0, 0, 0, 0, 0, 0, 0, 0, 0, 0, 0], "stateRewards": ["", 2, -4, 4, 9, 69, 9, -75, 12, -86, 66, 25, -1, 3, 2, -13, -88, -3, 1, 4, -69, 49, -84, 2, -1, 4, 2, -18, -81, -52, -15, -69, -54, 25], "withholdReward": false, "trial_id": "mdp_trial_15", "block": "test", "trialIndex": 16, "score": -13.4, "costs": -1.4, "simulationMode": [null, null, null, null, null], "rewards": [-1, 3, 2, -13, -3], "path": ["0", "0", "12", "13", "14", "15", "17"], "rt": [5690, 1375, 1061, 1007, 1325], "actions": ["right", "right", "right", "up", "right"], "actionTimes": [7367, 9274, 10871, 12431, 14295], "queries": {"click": {"state": {"target": ["29"], "time": [3653]}, "edge": {"target": [], "time": []}}, "mouseover": {"state": {"target": ["23", "26", "29"], "time": [3250, 3305, 3337]}, "edge": {"target": [], "time": []}}, "mouseout": {"state": {"target": ["17", "19", "22", "0", "23", "26", "29"], "time": [466, 593, 608, 3223, 3265, 3317, 4164]}, "edge": {"target": [], "time": []}}}, "displayed_time": "15.71", "trialTime": 17679, "trial_type": "mouselab-mdp", "trial_index": 23, "time_elapsed": 954357, "internal_node_id": "0.0-4.0-1.0-14.0"}}, {"uniqueid": "w22146322:a76083074", "current_trial": 24, "dateTime": 1691071903396, "trialdata": {"revealed_states": [], "clicked_states": [], "num_clicks_accrued": [0, 0, 0, 0, 0, 0, 0, 0, 0, 0, 0, 0, 0], "stateRewards": ["", 1, -2, -3, 14, -42, -87, -37, -11, -50, 33, -44, -2, 4, -7, 13, 48, -75, -66, 12, 23, -2, 82, 1, -4, 3, 12, 51, -15, -26, -11, -52, -29, 82], "withholdReward": false, "trial_id": "mdp_trial_16", "block": "test", "trialIndex": 17, "score": -63, "costs": 0, "simulationMode": [null, null, null, null, null], "rewards": [1, -4, 3, -11, -52], "path": ["0", "0", "23", "24", "25", "30", "31"], "rt": [1006, 770, 430, 502, 272], "actions": ["left", "left", "left", "down", "right"], "actionTimes": [4996, 6304, 7277, 8316, 9133], "queries": {"click": {"state": {"target": [], "time": []}, "edge": {"target": [], "time": []}}, "mouseover": {"state": {"target": [], "time": []}, "edge": {"target": [], "time": []}}, "mouseout": {"state": {"target": ["32", "0"], "time": [2673, 3633]}, "edge": {"target": [], "time": []}}}, "displayed_time": "18.00", "trialTime": 20203, "trial_type": "mouselab-mdp", "trial_index": 24, "time_elapsed": 974891, "internal_node_id": "0.0-4.0-1.0-15.0"}}, {"uniqueid": "w22146322:a76083074", "current_trial": 25, "dateTime": 1691071921209, "trialdata": {"revealed_states": [], "clicked_states": [], "num_clicks_accrued": [0, 0, 0, 0, 0, 0, 0, 0, 0, 0, 0, 0, 0], "stateRewards": ["", -2, 2, 8, -6, -25, 3, 87, 2, -62, -2, 74, -2, -1, 2, -1, 79, 49, -37, -14, 5, 67, -9, -1, 2, -2, 5, 15, 38, 32, -14, -38, -38, 30], "withholdReward": false, "trial_id": "mdp_trial_17", "block": "test", "trialIndex": 18, "score": -39, "costs": 0, "simulationMode": [null, null, null, null, null], "rewards": [-2, -1, 2, -1, -37], "path": ["0", "0", "12", "13", "14", "15", "18"], "rt": [1573, 600, 578, 409, 1893], "actions": ["right", "right", "right", "up", "left"], "actionTimes": [4188, 5327, 6452, 7396, 9828], "queries": {"click": {"state": {"target": [], "time": []}, "edge": {"target": [], "time": []}}, "mouseover": {"state": {"target": [], "time": []}, "edge": {"target": [], "time": []}}, "mouseout": {"state": {"target": ["18", "15", "14", "0"], "time": [1816, 1873, 1920, 2071]}, "edge": {"target": [], "time": []}}}, "displayed_time": "16.63", "trialTime": 17505, "trial_type": "mouselab-mdp", "trial_index": 25, "time_elapsed": 992704, "internal_node_id": "0.0-4.0-1.0-16.0"}}, {"uniqueid": "w22146322:a76083074", "current_trial": 26, "dateTime": 1691071945084, "trialdata": {"revealed_states": [], "clicked_states": ["10"], "num_clicks_accrued": [0, 0, 0, 0, 0, 0, 0, 0, 0, 0, 0, 0, 0], "stateRewards": ["", 2, 3, 8, 11, 25, -80, 6, -4, -56, 84, -23, -2, -4, -3, 4, -51, -9, -61, -15, -64, 67, -35, 1, -1, -7, -6, 83, 59, -15, 12, -79, 56, 41], "withholdReward": false, "trial_id": "mdp_trial_18", "block": "test", "trialIndex": 19, "score": 91.6, "costs": -1.4, "simulationMode": [null, null, null, null, null], "rewards": [2, 3, 8, -4, 84], "path": ["0", "0", "1", "2", "3", "8", "10"], "rt": [4916, 2158, 1663, 579, 1641], "actions": ["up", "up", "up", "left", "down"], "actionTimes": [9495, 12194, 14407, 15535, 17711], "queries": {"click": {"state": {"target": ["10"], "time": [6255]}, "edge": {"target": [], "time": []}}, "mouseover": {"state": {"target": ["10", "2", "18"], "time": [6061, 6749, 6779]}, "edge": {"target": [], "time": []}}, "mouseout": {"state": {"target": ["0", "0", "10", "2", "18"], "time": [3602, 5852, 6721, 6775, 6804]}, "edge": {"target": [], "time": []}}}, "displayed_time": "18.61", "trialTime": 23559, "trial_type": "mouselab-mdp", "trial_index": 26, "time_elapsed": 1016579, "internal_node_id": "0.0-4.0-1.0-17.0"}}, {"uniqueid": "w22146322:a76083074", "current_trial": 27, "dateTime": 1691071966488, "trialdata": {"revealed_states": [], "clicked_states": ["29"], "num_clicks_accrued": [0, 0, 0, 0, 0, 0, 0, 0, 0, 0, 0, 0, 0], "stateRewards": ["", 1, -2, -8, -3, 31, -84, -55, -14, 15, -58, 17, -2, -3, 7, 7, -12, 48, 67, 4, -44, -68, 46, 2, 3, -5, -7, 76, 27, 5, 11, 57, 52, 59], "withholdReward": false, "trial_id": "mdp_trial_19", "block": "test", "trialIndex": 20, "score": -3.4000000000000004, "costs": -1.4, "simulationMode": [null, null, null, null, null], "rewards": [2, 3, -5, -7, 5], "path": ["0", "0", "23", "24", "25", "26", "29"], "rt": [5295, 1397, 1247, 955, 1739], "actions": ["left", "left", "left", "up", "left"], "actionTimes": [7304, 9238, 11033, 12536, 14817], "queries": {"click": {"state": {"target": ["29"], "time": [3547]}, "edge": {"target": [], "time": []}}, "mouseover": {"state": {"target": ["28", "26", "29"], "time": [3184, 3210, 3249]}, "edge": {"target": [], "time": []}}, "mouseout": {"state": {"target": ["16", "14", "13", "0", "28", "26", "29"], "time": [1190, 1366, 1405, 3146, 3200, 3232, 3690]}, "edge": {"target": [], "time": []}}}, "displayed_time": "16.03", "trialTime": 21053, "trial_type": "mouselab-mdp", "trial_index": 27, "time_elapsed": 1037984, "internal_node_id": "0.0-4.0-1.0-18.0"}}, {"uniqueid": "w22146322:a76083074", "current_trial": 28, "dateTime": 1691071987049, "trialdata": {"revealed_states": [], "clicked_states": ["22"], "num_clicks_accrued": [0, 0, 0, 0, 0, 0, 0, 0, 0, 0, 0, 0, 0], "stateRewards": ["", 2, -1, -1, -9, -81, -30, 55, -6, 78, 25, 62, 2, 4, -1, 9, -85, 1, -19, 1, -60, 12, -34, 1, 4, -1, -13, -24, -16, -83, -8, 16, 43, 9], "withholdReward": false, "trial_id": "mdp_trial_20", "block": "test", "trialIndex": 21, "score": 44.6, "costs": -1.4, "simulationMode": [null, null, null, null, null], "rewards": [2, -1, -1, -9, 55], "path": ["0", "0", "1", "2", "3", "4", "7"], "rt": [6493, 1486, 1159, 1024, 1893], "actions": ["up", "up", "up", "right", "down"], "actionTimes": [8065, 10087, 11787, 13347, 15780], "queries": {"click": {"state": {"target": ["22"], "time": [3200]}, "edge": {"target": [], "time": []}}, "mouseover": {"state": {"target": ["12", "19", "21", "22", "14", "13", "12", "0"], "time": [2475, 2507, 2864, 3050, 3988, 4568, 4611, 4668]}, "edge": {"target": [], "time": []}}, "mouseout": {"state": {"target": ["0", "12", "19", "21", "22", "14", "13", "12", "0"], "time": [2460, 2490, 2524, 2903, 3935, 4022, 4589, 4634, 4700]}, "edge": {"target": [], "time": []}}}, "displayed_time": "16.32", "trialTime": 20277, "trial_type": "mouselab-mdp", "trial_index": 28, "time_elapsed": 1058545, "internal_node_id": "0.0-4.0-1.0-19.0"}}, {"uniqueid": "w22146322:a76083074", "current_trial": 29, "dateTime": 1691072005625, "trialdata": {"revealed_states": [], "clicked_states": [], "num_clicks_accrued": [0, 0, 0, 0, 0, 0, 0, 0, 0, 0, 0, 0, 0], "stateRewards": ["", -1, 1, -6, -1, 80, 23, 2, -11, 73, -81, 59, 1, 3, 5, -1, -26, 28, -3, 16, -59, -13, -50, -2, -2, 2, 15, -50, 86, 17, -4, 37, 35, 44], "withholdReward": false, "trial_id": "mdp_trial_21", "block": "test", "trialIndex": 22, "score": 99, "costs": 0, "simulationMode": [null, null, null, null, null], "rewards": [-2, -2, 2, 15, 86], "path": ["0", "0", "23", "24", "25", "26", "28"], "rt": [3001, 803, 990, 732, 860], "actions": ["left", "left", "left", "up", "right"], "actionTimes": [5195, 6542, 8075, 9347, 10756], "queries": {"click": {"state": {"target": [], "time": []}, "edge": {"target": [], "time": []}}, "mouseover": {"state": {"target": [], "time": []}, "edge": {"target": [], "time": []}}, "mouseout": {"state": {"target": ["31", "23", "1"], "time": [1414, 1478, 1664]}, "edge": {"target": [], "time": []}}}, "displayed_time": "16.21", "trialTime": 18267, "trial_type": "mouselab-mdp", "trial_index": 29, "time_elapsed": 1077121, "internal_node_id": "0.0-4.0-1.0-20.0"}}, {"uniqueid": "w22146322:a76083074", "current_trial": 30, "dateTime": 1691072024040, "trialdata": {"revealed_states": [], "clicked_states": [], "num_clicks_accrued": [0, 0, 0, 0, 0, 0, 0, 0, 0, 0, 0, 0, 0], "stateRewards": ["", -2, -3, 4, 1, 33, -53, 15, 9, -12, 61, -6, -2, 4, 6, -11, 47, -43, -7, -11, 46, 23, -28, -1, -1, 3, -10, 11, 76, -76, 10, 18, -38, 87], "withholdReward": false, "trial_id": "mdp_trial_22", "block": "test", "trialIndex": 23, "score": 67, "costs": 0, "simulationMode": [null, null, null, null, null], "rewards": [-1, -1, 3, -10, 76], "path": ["0", "0", "23", "24", "25", "26", "28"], "rt": [2084, 1160, 973, 989, 1506], "actions": ["left", "left", "left", "up", "right"], "actionTimes": [4109, 5800, 7309, 8838, 10885], "queries": {"click": {"state": {"target": [], "time": []}, "edge": {"target": [], "time": []}}, "mouseover": {"state": {"target": [], "time": []}, "edge": {"target": [], "time": []}}, "mouseout": {"state": {"target": ["0", "0", "12", "22", "22", "0"], "time": [914, 992, 1072, 1145, 1236, 1710]}, "edge": {"target": [], "time": []}}}, "displayed_time": "16.04", "trialTime": 18124, "trial_type": "mouselab-mdp", "trial_index": 30, "time_elapsed": 1095536, "internal_node_id": "0.0-4.0-1.0-21.0"}}, {"uniqueid": "w22146322:a76083074", "current_trial": 31, "dateTime": 1691072043165, "trialdata": {"revealed_states": [], "clicked_states": ["28"], "num_clicks_accrued": [0, 0, 0, 0, 0, 0, 0, 0, 0, 0, 0, 0, 0], "stateRewards": ["", -2, -4, -8, 8, 63, -50, -19, -7, -17, -31, 31, 1, 3, -5, 12, -35, -63, -29, -4, -17, -75, -79, -2, -3, -2, 8, -3, -85, 10, -2, -82, -82, 56], "withholdReward": false, "trial_id": "mdp_trial_23", "block": "test", "trialIndex": 24, "score": -3.4000000000000004, "costs": -1.4, "simulationMode": [null, null, null, null, null], "rewards": [-2, -3, -2, 8, -3], "path": ["0", "0", "23", "24", "25", "26", "27"], "rt": [4849, 525, 754, 840, 423], "actions": ["left", "left", "left", "up", "up"], "actionTimes": [7824, 8883, 10175, 11559, 12521], "queries": {"click": {"state": {"target": ["28"], "time": [4375]}, "edge": {"target": [], "time": []}}, "mouseover": {"state": {"target": ["28"], "time": [4103]}, "edge": {"target": [], "time": []}}, "mouseout": {"state": {"target": ["18", "20", "21", "12", "18", "15", "13", "12", "0", "28", "10", "0"], "time": [1405, 1536, 1614, 1734, 1808, 1849, 2202, 2228, 4030, 4807, 17891, 17949]}, "edge": {"target": [], "time": []}}}, "displayed_time": "17.00", "trialTime": 18852, "trial_type": "mouselab-mdp", "trial_index": 31, "time_elapsed": 1114661, "internal_node_id": "0.0-4.0-1.0-22.0"}}, {"uniqueid": "w22146322:a76083074", "current_trial": 32, "dateTime": 1691072063912, "trialdata": {"revealed_states": [], "clicked_states": [], "num_clicks_accrued": [0, 0, 0, 0, 0, 0, 0, 0, 0, 0, 0, 0, 0], "stateRewards": ["", 1, 4, 5, 8, -55, -11, 8, 16, -37, 77, -22, -2, 3, -8, -10, 45, 87, -67, 4, 17, -33, -22, -1, -3, 7, 6, -39, -85, 75, -1, 7, -48, 45], "withholdReward": false, "trial_id": "mdp_trial_24", "block": "test", "trialIndex": 25, "score": 103, "costs": 0, "simulationMode": [null, null, null, null, null], "rewards": [1, 4, 5, 16, 77], "path": ["0", "0", "1", "2", "3", "8", "10"], "rt": [5144, 1156, 513, 2841, 1714], "actions": ["up", "up", "up", "left", "down"], "actionTimes": [7470, 9169, 10221, 13599, 15862], "queries": {"click": {"state": {"target": [], "time": []}, "edge": {"target": [], "time": []}}, "mouseover": {"state": {"target": ["1", "7", "6", "4", "9", "9", "8", "10", "2", "7", "16"], "time": [3947, 4045, 4407, 4511, 4729, 5473, 5746, 5793, 6658, 6676, 6737]}, "edge": {"target": [], "time": []}}, "mouseout": {"state": {"target": ["0", "1", "7", "6", "4", "9", "9", "8", "10", "2", "7"], "time": [1891, 3980, 4102, 4455, 4535, 4754, 5714, 5770, 6649, 6671, 6690]}, "edge": {"target": [], "time": []}}}, "displayed_time": "16.41", "trialTime": 20465, "trial_type": "mouselab-mdp", "trial_index": 32, "time_elapsed": 1135408, "internal_node_id": "0.0-4.0-1.0-23.0"}}, {"uniqueid": "w22146322:a76083074", "current_trial": 33, "dateTime": 1691072090965, "trialdata": {"revealed_states": [], "clicked_states": [], "num_clicks_accrued": [0, 0, 0, 0, 0, 0, 0, 0, 0, 0, 0, 0, 0], "stateRewards": ["", 1, 1, 5, 6, -29, -7, 3, -16, 9, -46, 65, -1, 4, -1, -16, -63, -77, -87, 8, 80, -50, 43, -1, -1, -5, 5, -38, -71, -62, 9, 81, -50, -52], "withholdReward": false, "trial_id": "mdp_trial_25", "block": "test", "trialIndex": 26, "score": 16, "costs": 0, "simulationMode": [null, null, null, null, null], "rewards": [1, 1, 5, 6, 3], "path": ["0", "0", "1", "2", "3", "4", "7"], "rt": [3158, 764, 595, 507, 724], "actions": ["up", "up", "up", "right", "down"], "actionTimes": [14456, 15752, 16896, 17936, 19201], "queries": {"click": {"state": {"target": [], "time": []}, "edge": {"target": [], "time": []}}, "mouseover": {"state": {"target": [], "time": []}, "edge": {"target": [], "time": []}}, "mouseout": {"state": {"target": ["16", "16", "18"], "time": [9868, 10499, 10532]}, "edge": {"target": [], "time": []}}}, "displayed_time": "25.32", "trialTime": 26772, "trial_type": "mouselab-mdp", "trial_index": 33, "time_elapsed": 1162461, "internal_node_id": "0.0-4.0-1.0-24.0"}}, {"uniqueid": "w22146322:a76083074", "current_trial": 34, "dateTime": 1691072110137, "trialdata": {"revealed_states": [], "clicked_states": [], "num_clicks_accrued": [0, 0, 0, 0, 0, 0, 0, 0, 0, 0, 0, 0, 0], "stateRewards": ["", 1, 4, -4, 14, 35, 51, 19, -13, 54, 78, -74, -2, -1, -3, 13, -11, -42, -73, -15, -24, -3, -69, 2, -1, 5, 16, -27, 73, 58, 9, -60, 5, -60], "withholdReward": false, "trial_id": "mdp_trial_26", "block": "test", "trialIndex": 27, "score": -35, "costs": 0, "simulationMode": [null, null, null, null, null], "rewards": [-2, -1, -3, 13, -42], "path": ["0", "0", "12", "13", "14", "15", "17"], "rt": [1245, 583, 441, 948, 564], "actions": ["right", "right", "right", "up", "right"], "actionTimes": [4760, 5868, 6856, 8344, 9456], "queries": {"click": {"state": {"target": [], "time": []}, "edge": {"target": [], "time": []}}, "mouseover": {"state": {"target": [], "time": []}, "edge": {"target": [], "time": []}}, "mouseout": {"state": {"target": ["1", "2", "16", "13", "31", "31", "0"], "time": [2123, 2131, 2349, 2389, 2567, 2810, 3163]}, "edge": {"target": [], "time": []}}}, "displayed_time": "17.52", "trialTime": 18885, "trial_type": "mouselab-mdp", "trial_index": 34, "time_elapsed": 1181633, "internal_node_id": "0.0-4.0-1.0-25.0"}}, {"uniqueid": "w22146322:a76083074", "current_trial": 35, "dateTime": 1691072127301, "trialdata": {"revealed_states": [], "clicked_states": [], "num_clicks_accrued": [0, 0, 0, 0, 0, 0, 0, 0, 0, 0, 0, 0, 0], "stateRewards": ["", -1, 1, -2, 5, 73, 15, 61, 8, 7, 38, 76, 2, 2, -4, -6, -6, -26, 43, -5, -45, -85, -35, -2, 1, -4, 15, -10, 69, 72, -11, 84, -49, -38], "withholdReward": false, "trial_id": "mdp_trial_27", "block": "test", "trialIndex": 28, "score": 82, "costs": 0, "simulationMode": [null, null, null, null, null], "rewards": [-2, 1, -4, 15, 72], "path": ["0", "0", "23", "24", "25", "26", "29"], "rt": [2453, 927, 510, 1324, 1083], "actions": ["left", "left", "left", "up", "left"], "actionTimes": [4314, 5781, 6826, 8690, 10310], "queries": {"click": {"state": {"target": [], "time": []}, "edge": {"target": [], "time": []}}, "mouseover": {"state": {"target": [], "time": []}, "edge": {"target": [], "time": []}}, "mouseout": {"state": {"target": ["0", "0"], "time": [719, 813]}, "edge": {"target": [], "time": []}}}, "displayed_time": "15.89", "trialTime": 16877, "trial_type": "mouselab-mdp", "trial_index": 35, "time_elapsed": 1198797, "internal_node_id": "0.0-4.0-1.0-26.0"}}, {"uniqueid": "w22146322:a76083074", "current_trial": 36, "dateTime": 1691072149418, "trialdata": {"revealed_states": [], "clicked_states": [], "num_clicks_accrued": [0, 0, 0, 0, 0, 0, 0, 0, 0, 0, 0, 0, 0], "stateRewards": ["", -1, 4, -8, 12, 14, 69, -8, 5, -72, -14, 56, -1, -1, -1, 9, 67, 19, 11, -9, -88, -58, 3, 2, -4, -8, 4, 62, 77, -74, 5, -31, 65, 88], "withholdReward": false, "trial_id": "mdp_trial_28", "block": "test", "trialIndex": 29, "score": 83, "costs": 0, "simulationMode": [null, null, null, null, null], "rewards": [2, -4, -8, 5, 88], "path": ["0", "0", "23", "24", "25", "30", "33"], "rt": [1694, 972, 633, 276, 1013], "actions": ["left", "left", "left", "down", "left"], "actionTimes": [5143, 6650, 7830, 8647, 10199], "queries": {"click": {"state": {"target": [], "time": []}, "edge": {"target": [], "time": []}}, "mouseover": {"state": {"target": [], "time": []}, "edge": {"target": [], "time": []}}, "mouseout": {"state": {"target": ["0", "0", "7", "6", "16", "15", "14", "22"], "time": [1532, 1538, 1636, 1718, 1806, 1838, 1870, 1902]}, "edge": {"target": [], "time": []}}}, "displayed_time": "17.46", "trialTime": 21828, "trial_type": "mouselab-mdp", "trial_index": 36, "time_elapsed": 1220914, "internal_node_id": "0.0-4.0-1.0-27.0"}}, {"uniqueid": "w22146322:a76083074", "current_trial": 37, "dateTime": 1691072167359, "trialdata": {"revealed_states": [], "clicked_states": [], "num_clicks_accrued": [0, 0, 0, 0, 0, 0, 0, 0, 0, 0, 0, 0, 0], "stateRewards": ["", 2, 4, 7, 7, -79, -2, -21, -5, -53, 47, -21, 1, -3, -1, 7, 83, 7, 84, -7, 80, -37, 69, 2, -4, 5, 2, 4, -20, -30, 7, 71, 44, -81], "withholdReward": false, "trial_id": "mdp_trial_29", "block": "test", "trialIndex": 30, "score": 9, "costs": 0, "simulationMode": [null, null, null, null, null], "rewards": [2, -4, 5, 2, 4], "path": ["0", "0", "23", "24", "25", "26", "27"], "rt": [2769, 1360, 1045, 805, 363], "actions": ["left", "left", "left", "up", "up"], "actionTimes": [4668, 6566, 8148, 9503, 10407], "queries": {"click": {"state": {"target": [], "time": []}, "edge": {"target": [], "time": []}}, "mouseover": {"state": {"target": [], "time": []}, "edge": {"target": [], "time": []}}, "mouseout": {"state": {"target": ["0", "0", "23", "10", "8", "9", "1"], "time": [557, 578, 586, 626, 649, 674, 1137]}, "edge": {"target": [], "time": []}}}, "displayed_time": "15.91", "trialTime": 17648, "trial_type": "mouselab-mdp", "trial_index": 37, "time_elapsed": 1238855, "internal_node_id": "0.0-4.0-1.0-28.0"}}, {"uniqueid": "w22146322:a76083074", "current_trial": 38, "dateTime": 1691072186856, "trialdata": {"revealed_states": [], "clicked_states": [], "num_clicks_accrued": [0, 0, 0, 0, 0, 0, 0, 0, 0, 0, 0, 0, 0], "stateRewards": ["", -2, -3, 1, -7, 39, -67, 16, 5, -20, 73, 66, -1, 4, 5, -3, 23, -68, -87, -8, 3, -3, 17, 1, -4, -2, -13, -32, 34, 61, -5, -11, -18, 12], "withholdReward": false, "trial_id": "mdp_trial_30", "block": "test", "trialIndex": 31, "score": 17, "costs": 0, "simulationMode": [null, null, null, null, null], "rewards": [-1, 4, 5, -8, 17], "path": ["0", "0", "12", "13", "14", "19", "22"], "rt": [1261, 517, 418, 372, 267], "actions": ["right", "right", "right", "down", "left"], "actionTimes": [4742, 5794, 6758, 7678, 8486], "queries": {"click": {"state": {"target": [], "time": []}, "edge": {"target": [], "time": []}}, "mouseover": {"state": {"target": [], "time": []}, "edge": {"target": [], "time": []}}, "mouseout": {"state": {"target": ["1", "7", "20", "0"], "time": [1932, 1964, 2173, 3038]}, "edge": {"target": [], "time": []}}}, "displayed_time": "17.49", "trialTime": 19175, "trial_type": "mouselab-mdp", "trial_index": 38, "time_elapsed": 1258351, "internal_node_id": "0.0-4.0-1.0-29.0"}}, {"uniqueid": "w22146322:a76083074", "current_trial": 39, "dateTime": 1691072204257, "trialdata": {"revealed_states": [], "clicked_states": [], "num_clicks_accrued": [0, 0, 0, 0, 0, 0, 0, 0, 0, 0, 0, 0, 0], "stateRewards": ["", -1, 4, -6, -5, -22, -38, -38, -2, -56, 88, 14, -1, -1, -7, -6, 61, -60, 21, 11, 57, 31, -30, -2, -2, 6, -9, -44, -70, -44, -15, 34, 16, -78], "withholdReward": false, "trial_id": "mdp_trial_31", "block": "test", "trialIndex": 32, "score": 59, "costs": 0, "simulationMode": [null, null, null, null, null], "rewards": [-1, -1, -7, 11, 57], "path": ["0", "0", "12", "13", "14", "19", "20"], "rt": [4666, 750, 1154, 663, 500], "actions": ["right", "right", "right", "down", "right"], "actionTimes": [6403, 7692, 9393, 10601, 11649], "queries": {"click": {"state": {"target": [], "time": []}, "edge": {"target": [], "time": []}}, "mouseover": {"state": {"target": ["18", "15", "20"], "time": [2656, 2677, 2744]}, "edge": {"target": [], "time": []}}, "mouseout": {"state": {"target": ["0", "32", "27", "11", "10", "1", "18", "15", "20"], "time": [698, 883, 995, 1035, 1075, 1131, 2672, 2700, 2771]}, "edge": {"target": [], "time": []}}}, "displayed_time": "15.76", "trialTime": 17108, "trial_type": "mouselab-mdp", "trial_index": 39, "time_elapsed": 1275753, "internal_node_id": "0.0-4.0-1.0-30.0"}}, {"uniqueid": "w22146322:a76083074", "current_trial": 40, "dateTime": 1691072222508, "trialdata": {"revealed_states": [], "clicked_states": [], "num_clicks_accrued": [0, 0, 0, 0, 0, 0, 0, 0, 0, 0, 0, 0, 0], "stateRewards": ["", -2, -4, -2, 10, -8, -15, -47, 7, -84, 53, 5, -1, 2, -7, 3, 83, 31, 47, -1, 30, -8, 69, 2, -4, -1, 8, -7, 12, -8, -8, -13, 30, -84], "withholdReward": false, "trial_id": "mdp_trial_32", "block": "test", "trialIndex": 33, "score": 80, "costs": 0, "simulationMode": [null, null, null, null, null], "rewards": [-1, 2, -7, 3, 83], "path": ["0", "0", "12", "13", "14", "15", "16"], "rt": [1908, 647, 438, 754, 1941], "actions": ["right", "right", "right", "up", "up"], "actionTimes": [3485, 4672, 5661, 6957, 9441], "queries": {"click": {"state": {"target": [], "time": []}, "edge": {"target": [], "time": []}}, "mouseover": {"state": {"target": [], "time": []}, "edge": {"target": [], "time": []}}, "mouseout": {"state": {"target": ["14", "15", "6", "23"], "time": [588, 599, 820, 1078]}, "edge": {"target": [], "time": []}}}, "displayed_time": "15.59", "trialTime": 17959, "trial_type": "mouselab-mdp", "trial_index": 40, "time_elapsed": 1294004, "internal_node_id": "0.0-4.0-1.0-31.0"}}], "questiondata": {"params": {"CODE": "C6DMOQA6", "MIN_TIME": 14, "inspectCost": 1, "startTime": "Thu Aug 03 2023 14:55:27 GMT+0100 (BST)", "bonusRate": 0.002, "variance": "1_2_4_8_44", "branching": "31123"}}, "eventdata": [{"eventtype": "initialized", "value": null, "timestamp": 1691070927331, "interval": 0}, {"eventtype": "window_resize", "value": [1024, 687], "timestamp": 1691070927331, "interval": 0}, {"eventtype": "window_resize", "value": [1024, 687], "timestamp": 1691070927659, "interval": 328}, {"eventtype": "window_resize", "value": [1280, 800], "timestamp": 1691070931116, "interval": 3457}, {"eventtype": "window_resize", "value": [1024, 687], "timestamp": 1691072365782, "interval": 1434666}, {"eventtype": "focus", "value": "off", "timestamp": 1691072371890, "interval": 6108}, {"eventtype": "focus", "value": "on", "timestamp": 1691072387182, "interval": 15292}, {"eventtype": "focus", "value": "off", "timestamp": 1691072390403, "interval": 3221}, {"eventtype": "focus", "value": "on", "timestamp": 1691072392583, "interval": 2180}, {"eventtype": "focus", "value": "off", "timestamp": 1691072393806, "interval": 1223}, {"eventtype": "focus", "value": "on", "timestamp": 1691072404020, "interval": 10214}, {"eventtype": "focus", "value": "off", "timestamp": 1691072407531, "interval": 3511}, {"eventtype": "focus", "value": "on", "timestamp": 1691072420557, "interval": 13026}, {"eventtype": "focus", "value": "off", "timestamp": 1691072422499, "interval": 1942}, {"eventtype": "focus", "value": "on", "timestamp": 1691072426089, "interval": 3590}, {"eventtype": "focus", "value": "off", "timestamp": 1691072426950, "interval": 861}, {"eventtype": "focus", "value": "on", "timestamp": 1691072434245, "interval": 7295}, {"eventtype": "focus", "value": "off", "timestamp": 1691072435718, "interval": 1473}, {"eventtype": "focus", "value": "on", "timestamp": 1691072487448, "interval": 51730}, {"eventtype": "focus", "value": "off", "timestamp": 1691072497902, "interval": 10454}, {"eventtype": "focus", "value": "on", "timestamp": 1691072528566, "interval": 30664}, {"eventtype": "window_resize", "value": [1280, 800], "timestamp": 1691072529563, "interval": 997}, {"eventtype": "window_resize", "value": [1024, 687], "timestamp": 1691072545028, "interval": 15465}, {"eventtype": "focus", "value": "off", "timestamp": 1691072550770, "interval": 5742}], "useragent": "Mozilla/5.0 (Macintosh; Intel Mac OS X 10_15_7) AppleWebKit/605.1.15 (KHTML, like Gecko) Version/15.6.1 Safari/605.1.15", "mode": "live", "id": "w22146322:a76083074", "status": "user data saved", "Beginhit": "2023-08-03 13:55:26.086154", "Beginexp": "2023-08-03 13:55:32.003002", "Endhit": null, "psiturkStatus": 6, "browser": "<redacted>", "platform": "macos", "language": "en-gb", "excludeReason": "dataincomplete"}