{"condition": 0, "counterbalance": 0, "assignmentId": "a89260990", "workerId": "w36679031", "hitId": "h70683154", "currenttrial": 55, "bonus": 0, "data": [{"uniqueid": "w36679031:a89260990", "current_trial": 0, "dateTime": 1691144744448, "trialdata": {"success": true, "trial_type": "fullscreen", "trial_index": 0, "time_elapsed": 7724, "internal_node_id": "0.0-0.0"}}, {"uniqueid": "w36679031:a89260990", "current_trial": 1, "dateTime": 1691144779825, "trialdata": {"view_history": [{"page_index": 0, "viewing_time": 35345}], "rt": 35347, "trial_id": "exp_instructions_control", "trial_type": "instructions", "trial_index": 1, "time_elapsed": 43103, "internal_node_id": "0.0-1.0"}}, {"uniqueid": "w36679031:a89260990", "current_trial": 2, "dateTime": 1691144786537, "trialdata": {"success": true, "trial_type": "fullscreen", "trial_index": 2, "time_elapsed": 49815, "internal_node_id": "0.0-2.0-0.0"}}, {"uniqueid": "w36679031:a89260990", "current_trial": 3, "dateTime": 1691145190661, "trialdata": {"view_history": [{"page_index": 0, "viewing_time": 140001}, {"page_index": 1, "viewing_time": 130077}, {"page_index": 2, "viewing_time": 56924}, {"page_index": 3, "viewing_time": 77111}], "rt": 404115, "trial_id": "mouselab_instructions_1_control", "trial_type": "instructions", "trial_index": 3, "time_elapsed": 453939, "internal_node_id": "0.0-2.0-1.0"}}, {"uniqueid": "w36679031:a89260990", "current_trial": 4, "dateTime": 1691145286402, "trialdata": {"revealed_states": [], "clicked_states": ["25", "27", "14", "2", "3", "4", "8", "11", "9", "10", "7", "6", "24", "23", "30", "31", "32", "22", "19", "20", "1"], "num_clicks_accrued": [0, 0, 0, 0, 0, 0, 0, 0, 0, 0, 0, 0, 0], "stateRewards": ["", 10, 10, -10, -10, -10, 10, -10, -10, -10, 10, -10, -10, 10, -10, 10, -10, 10, 10, 10, 10, 10, -10, -10, 10, -10, 10, -10, -10, 10, -10, 10, -10, 10], "withholdReward": false, "trial_id": "practice_1", "block": "test", "trialIndex": 0, "score": -17, "costs": -10.5, "simulationMode": [null, null, null, null, null], "rewards": [-10, 10, -10, 10, -10], "path": ["0", "0", "23", "24", "25", "26", "27"], "rt": [59313, 3121, 6099, 1696, 8095], "actions": ["left", "left", "left", "up", "up"], "actionTimes": [61038, 64738, 71388, 73622, 82247], "queries": {"click": {"state": {"target": ["25", "27", "14", "2", "3", "4", "8", "11", "9", "10", "7", "6", "24", "23", "30", "31", "32", "22", "19", "20", "1"], "time": [5974, 8635, 11951, 15244, 18783, 22279, 24732, 26986, 28819, 30310, 32126, 35822, 38407, 42222, 44363, 45653, 46905, 50800, 52595, 54767, 59560]}, "edge": {"target": [], "time": []}}, "mouseover": {"state": {"target": ["23", "24", "25", "25", "28", "27", "28", "17", "15", "14", "13", "1", "2", "3", "4", "3", "8", "8", "11", "9", "8", "10", "7", "6", "6", "7", "1", "23", "24", "24", "23", "30", "31", "32", "22", "22", "22", "19", "20", "14", "13", "12", "1", "1"], "time": [4748, 4928, 5344, 5503, 7921, 8161, 9898, 10409, 10877, 11406, 13291, 14326, 14774, 18041, 21090, 23812, 23861, 24241, 26286, 28146, 29604, 29676, 31702, 34687, 35370, 37108, 37155, 37202, 37637, 38002, 41664, 43800, 45224, 46465, 48646, 48976, 50260, 52079, 54229, 56046, 58600, 58644, 58846, 59218]}, "edge": {"target": [], "time": []}}, "mouseout": {"state": {"target": ["0", "23", "24", "25", "25", "28", "27", "28", "17", "15", "14", "13", "1", "2", "2", "3", "4", "3", "8", "8", "11", "9", "8", "10", "7", "6", "6", "7", "1", "23", "24", "24", "23", "30", "31", "32", "22", "22", "22", "19", "20", "14", "13", "12", "1", "1"], "time": [405, 4905, 4975, 5391, 7804, 7958, 9860, 9938, 10628, 11205, 12154, 13330, 14357, 15440, 17369, 20776, 23773, 23845, 23919, 26206, 28017, 29534, 29643, 31281, 34321, 34936, 37072, 37137, 37181, 37223, 37803, 41571, 43703, 45192, 46164, 48309, 48681, 49168, 52028, 54167, 55974, 58568, 58622, 58660, 58880, 66371]}, "edge": {"target": [], "time": []}}}, "displayed_time": "82.78", "trialTime": 91649, "trial_type": "mouselab-mdp", "trial_index": 4, "time_elapsed": 549679, "internal_node_id": "0.0-2.0-2.0-0.0"}}, {"uniqueid": "w36679031:a89260990", "current_trial": 5, "dateTime": 1691145344046, "trialdata": {"revealed_states": [], "clicked_states": ["13", "12", "14", "21", "26", "6", "8", "2", "1", "10", "11", "27", "4", "7"], "num_clicks_accrued": [0, 0, 0, 0, 0, 0, 0, 0, 0, 0, 0, 0, 0], "stateRewards": ["", -10, -10, -10, -10, -10, -10, -10, 10, 10, 10, 10, 10, -10, -10, -10, 10, -10, 10, -10, 10, 10, 10, -10, 10, 10, -10, -10, -10, 10, 10, 10, 10, -10], "withholdReward": false, "trial_id": "practice_2", "block": "test", "trialIndex": 1, "score": -13.5, "costs": -7, "simulationMode": [null, null, null, null, null], "rewards": [-10, -10, -10, 10, 10], "path": ["0", "0", "1", "2", "3", "8", "11"], "rt": [40843, 304, 700, 1355, 399], "actions": ["up", "up", "up", "left", "left"], "actionTimes": [44550, 45420, 46656, 48560, 49496], "queries": {"click": {"state": {"target": ["13", "12", "14", "21", "26", "6", "8", "2", "1", "10", "11", "27", "4", "7"], "time": [7932, 9403, 11962, 14658, 16986, 19557, 22201, 24713, 28771, 30832, 33014, 35715, 40937, 42820]}, "edge": {"target": [], "time": []}}, "mouseover": {"state": {"target": ["0", "23", "23", "23", "12", "13", "13", "12", "14", "13", "19", "21", "21", "26", "3", "4", "6", "4", "3", "8", "3", "4", "7", "2", "1", "10", "10", "11", "11", "9", "27", "26", "24", "23", "1", "7", "4", "7"], "time": [3856, 4891, 5208, 5661, 6491, 6975, 7391, 8737, 10092, 12954, 13825, 13867, 14214, 16207, 18022, 18150, 19109, 20879, 21087, 21523, 23430, 23568, 23668, 23901, 27290, 29936, 30337, 31648, 31993, 33998, 35254, 36564, 37204, 37282, 38572, 39877, 40386, 42308]}, "edge": {"target": [], "time": []}}, "mouseout": {"state": {"target": ["24", "23", "0", "23", "23", "23", "12", "13", "13", "12", "14", "13", "19", "21", "21", "26", "3", "4", "6", "4", "3", "8", "3", "4", "7", "2", "1", "10", "10", "11", "11", "9", "27", "26", "24", "23", "1", "7", "4"], "time": [2224, 2302, 4877, 4922, 5240, 6008, 6608, 7044, 8703, 9609, 12849, 13790, 13843, 13906, 15431, 17834, 18083, 18690, 20839, 21002, 21424, 23395, 23468, 23604, 23690, 27172, 29894, 29964, 31615, 31685, 33656, 34076, 36414, 36664, 37248, 38135, 39719, 40015, 42269]}, "edge": {"target": [], "time": []}}}, "displayed_time": "50.07", "trialTime": 56161, "trial_type": "mouselab-mdp", "trial_index": 5, "time_elapsed": 607323, "internal_node_id": "0.0-2.0-2.0-1.0"}}, {"uniqueid": "w36679031:a89260990", "current_trial": 6, "dateTime": 1691145424858, "trialdata": {"view_history": [{"page_index": 0, "viewing_time": 60398}, {"page_index": 1, "viewing_time": 20401}], "rt": 80800, "trial_id": "mouselab_instructions_2_control", "trial_type": "instructions", "trial_index": 6, "time_elapsed": 688136, "internal_node_id": "0.0-2.0-3.0"}}, {"uniqueid": "w36679031:a89260990", "current_trial": 7, "dateTime": 1691145490516, "trialdata": {"rt": 65641, "response": {"Q0": "The cost for clicking on nodes may vary between nodes.", "Q1": "The better I perform the higher my bonus will be.", "Q2": "No, the amount of cash at each node of the web may be different each time.", "Q3": "To get the highest total score.", "Q4": "Only before moving the spider.", "Q5": "3 seconds"}, "question_order": [0, 1, 2, 3, 4, 5], "correct": {"Q0": "The cost for clicking on nodes may vary between nodes.", "Q1": "The better I perform the higher my bonus will be.", "Q2": "No, the amount of cash at each node of the web may be different each time.", "Q3": "To get the highest total score.", "Q4": "Only before moving the spider.", "Q5": "3 seconds"}, "trial_id": "mouselab_quiz_control", "trial_type": "survey-multi-choice", "trial_index": 7, "time_elapsed": 753794, "internal_node_id": "0.0-2.0-4.0"}}, {"uniqueid": "w36679031:a89260990", "current_trial": 8, "dateTime": 1691145520702, "trialdata": {"rt": 30157, "stimulus": "\n<h1> Get ready to start the game! </h1>\n\nThank you for reading the instructions. Get ready start with the 40 rounds of this game.\n<br><br>\nIf you need to take a break, feel free to take one after the end of a round, before continuing to the next one.\n<br><br>\nRemember, the more money the spider gets, the bigger your bonus will be!\n<br><br>\n<div style='text-align: center;'>Press <code>space</code> to begin.</div>\n\n<br><br>\n(If, at any point, the <code>space</code> key does not take you to the next page, click once on the text and try again.)", "response": " ", "trial_id": "mdp_ready", "trial_type": "html-keyboard-response", "trial_index": 8, "time_elapsed": 783980, "internal_node_id": "0.0-4.0-0.0"}}, {"uniqueid": "w36679031:a89260990", "current_trial": 9, "dateTime": 1691145562314, "trialdata": {"revealed_states": [], "clicked_states": ["23", "25", "2", "4", "7", "13", "19", "24", "31", "30", "29"], "num_clicks_accrued": [0, 0, 0, 0, 0, 0, 0, 0, 0, 0, 0, 0, 0], "stateRewards": ["", 2, -4, 1, -12, -59, -53, -74, 16, -88, -66, 66, 1, -2, 8, -9, -14, 22, 25, -1, -39, 47, -14, -1, -1, -2, 1, -4, 52, -26, 15, -7, 46, 43], "withholdReward": false, "trial_id": "mdp_trial_1", "block": "test", "trialIndex": 2, "score": 41.599999999999994, "costs": -15.400000000000002, "simulationMode": [null, null, null, null, null], "rewards": [-1, -1, -2, 15, 46], "path": ["0", "0", "23", "24", "25", "30", "32"], "rt": [25423, 199, 269, 548, 2744], "actions": ["left", "left", "left", "down", "down"], "actionTimes": [29152, 29903, 30711, 31820, 35094], "queries": {"click": {"state": {"target": ["23", "25", "2", "4", "7", "13", "19", "24", "31", "30", "29"], "time": [5608, 8652, 10619, 12222, 14401, 16312, 18360, 20295, 21950, 23537, 26118]}, "edge": {"target": [], "time": []}}, "mouseover": {"state": {"target": ["23", "24", "25", "25", "28", "2", "4", "7", "13", "13", "19", "22", "23", "24", "31", "30", "29", "26", "23"], "time": [4889, 6098, 6582, 8259, 9671, 10071, 11771, 13410, 15406, 15781, 17193, 19252, 19440, 19758, 21190, 22920, 25639, 27446, 27968]}, "edge": {"target": [], "time": []}}, "mouseout": {"state": {"target": ["0", "23", "24", "25", "25", "28", "2", "4", "4", "7", "13", "13", "19", "22", "23", "24", "31", "30", "29", "26"], "time": [1973, 5792, 6576, 7893, 8852, 9713, 11413, 12411, 13268, 15009, 15492, 17123, 19218, 19322, 19513, 21153, 22855, 25200, 27413, 27524]}, "edge": {"target": [], "time": []}}}, "displayed_time": "35.63", "trialTime": 40159, "trial_type": "mouselab-mdp", "trial_index": 9, "time_elapsed": 825590, "internal_node_id": "0.0-4.0-1.0-0.0"}}, {"uniqueid": "w36679031:a89260990", "current_trial": 10, "dateTime": 1691145584699, "trialdata": {"revealed_states": [], "clicked_states": ["24", "26", "28", "30"], "num_clicks_accrued": [0, 0, 0, 0, 0, 0, 0, 0, 0, 0, 0, 0, 0], "stateRewards": ["", 2, 4, 4, 9, -88, -10, 44, 16, -54, 64, 78, 1, 2, 5, 16, 80, 36, 7, -4, 9, -47, -70, -1, -3, 6, -16, 11, 80, 28, 8, -1, 34, -17], "withholdReward": false, "trial_id": "mdp_trial_2", "block": "test", "trialIndex": 3, "score": 60.4, "costs": -5.6, "simulationMode": [null, null, null, null, null], "rewards": [-1, -3, 6, -16, 80], "path": ["0", "0", "23", "24", "25", "26", "28"], "rt": [10563, 182, 245, 646, 171], "actions": ["left", "left", "left", "up", "right"], "actionTimes": [14474, 15197, 15996, 17196, 17921], "queries": {"click": {"state": {"target": ["24", "26", "28", "30"], "time": [6448, 8782, 10440, 12476]}, "edge": {"target": [], "time": []}}, "mouseover": {"state": {"target": ["23", "23", "24", "26", "28", "25", "30", "31"], "time": [4949, 5849, 5898, 7374, 10009, 11179, 11429, 13658]}, "edge": {"target": [], "time": []}}, "mouseout": {"state": {"target": ["23", "0", "23", "23", "24", "26", "28", "25", "30", "31"], "time": [37, 1729, 5516, 5879, 7227, 9845, 11037, 11322, 13625, 13696]}, "edge": {"target": [], "time": []}}}, "displayed_time": "18.48", "trialTime": 20692, "trial_type": "mouselab-mdp", "trial_index": 10, "time_elapsed": 847975, "internal_node_id": "0.0-4.0-1.0-1.0"}}, {"uniqueid": "w36679031:a89260990", "current_trial": 11, "dateTime": 1691145607383, "trialdata": {"revealed_states": [], "clicked_states": ["29"], "num_clicks_accrued": [0, 0, 0, 0, 0, 0, 0, 0, 0, 0, 0, 0, 0], "stateRewards": ["", -1, -3, -7, -4, -85, -70, 79, 8, 84, -66, 42, 2, -2, -3, -16, -54, -66, 68, -3, 21, -14, 7, -2, -1, -3, -8, 75, 80, 86, -7, -84, 73, -16], "withholdReward": false, "trial_id": "mdp_trial_3", "block": "test", "trialIndex": 4, "score": 70.6, "costs": -1.4, "simulationMode": [null, null, null, null, null], "rewards": [-2, -1, -3, -8, 86], "path": ["0", "0", "23", "24", "25", "26", "29"], "rt": [5640, 139, 175, 553, 570], "actions": ["left", "left", "left", "up", "left"], "actionTimes": [8703, 9403, 10130, 11209, 12341], "queries": {"click": {"state": {"target": ["29"], "time": [4571]}, "edge": {"target": [], "time": []}}, "mouseover": {"state": {"target": ["23", "26", "29", "33", "30", "23", "0", "12"], "time": [3897, 3992, 4078, 5489, 7827, 7882, 7940, 8248]}, "edge": {"target": [], "time": []}}, "mouseout": {"state": {"target": ["0", "23", "26", "29", "33", "30", "23", "0", "12"], "time": [1362, 3939, 4029, 5438, 7788, 7858, 7914, 7980, 8311]}, "edge": {"target": [], "time": []}}}, "displayed_time": "17.06", "trialTime": 21094, "trial_type": "mouselab-mdp", "trial_index": 11, "time_elapsed": 870659, "internal_node_id": "0.0-4.0-1.0-2.0"}}, {"uniqueid": "w36679031:a89260990", "current_trial": 12, "dateTime": 1691145633940, "trialdata": {"revealed_states": [], "clicked_states": ["29", "28", "25", "33", "32", "31"], "num_clicks_accrued": [0, 0, 0, 0, 0, 0, 0, 0, 0, 0, 0, 0, 0], "stateRewards": ["", -1, -2, -1, -10, -57, 73, -72, -16, 75, -14, -46, -2, -3, -7, -1, -61, -60, 76, -4, 50, 4, 14, 2, 2, -7, 12, -65, -32, 15, -8, -76, -25, -61], "withholdReward": false, "trial_id": "mdp_trial_4", "block": "test", "trialIndex": 5, "score": 15.6, "costs": -8.4, "simulationMode": [null, null, null, null, null], "rewards": [2, 2, -7, 12, 15], "path": ["0", "0", "23", "24", "25", "26", "29"], "rt": [14280, 152, 134, 406, 255], "actions": ["left", "left", "left", "up", "left"], "actionTimes": [18062, 18771, 19458, 20413, 21204], "queries": {"click": {"state": {"target": ["29", "28", "25", "33", "32", "31"], "time": [5752, 7442, 9844, 11770, 13908, 16104]}, "edge": {"target": [], "time": []}}, "mouseover": {"state": {"target": ["23", "24", "25", "29", "26", "28", "25", "30", "33", "30", "32", "31"], "time": [4830, 4914, 5010, 5279, 6847, 6952, 9227, 11091, 11259, 13159, 13427, 15386]}, "edge": {"target": [], "time": []}}, "mouseout": {"state": {"target": ["12", "0", "23", "24", "25", "29", "26", "28", "25", "30", "33", "33", "30", "32"], "time": [1666, 1699, 4880, 5001, 5065, 5951, 6918, 9100, 11052, 11251, 11966, 13049, 13232, 14108]}, "edge": {"target": [], "time": []}}}, "displayed_time": "21.75", "trialTime": 24774, "trial_type": "mouselab-mdp", "trial_index": 12, "time_elapsed": 897216, "internal_node_id": "0.0-4.0-1.0-3.0"}}, {"uniqueid": "w36679031:a89260990", "current_trial": 13, "dateTime": 1691145679245, "trialdata": {"revealed_states": [], "clicked_states": ["6", "2", "11", "26", "25", "31", "32", "19", "20", "21", "22", "15"], "num_clicks_accrued": [0, 0, 0, 0, 0, 0, 0, 0, 0, 0, 0, 0, 0], "stateRewards": ["", 2, 3, -1, 6, 44, -4, -59, -14, -3, 64, 16, 1, -3, 3, 6, 3, 49, 19, 3, -49, -14, -86, 1, 2, -3, -8, -33, 14, 32, -13, -77, -47, -67], "withholdReward": false, "trial_id": "mdp_trial_5", "block": "test", "trialIndex": 6, "score": -6.800000000000001, "costs": -16.8, "simulationMode": [null, null, null, null, null], "rewards": [1, -3, 3, 6, 3], "path": ["0", "0", "12", "13", "14", "15", "16"], "rt": [31801, 153, 153, 294, 2333], "actions": ["right", "right", "right", "up", "up"], "actionTimes": [35089, 35795, 36486, 37321, 40193], "queries": {"click": {"state": {"target": ["6", "2", "11", "26", "25", "31", "32", "19", "20", "21", "22", "15"], "time": [5505, 8266, 10144, 12995, 15398, 18059, 20003, 22119, 24458, 26584, 28791, 31255]}, "edge": {"target": [], "time": []}}, "mouseover": {"state": {"target": ["1", "6", "7", "2", "10", "11", "26", "26", "25", "30", "31", "32", "22", "19", "20", "21", "22", "13", "15", "18", "1", "24"], "time": [4684, 4829, 7179, 7768, 9455, 9664, 12099, 12484, 14778, 17260, 17477, 19236, 20899, 21694, 23811, 25973, 28066, 30215, 30398, 33529, 34327, 34423]}, "edge": {"target": [], "time": []}}, "mouseout": {"state": {"target": ["31", "12", "1", "6", "7", "2", "10", "11", "26", "26", "25", "30", "31", "32", "22", "19", "20", "21", "22", "13", "15", "15", "18", "1"], "time": [1132, 1481, 4715, 6773, 7346, 9445, 9488, 11711, 12161, 14728, 17001, 17314, 19159, 20209, 21107, 23498, 25584, 27830, 30144, 30296, 32669, 33109, 33579, 34357]}, "edge": {"target": [], "time": []}}}, "displayed_time": "40.74", "trialTime": 43454, "trial_type": "mouselab-mdp", "trial_index": 13, "time_elapsed": 942522, "internal_node_id": "0.0-4.0-1.0-4.0"}}, {"uniqueid": "w36679031:a89260990", "current_trial": 14, "dateTime": 1691145705442, "trialdata": {"revealed_states": [], "clicked_states": ["8", "10", "5"], "num_clicks_accrued": [0, 0, 0, 0, 0, 0, 0, 0, 0, 0, 0, 0, 0], "stateRewards": ["", 1, 2, 3, 16, 63, -25, 16, -4, -14, 82, -66, -1, -3, -3, -11, -14, 19, 46, 3, -34, -82, 66, -2, -3, 4, -5, -63, 77, -37, -1, -45, -41, 84], "withholdReward": false, "trial_id": "mdp_trial_6", "block": "test", "trialIndex": 7, "score": 79.8, "costs": -4.199999999999999, "simulationMode": [null, null, null, null, null], "rewards": [1, 2, 3, -4, 82], "path": ["0", "0", "1", "2", "3", "8", "10"], "rt": [7916, 3, 245, 450, 243], "actions": ["up", "up", "up", "left", "down"], "actionTimes": [10958, 11496, 12296, 13288, 14053], "queries": {"click": {"state": {"target": ["8", "10", "5"], "time": [4959, 7124, 8835]}, "edge": {"target": [], "time": []}}, "mouseover": {"state": {"target": ["1", "2", "3", "8", "10", "3", "5"], "time": [3838, 3932, 4309, 4391, 6283, 8007, 8297]}, "edge": {"target": [], "time": []}}, "mouseout": {"state": {"target": ["24", "23", "12", "1", "2", "3", "8", "8", "10", "3", "5", "4", "2", "1", "2", "3", "8", "10"], "time": [1046, 1084, 1381, 3878, 4260, 4340, 5166, 6211, 7967, 8047, 17315, 18831, 18909, 20079, 20647, 21063, 21381, 21443]}, "edge": {"target": [], "time": []}}}, "displayed_time": "17.05", "trialTime": 24325, "trial_type": "mouselab-mdp", "trial_index": 14, "time_elapsed": 968719, "internal_node_id": "0.0-4.0-1.0-5.0"}}, {"uniqueid": "w36679031:a89260990", "current_trial": 15, "dateTime": 1691145731067, "trialdata": {"revealed_states": [], "clicked_states": ["14", "17", "16", "18"], "num_clicks_accrued": [0, 0, 0, 0, 0, 0, 0, 0, 0, 0, 0, 0, 0], "stateRewards": ["", -1, 2, 7, 8, 75, 67, -11, 6, 52, -17, 38, -1, 4, -8, 14, 74, -37, -17, -12, 52, 55, 71, -2, -1, -5, 2, 21, 6, -88, -14, 64, -61, -47], "withholdReward": false, "trial_id": "mdp_trial_7", "block": "test", "trialIndex": 8, "score": 77.4, "costs": -5.6, "simulationMode": [null, null, null, null, null, null], "rewards": [-1, 4, -8, 14, 74], "path": ["0", "0", "12", "13", "14", "15", "16"], "rt": [10608, 1580, 222, 232, 650, 190], "actions": ["right", "right", "right", "right", "up", "up"], "actionTimes": [15288, 16876, 17668, 18426, 19631, 20372], "queries": {"click": {"state": {"target": ["14", "17", "16", "18"], "time": [7041, 9599, 11724, 13842]}, "edge": {"target": [], "time": []}}, "mouseover": {"state": {"target": ["12", "14", "17", "16", "18"], "time": [6140, 6531, 9122, 10718, 13002]}, "edge": {"target": [], "time": []}}, "mouseout": {"state": {"target": ["1", "12", "14", "17", "16"], "time": [2804, 6180, 8772, 10640, 12764]}, "edge": {"target": [], "time": []}}}, "displayed_time": "20.91", "trialTime": 23397, "trial_type": "mouselab-mdp", "trial_index": 15, "time_elapsed": 994344, "internal_node_id": "0.0-4.0-1.0-6.0"}}, {"uniqueid": "w36679031:a89260990", "current_trial": 16, "dateTime": 1691145751154, "trialdata": {"revealed_states": [], "clicked_states": ["3", "4", "6"], "num_clicks_accrued": [0, 0, 0, 0, 0, 0, 0, 0, 0, 0, 0, 0, 0], "stateRewards": ["", -1, 1, -6, -1, 80, 23, 2, -11, 73, -81, 59, 1, 3, 5, -1, -26, 28, -3, 16, -59, -13, -50, -2, -2, 2, 15, -50, 86, 17, -4, 37, 35, 44], "withholdReward": false, "trial_id": "mdp_trial_8", "block": "test", "trialIndex": 9, "score": 11.8, "costs": -4.199999999999999, "simulationMode": [null, null, null, null, null], "rewards": [-1, 1, -6, -1, 23], "path": ["0", "0", "1", "2", "3", "4", "6"], "rt": [10437, 867, 184, 303, 60], "actions": ["up", "up", "up", "right", "right"], "actionTimes": [13147, 14568, 15286, 16130, 16743], "queries": {"click": {"state": {"target": ["3", "4", "6"], "time": [4416, 6522, 9255]}, "edge": {"target": [], "time": []}}, "mouseover": {"state": {"target": ["1", "2", "3", "4", "6", "5", "8"], "time": [3759, 3818, 3922, 5614, 7699, 11275, 12154]}, "edge": {"target": [], "time": []}}, "mouseout": {"state": {"target": ["18", "12", "0", "0", "1", "2", "3", "4", "6", "5"], "time": [743, 777, 837, 3717, 3798, 3883, 4611, 7690, 11155, 11309]}, "edge": {"target": [], "time": []}}}, "displayed_time": "17.29", "trialTime": 18096, "trial_type": "mouselab-mdp", "trial_index": 16, "time_elapsed": 1014430, "internal_node_id": "0.0-4.0-1.0-7.0"}}, {"uniqueid": "w36679031:a89260990", "current_trial": 17, "dateTime": 1691145773450, "trialdata": {"revealed_states": [], "clicked_states": ["11", "26"], "num_clicks_accrued": [0, 0, 0, 0, 0, 0, 0, 0, 0, 0, 0, 0, 0], "stateRewards": ["", 2, -3, -2, 14, -4, 85, 46, 15, -28, 41, 31, -1, -1, -1, 5, 62, 79, 57, 12, -73, -64, 86, -1, 1, -3, -5, 68, 11, -32, 8, -80, -21, -56], "withholdReward": false, "trial_id": "mdp_trial_9", "block": "test", "trialIndex": 10, "score": 40.2, "costs": -2.8, "simulationMode": [null, null, null, null, null], "rewards": [2, -3, -2, 15, 31], "path": ["0", "0", "1", "2", "3", "8", "11"], "rt": [5750, 41, 4, 359, 5], "actions": ["up", "up", "up", "left", "left"], "actionTimes": [9408, 9976, 10573, 11480, 12018], "queries": {"click": {"state": {"target": ["11", "26"], "time": [5862, 7492]}, "edge": {"target": [], "time": []}}, "mouseover": {"state": {"target": ["10", "11", "26"], "time": [4780, 5453, 6849]}, "edge": {"target": [], "time": []}}, "mouseout": {"state": {"target": ["8", "1", "0", "10", "11", "26", "3", "7"], "time": [1842, 2208, 4710, 4822, 6738, 13793, 13926, 14159]}, "edge": {"target": [], "time": []}}}, "displayed_time": "17.66", "trialTime": 20284, "trial_type": "mouselab-mdp", "trial_index": 17, "time_elapsed": 1036727, "internal_node_id": "0.0-4.0-1.0-8.0"}}, {"uniqueid": "w36679031:a89260990", "current_trial": 18, "dateTime": 1691145795577, "trialdata": {"revealed_states": [], "clicked_states": ["14", "17", "19"], "num_clicks_accrued": [0, 0, 0, 0, 0, 0, 0, 0, 0, 0, 0, 0, 0], "stateRewards": ["", -1, -4, -6, -15, 21, -67, -63, 9, 51, 69, -14, -1, 3, 8, -8, 39, 72, 63, 15, 19, 47, 15, 1, 4, 5, 16, -18, 34, 35, -14, -80, 40, 1], "withholdReward": false, "trial_id": "mdp_trial_10", "block": "test", "trialIndex": 11, "score": 69.8, "costs": -4.199999999999999, "simulationMode": [null, null, null, null, null], "rewards": [-1, 3, 8, -8, 72], "path": ["0", "0", "12", "13", "14", "15", "17"], "rt": [8519, 1739, 826, 193, 247], "actions": ["right", "right", "right", "up", "right"], "actionTimes": [11242, 13573, 15042, 15788, 16578], "queries": {"click": {"state": {"target": ["14", "17", "19"], "time": [4556, 7950, 9700]}, "edge": {"target": [], "time": []}}, "mouseover": {"state": {"target": ["12", "13", "14", "17", "19"], "time": [3700, 3785, 3843, 5334, 9021]}, "edge": {"target": [], "time": []}}, "mouseout": {"state": {"target": ["12", "13", "14", "17"], "time": [3743, 3831, 5294, 8852]}, "edge": {"target": [], "time": []}}}, "displayed_time": "17.16", "trialTime": 20021, "trial_type": "mouselab-mdp", "trial_index": 18, "time_elapsed": 1058853, "internal_node_id": "0.0-4.0-1.0-9.0"}}, {"uniqueid": "w36679031:a89260990", "current_trial": 19, "dateTime": 1691145816178, "trialdata": {"revealed_states": [], "clicked_states": ["3", "11", "6"], "num_clicks_accrued": [0, 0, 0, 0, 0, 0, 0, 0, 0, 0, 0, 0, 0], "stateRewards": ["", -1, -4, -3, 1, -45, -67, -24, 14, 32, 22, 22, -1, 1, -5, -7, 72, 84, -79, -5, 19, -40, -2, -1, -2, 8, -3, 84, -25, -28, 11, 64, -66, 77], "withholdReward": false, "trial_id": "mdp_trial_11", "block": "test", "trialIndex": 12, "score": 23.8, "costs": -4.199999999999999, "simulationMode": [null, null, null, null, null], "rewards": [-1, -4, -3, 14, 22], "path": ["0", "0", "1", "2", "3", "8", "11"], "rt": [9561, 54, 30, 114, 79], "actions": ["up", "up", "up", "left", "left"], "actionTimes": [12667, 13288, 13905, 14601, 15208], "queries": {"click": {"state": {"target": ["3", "11", "6"], "time": [4658, 6688, 9311]}, "edge": {"target": [], "time": []}}, "mouseover": {"state": {"target": ["1", "2", "3", "11", "8", "4", "6", "7"], "time": [4048, 4111, 4168, 6004, 8021, 8230, 8695, 11762]}, "edge": {"target": [], "time": []}}, "mouseout": {"state": {"target": ["19", "0", "1", "2", "3", "3", "11", "11", "8", "4", "6"], "time": [1191, 4010, 4082, 4157, 4852, 5876, 6900, 8012, 8058, 8311, 11715]}, "edge": {"target": [], "time": []}}}, "displayed_time": "17.11", "trialTime": 18751, "trial_type": "mouselab-mdp", "trial_index": 19, "time_elapsed": 1079454, "internal_node_id": "0.0-4.0-1.0-10.0"}}, {"uniqueid": "w36679031:a89260990", "current_trial": 20, "dateTime": 1691145839783, "trialdata": {"revealed_states": [], "clicked_states": ["26", "29", "30"], "num_clicks_accrued": [0, 0, 0, 0, 0, 0, 0, 0, 0, 0, 0, 0, 0], "stateRewards": ["", 2, -1, 4, -9, -43, 7, 54, -13, 38, -40, -83, -1, 2, -8, -10, 34, -33, 11, -14, -79, 65, 26, 1, 2, 4, 10, 21, 1, 86, 4, -53, 28, -29], "withholdReward": false, "trial_id": "mdp_trial_12", "block": "test", "trialIndex": 13, "score": 98.8, "costs": -4.199999999999999, "simulationMode": [null, null, null, null, null, null], "rewards": [1, 2, 4, 10, 86], "path": ["0", "0", "23", "24", "25", "26", "29"], "rt": [8183, 2267, 279, 316, 312, 167], "actions": ["left", "left", "left", "left", "up", "left"], "actionTimes": [11850, 14130, 14940, 15777, 16650, 17373], "queries": {"click": {"state": {"target": ["26", "29", "30"], "time": [5656, 8252, 10495]}, "edge": {"target": [], "time": []}}, "mouseover": {"state": {"target": ["28", "26", "29", "30"], "time": [4855, 4963, 6908, 9982]}, "edge": {"target": [], "time": []}}, "mouseout": {"state": {"target": ["7", "1", "28", "26", "29", "30", "32"], "time": [1206, 1503, 4908, 6870, 9579, 19878, 19938]}, "edge": {"target": [], "time": []}}}, "displayed_time": "17.90", "trialTime": 21167, "trial_type": "mouselab-mdp", "trial_index": 20, "time_elapsed": 1103060, "internal_node_id": "0.0-4.0-1.0-11.0"}}, {"uniqueid": "w36679031:a89260990", "current_trial": 21, "dateTime": 1691145863205, "trialdata": {"revealed_states": [], "clicked_states": ["8", "29"], "num_clicks_accrued": [0, 0, 0, 0, 0, 0, 0, 0, 0, 0, 0, 0, 0], "stateRewards": ["", -1, 2, -6, 6, 43, 78, 78, -2, 55, -29, -17, -2, -4, 1, -15, 13, 7, -79, 8, -28, -68, 36, -1, -3, 3, -16, 84, -18, 87, 10, 32, 13, -81], "withholdReward": false, "trial_id": "mdp_trial_13", "block": "test", "trialIndex": 14, "score": 67.2, "costs": -2.8, "simulationMode": [null, null, null, null, null], "rewards": [-1, -3, 3, -16, 87], "path": ["0", "0", "23", "24", "25", "26", "29"], "rt": [7551, 263, 1688, 120, 236], "actions": ["left", "left", "left", "up", "left"], "actionTimes": [10944, 11785, 14015, 16320, 17162], "queries": {"click": {"state": {"target": ["8", "29"], "time": [5985, 8127]}, "edge": {"target": [], "time": []}}, "mouseover": {"state": {"target": ["1", "2", "3", "8", "26", "29", "24"], "time": [4627, 4726, 4986, 5578, 7215, 7708, 9809]}, "edge": {"target": [], "time": []}}, "mouseout": {"state": {"target": ["0", "1", "2", "3", "8", "26", "29", "24", "31"], "time": [4584, 4680, 4807, 5332, 7026, 7411, 9168, 20915, 20954]}, "edge": {"target": [], "time": []}}}, "displayed_time": "18.41", "trialTime": 21606, "trial_type": "mouselab-mdp", "trial_index": 21, "time_elapsed": 1126482, "internal_node_id": "0.0-4.0-1.0-12.0"}}, {"uniqueid": "w36679031:a89260990", "current_trial": 22, "dateTime": 1691145888266, "trialdata": {"revealed_states": [], "clicked_states": [], "num_clicks_accrued": [0, 0, 0, 0, 0, 0, 0, 0, 0, 0, 0, 0, 0], "stateRewards": ["", -2, 1, 6, -2, -10, -78, -69, 14, -15, 7, -1, 1, -1, -2, 13, 77, 32, 87, 5, -74, 30, -26, 1, 3, 4, 12, 39, 54, -43, 2, 10, 23, 13], "withholdReward": false, "trial_id": "mdp_trial_14", "block": "test", "trialIndex": 15, "score": -23, "costs": 0, "simulationMode": [null, null, null, null, null], "rewards": [1, 3, 4, 12, -43], "path": ["0", "0", "23", "24", "25", "26", "29"], "rt": [9030, 10, 63, 274, 499], "actions": ["left", "left", "left", "up", "left"], "actionTimes": [15590, 16137, 16738, 17569, 18628], "queries": {"click": {"state": {"target": [], "time": []}, "edge": {"target": [], "time": []}}, "mouseover": {"state": {"target": ["23", "25"], "time": [12244, 12730]}, "edge": {"target": [], "time": []}}, "mouseout": {"state": {"target": ["32", "0", "23"], "time": [4006, 4630, 12366]}, "edge": {"target": [], "time": []}}}, "displayed_time": "20.56", "trialTime": 22885, "trial_type": "mouselab-mdp", "trial_index": 22, "time_elapsed": 1151543, "internal_node_id": "0.0-4.0-1.0-13.0"}}, {"uniqueid": "w36679031:a89260990", "current_trial": 23, "dateTime": 1691145909702, "trialdata": {"revealed_states": [], "clicked_states": ["4", "7", "11", "1"], "num_clicks_accrued": [0, 0, 0, 0, 0, 0, 0, 0, 0, 0, 0, 0, 0], "stateRewards": ["", 1, 1, -5, 8, -6, 45, 16, -6, -7, -22, -38, -1, -4, 8, -11, -16, 21, -45, -15, -59, -32, 42, -1, 3, 6, 11, -7, 34, -27, -8, 85, 43, -9], "withholdReward": false, "trial_id": "mdp_trial_15", "block": "test", "trialIndex": 16, "score": 15.4, "costs": -5.6, "simulationMode": [null, null, null, null, null], "rewards": [1, 1, -5, 8, 16], "path": ["0", "0", "1", "2", "3", "4", "7"], "rt": [9846, 152, 140, 95, 108], "actions": ["up", "up", "up", "right", "down"], "actionTimes": [12724, 13405, 14095, 14737, 15406], "queries": {"click": {"state": {"target": ["4", "7", "11", "1"], "time": [4385, 6011, 7886, 10571]}, "edge": {"target": [], "time": []}}, "mouseover": {"state": {"target": ["1", "4", "7", "2", "11", "10", "2", "1"], "time": [3691, 3823, 5430, 6941, 7423, 9704, 9852, 10123]}, "edge": {"target": [], "time": []}}, "mouseout": {"state": {"target": ["25", "24", "23", "1", "4", "4", "7", "2", "11", "10", "2", "1"], "time": [1127, 1169, 1249, 3741, 4580, 5390, 6931, 6988, 9533, 9821, 9875, 10772]}, "edge": {"target": [], "time": []}}}, "displayed_time": "16.89", "trialTime": 18636, "trial_type": "mouselab-mdp", "trial_index": 23, "time_elapsed": 1172979, "internal_node_id": "0.0-4.0-1.0-14.0"}}, {"uniqueid": "w36679031:a89260990", "current_trial": 24, "dateTime": 1691145935047, "trialdata": {"revealed_states": [], "clicked_states": ["19", "20", "17", "18", "16"], "num_clicks_accrued": [0, 0, 0, 0, 0, 0, 0, 0, 0, 0, 0, 0, 0], "stateRewards": ["", -2, -3, 1, -7, 39, -67, 16, 5, -20, 73, 66, -1, 4, 5, -3, 23, -68, -87, -8, 3, -3, 17, 1, -4, -2, -13, -32, 34, 61, -5, -11, -18, 12], "withholdReward": false, "trial_id": "mdp_trial_16", "block": "test", "trialIndex": 17, "score": 21, "costs": -7, "simulationMode": [null, null, null, null, null], "rewards": [-1, 4, 5, -3, 23], "path": ["0", "0", "12", "13", "14", "15", "16"], "rt": [15397, 8, 283, 125, 117], "actions": ["right", "right", "right", "up", "up"], "actionTimes": [18937, 19495, 20348, 21008, 21667], "queries": {"click": {"state": {"target": ["19", "20", "17", "18", "16"], "time": [5669, 8192, 10547, 13657, 16015]}, "edge": {"target": [], "time": []}}, "mouseover": {"state": {"target": ["12", "13", "14", "19", "21", "20", "17", "18", "16", "15"], "time": [4560, 4631, 4832, 5273, 6660, 7656, 9669, 13205, 14975, 17851]}, "edge": {"target": [], "time": []}}, "mouseout": {"state": {"target": ["1", "23", "0", "12", "13", "14", "19", "21", "20", "17", "18", "16", "15", "18"], "time": [1307, 1371, 2106, 4600, 4687, 4869, 6589, 7575, 9271, 12574, 13841, 17736, 17969, 18083]}, "edge": {"target": [], "time": []}}}, "displayed_time": "22.21", "trialTime": 23135, "trial_type": "mouselab-mdp", "trial_index": 24, "time_elapsed": 1198324, "internal_node_id": "0.0-4.0-1.0-15.0"}}, {"uniqueid": "w36679031:a89260990", "current_trial": 25, "dateTime": 1691145955534, "trialdata": {"revealed_states": [], "clicked_states": ["3", "6", "7"], "num_clicks_accrued": [0, 0, 0, 0, 0, 0, 0, 0, 0, 0, 0, 0, 0], "stateRewards": ["", 2, 4, -3, 16, -58, 30, -35, 11, -60, 47, 27, -2, -1, -7, -16, 23, -70, 68, -10, -65, -43, -34, -2, 1, 7, 9, -63, 34, -31, -8, -12, -86, 59], "withholdReward": false, "trial_id": "mdp_trial_17", "block": "test", "trialIndex": 18, "score": 44.8, "costs": -4.199999999999999, "simulationMode": [null, null, null, null, null, null], "rewards": [2, 4, -3, 16, 30], "path": ["0", "0", "1", "2", "3", "4", "6"], "rt": [8238, 1025, 406, 170, 40, 153], "actions": ["up", "up", "up", "up", "right", "right"], "actionTimes": [11431, 12464, 13406, 14109, 14718, 15438], "queries": {"click": {"state": {"target": ["3", "6", "7"], "time": [4948, 7774, 9920]}, "edge": {"target": [], "time": []}}, "mouseover": {"state": {"target": ["1", "2", "3", "4", "6", "7"], "time": [4091, 4140, 4195, 5628, 5897, 9105]}, "edge": {"target": [], "time": []}}, "mouseout": {"state": {"target": ["0", "1", "2", "3", "4", "6"], "time": [1371, 4129, 4186, 5588, 5888, 8819]}, "edge": {"target": [], "time": []}}}, "displayed_time": "17.20", "trialTime": 18647, "trial_type": "mouselab-mdp", "trial_index": 25, "time_elapsed": 1218811, "internal_node_id": "0.0-4.0-1.0-16.0"}}, {"uniqueid": "w36679031:a89260990", "current_trial": 26, "dateTime": 1691145981902, "trialdata": {"revealed_states": [], "clicked_states": ["32", "29", "28", "25", "30"], "num_clicks_accrued": [0, 0, 0, 0, 0, 0, 0, 0, 0, 0, 0, 0, 0], "stateRewards": ["", 2, -1, 5, 8, 75, -35, -77, 1, -9, -81, -58, 1, 2, -7, 5, 77, -16, 19, 16, -10, -18, 40, -2, 3, 7, -5, 64, 1, -62, 10, 27, 10, 65], "withholdReward": false, "trial_id": "mdp_trial_18", "block": "test", "trialIndex": 19, "score": 21, "costs": -7, "simulationMode": [null, null, null, null, null], "rewards": [-2, 3, 7, 10, 10], "path": ["0", "0", "23", "24", "25", "30", "32"], "rt": [15339, 327, 263, 515, 128], "actions": ["left", "left", "left", "down", "down"], "actionTimes": [18474, 19318, 20126, 21198, 21858], "queries": {"click": {"state": {"target": ["32", "29", "28", "25", "30"], "time": [5288, 7479, 10820, 13624, 16094]}, "edge": {"target": [], "time": []}}, "mouseover": {"state": {"target": ["26", "25", "30", "32", "29", "26", "28", "28", "24", "25", "30"], "time": [3184, 4000, 4126, 4879, 6750, 9385, 9837, 10147, 12579, 13130, 15615]}, "edge": {"target": [], "time": []}}, "mouseout": {"state": {"target": ["7", "1", "1", "26", "25", "30", "32", "29", "29", "26", "28", "28", "28", "24", "25", "25"], "time": [28, 561, 796, 3965, 4089, 4223, 6073, 7673, 9100, 9514, 9881, 11026, 12365, 13001, 13807, 15377]}, "edge": {"target": [], "time": []}}}, "displayed_time": "22.41", "trialTime": 23356, "trial_type": "mouselab-mdp", "trial_index": 26, "time_elapsed": 1245178, "internal_node_id": "0.0-4.0-1.0-17.0"}}, {"uniqueid": "w36679031:a89260990", "current_trial": 27, "dateTime": 1691146002299, "trialdata": {"revealed_states": [], "clicked_states": ["14", "19", "21"], "num_clicks_accrued": [0, 0, 0, 0, 0, 0, 0, 0, 0, 0, 0, 0, 0], "stateRewards": ["", -2, -1, -1, 5, -54, -87, 35, 2, -8, 20, -22, 1, 3, 6, 13, -75, -32, -55, -3, 56, 62, -22, -1, -4, -1, -7, -51, 84, 70, 7, -15, 5, 55], "withholdReward": false, "trial_id": "mdp_trial_19", "block": "test", "trialIndex": 20, "score": 64.8, "costs": -4.199999999999999, "simulationMode": [null, null, null, null, null], "rewards": [1, 3, 6, -3, 62], "path": ["0", "0", "12", "13", "14", "19", "21"], "rt": [8877, 75, 258, 100, 18], "actions": ["right", "right", "right", "down", "down"], "actionTimes": [11990, 12593, 13377, 14033, 14591], "queries": {"click": {"state": {"target": ["14", "19", "21"], "time": [5597, 7408, 9376]}, "edge": {"target": [], "time": []}}, "mouseover": {"state": {"target": ["12", "13", "14", "19", "21", "22", "13"], "time": [4336, 4469, 5137, 6864, 8726, 11265, 11346]}, "edge": {"target": [], "time": []}}, "mouseout": {"state": {"target": ["30", "31", "12", "12", "13", "14", "14", "19", "21", "22"], "time": [1163, 1203, 1545, 4381, 5017, 5781, 6717, 8508, 11100, 11297]}, "edge": {"target": [], "time": []}}}, "displayed_time": "17.12", "trialTime": 18359, "trial_type": "mouselab-mdp", "trial_index": 27, "time_elapsed": 1265575, "internal_node_id": "0.0-4.0-1.0-18.0"}}, {"uniqueid": "w36679031:a89260990", "current_trial": 28, "dateTime": 1691146025324, "trialdata": {"revealed_states": [], "clicked_states": ["25", "27", "32", "33"], "num_clicks_accrued": [0, 0, 0, 0, 0, 0, 0, 0, 0, 0, 0, 0, 0], "stateRewards": ["", 2, 4, -6, -13, -75, -81, 30, 7, 5, 59, -65, -1, -1, 7, 14, -38, 36, -41, 1, -54, -5, 64, 2, -1, 5, 6, -19, 79, 11, 16, -33, -50, 58], "withholdReward": false, "trial_id": "mdp_trial_20", "block": "test", "trialIndex": 21, "score": 74.4, "costs": -5.6, "simulationMode": [null, null, null, null, null], "rewards": [2, -1, 5, 16, 58], "path": ["0", "0", "23", "24", "25", "30", "33"], "rt": [11139, 1035, 353, 66, 323], "actions": ["left", "left", "left", "down", "left"], "actionTimes": [14662, 16559, 17468, 18105, 18949], "queries": {"click": {"state": {"target": ["25", "27", "32", "33"], "time": [5062, 7005, 9662, 12016]}, "edge": {"target": [], "time": []}}, "mouseover": {"state": {"target": ["23", "24", "25", "28", "27", "26", "30", "32", "33", "30", "31"], "time": [4237, 4317, 4545, 6138, 6401, 8249, 8932, 9066, 11329, 13597, 13876]}, "edge": {"target": [], "time": []}}, "mouseout": {"state": {"target": ["13", "12", "23", "24", "25", "28", "27", "26", "25", "30", "32", "33", "30"], "time": [1168, 1227, 4280, 4445, 5230, 6212, 8173, 8361, 8470, 9001, 9864, 13527, 13706]}, "edge": {"target": [], "time": []}}}, "displayed_time": "19.47", "trialTime": 20853, "trial_type": "mouselab-mdp", "trial_index": 28, "time_elapsed": 1288600, "internal_node_id": "0.0-4.0-1.0-19.0"}}, {"uniqueid": "w36679031:a89260990", "current_trial": 29, "dateTime": 1691146050237, "trialdata": {"revealed_states": [], "clicked_states": ["16", "17", "19", "20", "21", "32"], "num_clicks_accrued": [0, 0, 0, 0, 0, 0, 0, 0, 0, 0, 0, 0, 0], "stateRewards": ["", -1, 2, -7, -12, -62, 12, -13, 5, 77, -71, 83, 1, -4, 7, 15, -42, -87, -4, 5, -25, 44, 88, -1, 4, -5, -8, 14, 51, 8, -5, 83, -24, -19], "withholdReward": false, "trial_id": "mdp_trial_21", "block": "test", "trialIndex": 22, "score": 44.6, "costs": -8.4, "simulationMode": [null, null, null, null, null, null], "rewards": [1, -4, 7, 5, 44], "path": ["0", "0", "12", "13", "14", "19", "21"], "rt": [14334, 816, 359, 100, 228, 151], "actions": ["right", "right", "right", "right", "down", "down"], "actionTimes": [17782, 18607, 19501, 20172, 20971, 21646], "queries": {"click": {"state": {"target": ["16", "17", "19", "20", "21", "32"], "time": [5274, 7476, 10029, 12364, 14490, 16589]}, "edge": {"target": [], "time": []}}, "mouseover": {"state": {"target": ["16", "17", "14", "19", "19", "20", "21", "32"], "time": [4729, 6387, 8958, 9050, 9422, 11564, 13702, 15972]}, "edge": {"target": [], "time": []}}, "mouseout": {"state": {"target": ["31", "0", "16", "17", "17", "14", "19", "19", "19", "20", "21"], "time": [1205, 1589, 6310, 7908, 8848, 8998, 9140, 10233, 11525, 13592, 15431]}, "edge": {"target": [], "time": []}}}, "displayed_time": "22.22", "trialTime": 23068, "trial_type": "mouselab-mdp", "trial_index": 29, "time_elapsed": 1313514, "internal_node_id": "0.0-4.0-1.0-20.0"}}, {"uniqueid": "w36679031:a89260990", "current_trial": 30, "dateTime": 1691146072225, "trialdata": {"revealed_states": [], "clicked_states": ["8", "11", "10", "26"], "num_clicks_accrued": [0, 0, 0, 0, 0, 0, 0, 0, 0, 0, 0, 0, 0], "stateRewards": ["", -2, -4, 6, 14, -34, 49, 36, -8, -3, 32, -4, 1, -2, 1, -8, -20, -71, -57, -7, -86, -62, -16, -2, -3, -5, 11, 23, -21, 53, 5, -5, 85, 73], "withholdReward": false, "trial_id": "mdp_trial_22", "block": "test", "trialIndex": 23, "score": 18.4, "costs": -5.6, "simulationMode": [null, null, null, null, null, null], "rewards": [-2, -4, 6, -8, 32], "path": ["0", "0", "1", "2", "3", "8", "10"], "rt": [10798, 1016, 449, 114, 194, 358], "actions": ["up", "up", "up", "up", "left", "down"], "actionTimes": [13554, 14582, 15577, 16236, 16999, 17881], "queries": {"click": {"state": {"target": ["8", "11", "10", "26"], "time": [4742, 8390, 10434, 12280]}, "edge": {"target": [], "time": []}}, "mouseover": {"state": {"target": ["2", "8", "10", "11", "10", "25", "26"], "time": [3741, 4322, 5620, 7331, 9627, 11640, 11778]}, "edge": {"target": [], "time": []}}, "mouseout": {"state": {"target": ["32", "31", "0", "2", "8", "10", "11", "10", "25", "26", "26"], "time": [959, 1036, 1567, 3796, 5574, 7290, 9588, 11160, 11770, 12473, 19354]}, "edge": {"target": [], "time": []}}}, "displayed_time": "18.40", "trialTime": 20008, "trial_type": "mouselab-mdp", "trial_index": 30, "time_elapsed": 1335502, "internal_node_id": "0.0-4.0-1.0-21.0"}}, {"uniqueid": "w36679031:a89260990", "current_trial": 31, "dateTime": 1691146092426, "trialdata": {"revealed_states": [], "clicked_states": ["30", "32", "31"], "num_clicks_accrued": [0, 0, 0, 0, 0, 0, 0, 0, 0, 0, 0, 0, 0], "stateRewards": ["", -1, 4, -8, 12, 14, 69, -8, 5, -72, -14, 56, -1, -1, -1, 9, 67, 19, 11, -9, -88, -58, 3, 2, -4, -8, 4, 62, 77, -74, 5, -31, 65, 88], "withholdReward": false, "trial_id": "mdp_trial_23", "block": "test", "trialIndex": 24, "score": 55.8, "costs": -4.199999999999999, "simulationMode": [null, null, null, null, null, null], "rewards": [2, -4, -8, 5, 65], "path": ["0", "0", "23", "24", "25", "30", "32"], "rt": [6505, 1041, 476, 275, 240, 6], "actions": ["left", "left", "left", "left", "down", "down"], "actionTimes": [9732, 10783, 11827, 12618, 13390, 14005], "queries": {"click": {"state": {"target": ["30", "32", "31"], "time": [4750, 7048, 8752]}, "edge": {"target": [], "time": []}}, "mouseover": {"state": {"target": ["24", "30", "32", "31"], "time": [4125, 4208, 5456, 7762]}, "edge": {"target": [], "time": []}}, "mouseout": {"state": {"target": ["18", "18", "24", "30", "32"], "time": [1588, 1736, 4171, 5406, 7689]}, "edge": {"target": [], "time": []}}}, "displayed_time": "17.23", "trialTime": 17894, "trial_type": "mouselab-mdp", "trial_index": 31, "time_elapsed": 1355703, "internal_node_id": "0.0-4.0-1.0-22.0"}}, {"uniqueid": "w36679031:a89260990", "current_trial": 32, "dateTime": 1691146112575, "trialdata": {"revealed_states": [], "clicked_states": ["14", "17", "22"], "num_clicks_accrued": [0, 0, 0, 0, 0, 0, 0, 0, 0, 0, 0, 0, 0], "stateRewards": ["", -1, -3, 1, -4, -48, -63, -49, -2, -84, -19, 65, 2, -2, -2, -12, -4, 59, 9, 6, 75, 69, -13, -1, -3, -3, -2, -37, -68, -36, 13, 32, 18, -14], "withholdReward": false, "trial_id": "mdp_trial_24", "block": "test", "trialIndex": 25, "score": 40.8, "costs": -4.199999999999999, "simulationMode": [null, null, null, null, null, null], "rewards": [2, -2, -2, -12, 59], "path": ["0", "0", "12", "13", "14", "15", "17"], "rt": [7271, 1584, 273, 202, 265, 31], "actions": ["right", "right", "right", "right", "up", "right"], "actionTimes": [10435, 12031, 12852, 13573, 14389, 14957], "queries": {"click": {"state": {"target": ["14", "17", "22"], "time": [5493, 7053, 9513]}, "edge": {"target": [], "time": []}}, "mouseover": {"state": {"target": ["12", "13", "14", "14", "17", "22"], "time": [4233, 4322, 4590, 4969, 6348, 9052]}, "edge": {"target": [], "time": []}}, "mouseout": {"state": {"target": ["31", "0", "0", "12", "13", "14", "14", "17"], "time": [933, 1347, 4186, 4290, 4502, 4720, 6267, 8173]}, "edge": {"target": [], "time": []}}}, "displayed_time": "17.17", "trialTime": 17844, "trial_type": "mouselab-mdp", "trial_index": 32, "time_elapsed": 1375851, "internal_node_id": "0.0-4.0-1.0-23.0"}}, {"uniqueid": "w36679031:a89260990", "current_trial": 33, "dateTime": 1691146135927, "trialdata": {"revealed_states": [], "clicked_states": ["25", "33", "32", "31", "29", "28"], "num_clicks_accrued": [0, 0, 0, 0, 0, 0, 0, 0, 0, 0, 0, 0, 0], "stateRewards": ["", 2, 2, 3, -15, 23, -14, 73, -7, -32, -20, -6, 1, 1, -5, -12, 73, 6, -84, 11, -81, -57, 13, -2, -1, -4, -8, -52, -58, 49, 13, 5, -41, -41], "withholdReward": false, "trial_id": "mdp_trial_25", "block": "test", "trialIndex": 26, "score": 25.6, "costs": -8.4, "simulationMode": [null, null, null, null, null, null], "rewards": [-2, -1, -4, -8, 49], "path": ["0", "0", "23", "24", "25", "26", "29"], "rt": [12387, 665, 219, 135, 222, 11], "actions": ["left", "left", "left", "left", "up", "left"], "actionTimes": [15567, 16242, 17058, 17723, 18585, 19135], "queries": {"click": {"state": {"target": ["25", "33", "32", "31", "29", "28"], "time": [4489, 6341, 9372, 11015, 12798, 14768]}, "edge": {"target": [], "time": []}}, "mouseover": {"state": {"target": ["0", "23", "25", "33", "32", "31", "31", "29", "26", "28"], "time": [3262, 3849, 3985, 5335, 7321, 10047, 10319, 12151, 13822, 14067]}, "edge": {"target": [], "time": []}}, "mouseout": {"state": {"target": ["22", "12", "0", "23", "25", "33", "32", "31", "31", "29", "26"], "time": [616, 866, 3807, 3898, 5251, 7035, 10037, 10086, 11987, 13741, 13985]}, "edge": {"target": [], "time": []}}}, "displayed_time": "19.71", "trialTime": 20903, "trial_type": "mouselab-mdp", "trial_index": 33, "time_elapsed": 1399203, "internal_node_id": "0.0-4.0-1.0-24.0"}}, {"uniqueid": "w36679031:a89260990", "current_trial": 34, "dateTime": 1691146156028, "trialdata": {"revealed_states": [], "clicked_states": ["26", "28", "29"], "num_clicks_accrued": [0, 0, 0, 0, 0, 0, 0, 0, 0, 0, 0, 0, 0], "stateRewards": ["", 1, 2, -3, -5, 66, -50, -47, -5, 1, 28, -27, 1, 1, -1, -6, 37, -25, 56, 1, -82, -66, -40, -1, -4, -7, 15, -61, -23, 26, 10, 14, -56, 29], "withholdReward": false, "trial_id": "mdp_trial_26", "block": "test", "trialIndex": 27, "score": 24.8, "costs": -4.199999999999999, "simulationMode": [null, null, null, null, null], "rewards": [-1, -4, -7, 15, 26], "path": ["0", "0", "23", "24", "25", "26", "29"], "rt": [8315, 81, 106, 92, 77], "actions": ["left", "left", "left", "up", "left"], "actionTimes": [11250, 11898, 12555, 13217, 13848], "queries": {"click": {"state": {"target": ["26", "28", "29"], "time": [4985, 6707, 8468]}, "edge": {"target": [], "time": []}}, "mouseover": {"state": {"target": ["23", "28", "26", "28", "29", "25", "27"], "time": [4110, 4190, 4541, 6046, 7796, 9457, 10125]}, "edge": {"target": [], "time": []}}, "mouseout": {"state": {"target": ["28", "23", "0", "23", "28", "26", "28", "26", "29", "29", "25", "27", "28", "4"], "time": [1238, 1277, 1631, 4149, 4239, 5174, 7509, 7708, 8648, 9375, 9739, 15424, 15637, 15825]}, "edge": {"target": [], "time": []}}}, "displayed_time": "16.94", "trialTime": 17947, "trial_type": "mouselab-mdp", "trial_index": 34, "time_elapsed": 1419304, "internal_node_id": "0.0-4.0-1.0-25.0"}}, {"uniqueid": "w36679031:a89260990", "current_trial": 35, "dateTime": 1691146175523, "trialdata": {"revealed_states": [], "clicked_states": ["6", "5"], "num_clicks_accrued": [0, 0, 0, 0, 0, 0, 0, 0, 0, 0, 0, 0, 0], "stateRewards": ["", -1, 1, 6, -6, 70, 66, 67, -16, -75, -35, 37, -1, 4, 4, -6, 47, -9, 63, 15, 21, -63, 13, 1, 3, -6, 10, 79, -29, 18, -15, 9, -67, -19], "withholdReward": false, "trial_id": "mdp_trial_27", "block": "test", "trialIndex": 28, "score": 67.2, "costs": -2.8, "simulationMode": [null, null, null, null, null], "rewards": [-1, 1, 6, -6, 70], "path": ["0", "0", "1", "2", "3", "4", "5"], "rt": [5001, 123, 91, 145, 163], "actions": ["up", "up", "up", "right", "up"], "actionTimes": [7173, 7838, 8505, 9194, 9953], "queries": {"click": {"state": {"target": ["6", "5"], "time": [3900, 5480]}, "edge": {"target": [], "time": []}}, "mouseover": {"state": {"target": ["4", "6", "6", "5"], "time": [2926, 3068, 3415, 4688]}, "edge": {"target": [], "time": []}}, "mouseout": {"state": {"target": ["7", "0", "4", "6", "6"], "time": [275, 2204, 2988, 3151, 4550]}, "edge": {"target": [], "time": []}}}, "displayed_time": "16.18", "trialTime": 17145, "trial_type": "mouselab-mdp", "trial_index": 35, "time_elapsed": 1438800, "internal_node_id": "0.0-4.0-1.0-26.0"}}, {"uniqueid": "w36679031:a89260990", "current_trial": 36, "dateTime": 1691146204333, "trialdata": {"revealed_states": [], "clicked_states": [], "num_clicks_accrued": [0, 0, 0, 0, 0, 0, 0, 0, 0, 0, 0, 0, 0], "stateRewards": ["", -2, 2, -5, -6, 10, -66, -58, -10, -11, -63, -70, -1, -4, -5, 7, 66, -64, -43, -3, 45, -37, 4, -2, -2, -6, -4, -30, 33, 43, 15, -32, -65, -59], "withholdReward": false, "trial_id": "mdp_trial_28", "block": "test", "trialIndex": 29, "score": -60, "costs": 0, "simulationMode": [null, null, null, null, null], "rewards": [-2, -2, -6, 15, -65], "path": ["0", "0", "23", "24", "25", "30", "32"], "rt": [13824, 353, 403, 3343, 118], "actions": ["left", "left", "left", "down", "down"], "actionTimes": [17120, 17998, 18957, 22867, 23531], "queries": {"click": {"state": {"target": [], "time": []}, "edge": {"target": [], "time": []}}, "mouseover": {"state": {"target": ["1"], "time": [12233]}, "edge": {"target": [], "time": []}}, "mouseout": {"state": {"target": ["5", "4"], "time": [1036, 1102]}, "edge": {"target": [], "time": []}}}, "displayed_time": "24.05", "trialTime": 26156, "trial_type": "mouselab-mdp", "trial_index": 36, "time_elapsed": 1467609, "internal_node_id": "0.0-4.0-1.0-27.0"}}, {"uniqueid": "w36679031:a89260990", "current_trial": 37, "dateTime": 1691146224780, "trialdata": {"revealed_states": [], "clicked_states": ["17", "19", "21", "20"], "num_clicks_accrued": [0, 0, 0, 0, 0, 0, 0, 0, 0, 0, 0, 0, 0], "stateRewards": ["", 2, -4, -4, 13, -80, 62, 13, -11, 57, -13, -44, 1, 4, 3, -4, -29, -88, 15, 16, -58, 68, -45, -1, -3, -1, -9, -44, -86, -19, -7, -36, 59, 66], "withholdReward": false, "trial_id": "mdp_trial_29", "block": "test", "trialIndex": 30, "score": 86.4, "costs": -5.6, "simulationMode": [null, null, null, null, null, null], "rewards": [1, 4, 3, 16, 68], "path": ["0", "0", "12", "13", "14", "19", "21"], "rt": [8229, 851, 1226, 256, 230, 122], "actions": ["right", "right", "right", "right", "down", "down"], "actionTimes": [11447, 12307, 14095, 14886, 15675, 16326], "queries": {"click": {"state": {"target": ["17", "19", "21", "20"], "time": [4860, 6703, 8564, 10667]}, "edge": {"target": [], "time": []}}, "mouseover": {"state": {"target": ["12", "15", "17", "19", "21", "20"], "time": [4072, 4171, 4250, 5751, 7579, 9558]}, "edge": {"target": [], "time": []}}, "mouseout": {"state": {"target": ["1", "0", "0", "12", "15", "17", "19", "21"], "time": [1442, 1555, 2052, 4113, 4213, 5566, 7505, 9452]}, "edge": {"target": [], "time": []}}}, "displayed_time": "17.23", "trialTime": 18625, "trial_type": "mouselab-mdp", "trial_index": 37, "time_elapsed": 1488056, "internal_node_id": "0.0-4.0-1.0-28.0"}}, {"uniqueid": "w36679031:a89260990", "current_trial": 38, "dateTime": 1691146249157, "trialdata": {"revealed_states": [], "clicked_states": ["25", "30", "32", "29", "28"], "num_clicks_accrued": [0, 0, 0, 0, 0, 0, 0, 0, 0, 0, 0, 0, 0], "stateRewards": ["", 1, -1, 1, -14, -10, 67, -28, -11, 72, 40, -65, -1, 1, 1, -2, 8, -55, 34, -10, 61, 33, -15, 2, -4, 7, 4, -75, 63, -21, -16, 61, 19, 21], "withholdReward": false, "trial_id": "mdp_trial_30", "block": "test", "trialIndex": 31, "score": 65, "costs": -7, "simulationMode": [null, null, null, null, null], "rewards": [2, -4, 7, 4, 63], "path": ["0", "0", "23", "24", "25", "26", "28"], "rt": [14554, 123, 175, 234, 884], "actions": ["left", "left", "left", "up", "right"], "actionTimes": [16955, 17643, 18366, 19121, 20567], "queries": {"click": {"state": {"target": ["25", "30", "32", "29", "28"], "time": [4290, 7298, 9769, 11789, 13905]}, "edge": {"target": [], "time": []}}, "mouseover": {"state": {"target": ["23", "24", "25", "30", "32", "26", "29", "26", "28", "27"], "time": [3155, 3552, 3892, 5125, 8057, 10987, 11243, 12841, 13134, 15529]}, "edge": {"target": [], "time": []}}, "mouseout": {"state": {"target": ["20", "19", "12", "0", "23", "24", "25", "30", "32", "26", "29", "26", "28", "27"], "time": [660, 696, 996, 3120, 3231, 3604, 5052, 7985, 10452, 11204, 11980, 12907, 15418, 16218]}, "edge": {"target": [], "time": []}}}, "displayed_time": "21.12", "trialTime": 22500, "trial_type": "mouselab-mdp", "trial_index": 38, "time_elapsed": 1512434, "internal_node_id": "0.0-4.0-1.0-29.0"}}, {"uniqueid": "w36679031:a89260990", "current_trial": 39, "dateTime": 1691146284417, "trialdata": {"revealed_states": [], "clicked_states": ["6", "5", "11", "9", "27", "28", "29", "33", "32", "31"], "num_clicks_accrued": [0, 0, 0, 0, 0, 0, 0, 0, 0, 0, 0, 0, 0], "stateRewards": ["", 2, 4, 7, 7, -79, -2, -21, -5, -53, 47, -21, 1, -3, -1, 7, 83, 7, 84, -7, 80, -37, 69, 2, -4, 5, 2, 4, -20, -30, 7, 71, 44, -81], "withholdReward": false, "trial_id": "mdp_trial_31", "block": "test", "trialIndex": 32, "score": 67, "costs": -14.000000000000002, "simulationMode": [null, null, null, null, null, null], "rewards": [2, -4, 5, 7, 71], "path": ["0", "0", "23", "24", "25", "30", "31"], "rt": [22163, 2754, 271, 252, 53, 168], "actions": ["left", "left", "left", "left", "down", "right"], "actionTimes": [25685, 28453, 29275, 30065, 30672, 31404], "queries": {"click": {"state": {"target": ["6", "5", "11", "9", "27", "28", "29", "33", "32", "31"], "time": [5145, 7698, 9854, 11715, 13546, 15916, 18163, 20356, 22581, 24703]}, "edge": {"target": [], "time": []}}, "mouseover": {"state": {"target": ["7", "4", "6", "4", "3", "5", "8", "11", "9", "27", "28", "26", "29", "25", "30", "33", "32", "31"], "time": [4107, 4236, 4639, 6041, 6481, 7206, 8623, 8815, 10515, 13117, 14294, 16577, 16721, 19122, 19303, 19831, 21200, 23337]}, "edge": {"target": [], "time": []}}, "mouseout": {"state": {"target": ["28", "7", "4", "6", "4", "3", "5", "8", "11", "9", "11", "27", "28", "26", "29", "25", "30", "33", "32"], "time": [1020, 4137, 4286, 6006, 6188, 6852, 8442, 8659, 10405, 12547, 12655, 14145, 16542, 16614, 19018, 19230, 19723, 21160, 23267]}, "edge": {"target": [], "time": []}}}, "displayed_time": "31.91", "trialTime": 33186, "trial_type": "mouselab-mdp", "trial_index": 39, "time_elapsed": 1547694, "internal_node_id": "0.0-4.0-1.0-30.0"}}, {"uniqueid": "w36679031:a89260990", "current_trial": 40, "dateTime": 1691146314153, "trialdata": {"revealed_states": [], "clicked_states": ["17", "16", "18", "20", "21", "22"], "num_clicks_accrued": [0, 0, 0, 0, 0, 0, 0, 0, 0, 0, 0, 0, 0], "stateRewards": ["", -2, 1, -8, 12, -65, -79, 16, 7, -80, -17, -45, -2, 2, -5, -2, -85, 23, -4, -7, 48, 27, -76, 2, 3, 5, 2, 43, 71, -13, 7, -49, 59, -31], "withholdReward": false, "trial_id": "mdp_trial_32", "block": "test", "trialIndex": 33, "score": 27.6, "costs": -8.4, "simulationMode": [null, null, null, null, null], "rewards": [-2, 2, -5, -7, 48], "path": ["0", "0", "12", "13", "14", "19", "20"], "rt": [14655, 135, 148, 6, 209], "actions": ["right", "right", "right", "down", "right"], "actionTimes": [21740, 22437, 23131, 23654, 24419], "queries": {"click": {"state": {"target": ["17", "16", "18", "20", "21", "22"], "time": [8434, 10327, 12370, 14538, 16770, 19281]}, "edge": {"target": [], "time": []}}, "mouseover": {"state": {"target": ["15", "17", "16", "18", "20", "14", "19", "21", "22"], "time": [7715, 8000, 9141, 11455, 13561, 15371, 15739, 15982, 18127]}, "edge": {"target": [], "time": []}}, "mouseout": {"state": {"target": ["31", "0", "15", "17", "16", "16", "18", "20", "14", "19", "21"], "time": [1648, 3163, 7757, 8958, 10525, 11183, 13056, 15299, 15730, 15808, 16959]}, "edge": {"target": [], "time": []}}}, "displayed_time": "24.98", "trialTime": 27606, "trial_type": "mouselab-mdp", "trial_index": 40, "time_elapsed": 1577430, "internal_node_id": "0.0-4.0-1.0-31.0"}}, {"uniqueid": "w36679031:a89260990", "current_trial": 41, "dateTime": 1691146334281, "trialdata": {"revealed_states": [], "clicked_states": ["29", "27", "33", "32", "31"], "num_clicks_accrued": [0, 0, 0, 0, 0, 0, 0, 0, 0, 0, 0, 0, 0], "stateRewards": ["", 1, 1, -7, -9, -44, 24, -83, -15, 44, -24, 72, -2, -3, 4, -5, 57, 55, 29, -11, 22, 12, -25, -1, 2, 7, 12, 33, -8, 47, -4, 8, 50, -4], "withholdReward": false, "trial_id": "mdp_trial_33", "block": "test", "trialIndex": 34, "score": 47, "costs": -7, "simulationMode": [null, null, null, null, null], "rewards": [-1, 2, 7, -4, 50], "path": ["0", "0", "23", "24", "25", "30", "32"], "rt": [10867, 260, 147, 290, 37], "actions": ["left", "left", "left", "down", "down"], "actionTimes": [13592, 14377, 15070, 15910, 16495], "queries": {"click": {"state": {"target": ["29", "27", "33", "32", "31"], "time": [4396, 6179, 8148, 9962, 11847]}, "edge": {"target": [], "time": []}}, "mouseover": {"state": {"target": ["23", "24", "25", "29", "27", "26", "33", "32", "31"], "time": [3386, 3460, 3499, 3848, 4937, 7178, 7685, 9185, 10825]}, "edge": {"target": [], "time": []}}, "mouseout": {"state": {"target": ["22", "0", "23", "24", "25", "29", "27", "26", "33", "32"], "time": [634, 785, 3449, 3489, 3736, 4589, 7103, 7251, 9112, 10643]}, "edge": {"target": [], "time": []}}}, "displayed_time": "17.05", "trialTime": 18226, "trial_type": "mouselab-mdp", "trial_index": 41, "time_elapsed": 1597558, "internal_node_id": "0.0-4.0-1.0-32.0"}}, {"uniqueid": "w36679031:a89260990", "current_trial": 42, "dateTime": 1691146355295, "trialdata": {"revealed_states": [], "clicked_states": ["29", "33", "32"], "num_clicks_accrued": [0, 0, 0, 0, 0, 0, 0, 0, 0, 0, 0, 0, 0], "stateRewards": ["", -2, 2, 3, -7, -31, -33, 29, -8, -57, 50, -83, -1, -1, 5, 13, -23, -62, 25, 5, -66, -85, 14, 1, -2, -1, 16, 71, 33, -19, -14, 5, -43, 79], "withholdReward": false, "trial_id": "mdp_trial_34", "block": "test", "trialIndex": 35, "score": 58.8, "costs": -4.199999999999999, "simulationMode": [null, null, null, null, null, null], "rewards": [1, -2, -1, -14, 79], "path": ["0", "0", "23", "24", "25", "30", "33"], "rt": [7213, 970, 334, 204, 160, 266], "actions": ["left", "left", "left", "left", "down", "left"], "actionTimes": [11195, 12172, 13063, 13808, 14490, 15302], "queries": {"click": {"state": {"target": ["29", "33", "32"], "time": [5987, 8259, 10141]}, "edge": {"target": [], "time": []}}, "mouseover": {"state": {"target": ["23", "24", "26", "29", "33", "32"], "time": [4915, 4966, 5094, 5338, 6806, 9023]}, "edge": {"target": [], "time": []}}, "mouseout": {"state": {"target": ["31", "0", "23", "24", "26", "29", "33"], "time": [1897, 2260, 4957, 5004, 5298, 6623, 8906]}, "edge": {"target": [], "time": []}}}, "displayed_time": "17.99", "trialTime": 19044, "trial_type": "mouselab-mdp", "trial_index": 42, "time_elapsed": 1618571, "internal_node_id": "0.0-4.0-1.0-33.0"}}, {"uniqueid": "w36679031:a89260990", "current_trial": 43, "dateTime": 1691146379735, "trialdata": {"revealed_states": [], "clicked_states": ["29", "33", "32", "31", "28", "27"], "num_clicks_accrued": [0, 0, 0, 0, 0, 0, 0, 0, 0, 0, 0, 0, 0], "stateRewards": ["", 1, 2, 7, 13, 88, -71, 27, 3, 60, 5, -53, -2, 2, -6, -1, -30, 79, 47, -4, -14, 46, 68, 1, 1, 8, 10, -14, 86, 48, -11, -67, -44, 5], "withholdReward": false, "trial_id": "mdp_trial_35", "block": "test", "trialIndex": 36, "score": 97.6, "costs": -8.4, "simulationMode": [null, null, null, null, null, null], "rewards": [1, 1, 8, 10, 86], "path": ["0", "0", "23", "24", "25", "26", "28"], "rt": [12230, 1397, 215, 176, 117, 139], "actions": ["left", "left", "left", "left", "up", "right"], "actionTimes": [15097, 16504, 17287, 18006, 18682, 19343], "queries": {"click": {"state": {"target": ["29", "33", "32", "31", "28", "27"], "time": [5061, 6941, 8516, 10118, 12367, 13942]}, "edge": {"target": [], "time": []}}, "mouseover": {"state": {"target": ["23", "26", "29", "29", "33", "32", "31", "24", "28", "27", "27"], "time": [3901, 4015, 4194, 4598, 5812, 7984, 9436, 11232, 11306, 13049, 13478]}, "edge": {"target": [], "time": []}}, "mouseout": {"state": {"target": ["32", "12", "23", "26", "29", "29", "33", "32", "31", "24", "28", "27", "27"], "time": [747, 1165, 3940, 4064, 4282, 5700, 7873, 9231, 11224, 11270, 13012, 13099, 14144]}, "edge": {"target": [], "time": []}}}, "displayed_time": "19.95", "trialTime": 22390, "trial_type": "mouselab-mdp", "trial_index": 43, "time_elapsed": 1643012, "internal_node_id": "0.0-4.0-1.0-34.0"}}, {"uniqueid": "w36679031:a89260990", "current_trial": 44, "dateTime": 1691146400097, "trialdata": {"revealed_states": [], "clicked_states": ["17", "16", "18"], "num_clicks_accrued": [0, 0, 0, 0, 0, 0, 0, 0, 0, 0, 0, 0, 0], "stateRewards": ["", -1, 4, -5, 9, 29, -75, -42, -16, 24, -28, -41, 2, -3, 1, 10, 60, 47, 55, -1, -53, 22, -40, 2, -3, -6, 4, -26, 44, 54, 15, -76, 42, 14], "withholdReward": false, "trial_id": "mdp_trial_36", "block": "test", "trialIndex": 37, "score": 65.8, "costs": -4.199999999999999, "simulationMode": [null, null, null, null, null], "rewards": [2, -3, 1, 10, 60], "path": ["0", "0", "12", "13", "14", "15", "16"], "rt": [7507, 164, 243, 180, 247], "actions": ["right", "right", "right", "up", "up"], "actionTimes": [10718, 11448, 12211, 12948, 13728], "queries": {"click": {"state": {"target": ["17", "16", "18"], "time": [4847, 6823, 8742]}, "edge": {"target": [], "time": []}}, "mouseover": {"state": {"target": ["12", "15", "17", "17", "16", "15", "18"], "time": [3969, 4037, 4107, 4406, 5584, 7792, 8095]}, "edge": {"target": [], "time": []}}, "mouseout": {"state": {"target": ["27", "12", "15", "17", "17", "16", "15", "18"], "time": [1052, 3998, 4073, 4144, 5439, 7742, 8023, 8943]}, "edge": {"target": [], "time": []}}}, "displayed_time": "17.22", "trialTime": 18216, "trial_type": "mouselab-mdp", "trial_index": 44, "time_elapsed": 1663374, "internal_node_id": "0.0-4.0-1.0-35.0"}}, {"uniqueid": "w36679031:a89260990", "current_trial": 45, "dateTime": 1691146421593, "trialdata": {"revealed_states": [], "clicked_states": ["5", "6", "9", "11", "10"], "num_clicks_accrued": [0, 0, 0, 0, 0, 0, 0, 0, 0, 0, 0, 0, 0], "stateRewards": ["", -2, 2, 5, -14, -56, 64, 84, -5, 52, 39, 85, -2, 1, 7, 8, 21, 29, -78, -9, -10, -69, 10, -2, -1, -7, 15, 72, 20, 41, -2, 52, 80, 22], "withholdReward": false, "trial_id": "mdp_trial_37", "block": "test", "trialIndex": 38, "score": 78, "costs": -7, "simulationMode": [null, null, null, null, null], "rewards": [-2, 2, 5, -5, 85], "path": ["0", "0", "1", "2", "3", "8", "11"], "rt": [11018, 110, 100, 165, 90], "actions": ["up", "up", "up", "left", "left"], "actionTimes": [15522, 16195, 16847, 17555, 18163], "queries": {"click": {"state": {"target": ["5", "6", "9", "11", "10"], "time": [6083, 7936, 9694, 11947, 13823]}, "edge": {"target": [], "time": []}}, "mouseover": {"state": {"target": ["7", "4", "5", "6", "9", "11", "10"], "time": [5373, 5440, 5480, 6840, 8941, 10472, 13298]}, "edge": {"target": [], "time": []}}, "mouseout": {"state": {"target": ["18", "0", "0", "7", "4", "5", "6", "9", "11"], "time": [2572, 2620, 5333, 5402, 5471, 6767, 8134, 10435, 12899]}, "edge": {"target": [], "time": []}}}, "displayed_time": "18.73", "trialTime": 19624, "trial_type": "mouselab-mdp", "trial_index": 45, "time_elapsed": 1684869, "internal_node_id": "0.0-4.0-1.0-36.0"}}, {"uniqueid": "w36679031:a89260990", "current_trial": 46, "dateTime": 1691146449177, "trialdata": {"revealed_states": [], "clicked_states": ["5", "6", "11", "9"], "num_clicks_accrued": [0, 0, 0, 0, 0, 0, 0, 0, 0, 0, 0, 0, 0], "stateRewards": ["", 1, 1, 5, 6, -29, -7, 3, -16, 9, -46, 65, -1, 4, -1, -16, -63, -77, -87, 8, 80, -50, 43, -1, -1, -5, 5, -38, -71, -62, 9, 81, -50, -52], "withholdReward": false, "trial_id": "mdp_trial_38", "block": "test", "trialIndex": 39, "score": 50.4, "costs": -5.6, "simulationMode": [null, null, null, null, null], "rewards": [1, 1, 5, -16, 65], "path": ["0", "0", "1", "2", "3", "8", "11"], "rt": [10707, 190, 46, 159, 164], "actions": ["up", "up", "up", "left", "left"], "actionTimes": [20853, 21603, 22207, 22924, 23617], "queries": {"click": {"state": {"target": ["5", "6", "11", "9"], "time": [13087, 14917, 17474, 19051]}, "edge": {"target": [], "time": []}}, "mouseover": {"state": {"target": ["1", "2", "4", "5", "6", "6", "8", "11", "9"], "time": [11600, 11796, 11946, 12374, 13849, 14368, 15717, 15896, 18009]}, "edge": {"target": [], "time": []}}, "mouseout": {"state": {"target": ["10", "0", "1", "2", "4", "5", "6", "6", "8", "11"], "time": [3816, 11529, 11712, 11896, 11979, 13768, 14085, 15562, 15860, 17970]}, "edge": {"target": [], "time": []}}}, "displayed_time": "24.17", "trialTime": 25490, "trial_type": "mouselab-mdp", "trial_index": 46, "time_elapsed": 1712453, "internal_node_id": "0.0-4.0-1.0-37.0"}}, {"uniqueid": "w36679031:a89260990", "current_trial": 47, "dateTime": 1691146538586, "trialdata": {"revealed_states": [], "clicked_states": ["17", "16", "18", "5", "6", "11", "9", "27", "29", "28", "33"], "num_clicks_accrued": [0, 0, 0, 0, 0, 0, 0, 0, 0, 0, 0, 0, 0], "stateRewards": ["", -1, 2, -6, 6, -82, -19, -39, -16, -83, 11, -33, -2, -2, 4, -6, -82, -1, -19, -6, -10, -67, -41, -2, 1, -7, 16, -23, -78, -52, 14, 31, -71, 74], "withholdReward": false, "trial_id": "mdp_trial_39", "block": "test", "trialIndex": 40, "score": 64.6, "costs": -15.400000000000002, "simulationMode": [null, null, null, null, null], "rewards": [-2, 1, -7, 14, 74], "path": ["0", "0", "23", "24", "25", "30", "33"], "rt": [23007, 783, 240, 147, 92], "actions": ["left", "left", "left", "down", "left"], "actionTimes": [82195, 83517, 84280, 84978, 85621], "queries": {"click": {"state": {"target": ["17", "16", "18", "5", "6", "11", "9", "27", "29", "28", "33"], "time": [60666, 62754, 64797, 67084, 68876, 70799, 72527, 74077, 75692, 77766, 79337]}, "edge": {"target": [], "time": []}}, "mouseover": {"state": {"target": ["12", "15", "17", "16", "18", "4", "5", "6", "3", "8", "11", "9", "8", "27", "29", "26", "28", "30", "33", "32"], "time": [59939, 60020, 60323, 61341, 63402, 65518, 65916, 68068, 69653, 69731, 70129, 71724, 73093, 73412, 75261, 76450, 76678, 78551, 78851, 80253]}, "edge": {"target": [], "time": []}}, "mouseout": {"state": {"target": ["9", "0", "12", "15", "17", "16", "18", "4", "5", "5", "6", "3", "8", "11", "9", "9", "8", "27", "29", "26", "28", "30", "33"], "time": [56776, 59904, 59976, 60053, 61230, 63317, 65387, 65555, 67280, 67869, 69546, 69692, 69874, 70997, 72716, 73086, 73268, 74914, 75882, 76523, 78477, 78633, 80030]}, "edge": {"target": [], "time": []}}}, "displayed_time": "86.16", "trialTime": 87092, "trial_type": "mouselab-mdp", "trial_index": 47, "time_elapsed": 1801863, "internal_node_id": "0.0-4.0-1.0-38.0"}}, {"uniqueid": "w36679031:a89260990", "current_trial": 48, "dateTime": 1691146562445, "trialdata": {"revealed_states": [], "clicked_states": ["21", "20", "22", "17", "16", "18"], "num_clicks_accrued": [0, 0, 0, 0, 0, 0, 0, 0, 0, 0, 0, 0, 0], "stateRewards": ["", -2, -3, 1, -14, 48, -49, 67, -1, -35, -48, 3, -2, 1, -4, -5, 86, -84, 39, 1, 48, 41, -42, -1, -4, 2, -7, 18, -86, 17, 7, -9, 57, -69], "withholdReward": false, "trial_id": "mdp_trial_40", "block": "test", "trialIndex": 41, "score": 67.6, "costs": -8.4, "simulationMode": [null, null, null, null, null, null], "rewards": [-2, 1, -4, -5, 86], "path": ["0", "0", "12", "13", "14", "15", "16"], "rt": [12629, 947, 337, 257, 169, 36], "actions": ["right", "right", "right", "right", "up", "up"], "actionTimes": [16160, 17118, 17979, 18773, 19502, 20090], "queries": {"click": {"state": {"target": ["21", "20", "22", "17", "16", "18"], "time": [4927, 6750, 8563, 10999, 13226, 15370]}, "edge": {"target": [], "time": []}}, "mouseover": {"state": {"target": ["22", "21", "20", "19", "22", "14", "17", "16", "18"], "time": [4168, 4317, 5583, 7503, 7843, 9653, 10049, 12559, 13862]}, "edge": {"target": [], "time": []}}, "mouseout": {"state": {"target": ["32", "0", "22", "21", "20", "19", "22", "14", "17", "16"], "time": [1174, 3615, 4218, 5363, 7464, 7614, 9614, 9693, 12235, 13720]}, "edge": {"target": [], "time": []}}}, "displayed_time": "20.64", "trialTime": 21575, "trial_type": "mouselab-mdp", "trial_index": 48, "time_elapsed": 1825721, "internal_node_id": "0.0-4.0-1.0-39.0"}}, {"uniqueid": "w36679031:a89260990", "current_trial": 49, "dateTime": 1691146669093, "trialdata": {"rt": 106605, "response": {"Q0": "$-2 to $2", "Q1": "$-4 to $4", "Q2": "$-88 to $88", "Q3": "The cost for clicking on nodes varied between nodes.", "Q4": "Very motivated"}, "question_order": [0, 1, 2, 3, 4], "trial_id": "final_quiz_control", "trial_type": "survey-multi-choice", "trial_index": 49, "time_elapsed": 1932371, "internal_node_id": "0.0-4.0-2.0"}}, {"uniqueid": "w36679031:a89260990", "current_trial": 50, "dateTime": 1691146785080, "trialdata": {"rt": 115928, "response": {"Q0": "I inspected a lot of nodes to ensure i get the highest value possible before moving.", "Q1": "Yes, with my strategy of inspecting more nodes i got the hang of the game and that made me enjoy it.", "Q2": "It was not difficult to improve in the game."}, "trial_id": "self_report_control", "trial_type": "survey-text", "trial_index": 50, "time_elapsed": 2048358, "internal_node_id": "0.0-4.0-3.0"}}, {"uniqueid": "w36679031:a89260990", "current_trial": 51, "dateTime": 1691146819243, "trialdata": {"rt": 34115, "response": {"gender": "female", "age": "21", "colorblind": "0", "effort": "0"}, "trial_type": "survey-html-form", "trial_index": 51, "time_elapsed": 2082521, "internal_node_id": "0.0-4.0-4.0"}}, {"uniqueid": "w36679031:a89260990", "current_trial": 52, "dateTime": 1691146881245, "trialdata": {"rt": 61980, "response": {"Q0": "No", "Q1": "No i have not completed any HIT game before.", "Q2": "No further comments."}, "trial_type": "survey-text", "trial_index": 52, "time_elapsed": 2144522, "internal_node_id": "0.0-4.0-5.0"}}, {"uniqueid": "w36679031:a89260990", "current_trial": 53, "dateTime": 1691146890756, "trialdata": {"rt": 9476, "stimulus": "Press 'Finish HIT' in order to reach the completion code. Once the data has been saved, you will receive the code either in this window or in the original browser window where you started the experiment.\n", "response": 0, "trial_type": "html-button-response", "trial_index": 53, "time_elapsed": 2154034, "internal_node_id": "0.0-5.0"}}, {"uniqueid": "w36679031:a89260990", "current_trial": 54, "dateTime": 1691146891774, "trialdata": {"success": true, "trial_type": "fullscreen", "trial_index": 54, "time_elapsed": 2155052, "internal_node_id": "0.0-6.0"}}], "questiondata": {"params": {"CODE": "C6DMOQA6", "MIN_TIME": 14, "inspectCost": 1, "startTime": "Fri Aug 04 2023 12:25:33 GMT+0200 (South Africa Standard Time)", "bonusRate": 0.002, "variance": "1_2_4_8_44", "branching": "31123"}, "final_score": 1861.6}, "eventdata": [{"eventtype": "initialized", "value": null, "timestamp": 1691144732348, "interval": 0}, {"eventtype": "window_resize", "value": [1024, 654], "timestamp": 1691144732349, "interval": 1}, {"eventtype": "window_resize", "value": [1024, 654], "timestamp": 1691144732929, "interval": 580}, {"eventtype": "window_resize", "value": [1366, 768], "timestamp": 1691144743836, "interval": 10907}, {"eventtype": "window_resize", "value": [1024, 654], "timestamp": 1691146891208, "interval": 2147372}], "useragent": "Mozilla/5.0 (Windows NT 10.0; Win64; x64) AppleWebKit/537.36 (KHTML, like Gecko) Chrome/115.0.0.0 Safari/537.36", "mode": "live", "id": "w36679031:a89260990", "status": "user data saved", "Beginhit": "2023-08-04 10:25:28.732446", "Beginexp": "2023-08-04 10:25:47.726261", "Endhit": "2023-08-04 11:01:34.140106", "psiturkStatus": 3, "browser": "<redacted>", "platform": "windows", "language": "en-US"}