{"condition": 0, "counterbalance": 0, "assignmentId": "a55373489", "workerId": "w75504673", "hitId": "h31309376", "currenttrial": 55, "bonus": 0, "data": [{"uniqueid": "w75504673:a55373489", "current_trial": 0, "dateTime": 1693480624201, "trialdata": {"success": true, "trial_type": "fullscreen", "trial_index": 0, "time_elapsed": 5804, "internal_node_id": "0.0-0.0"}}, {"uniqueid": "w75504673:a55373489", "current_trial": 1, "dateTime": 1693480636322, "trialdata": {"view_history": [{"page_index": 0, "viewing_time": 12119}], "rt": 12119, "trial_id": "exp_instructions_control", "trial_type": "instructions", "trial_index": 1, "time_elapsed": 17926, "internal_node_id": "0.0-1.0"}}, {"uniqueid": "w75504673:a55373489", "current_trial": 2, "dateTime": 1693480857785, "trialdata": {"view_history": [{"page_index": 0, "viewing_time": 57720}, {"page_index": 1, "viewing_time": 94848}, {"page_index": 2, "viewing_time": 24037}, {"page_index": 3, "viewing_time": 44858}], "rt": 221463, "trial_id": "mouselab_instructions_1_control", "trial_type": "instructions", "trial_index": 2, "time_elapsed": 239389, "internal_node_id": "0.0-2.0-1.0"}}, {"uniqueid": "w75504673:a55373489", "current_trial": 3, "dateTime": 1693480868238, "trialdata": {"revealed_states": [], "clicked_states": [], "num_clicks_accrued": [0, 0, 0, 0, 0, 0, 0, 0, 0, 0, 0, 0, 0], "stateRewards": ["", 10, -10, 10, 10, 10, -10, 10, 10, 10, -10, 10, -10, 10, -10, -10, 10, 10, 10, 10, -10, 10, 10, 10, 10, 10, -10, -10, 10, -10, 10, -10, -10, -10], "withholdReward": false, "trial_id": "practice_1", "block": "test", "trialIndex": 0, "score": 13.5, "costs": 0, "simulationMode": [null, null, null, null, null], "rewards": [10, 10, 10, -10, -10], "path": ["0", "0", "23", "24", "25", "26", "27"], "rt": [1597, 340, 274, 87, 57], "actions": ["left", "left", "left", "up", "up"], "actionTimes": [4228, 5065, 5839, 6423, 6976], "queries": {"click": {"state": {"target": [], "time": []}, "edge": {"target": [], "time": []}}, "mouseover": {"state": {"target": [], "time": []}, "edge": {"target": [], "time": []}}, "mouseout": {"state": {"target": ["12", "0", "0"], "time": [675, 828, 2216]}, "edge": {"target": [], "time": []}}}, "displayed_time": "7.47", "trialTime": 9964, "trial_type": "mouselab-mdp", "trial_index": 3, "time_elapsed": 249842, "internal_node_id": "0.0-2.0-2.0-0.0"}}, {"uniqueid": "w75504673:a55373489", "current_trial": 4, "dateTime": 1693480875449, "trialdata": {"revealed_states": [], "clicked_states": [], "num_clicks_accrued": [0, 0, 0, 0, 0, 0, 0, 0, 0, 0, 0, 0, 0], "stateRewards": ["", 10, -10, -10, 10, 10, -10, 10, -10, -10, 10, 10, 10, -10, 10, 10, 10, -10, 10, -10, 10, -10, -10, -10, 10, 10, -10, 10, -10, -10, 10, 10, 10, 10], "withholdReward": false, "trial_id": "practice_2", "block": "test", "trialIndex": 1, "score": 13.5, "costs": 0, "simulationMode": [null, null, null, null, null], "rewards": [-10, 10, 10, -10, 10], "path": ["0", "0", "23", "24", "25", "26", "27"], "rt": [2105, 65, 78, 47, 32], "actions": ["left", "left", "left", "up", "up"], "actionTimes": [3374, 3936, 4512, 5056, 5590], "queries": {"click": {"state": {"target": [], "time": []}, "edge": {"target": [], "time": []}}, "mouseover": {"state": {"target": [], "time": []}, "edge": {"target": [], "time": []}}, "mouseout": {"state": {"target": ["0"], "time": [1174]}, "edge": {"target": [], "time": []}}}, "displayed_time": "6.09", "trialTime": 7085, "trial_type": "mouselab-mdp", "trial_index": 4, "time_elapsed": 257052, "internal_node_id": "0.0-2.0-2.0-1.0"}}, {"uniqueid": "w75504673:a55373489", "current_trial": 5, "dateTime": 1693480902194, "trialdata": {"view_history": [{"page_index": 0, "viewing_time": 17896}, {"page_index": 1, "viewing_time": 8847}], "rt": 26744, "trial_id": "mouselab_instructions_2_control", "trial_type": "instructions", "trial_index": 5, "time_elapsed": 283798, "internal_node_id": "0.0-2.0-3.0"}}, {"uniqueid": "w75504673:a55373489", "current_trial": 6, "dateTime": 1693480933142, "trialdata": {"rt": 30946, "response": {"Q0": "The cost for clicking on nodes may vary between nodes.", "Q1": "The better I perform the higher my bonus will be.", "Q2": "No, the amount of cash at each node of the web may be different each time.", "Q3": "To get the highest total score.", "Q4": "Only before moving the spider.", "Q5": "3 seconds"}, "question_order": [0, 1, 2, 3, 4, 5], "correct": {"Q0": "The cost for clicking on nodes may vary between nodes.", "Q1": "The better I perform the higher my bonus will be.", "Q2": "No, the amount of cash at each node of the web may be different each time.", "Q3": "To get the highest total score.", "Q4": "Only before moving the spider.", "Q5": "3 seconds"}, "trial_id": "mouselab_quiz_control", "trial_type": "survey-multi-choice", "trial_index": 6, "time_elapsed": 314746, "internal_node_id": "0.0-2.0-4.0"}}, {"uniqueid": "w75504673:a55373489", "current_trial": 7, "dateTime": 1693480938779, "trialdata": {"rt": 5633, "response": {"Q0": "No"}, "question_order": [0], "trial_id": "repeat_check", "trial_type": "survey-multi-choice", "trial_index": 7, "time_elapsed": 320383, "internal_node_id": "0.0-4.0-0.0"}}, {"uniqueid": "w75504673:a55373489", "current_trial": 8, "dateTime": 1693480947305, "trialdata": {"rt": 8523, "stimulus": "\n<h1> Get ready to start the game! </h1>\n\nThank you for reading the instructions. Get ready start with the 40 rounds of this game.\n<br><br>\nIf you need to take a break, feel free to take one after the end of a round, before continuing to the next one.\n<br><br>\nRemember, the more money the spider gets, the bigger your bonus will be!\n<br><br>\n<div style='text-align: center;'>Press <code>space</code> to begin.</div>\n\n<br><br>\n(If, at any point, the <code>space</code> key does not take you to the next page, click once on the text and try again.)", "response": " ", "trial_id": "mdp_ready", "trial_type": "html-keyboard-response", "trial_index": 8, "time_elapsed": 328909, "internal_node_id": "0.0-6.0-0.0"}}, {"uniqueid": "w75504673:a55373489", "current_trial": 9, "dateTime": 1693480971521, "trialdata": {"revealed_states": [], "clicked_states": [], "num_clicks_accrued": [0, 0, 0, 0, 0, 0, 0, 0, 0, 0, 0, 0, 0], "stateRewards": ["", 1, 2, -3, -6, 50, -7, 7, -7, -80, 21, -1, 2, 2, 4, -1, 33, 84, 1, 14, -53, 81, 6, -2, -2, -3, -9, -87, -38, -59, -5, -74, -3, -71], "withholdReward": false, "trial_id": "mdp_trial_1", "block": "test", "trialIndex": 2, "score": -103, "costs": 0, "simulationMode": [null, null, null, null, null], "rewards": [-2, -2, -3, -9, -87], "path": ["0", "0", "23", "24", "25", "26", "27"], "rt": [842, 61, 147, 19, 74], "actions": ["left", "left", "left", "up", "up"], "actionTimes": [2674, 3232, 3881, 4398, 4981], "queries": {"click": {"state": {"target": [], "time": []}, "edge": {"target": [], "time": []}}, "mouseover": {"state": {"target": [], "time": []}, "edge": {"target": [], "time": []}}, "mouseout": {"state": {"target": ["3", "1"], "time": [1135, 1239]}, "edge": {"target": [], "time": []}}}, "displayed_time": "15.83", "trialTime": 24080, "trial_type": "mouselab-mdp", "trial_index": 9, "time_elapsed": 353124, "internal_node_id": "0.0-6.0-1.0-0.0"}}, {"uniqueid": "w75504673:a55373489", "current_trial": 10, "dateTime": 1693480992408, "trialdata": {"revealed_states": [], "clicked_states": [], "num_clicks_accrued": [0, 0, 0, 0, 0, 0, 0, 0, 0, 0, 0, 0, 0], "stateRewards": ["", 1, 1, 4, 11, 83, -66, 18, -16, -23, 5, 25, 1, -3, 1, -12, 18, 24, -86, -11, -64, 36, 40, 2, 1, -6, 13, 55, 29, 72, -2, 81, -72, -41], "withholdReward": false, "trial_id": "mdp_trial_2", "block": "test", "trialIndex": 3, "score": 65, "costs": 0, "simulationMode": [null, null, null, null, null], "rewards": [2, 1, -6, 13, 55], "path": ["0", "0", "23", "24", "25", "26", "27"], "rt": [3367, 51, 125, 82, 41], "actions": ["left", "left", "left", "up", "up"], "actionTimes": [6858, 7408, 8038, 8619, 9162], "queries": {"click": {"state": {"target": [], "time": []}, "edge": {"target": [], "time": []}}, "mouseover": {"state": {"target": [], "time": []}, "edge": {"target": [], "time": []}}, "mouseout": {"state": {"target": ["0", "0", "12", "13", "14"], "time": [3383, 10557, 10585, 10606, 17372]}, "edge": {"target": [], "time": []}}}, "displayed_time": "17.49", "trialTime": 20737, "trial_type": "mouselab-mdp", "trial_index": 10, "time_elapsed": 374011, "internal_node_id": "0.0-6.0-1.0-1.0"}}, {"uniqueid": "w75504673:a55373489", "current_trial": 11, "dateTime": 1693481009425, "trialdata": {"revealed_states": [], "clicked_states": [], "num_clicks_accrued": [0, 0, 0, 0, 0, 0, 0, 0, 0, 0, 0, 0, 0], "stateRewards": ["", 1, 1, -6, -2, 7, 77, 3, 16, -16, 66, 31, -1, 3, -8, -6, 33, -50, -48, 7, -60, -66, 36, 2, -3, 3, -7, -12, -61, -79, -4, 8, 74, -70], "withholdReward": false, "trial_id": "mdp_trial_3", "block": "test", "trialIndex": 4, "score": -84, "costs": 0, "simulationMode": [null, null, null, null, null], "rewards": [2, -3, 3, -7, -79], "path": ["0", "0", "23", "24", "25", "26", "29"], "rt": [1762, 383, 90, 279, 371], "actions": ["left", "left", "left", "up", "left"], "actionTimes": [2955, 3840, 4428, 5208, 6079], "queries": {"click": {"state": {"target": [], "time": []}, "edge": {"target": [], "time": []}}, "mouseover": {"state": {"target": [], "time": []}, "edge": {"target": [], "time": []}}, "mouseout": {"state": {"target": [], "time": []}, "edge": {"target": [], "time": []}}}, "displayed_time": "15.19", "trialTime": 16881, "trial_type": "mouselab-mdp", "trial_index": 11, "time_elapsed": 391028, "internal_node_id": "0.0-6.0-1.0-2.0"}}, {"uniqueid": "w75504673:a55373489", "current_trial": 12, "dateTime": 1693481026507, "trialdata": {"revealed_states": [], "clicked_states": ["24"], "num_clicks_accrued": [0, 0, 0, 0, 0, 0, 0, 0, 0, 0, 0, 0, 0], "stateRewards": ["", -2, 3, -5, -7, 66, 43, -60, -4, -70, -75, 4, -1, 2, 2, -13, 54, 11, -40, -1, 77, 32, 15, -2, 3, -8, -9, -35, 83, -27, 6, -74, -34, 44], "withholdReward": false, "trial_id": "mdp_trial_4", "block": "test", "trialIndex": 5, "score": -0.40000000000000036, "costs": -1.4, "simulationMode": [null, null, null, null, null], "rewards": [-1, 2, 2, -13, 11], "path": ["0", "0", "12", "13", "14", "15", "17"], "rt": [3222, 335, 149, 173, 63], "actions": ["right", "right", "right", "up", "right"], "actionTimes": [3832, 4670, 5317, 5987, 6550], "queries": {"click": {"state": {"target": ["24"], "time": [1880]}, "edge": {"target": [], "time": []}}, "mouseover": {"state": {"target": ["23", "24", "28", "26", "24", "23"], "time": [903, 1194, 1313, 1424, 1604, 2861]}, "edge": {"target": [], "time": []}}, "mouseout": {"state": {"target": ["0", "23", "24", "28", "26", "24", "24", "23", "0", "12", "18"], "time": [868, 1167, 1229, 1334, 1521, 1953, 2160, 3340, 8723, 11021, 11202]}, "edge": {"target": [], "time": []}}}, "displayed_time": "14.61", "trialTime": 16945, "trial_type": "mouselab-mdp", "trial_index": 12, "time_elapsed": 408110, "internal_node_id": "0.0-6.0-1.0-3.0"}}, {"uniqueid": "w75504673:a55373489", "current_trial": 13, "dateTime": 1693481044146, "trialdata": {"revealed_states": [], "clicked_states": ["15"], "num_clicks_accrued": [0, 0, 0, 0, 0, 0, 0, 0, 0, 0, 0, 0, 0], "stateRewards": ["", -1, 4, -5, 9, 29, -75, -42, -16, 24, -28, -41, 2, -3, 1, 10, 60, 47, 55, -1, -53, 22, -40, 2, -3, -6, 4, -26, 44, 54, 15, -76, 42, 14], "withholdReward": false, "trial_id": "mdp_trial_5", "block": "test", "trialIndex": 6, "score": 55.6, "costs": -1.4, "simulationMode": [null, null, null, null, null, null], "rewards": [2, -3, 1, 10, 47], "path": ["0", "0", "12", "13", "14", "15", "17"], "rt": [1900, 2685, 62, 423, 56, 553], "actions": ["left", "right", "right", "right", "up", "right"], "actionTimes": [3479, 6166, 6727, 7650, 8207, 9259], "queries": {"click": {"state": {"target": ["15"], "time": [2407]}, "edge": {"target": [], "time": []}}, "mouseover": {"state": {"target": ["12", "15", "15", "18", "14", "14"], "time": [1774, 1920, 2191, 4594, 5129, 5247]}, "edge": {"target": [], "time": []}}, "mouseout": {"state": {"target": ["15", "18", "12", "15", "15", "18", "15", "14", "14"], "time": [427, 1121, 1788, 2108, 4581, 4608, 5073, 5170, 5275]}, "edge": {"target": [], "time": []}}}, "displayed_time": "15.58", "trialTime": 17497, "trial_type": "mouselab-mdp", "trial_index": 13, "time_elapsed": 425750, "internal_node_id": "0.0-6.0-1.0-4.0"}}, {"uniqueid": "w75504673:a55373489", "current_trial": 14, "dateTime": 1693481061190, "trialdata": {"revealed_states": [], "clicked_states": ["29"], "num_clicks_accrued": [0, 0, 0, 0, 0, 0, 0, 0, 0, 0, 0, 0, 0], "stateRewards": ["", 1, 1, -3, 2, 22, -25, -11, -5, 50, 49, 3, 1, -1, 8, 14, -85, -30, 57, -6, -39, -16, 59, -2, -1, 5, 5, 59, -16, 8, 4, 67, 56, -9], "withholdReward": false, "trial_id": "mdp_trial_6", "block": "test", "trialIndex": 7, "score": 13.6, "costs": -1.4, "simulationMode": [null, null, null, null, null], "rewards": [-2, -1, 5, 5, 8], "path": ["0", "0", "23", "24", "25", "26", "29"], "rt": [3385, 364, 119, 34, 78], "actions": ["left", "left", "left", "up", "left"], "actionTimes": [4464, 5327, 5943, 6476, 7055], "queries": {"click": {"state": {"target": ["29"], "time": [2306]}, "edge": {"target": [], "time": []}}, "mouseover": {"state": {"target": ["28", "26", "29", "26", "28"], "time": [1483, 1566, 1934, 2559, 2990]}, "edge": {"target": [], "time": []}}, "mouseout": {"state": {"target": ["15", "13", "12", "28", "26", "29", "26"], "time": [378, 517, 649, 1524, 1865, 2525, 2955]}, "edge": {"target": [], "time": []}}}, "displayed_time": "15.08", "trialTime": 16902, "trial_type": "mouselab-mdp", "trial_index": 14, "time_elapsed": 442794, "internal_node_id": "0.0-6.0-1.0-5.0"}}, {"uniqueid": "w75504673:a55373489", "current_trial": 15, "dateTime": 1693481078185, "trialdata": {"revealed_states": [], "clicked_states": ["20"], "num_clicks_accrued": [0, 0, 0, 0, 0, 0, 0, 0, 0, 0, 0, 0, 0], "stateRewards": ["", 1, -3, -2, 14, 49, -40, -39, 2, 26, -61, 73, 1, -4, -8, 12, 79, 29, -65, -13, 55, -26, 27, -1, 3, 3, 9, -17, -60, -18, -8, 35, -88, 69], "withholdReward": false, "trial_id": "mdp_trial_7", "block": "test", "trialIndex": 8, "score": 29.6, "costs": -1.4, "simulationMode": [null, null, null, null, null], "rewards": [1, -4, -8, -13, 55], "path": ["0", "0", "12", "13", "14", "19", "20"], "rt": [3066, 51, 185, 39, 86], "actions": ["right", "right", "right", "down", "right"], "actionTimes": [4640, 5194, 5876, 6418, 7006], "queries": {"click": {"state": {"target": ["20"], "time": [2784]}, "edge": {"target": [], "time": []}}, "mouseover": {"state": {"target": ["0", "12", "13", "19", "20"], "time": [1759, 1891, 2016, 2357, 2572]}, "edge": {"target": [], "time": []}}, "mouseout": {"state": {"target": ["28", "0", "12", "13", "19"], "time": [148, 1836, 1969, 2127, 2481]}, "edge": {"target": [], "time": []}}}, "displayed_time": "15.57", "trialTime": 16805, "trial_type": "mouselab-mdp", "trial_index": 15, "time_elapsed": 459788, "internal_node_id": "0.0-6.0-1.0-6.0"}}, {"uniqueid": "w75504673:a55373489", "current_trial": 16, "dateTime": 1693481094571, "trialdata": {"revealed_states": [], "clicked_states": ["31"], "num_clicks_accrued": [0, 0, 0, 0, 0, 0, 0, 0, 0, 0, 0, 0, 0], "stateRewards": ["", 2, -3, -4, -1, 25, -16, 16, 10, -71, -20, -55, 1, 3, -4, -9, 1, 32, 11, -6, 32, -50, -41, -1, 4, 4, -8, 7, -81, 70, 2, -52, 45, -10], "withholdReward": false, "trial_id": "mdp_trial_8", "block": "test", "trialIndex": 9, "score": -2.4000000000000004, "costs": -1.4, "simulationMode": [null, null, null, null, null], "rewards": [-1, 4, 4, 2, -10], "path": ["0", "0", "23", "24", "25", "30", "33"], "rt": [3058, 77, 165, 501, 148], "actions": ["left", "left", "left", "down", "left"], "actionTimes": [4152, 4730, 5401, 6404, 7051], "queries": {"click": {"state": {"target": ["31"], "time": [1596]}, "edge": {"target": [], "time": []}}, "mouseover": {"state": {"target": ["31", "31"], "time": [1297, 1443]}, "edge": {"target": [], "time": []}}, "mouseout": {"state": {"target": ["20", "19", "22", "0", "31", "31", "31"], "time": [401, 443, 471, 1179, 1381, 1665, 1818]}, "edge": {"target": [], "time": []}}}, "displayed_time": "15.10", "trialTime": 16243, "trial_type": "mouselab-mdp", "trial_index": 16, "time_elapsed": 476175, "internal_node_id": "0.0-6.0-1.0-7.0"}}, {"uniqueid": "w75504673:a55373489", "current_trial": 17, "dateTime": 1693481111360, "trialdata": {"revealed_states": [], "clicked_states": ["11"], "num_clicks_accrued": [0, 0, 0, 0, 0, 0, 0, 0, 0, 0, 0, 0, 0], "stateRewards": ["", 2, -1, -3, 16, -3, -16, -62, -1, 13, -26, 43, -1, 4, 3, -9, -54, -37, -3, -12, -71, -68, -57, 1, -3, 2, -9, 2, -2, -9, -11, 84, -52, 55], "withholdReward": false, "trial_id": "mdp_trial_9", "block": "test", "trialIndex": 10, "score": 38.6, "costs": -1.4, "simulationMode": [null, null, null, null, null], "rewards": [2, -1, -3, -1, 43], "path": ["0", "0", "1", "2", "3", "8", "11"], "rt": [3128, 43, 77, 391, 179], "actions": ["up", "up", "up", "left", "left"], "actionTimes": [4120, 4663, 5239, 6129, 6807], "queries": {"click": {"state": {"target": ["11"], "time": [1992]}, "edge": {"target": [], "time": []}}, "mouseover": {"state": {"target": ["1", "2", "8", "8", "11", "8"], "time": [1147, 1209, 1348, 1424, 1836, 2251]}, "edge": {"target": [], "time": []}}, "mouseout": {"state": {"target": ["0", "1", "2", "8", "8", "11"], "time": [1085, 1181, 1279, 1383, 1661, 2202]}, "edge": {"target": [], "time": []}}}, "displayed_time": "14.99", "trialTime": 16631, "trial_type": "mouselab-mdp", "trial_index": 17, "time_elapsed": 492964, "internal_node_id": "0.0-6.0-1.0-8.0"}}, {"uniqueid": "w75504673:a55373489", "current_trial": 18, "dateTime": 1693481129357, "trialdata": {"revealed_states": [], "clicked_states": ["16"], "num_clicks_accrued": [0, 0, 0, 0, 0, 0, 0, 0, 0, 0, 0, 0, 0], "stateRewards": ["", 2, -3, 5, 11, -79, 54, 11, -9, -78, 33, 22, -2, -1, 2, 14, 43, 34, 1, 10, 49, -65, 39, -1, 1, -1, 3, -16, -2, 11, 2, 12, 48, -65], "withholdReward": false, "trial_id": "mdp_trial_10", "block": "test", "trialIndex": 11, "score": 54.6, "costs": -1.4, "simulationMode": [null, null, null, null, null], "rewards": [-2, -1, 2, 14, 43], "path": ["0", "0", "12", "13", "14", "15", "16"], "rt": [3069, 396, 78, 341, 66], "actions": ["right", "right", "right", "up", "up"], "actionTimes": [4499, 5393, 5970, 6816, 7382], "queries": {"click": {"state": {"target": ["16"], "time": [2567]}, "edge": {"target": [], "time": []}}, "mouseover": {"state": {"target": ["12", "15", "16"], "time": [1738, 2002, 2301]}, "edge": {"target": [], "time": []}}, "mouseout": {"state": {"target": ["8", "10", "0", "12", "15", "16", "15", "17", "21"], "time": [210, 335, 1690, 1808, 2051, 2837, 8391, 8426, 16642]}, "edge": {"target": [], "time": []}}}, "displayed_time": "15.43", "trialTime": 17852, "trial_type": "mouselab-mdp", "trial_index": 18, "time_elapsed": 510961, "internal_node_id": "0.0-6.0-1.0-9.0"}}, {"uniqueid": "w75504673:a55373489", "current_trial": 19, "dateTime": 1693481147245, "trialdata": {"revealed_states": [], "clicked_states": ["28"], "num_clicks_accrued": [0, 0, 0, 0, 0, 0, 0, 0, 0, 0, 0, 0, 0], "stateRewards": ["", 2, -1, 8, -2, -16, 69, -39, -7, -13, -27, -86, 2, -2, 2, 13, -34, -16, -20, -5, 19, 81, 32, -2, -1, 2, -14, 20, 80, 58, 4, 70, 12, 73], "withholdReward": false, "trial_id": "mdp_trial_11", "block": "test", "trialIndex": 12, "score": 63.6, "costs": -1.4, "simulationMode": [null, null, null, null, null], "rewards": [-2, -1, 2, -14, 80], "path": ["0", "0", "23", "24", "25", "26", "28"], "rt": [2741, 379, 138, 71, 75], "actions": ["left", "left", "left", "up", "right"], "actionTimes": [4009, 4886, 5526, 6098, 6672], "queries": {"click": {"state": {"target": ["28"], "time": [1913]}, "edge": {"target": [], "time": []}}, "mouseover": {"state": {"target": ["28"], "time": [1610]}, "edge": {"target": [], "time": []}}, "mouseout": {"state": {"target": ["0", "28", "28"], "time": [1492, 1917, 2082]}, "edge": {"target": [], "time": []}}}, "displayed_time": "15.27", "trialTime": 17742, "trial_type": "mouselab-mdp", "trial_index": 19, "time_elapsed": 528849, "internal_node_id": "0.0-6.0-1.0-10.0"}}, {"uniqueid": "w75504673:a55373489", "current_trial": 20, "dateTime": 1693481164288, "trialdata": {"revealed_states": [], "clicked_states": ["18"], "num_clicks_accrued": [0, 0, 0, 0, 0, 0, 0, 0, 0, 0, 0, 0, 0], "stateRewards": ["", -1, -3, -3, 1, -38, 2, -53, -2, -1, -81, 70, -1, 1, -5, -9, 46, 15, 35, -1, -22, 38, 59, -2, 4, -8, 13, 1, -83, -43, 4, 76, 13, 48], "withholdReward": false, "trial_id": "mdp_trial_12", "block": "test", "trialIndex": 13, "score": 19.6, "costs": -1.4, "simulationMode": [null, null, null, null, null], "rewards": [-1, 1, -5, -9, 35], "path": ["0", "0", "12", "13", "14", "15", "18"], "rt": [3092, 66, 33, 9, 421], "actions": ["right", "right", "right", "up", "left"], "actionTimes": [4095, 4658, 5188, 5698, 6617], "queries": {"click": {"state": {"target": ["18"], "time": [2058]}, "edge": {"target": [], "time": []}}, "mouseover": {"state": {"target": ["12", "18", "18"], "time": [1160, 1292, 1709]}, "edge": {"target": [], "time": []}}, "mouseout": {"state": {"target": ["23", "0", "12", "18", "18"], "time": [611, 1063, 1195, 1389, 2258]}, "edge": {"target": [], "time": []}}}, "displayed_time": "15.00", "trialTime": 16898, "trial_type": "mouselab-mdp", "trial_index": 20, "time_elapsed": 545891, "internal_node_id": "0.0-6.0-1.0-11.0"}}, {"uniqueid": "w75504673:a55373489", "current_trial": 21, "dateTime": 1693481184971, "trialdata": {"revealed_states": [], "clicked_states": ["16"], "num_clicks_accrued": [0, 0, 0, 0, 0, 0, 0, 0, 0, 0, 0, 0, 0], "stateRewards": ["", -2, -2, -3, -6, -15, -11, 41, -12, -63, -76, 2, -2, -3, 8, 9, -36, -2, -18, -16, -32, -85, -17, -2, 1, 5, -16, 82, 35, -88, -1, 80, -82, -20], "withholdReward": false, "trial_id": "mdp_trial_13", "block": "test", "trialIndex": 14, "score": -101.4, "costs": -1.4, "simulationMode": [null, null, null, null, null], "rewards": [-2, 1, 5, -16, -88], "path": ["0", "0", "23", "24", "25", "26", "29"], "rt": [3916, 425, 95, 35, 352], "actions": ["left", "left", "left", "up", "left"], "actionTimes": [6487, 7415, 8008, 8552, 9404], "queries": {"click": {"state": {"target": ["16"], "time": [3495]}, "edge": {"target": [], "time": []}}, "mouseover": {"state": {"target": ["18", "16"], "time": [2995, 3225]}, "edge": {"target": [], "time": []}}, "mouseout": {"state": {"target": ["0", "12", "19", "20", "21", "23", "0", "18", "16", "21", "31", "30", "33", "33", "32"], "time": [1273, 1308, 1342, 1349, 1877, 2175, 2760, 3065, 10329, 16072, 16329, 16378, 16405, 17086, 17128]}, "edge": {"target": [], "time": []}}}, "displayed_time": "16.57", "trialTime": 20527, "trial_type": "mouselab-mdp", "trial_index": 21, "time_elapsed": 566574, "internal_node_id": "0.0-6.0-1.0-12.0"}}, {"uniqueid": "w75504673:a55373489", "current_trial": 22, "dateTime": 1693481202822, "trialdata": {"revealed_states": [], "clicked_states": ["20"], "num_clicks_accrued": [0, 0, 0, 0, 0, 0, 0, 0, 0, 0, 0, 0, 0], "stateRewards": ["", 1, 1, 5, 6, -29, -7, 3, -16, 9, -46, 65, -1, 4, -1, -16, -63, -77, -87, 8, 80, -50, 43, -1, -1, -5, 5, -38, -71, -62, 9, 81, -50, -52], "withholdReward": false, "trial_id": "mdp_trial_14", "block": "test", "trialIndex": 15, "score": 88.6, "costs": -1.4, "simulationMode": [null, null, null, null, null], "rewards": [-1, 4, -1, 8, 80], "path": ["0", "0", "12", "13", "14", "19", "20"], "rt": [3155, 25, 364, 51, 27], "actions": ["right", "right", "right", "down", "right"], "actionTimes": [5014, 5539, 6406, 6954, 7479], "queries": {"click": {"state": {"target": ["20"], "time": [2597]}, "edge": {"target": [], "time": []}}, "mouseover": {"state": {"target": ["12", "13", "14", "20", "19", "22"], "time": [2075, 2117, 2173, 2270, 2766, 2819]}, "edge": {"target": [], "time": []}}, "mouseout": {"state": {"target": ["0", "12", "13", "14", "20", "19", "22"], "time": [2055, 2103, 2152, 2201, 2742, 2805, 2846]}, "edge": {"target": [], "time": []}}}, "displayed_time": "15.86", "trialTime": 17708, "trial_type": "mouselab-mdp", "trial_index": 22, "time_elapsed": 584425, "internal_node_id": "0.0-6.0-1.0-13.0"}}, {"uniqueid": "w75504673:a55373489", "current_trial": 23, "dateTime": 1693481221659, "trialdata": {"revealed_states": [], "clicked_states": ["31"], "num_clicks_accrued": [0, 0, 0, 0, 0, 0, 0, 0, 0, 0, 0, 0, 0], "stateRewards": ["", 2, 4, -6, -13, -75, -81, 30, 7, 5, 59, -65, -1, -1, 7, 14, -38, 36, -41, 1, -54, -5, 64, 2, -1, 5, 6, -19, 79, 11, 16, -33, -50, 58], "withholdReward": false, "trial_id": "mdp_trial_15", "block": "test", "trialIndex": 16, "score": -20.4, "costs": -1.4, "simulationMode": [null, null, null, null, null], "rewards": [-1, -1, 7, 14, -38], "path": ["0", "0", "12", "13", "14", "15", "16"], "rt": [4429, 22, 63, 54, 57], "actions": ["right", "right", "right", "up", "up"], "actionTimes": [5255, 5778, 6340, 6893, 7452], "queries": {"click": {"state": {"target": ["31"], "time": [2237]}, "edge": {"target": [], "time": []}}, "mouseover": {"state": {"target": ["23", "30", "30", "31", "31"], "time": [1011, 1171, 1442, 1532, 1713]}, "edge": {"target": [], "time": []}}, "mouseout": {"state": {"target": ["0", "23", "30", "30", "31", "31", "31", "24", "23", "0", "12", "13", "14", "15", "16", "15", "14", "13", "12", "0", "0", "12", "13", "15", "16", "12", "0"], "time": [963, 1053, 1261, 1512, 1581, 2574, 9789, 9866, 10012, 10157, 10394, 10630, 10817, 10914, 11171, 11289, 11407, 11470, 11532, 11602, 11817, 11859, 11908, 12171, 12463, 16831, 16852]}, "edge": {"target": [], "time": []}}}, "displayed_time": "14.83", "trialTime": 18689, "trial_type": "mouselab-mdp", "trial_index": 23, "time_elapsed": 603262, "internal_node_id": "0.0-6.0-1.0-14.0"}}, {"uniqueid": "w75504673:a55373489", "current_trial": 24, "dateTime": 1693481241443, "trialdata": {"revealed_states": [], "clicked_states": ["6"], "num_clicks_accrued": [0, 0, 0, 0, 0, 0, 0, 0, 0, 0, 0, 0, 0], "stateRewards": ["", -2, 2, 8, -6, -25, 3, 87, 2, -62, -2, 74, -2, -1, 2, -1, 79, 49, -37, -14, 5, 67, -9, -1, 2, -2, 5, 15, 38, 32, -14, -38, -38, 30], "withholdReward": false, "trial_id": "mdp_trial_16", "block": "test", "trialIndex": 17, "score": 3.5999999999999996, "costs": -1.4, "simulationMode": [null, null, null, null, null], "rewards": [-2, 2, 8, -6, 3], "path": ["0", "0", "1", "2", "3", "4", "6"], "rt": [4814, 60, 136, 112, 269], "actions": ["up", "up", "up", "right", "right"], "actionTimes": [8156, 8717, 9356, 9977, 10746], "queries": {"click": {"state": {"target": ["6"], "time": [5078]}, "edge": {"target": [], "time": []}}, "mouseover": {"state": {"target": ["7", "6"], "time": [3656, 3816]}, "edge": {"target": [], "time": []}}, "mouseout": {"state": {"target": ["23", "1", "7", "6", "6", "4", "3", "2", "1", "0", "1", "2", "3", "4", "6"], "time": [392, 2183, 3697, 12705, 12976, 13295, 13628, 13753, 13913, 14100, 14177, 14316, 14538, 14691, 14837]}, "edge": {"target": [], "time": []}}}, "displayed_time": "17.34", "trialTime": 19624, "trial_type": "mouselab-mdp", "trial_index": 24, "time_elapsed": 623046, "internal_node_id": "0.0-6.0-1.0-15.0"}}, {"uniqueid": "w75504673:a55373489", "current_trial": 25, "dateTime": 1693481259683, "trialdata": {"revealed_states": [], "clicked_states": ["9"], "num_clicks_accrued": [0, 0, 0, 0, 0, 0, 0, 0, 0, 0, 0, 0, 0], "stateRewards": ["", 1, 4, -8, -5, -15, -7, 21, 13, -30, 40, -65, 1, 1, 5, -14, 35, 27, -38, -11, 36, -58, -47, -2, 4, -3, 13, -16, -49, 22, 15, -56, -44, -10], "withholdReward": false, "trial_id": "mdp_trial_17", "block": "test", "trialIndex": 18, "score": 48.6, "costs": -1.4, "simulationMode": [null, null, null, null, null], "rewards": [1, 4, -8, 13, 40], "path": ["0", "0", "1", "2", "3", "8", "10"], "rt": [5830, 75, 82, 101, 503], "actions": ["up", "up", "up", "left", "down"], "actionTimes": [7305, 7879, 8462, 9065, 10078], "queries": {"click": {"state": {"target": ["9"], "time": [4323]}, "edge": {"target": [], "time": []}}, "mouseover": {"state": {"target": ["28", "10", "8", "11", "9", "8"], "time": [1893, 2796, 2976, 3191, 3539, 4657]}, "edge": {"target": [], "time": []}}, "mouseout": {"state": {"target": ["4", "2", "1", "28", "10", "8", "11", "9", "8", "2"], "time": [73, 879, 997, 2705, 2907, 3060, 3386, 4518, 5754, 17872]}, "edge": {"target": [], "time": []}}}, "displayed_time": "15.48", "trialTime": 18066, "trial_type": "mouselab-mdp", "trial_index": 25, "time_elapsed": 641286, "internal_node_id": "0.0-6.0-1.0-16.0"}}, {"uniqueid": "w75504673:a55373489", "current_trial": 26, "dateTime": 1693481276811, "trialdata": {"revealed_states": [], "clicked_states": ["7"], "num_clicks_accrued": [0, 0, 0, 0, 0, 0, 0, 0, 0, 0, 0, 0, 0], "stateRewards": ["", 1, -1, 1, -14, -10, 67, -28, -11, 72, 40, -65, -1, 1, 1, -2, 8, -55, 34, -10, 61, 33, -15, 2, -4, 7, 4, -75, 63, -21, -16, 61, 19, 21], "withholdReward": false, "trial_id": "mdp_trial_18", "block": "test", "trialIndex": 19, "score": -24.4, "costs": -1.4, "simulationMode": [null, null, null, null, null], "rewards": [1, -1, 1, -14, -10], "path": ["0", "0", "1", "2", "3", "4", "5"], "rt": [4201, 77, 151, 93, 805], "actions": ["up", "up", "up", "right", "up"], "actionTimes": [5227, 5805, 6455, 7050, 8360], "queries": {"click": {"state": {"target": ["7"], "time": [2758]}, "edge": {"target": [], "time": []}}, "mouseover": {"state": {"target": ["12", "18", "15", "16", "4", "7"], "time": [1130, 1289, 1366, 1463, 2025, 2331]}, "edge": {"target": [], "time": []}}, "mouseout": {"state": {"target": ["1", "12", "18", "15", "16", "4", "7"], "time": [303, 1164, 1303, 1380, 1803, 2095, 2998]}, "edge": {"target": [], "time": []}}}, "displayed_time": "15.03", "trialTime": 16979, "trial_type": "mouselab-mdp", "trial_index": 26, "time_elapsed": 658415, "internal_node_id": "0.0-6.0-1.0-17.0"}}, {"uniqueid": "w75504673:a55373489", "current_trial": 27, "dateTime": 1693481293211, "trialdata": {"revealed_states": [], "clicked_states": ["7"], "num_clicks_accrued": [0, 0, 0, 0, 0, 0, 0, 0, 0, 0, 0, 0, 0], "stateRewards": ["", 2, 3, -6, -5, -3, 55, 40, 11, 61, 11, 51, 2, -4, -6, 9, -25, 29, -15, -6, 7, -77, -2, -2, -4, 1, 14, -43, -1, 56, -12, -54, 41, -74], "withholdReward": false, "trial_id": "mdp_trial_19", "block": "test", "trialIndex": 20, "score": 32.6, "costs": -1.4, "simulationMode": [null, null, null, null, null], "rewards": [2, 3, -6, -5, 40], "path": ["0", "0", "1", "2", "3", "4", "7"], "rt": [3545, 21, 208, 106, 253], "actions": ["up", "up", "up", "right", "down"], "actionTimes": [4350, 4874, 5582, 6188, 6942], "queries": {"click": {"state": {"target": ["7"], "time": [2381]}, "edge": {"target": [], "time": []}}, "mouseover": {"state": {"target": ["0", "23", "30", "31", "24", "1", "7", "2"], "time": [935, 1018, 1234, 1629, 1790, 1914, 2032, 2630]}, "edge": {"target": [], "time": []}}, "mouseout": {"state": {"target": ["1", "0", "23", "30", "31", "24", "1", "7", "2"], "time": [296, 977, 1032, 1546, 1741, 1811, 1949, 2602, 2644]}, "edge": {"target": [], "time": []}}}, "displayed_time": "14.81", "trialTime": 16219, "trial_type": "mouselab-mdp", "trial_index": 27, "time_elapsed": 674815, "internal_node_id": "0.0-6.0-1.0-18.0"}}, {"uniqueid": "w75504673:a55373489", "current_trial": 28, "dateTime": 1693481311163, "trialdata": {"revealed_states": [], "clicked_states": ["5"], "num_clicks_accrued": [0, 0, 0, 0, 0, 0, 0, 0, 0, 0, 0, 0, 0], "stateRewards": ["", -1, 2, -2, 13, -56, -28, 10, 14, 53, -80, -29, 1, -3, -3, -14, 14, 9, -40, -9, 18, 18, 48, 1, 1, 1, -9, 64, -39, -9, 7, -52, -78, 7], "withholdReward": false, "trial_id": "mdp_trial_20", "block": "test", "trialIndex": 21, "score": 20.6, "costs": -1.4, "simulationMode": [null, null, null, null, null], "rewards": [-1, 2, -2, 13, 10], "path": ["0", "0", "1", "2", "3", "4", "7"], "rt": [4854, 69, 139, 62, 63], "actions": ["up", "up", "up", "right", "down"], "actionTimes": [6067, 6636, 7275, 7837, 8400], "queries": {"click": {"state": {"target": ["5"], "time": [2766]}, "edge": {"target": [], "time": []}}, "mouseover": {"state": {"target": ["7", "4", "5", "4", "7"], "time": [1642, 2114, 2260, 2954, 3017]}, "edge": {"target": [], "time": []}}, "mouseout": {"state": {"target": ["1", "1", "0", "7", "4", "5", "4"], "time": [259, 787, 968, 2065, 2211, 2927, 2989]}, "edge": {"target": [], "time": []}}}, "displayed_time": "15.21", "trialTime": 17801, "trial_type": "mouselab-mdp", "trial_index": 28, "time_elapsed": 692767, "internal_node_id": "0.0-6.0-1.0-19.0"}}, {"uniqueid": "w75504673:a55373489", "current_trial": 29, "dateTime": 1693481327828, "trialdata": {"revealed_states": [], "clicked_states": [], "num_clicks_accrued": [0, 0, 0, 0, 0, 0, 0, 0, 0, 0, 0, 0, 0], "stateRewards": ["", -1, 1, -5, -6, -78, 47, -13, 12, 48, -88, 20, 2, -3, -2, 13, -20, 37, -57, 14, -38, 30, 31, -2, -2, 8, 2, -23, 78, 28, 12, -74, -88, 8], "withholdReward": false, "trial_id": "mdp_trial_21", "block": "test", "trialIndex": 22, "score": 36, "costs": 0, "simulationMode": [null, null, null, null, null], "rewards": [-1, 1, -5, -6, 47], "path": ["0", "0", "1", "2", "3", "4", "6"], "rt": [4629, 42, 23, 452, 314], "actions": ["up", "up", "up", "right", "right"], "actionTimes": [5654, 6197, 6720, 7676, 8490], "queries": {"click": {"state": {"target": [], "time": []}, "edge": {"target": [], "time": []}}, "mouseover": {"state": {"target": ["1", "2", "4", "5", "4", "6", "6"], "time": [1542, 1938, 2084, 2183, 2647, 3936, 4835]}, "edge": {"target": [], "time": []}}, "mouseout": {"state": {"target": ["7", "1", "2", "4", "5", "4", "6"], "time": [243, 1896, 1994, 2112, 2549, 2660, 4459]}, "edge": {"target": [], "time": []}}}, "displayed_time": "15.03", "trialTime": 16513, "trial_type": "mouselab-mdp", "trial_index": 29, "time_elapsed": 709432, "internal_node_id": "0.0-6.0-1.0-20.0"}}, {"uniqueid": "w75504673:a55373489", "current_trial": 30, "dateTime": 1693481345250, "trialdata": {"revealed_states": [], "clicked_states": ["11"], "num_clicks_accrued": [0, 0, 0, 0, 0, 0, 0, 0, 0, 0, 0, 0, 0], "stateRewards": ["", 2, -4, 4, 9, 69, 9, -75, 12, -86, 66, 25, -1, 3, 2, -13, -88, -3, 1, 4, -69, 49, -84, 2, -1, 4, 2, -18, -81, -52, -15, -69, -54, 25], "withholdReward": false, "trial_id": "mdp_trial_22", "block": "test", "trialIndex": 23, "score": 37.6, "costs": -1.4, "simulationMode": [null, null, null, null, null], "rewards": [2, -4, 4, 12, 25], "path": ["0", "0", "1", "2", "3", "8", "11"], "rt": [2740, 35, 74, 42, 17], "actions": ["up", "up", "up", "left", "left"], "actionTimes": [3854, 4390, 4964, 5509, 6025], "queries": {"click": {"state": {"target": ["11"], "time": [1767]}, "edge": {"target": [], "time": []}}, "mouseover": {"state": {"target": ["1", "2", "8", "11", "10"], "time": [1222, 1320, 1451, 1486, 2188]}, "edge": {"target": [], "time": []}}, "mouseout": {"state": {"target": ["6", "4", "2", "1", "2", "8", "11"], "time": [125, 257, 507, 1264, 1389, 1465, 1952]}, "edge": {"target": [], "time": []}}}, "displayed_time": "15.12", "trialTime": 17218, "trial_type": "mouselab-mdp", "trial_index": 30, "time_elapsed": 726854, "internal_node_id": "0.0-6.0-1.0-21.0"}}, {"uniqueid": "w75504673:a55373489", "current_trial": 31, "dateTime": 1693481361845, "trialdata": {"revealed_states": [], "clicked_states": ["7"], "num_clicks_accrued": [0, 0, 0, 0, 0, 0, 0, 0, 0, 0, 0, 0, 0], "stateRewards": ["", 1, 2, 7, 13, 88, -71, 27, 3, 60, 5, -53, -2, 2, -6, -1, -30, 79, 47, -4, -14, 46, 68, 1, 1, 8, 10, -14, 86, 48, -11, -67, -44, 5], "withholdReward": false, "trial_id": "mdp_trial_23", "block": "test", "trialIndex": 24, "score": 48.6, "costs": -1.4, "simulationMode": [null, null, null, null, null], "rewards": [1, 2, 7, 13, 27], "path": ["0", "0", "1", "2", "3", "4", "7"], "rt": [2593, 39, 76, 74, 291], "actions": ["up", "up", "up", "right", "down"], "actionTimes": [3752, 4293, 4865, 5439, 6247], "queries": {"click": {"state": {"target": ["7"], "time": [1761]}, "edge": {"target": [], "time": []}}, "mouseover": {"state": {"target": ["7", "7", "2"], "time": [1336, 1517, 1989]}, "edge": {"target": [], "time": []}}, "mouseout": {"state": {"target": ["1", "7", "7"], "time": [739, 1420, 1913]}, "edge": {"target": [], "time": []}}}, "displayed_time": "15.16", "trialTime": 16413, "trial_type": "mouselab-mdp", "trial_index": 31, "time_elapsed": 743448, "internal_node_id": "0.0-6.0-1.0-22.0"}}, {"uniqueid": "w75504673:a55373489", "current_trial": 32, "dateTime": 1693481380504, "trialdata": {"revealed_states": [], "clicked_states": ["5"], "num_clicks_accrued": [0, 0, 0, 0, 0, 0, 0, 0, 0, 0, 0, 0, 0], "stateRewards": ["", -2, -1, -3, -1, -78, -6, 2, -1, 22, -88, 32, 2, 2, -7, -8, -51, -17, 54, 2, -44, 54, 75, 2, -2, -8, -15, -29, 12, -67, 15, -1, -47, -47], "withholdReward": false, "trial_id": "mdp_trial_24", "block": "test", "trialIndex": 25, "score": 23.6, "costs": -1.4, "simulationMode": [null, null, null, null, null], "rewards": [-2, -1, -3, -1, 32], "path": ["0", "0", "1", "2", "3", "8", "11"], "rt": [2939, 66, 108, 50, 64], "actions": ["up", "up", "up", "left", "left"], "actionTimes": [4105, 4668, 5273, 5826, 6388], "queries": {"click": {"state": {"target": ["5"], "time": [1657]}, "edge": {"target": [], "time": []}}, "mouseover": {"state": {"target": ["1", "7", "4", "5"], "time": [1205, 1267, 1344, 1469]}, "edge": {"target": [], "time": []}}, "mouseout": {"state": {"target": ["2", "1", "1", "7", "4", "5", "3", "4", "6", "20"], "time": [517, 711, 1226, 1309, 1351, 1809, 17115, 17129, 17136, 17240]}, "edge": {"target": [], "time": []}}}, "displayed_time": "15.17", "trialTime": 18482, "trial_type": "mouselab-mdp", "trial_index": 32, "time_elapsed": 762108, "internal_node_id": "0.0-6.0-1.0-23.0"}}, {"uniqueid": "w75504673:a55373489", "current_trial": 33, "dateTime": 1693481397337, "trialdata": {"revealed_states": [], "clicked_states": ["17"], "num_clicks_accrued": [0, 0, 0, 0, 0, 0, 0, 0, 0, 0, 0, 0, 0], "stateRewards": ["", 2, -4, -8, -15, 71, -43, -41, 7, -17, 20, 67, -1, -1, -4, 6, 37, -24, -47, 9, 34, 57, 45, 1, 2, -4, -5, -23, 88, -5, 13, -40, 43, 44], "withholdReward": false, "trial_id": "mdp_trial_25", "block": "test", "trialIndex": 26, "score": -48.4, "costs": -1.4, "simulationMode": [null, null, null, null, null], "rewards": [-1, -1, -4, 6, -47], "path": ["0", "0", "12", "13", "14", "15", "18"], "rt": [4532, 2, 55, 16, 424], "actions": ["right", "right", "right", "up", "left"], "actionTimes": [5869, 6374, 6941, 7458, 8386], "queries": {"click": {"state": {"target": ["17"], "time": [3022]}, "edge": {"target": [], "time": []}}, "mouseover": {"state": {"target": ["6", "7", "7", "13", "14", "17", "15", "18"], "time": [1940, 2058, 2155, 2586, 2641, 2787, 3239, 3301]}, "edge": {"target": [], "time": []}}, "mouseout": {"state": {"target": ["0", "6", "7", "7", "13", "14", "17", "15", "18"], "time": [1523, 1964, 2093, 2454, 2607, 2655, 3190, 3280, 3331]}, "edge": {"target": [], "time": []}}}, "displayed_time": "15.34", "trialTime": 16661, "trial_type": "mouselab-mdp", "trial_index": 33, "time_elapsed": 778940, "internal_node_id": "0.0-6.0-1.0-24.0"}}, {"uniqueid": "w75504673:a55373489", "current_trial": 34, "dateTime": 1693481414189, "trialdata": {"revealed_states": [], "clicked_states": ["7"], "num_clicks_accrued": [0, 0, 0, 0, 0, 0, 0, 0, 0, 0, 0, 0, 0], "stateRewards": ["", 1, -3, 4, 13, -72, 52, 5, 5, -58, 5, 14, 2, 1, 3, -14, -86, -4, 73, 6, -58, -50, 49, 2, -3, -4, 2, 33, -41, 42, -11, 81, 45, 53], "withholdReward": false, "trial_id": "mdp_trial_26", "block": "test", "trialIndex": 27, "score": 10.6, "costs": -1.4, "simulationMode": [null, null, null, null, null], "rewards": [1, -3, 4, 5, 5], "path": ["0", "0", "1", "2", "3", "8", "10"], "rt": [3360, 104, 105, 74, 60], "actions": ["up", "up", "up", "left", "down"], "actionTimes": [4131, 4737, 5342, 5915, 6471], "queries": {"click": {"state": {"target": ["7"], "time": [1590]}, "edge": {"target": [], "time": []}}, "mouseover": {"state": {"target": ["1", "2", "4", "7", "2"], "time": [958, 1048, 1173, 1423, 1854]}, "edge": {"target": [], "time": []}}, "mouseout": {"state": {"target": ["1", "2", "4", "7", "2"], "time": [1021, 1090, 1333, 1826, 1896]}, "edge": {"target": [], "time": []}}}, "displayed_time": "14.77", "trialTime": 16642, "trial_type": "mouselab-mdp", "trial_index": 34, "time_elapsed": 795792, "internal_node_id": "0.0-6.0-1.0-25.0"}}, {"uniqueid": "w75504673:a55373489", "current_trial": 35, "dateTime": 1693481430716, "trialdata": {"revealed_states": [], "clicked_states": ["5"], "num_clicks_accrued": [0, 0, 0, 0, 0, 0, 0, 0, 0, 0, 0, 0, 0], "stateRewards": ["", 1, 2, -6, -13, -51, 22, -4, -12, -44, -12, 6, -2, -2, -2, -14, -46, -4, -77, -2, 36, -79, 41, 2, -4, 2, -6, -55, 59, 70, -5, 39, -19, 24], "withholdReward": false, "trial_id": "mdp_trial_27", "block": "test", "trialIndex": 28, "score": -60.4, "costs": -1.4, "simulationMode": [null, null, null, null, null], "rewards": [1, 2, -6, -12, -44], "path": ["0", "0", "1", "2", "3", "8", "9"], "rt": [4081, 22, 92, 15, 52], "actions": ["up", "up", "up", "left", "up"], "actionTimes": [4723, 5243, 5841, 6361, 6912], "queries": {"click": {"state": {"target": ["5"], "time": [1425]}, "edge": {"target": [], "time": []}}, "mouseover": {"state": {"target": ["1", "7", "4", "5"], "time": [768, 921, 969, 1122]}, "edge": {"target": [], "time": []}}, "mouseout": {"state": {"target": ["0", "1", "7", "4", "5", "3"], "time": [699, 810, 935, 1053, 1601, 15421]}, "edge": {"target": [], "time": []}}}, "displayed_time": "14.64", "trialTime": 16326, "trial_type": "mouselab-mdp", "trial_index": 35, "time_elapsed": 812319, "internal_node_id": "0.0-6.0-1.0-26.0"}}, {"uniqueid": "w75504673:a55373489", "current_trial": 36, "dateTime": 1693481446827, "trialdata": {"revealed_states": [], "clicked_states": ["5"], "num_clicks_accrued": [0, 0, 0, 0, 0, 0, 0, 0, 0, 0, 0, 0, 0], "stateRewards": ["", -1, 1, 6, -6, 70, 66, 67, -16, -75, -35, 37, -1, 4, 4, -6, 47, -9, 63, 15, 21, -63, 13, 1, 3, -6, 10, 79, -29, 18, -15, 9, -67, -19], "withholdReward": false, "trial_id": "mdp_trial_28", "block": "test", "trialIndex": 29, "score": 68.6, "costs": -1.4, "simulationMode": [null, null, null, null, null], "rewards": [-1, 1, 6, -6, 70], "path": ["0", "0", "1", "2", "3", "4", "5"], "rt": [2759, 52, 56, 78, 123], "actions": ["up", "up", "up", "right", "up"], "actionTimes": [3378, 3928, 4480, 5058, 5679], "queries": {"click": {"state": {"target": ["5"], "time": [1491]}, "edge": {"target": [], "time": []}}, "mouseover": {"state": {"target": ["7", "4", "5"], "time": [944, 1138, 1346]}, "edge": {"target": [], "time": []}}, "mouseout": {"state": {"target": ["0", "7", "4", "5"], "time": [701, 978, 1228, 1694]}, "edge": {"target": [], "time": []}}}, "displayed_time": "14.62", "trialTime": 15890, "trial_type": "mouselab-mdp", "trial_index": 36, "time_elapsed": 828431, "internal_node_id": "0.0-6.0-1.0-27.0"}}, {"uniqueid": "w75504673:a55373489", "current_trial": 37, "dateTime": 1693481464003, "trialdata": {"revealed_states": [], "clicked_states": ["5"], "num_clicks_accrued": [0, 0, 0, 0, 0, 0, 0, 0, 0, 0, 0, 0, 0], "stateRewards": ["", 1, 1, -2, 7, -31, -6, 76, 1, -36, -16, -53, 2, 1, 7, 13, -47, -10, 47, -7, 72, 46, -56, -2, -2, -2, 11, -80, 44, 38, 16, 67, 85, -78], "withholdReward": false, "trial_id": "mdp_trial_29", "block": "test", "trialIndex": 30, "score": -0.40000000000000036, "costs": -1.4, "simulationMode": [null, null, null, null, null], "rewards": [1, 1, -2, 7, -6], "path": ["0", "0", "1", "2", "3", "4", "6"], "rt": [2997, 41, 101, 53, 152], "actions": ["up", "up", "up", "right", "right"], "actionTimes": [4558, 5099, 5701, 6256, 6904], "queries": {"click": {"state": {"target": ["5"], "time": [2648]}, "edge": {"target": [], "time": []}}, "mouseover": {"state": {"target": ["4", "5", "9", "5"], "time": [1841, 1973, 2119, 2334]}, "edge": {"target": [], "time": []}}, "mouseout": {"state": {"target": ["5", "4", "7", "0", "4", "5", "9", "5"], "time": [931, 993, 1035, 1584, 1910, 1987, 2216, 2786]}, "edge": {"target": [], "time": []}}}, "displayed_time": "15.56", "trialTime": 16970, "trial_type": "mouselab-mdp", "trial_index": 37, "time_elapsed": 845606, "internal_node_id": "0.0-6.0-1.0-28.0"}}, {"uniqueid": "w75504673:a55373489", "current_trial": 38, "dateTime": 1693481480089, "trialdata": {"revealed_states": [], "clicked_states": ["7"], "num_clicks_accrued": [0, 0, 0, 0, 0, 0, 0, 0, 0, 0, 0, 0, 0], "stateRewards": ["", -2, -4, -2, -13, -15, 87, -19, -6, -80, 30, 12, 1, 1, -8, 2, 55, 56, 15, 11, -68, -7, 55, -2, 3, -3, -3, 48, 62, 4, 1, -3, 69, -33], "withholdReward": false, "trial_id": "mdp_trial_30", "block": "test", "trialIndex": 31, "score": -3.4000000000000004, "costs": -1.4, "simulationMode": [null, null, null, null, null], "rewards": [-2, -4, -2, -6, 12], "path": ["0", "0", "1", "2", "3", "8", "11"], "rt": [2639, 18, 19, 526, 11], "actions": ["up", "up", "up", "left", "left"], "actionTimes": [3508, 4027, 4555, 5590, 6103], "queries": {"click": {"state": {"target": ["7"], "time": [1378]}, "edge": {"target": [], "time": []}}, "mouseover": {"state": {"target": ["1", "7", "7", "2"], "time": [952, 1091, 1225, 1611]}, "edge": {"target": [], "time": []}}, "mouseout": {"state": {"target": ["8", "10", "1", "1", "7", "7", "2"], "time": [208, 236, 458, 959, 1139, 1556, 1695]}, "edge": {"target": [], "time": []}}}, "displayed_time": "14.87", "trialTime": 15854, "trial_type": "mouselab-mdp", "trial_index": 38, "time_elapsed": 861692, "internal_node_id": "0.0-6.0-1.0-29.0"}}, {"uniqueid": "w75504673:a55373489", "current_trial": 39, "dateTime": 1693481496259, "trialdata": {"revealed_states": [], "clicked_states": ["7"], "num_clicks_accrued": [0, 0, 0, 0, 0, 0, 0, 0, 0, 0, 0, 0, 0], "stateRewards": ["", 1, -3, -6, -5, 47, 80, -29, 11, -71, 10, -29, -2, 3, -6, 12, 2, -78, -6, 8, 34, -16, -5, -1, 3, 3, -13, 84, -36, -62, -3, -27, 66, 15], "withholdReward": false, "trial_id": "mdp_trial_31", "block": "test", "trialIndex": 32, "score": 32.6, "costs": -1.4, "simulationMode": [null, null, null, null, null], "rewards": [1, -3, -6, -5, 47], "path": ["0", "0", "1", "2", "3", "4", "5"], "rt": [2481, 17, 44, 395, 9], "actions": ["up", "up", "up", "right", "up"], "actionTimes": [3380, 3896, 4437, 5330, 5840], "queries": {"click": {"state": {"target": ["7"], "time": [1301]}, "edge": {"target": [], "time": []}}, "mouseover": {"state": {"target": ["7", "2"], "time": [1100, 1600]}, "edge": {"target": [], "time": []}}, "mouseout": {"state": {"target": ["2", "1", "7"], "time": [384, 530, 1503]}, "edge": {"target": [], "time": []}}}, "displayed_time": "14.90", "trialTime": 15950, "trial_type": "mouselab-mdp", "trial_index": 39, "time_elapsed": 877862, "internal_node_id": "0.0-6.0-1.0-30.0"}}, {"uniqueid": "w75504673:a55373489", "current_trial": 40, "dateTime": 1693481512628, "trialdata": {"revealed_states": [], "clicked_states": ["7"], "num_clicks_accrued": [0, 0, 0, 0, 0, 0, 0, 0, 0, 0, 0, 0, 0], "stateRewards": ["", 1, 4, 5, 8, -55, -11, 8, 16, -37, 77, -22, -2, 3, -8, -10, 45, 87, -67, 4, 17, -33, -22, -1, -3, 7, 6, -39, -85, 75, -1, 7, -48, 45], "withholdReward": false, "trial_id": "mdp_trial_32", "block": "test", "trialIndex": 33, "score": 24.6, "costs": -1.4, "simulationMode": [null, null, null, null, null], "rewards": [1, 4, 5, 8, 8], "path": ["0", "0", "1", "2", "3", "4", "7"], "rt": [2393, 301, 67, 3, 13], "actions": ["up", "up", "up", "right", "down"], "actionTimes": [3251, 4049, 4614, 5119, 5643], "queries": {"click": {"state": {"target": ["7"], "time": [1345]}, "edge": {"target": [], "time": []}}, "mouseover": {"state": {"target": ["7"], "time": [1175]}, "edge": {"target": [], "time": []}}, "mouseout": {"state": {"target": ["2", "1", "0", "7", "12"], "time": [385, 469, 956, 1539, 15122]}, "edge": {"target": [], "time": []}}}, "displayed_time": "14.86", "trialTime": 16167, "trial_type": "mouselab-mdp", "trial_index": 40, "time_elapsed": 894231, "internal_node_id": "0.0-6.0-1.0-31.0"}}, {"uniqueid": "w75504673:a55373489", "current_trial": 41, "dateTime": 1693481530025, "trialdata": {"revealed_states": [], "clicked_states": ["5"], "num_clicks_accrued": [0, 0, 0, 0, 0, 0, 0, 0, 0, 0, 0, 0, 0], "stateRewards": ["", -1, -3, -7, -7, -76, 30, -49, 11, -70, 56, 2, 1, 4, -3, -14, -59, -83, -25, -9, -21, -67, -73, -2, 4, 4, -9, -11, -32, 60, 9, -87, 22, -64], "withholdReward": false, "trial_id": "mdp_trial_33", "block": "test", "trialIndex": 34, "score": -96.4, "costs": -1.4, "simulationMode": [null, null, null, null, null], "rewards": [1, 4, -3, -14, -83], "path": ["0", "0", "12", "13", "14", "15", "17"], "rt": [3756, 22, 9, 48, 392], "actions": ["right", "right", "right", "up", "right"], "actionTimes": [4815, 5336, 5851, 6397, 7290], "queries": {"click": {"state": {"target": ["5"], "time": [2004]}, "edge": {"target": [], "time": []}}, "mouseover": {"state": {"target": ["7", "5"], "time": [1403, 1722]}, "edge": {"target": [], "time": []}}, "mouseout": {"state": {"target": ["1", "0", "7", "5", "8", "3"], "time": [625, 1118, 1514, 2146, 17112, 17174]}, "edge": {"target": [], "time": []}}}, "displayed_time": "15.06", "trialTime": 17178, "trial_type": "mouselab-mdp", "trial_index": 41, "time_elapsed": 911628, "internal_node_id": "0.0-6.0-1.0-32.0"}}, {"uniqueid": "w75504673:a55373489", "current_trial": 42, "dateTime": 1693481545907, "trialdata": {"revealed_states": [], "clicked_states": ["5"], "num_clicks_accrued": [0, 0, 0, 0, 0, 0, 0, 0, 0, 0, 0, 0, 0], "stateRewards": ["", 1, 4, 5, -5, 58, -80, 75, 6, 25, -39, 46, 2, -2, 4, 2, 59, 31, -22, -12, -61, 15, 72, 1, -2, -7, 8, 77, 76, -23, -7, 71, -15, -3], "withholdReward": false, "trial_id": "mdp_trial_34", "block": "test", "trialIndex": 35, "score": 61.6, "costs": -1.4, "simulationMode": [null, null, null, null, null], "rewards": [1, 4, 5, -5, 58], "path": ["0", "0", "1", "2", "3", "4", "5"], "rt": [2473, 312, 41, 346, 3], "actions": ["up", "up", "up", "right", "up"], "actionTimes": [3305, 4116, 4658, 5504, 6008], "queries": {"click": {"state": {"target": ["5"], "time": [1417]}, "edge": {"target": [], "time": []}}, "mouseover": {"state": {"target": ["1", "7", "4", "5"], "time": [893, 942, 1074, 1192]}, "edge": {"target": [], "time": []}}, "mouseout": {"state": {"target": ["2", "1", "1", "7", "4", "5"], "time": [87, 414, 900, 984, 1109, 1560]}, "edge": {"target": [], "time": []}}}, "displayed_time": "14.83", "trialTime": 15682, "trial_type": "mouselab-mdp", "trial_index": 42, "time_elapsed": 927511, "internal_node_id": "0.0-6.0-1.0-33.0"}}, {"uniqueid": "w75504673:a55373489", "current_trial": 43, "dateTime": 1693481562485, "trialdata": {"revealed_states": [], "clicked_states": ["9"], "num_clicks_accrued": [0, 0, 0, 0, 0, 0, 0, 0, 0, 0, 0, 0, 0], "stateRewards": ["", 1, -4, -4, 8, 1, -79, 68, -10, -79, 8, -74, -1, -3, -6, 14, 43, 23, 9, 5, -51, 63, 61, -2, 4, 6, -10, 69, -32, 57, 15, -80, -80, -77], "withholdReward": false, "trial_id": "mdp_trial_35", "block": "test", "trialIndex": 36, "score": -92.4, "costs": -1.4, "simulationMode": [null, null, null, null, null], "rewards": [1, -4, -4, -10, -74], "path": ["0", "0", "1", "2", "3", "8", "11"], "rt": [3490, 36, 71, 15, 27], "actions": ["up", "up", "up", "left", "left"], "actionTimes": [4604, 5140, 5710, 6223, 6749], "queries": {"click": {"state": {"target": ["9"], "time": [1644]}, "edge": {"target": [], "time": []}}, "mouseover": {"state": {"target": ["1", "8", "9", "8", "2"], "time": [1186, 1353, 1505, 1832, 1950]}, "edge": {"target": [], "time": []}}, "mouseout": {"state": {"target": ["5", "4", "7", "0", "1", "8", "9", "8", "2"], "time": [262, 533, 602, 1122, 1207, 1429, 1804, 1853, 2013]}, "edge": {"target": [], "time": []}}}, "displayed_time": "15.12", "trialTime": 16351, "trial_type": "mouselab-mdp", "trial_index": 43, "time_elapsed": 944089, "internal_node_id": "0.0-6.0-1.0-34.0"}}, {"uniqueid": "w75504673:a55373489", "current_trial": 44, "dateTime": 1693481578614, "trialdata": {"revealed_states": [], "clicked_states": ["5"], "num_clicks_accrued": [0, 0, 0, 0, 0, 0, 0, 0, 0, 0, 0, 0, 0], "stateRewards": ["", 1, -1, 4, 5, -32, 18, 20, 6, -88, -74, 9, -2, 1, -2, -14, 34, -77, -38, -1, 80, -36, 73, 2, 3, -8, 10, -48, -73, -71, -11, -22, 20, 54], "withholdReward": false, "trial_id": "mdp_trial_36", "block": "test", "trialIndex": 37, "score": -65.4, "costs": -1.4, "simulationMode": [null, null, null, null, null], "rewards": [2, 3, -8, 10, -71], "path": ["0", "0", "23", "24", "25", "26", "29"], "rt": [3048, 287, 93, 23, 37], "actions": ["left", "left", "left", "up", "left"], "actionTimes": [3852, 4636, 5227, 5747, 6289], "queries": {"click": {"state": {"target": ["5"], "time": [1355]}, "edge": {"target": [], "time": []}}, "mouseover": {"state": {"target": ["1", "7", "4", "5"], "time": [911, 973, 1077, 1230]}, "edge": {"target": [], "time": []}}, "mouseout": {"state": {"target": ["2", "1", "1", "7", "4", "5", "3", "7", "0", "0", "0"], "time": [188, 313, 918, 1036, 1147, 1529, 13175, 13335, 13508, 15119, 15355]}, "edge": {"target": [], "time": []}}}, "displayed_time": "14.80", "trialTime": 15899, "trial_type": "mouselab-mdp", "trial_index": 44, "time_elapsed": 960218, "internal_node_id": "0.0-6.0-1.0-35.0"}}, {"uniqueid": "w75504673:a55373489", "current_trial": 45, "dateTime": 1693481594112, "trialdata": {"revealed_states": [], "clicked_states": ["5"], "num_clicks_accrued": [0, 0, 0, 0, 0, 0, 0, 0, 0, 0, 0, 0, 0], "stateRewards": ["", -1, -4, -3, 1, -45, -67, -24, 14, 32, 22, 22, -1, 1, -5, -7, 72, 84, -79, -5, 19, -40, -2, -1, -2, 8, -3, 84, -25, -28, 11, 64, -66, 77], "withholdReward": false, "trial_id": "mdp_trial_37", "block": "test", "trialIndex": 38, "score": -32.4, "costs": -1.4, "simulationMode": [null, null, null, null, null], "rewards": [-1, -4, -3, 1, -24], "path": ["0", "0", "1", "2", "3", "4", "7"], "rt": [2687, 364, 103, 48, 5], "actions": ["up", "up", "up", "right", "down"], "actionTimes": [3207, 4068, 4668, 5218, 5723], "queries": {"click": {"state": {"target": ["5"], "time": [1197]}, "edge": {"target": [], "time": []}}, "mouseover": {"state": {"target": ["7", "4", "5"], "time": [758, 842, 1022]}, "edge": {"target": [], "time": []}}, "mouseout": {"state": {"target": ["0", "7", "4", "5"], "time": [661, 807, 932, 1349]}, "edge": {"target": [], "time": []}}}, "displayed_time": "14.52", "trialTime": 15293, "trial_type": "mouselab-mdp", "trial_index": 45, "time_elapsed": 975716, "internal_node_id": "0.0-6.0-1.0-36.0"}}, {"uniqueid": "w75504673:a55373489", "current_trial": 46, "dateTime": 1693481610127, "trialdata": {"revealed_states": [], "clicked_states": ["5"], "num_clicks_accrued": [0, 0, 0, 0, 0, 0, 0, 0, 0, 0, 0, 0, 0], "stateRewards": ["", 2, 1, -3, 7, 46, 11, -36, 16, 71, 5, 1, 2, -2, -8, -3, -4, 6, 55, 7, 68, -54, 2, 1, 1, 6, -6, 42, -4, -84, -11, -65, 63, 25], "withholdReward": false, "trial_id": "mdp_trial_38", "block": "test", "trialIndex": 39, "score": 51.6, "costs": -1.4, "simulationMode": [null, null, null, null, null], "rewards": [2, 1, -3, 7, 46], "path": ["0", "0", "1", "2", "3", "4", "5"], "rt": [2318, 90, 128, 68, 201], "actions": ["up", "up", "up", "right", "up"], "actionTimes": [3166, 3754, 4383, 4948, 5650], "queries": {"click": {"state": {"target": ["5"], "time": [1291]}, "edge": {"target": [], "time": []}}, "mouseover": {"state": {"target": ["1", "2", "4", "5"], "time": [893, 941, 1011, 1114]}, "edge": {"target": [], "time": []}}, "mouseout": {"state": {"target": ["3", "2", "1", "1", "2", "4", "5"], "time": [427, 454, 503, 920, 948, 1059, 1469]}, "edge": {"target": [], "time": []}}}, "displayed_time": "14.85", "trialTime": 15775, "trial_type": "mouselab-mdp", "trial_index": 46, "time_elapsed": 991731, "internal_node_id": "0.0-6.0-1.0-37.0"}}, {"uniqueid": "w75504673:a55373489", "current_trial": 47, "dateTime": 1693481627043, "trialdata": {"revealed_states": [], "clicked_states": ["5"], "num_clicks_accrued": [0, 0, 0, 0, 0, 0, 0, 0, 0, 0, 0, 0, 0], "stateRewards": ["", -2, -3, 1, -7, 39, -67, 16, 5, -20, 73, 66, -1, 4, 5, -3, 23, -68, -87, -8, 3, -3, 17, 1, -4, -2, -13, -32, 34, 61, -5, -11, -18, 12], "withholdReward": false, "trial_id": "mdp_trial_39", "block": "test", "trialIndex": 40, "score": 26.6, "costs": -1.4, "simulationMode": [null, null, null, null, null], "rewards": [-2, -3, 1, -7, 39], "path": ["0", "0", "1", "2", "3", "4", "5"], "rt": [2517, 304, 85, 41, 6], "actions": ["up", "up", "up", "right", "up"], "actionTimes": [3979, 4784, 5371, 5910, 6417], "queries": {"click": {"state": {"target": ["5"], "time": [1997]}, "edge": {"target": [], "time": []}}, "mouseover": {"state": {"target": ["1", "7", "4", "5"], "time": [1569, 1646, 1708, 1847]}, "edge": {"target": [], "time": []}}, "mouseout": {"state": {"target": ["5", "4", "0", "1", "7", "4", "5", "5"], "time": [756, 937, 1469, 1576, 1674, 1792, 2048, 2132]}, "edge": {"target": [], "time": []}}}, "displayed_time": "15.46", "trialTime": 16715, "trial_type": "mouselab-mdp", "trial_index": 47, "time_elapsed": 1008647, "internal_node_id": "0.0-6.0-1.0-38.0"}}, {"uniqueid": "w75504673:a55373489", "current_trial": 48, "dateTime": 1693481643695, "trialdata": {"revealed_states": [], "clicked_states": ["21"], "num_clicks_accrued": [0, 0, 0, 0, 0, 0, 0, 0, 0, 0, 0, 0, 0], "stateRewards": ["", 1, 1, 6, -14, -40, 37, 16, -13, 33, -68, 49, 2, 4, 3, 6, 55, 27, 32, 10, -65, 20, -87, 2, 1, -6, -5, -42, 12, 29, -8, 16, 76, -33], "withholdReward": false, "trial_id": "mdp_trial_40", "block": "test", "trialIndex": 41, "score": 37.6, "costs": -1.4, "simulationMode": [null, null, null, null, null], "rewards": [2, 4, 3, 10, 20], "path": ["0", "0", "12", "13", "14", "19", "21"], "rt": [2286, 357, 89, 18, 3], "actions": ["right", "right", "right", "down", "down"], "actionTimes": [3517, 4372, 4958, 5477, 5976], "queries": {"click": {"state": {"target": ["21"], "time": [1704]}, "edge": {"target": [], "time": []}}, "mouseover": {"state": {"target": ["0", "12", "22", "19", "21"], "time": [1242, 1277, 1326, 1402, 1478]}, "edge": {"target": [], "time": []}}, "mouseout": {"state": {"target": ["3", "2", "1", "0", "12", "22", "19", "21"], "time": [631, 694, 749, 1256, 1285, 1360, 1437, 1924]}, "edge": {"target": [], "time": []}}}, "displayed_time": "15.23", "trialTime": 16415, "trial_type": "mouselab-mdp", "trial_index": 48, "time_elapsed": 1025299, "internal_node_id": "0.0-6.0-1.0-39.0"}}, {"uniqueid": "w75504673:a55373489", "current_trial": 49, "dateTime": 1693481693024, "trialdata": {"rt": 49327, "response": {"Q0": "$-2 to $2", "Q1": "$-16 to $16", "Q2": "$-32 to $32", "Q3": "The cost was always $1.4.", "Q4": "Very motivated"}, "question_order": [0, 1, 2, 3, 4], "trial_id": "final_quiz_control", "trial_type": "survey-multi-choice", "trial_index": 49, "time_elapsed": 1074628, "internal_node_id": "0.0-6.0-2.0"}}, {"uniqueid": "w75504673:a55373489", "current_trial": 50, "dateTime": 1693481764410, "trialdata": {"rt": 71381, "response": {"Q0": "Use the node and then go for it if it was plus. Gambling if it was minus.", "Q1": "Not really, used the same strategy through the whole game,", "Q2": "Kinda difficult. It was difficult when you only could use the node on of the circles."}, "trial_id": "self_report_control", "trial_type": "survey-text", "trial_index": 50, "time_elapsed": 1146014, "internal_node_id": "0.0-6.0-3.0"}}, {"uniqueid": "w75504673:a55373489", "current_trial": 51, "dateTime": 1693481787483, "trialdata": {"rt": 23070, "response": {"gender": "male", "age": "23", "colorblind": "0", "effort": "0"}, "trial_type": "survey-html-form", "trial_index": 51, "time_elapsed": 1169087, "internal_node_id": "0.0-6.0-4.0"}}, {"uniqueid": "w75504673:a55373489", "current_trial": 52, "dateTime": 1693481807453, "trialdata": {"rt": 19967, "response": {"Q0": "No", "Q1": "No", "Q2": "-"}, "trial_type": "survey-text", "trial_index": 52, "time_elapsed": 1189057, "internal_node_id": "0.0-6.0-5.0"}}, {"uniqueid": "w75504673:a55373489", "current_trial": 53, "dateTime": 1693481816456, "trialdata": {"rt": 9000, "stimulus": "<h1>Completion Code Instructions (1/2)</h1>\n<br><br><br><br>\nYou have reached the end of the experiment! The completion code consists of two parts: (1) a code with 2 characters (2) a code with 6 characters. On this page, you will receive the second part of the code. The first part of the completion code will be on the next page.\n<br><br>\nThe second part of your completion code is: <b>EWEK22</b>\n<br><br>\nPlease note this down. Then, press 'Finish HIT' in order to find the first part of your completion code. Once the data has been saved, you will receive this code either in this window or in the original browser window where you started the experiment.\n", "response": 0, "trial_type": "html-button-response", "trial_index": 53, "time_elapsed": 1198059, "internal_node_id": "0.0-6.0-6.0"}}, {"uniqueid": "w75504673:a55373489", "current_trial": 54, "dateTime": 1693481817458, "trialdata": {"success": true, "trial_type": "fullscreen", "trial_index": 54, "time_elapsed": 1199062, "internal_node_id": "0.0-7.0"}}], "questiondata": {"params": {"CODE": "C6DMOQA6", "MIN_TIME": 14, "inspectCost": 1, "startTime": "Thu Aug 31 2023 14:16:57 GMT+0300 (\u00f6steuropeisk sommartid)", "bonusRate": 0.002, "variance": "1_2_4_8_44", "branching": "31123"}, "final_score": 258.6}, "eventdata": [{"eventtype": "initialized", "interval": 0, "timestamp": 1693480589182, "value": null}, {"eventtype": "window_resize", "interval": 0, "timestamp": 1693480589182, "value": [1024, 767]}, {"eventtype": "window_resize", "interval": 330, "timestamp": 1693480589512, "value": [1024, 767]}, {"eventtype": "window_resize", "value": [1024, 767], "timestamp": 1693480617654, "interval": 28142}, {"eventtype": "window_resize", "value": [1920, 974], "timestamp": 1693480618632, "interval": 978}, {"eventtype": "window_resize", "value": [1024, 767], "timestamp": 1693480620501, "interval": 1869}, {"eventtype": "window_resize", "value": [1920, 1080], "timestamp": 1693480623416, "interval": 2915}, {"eventtype": "focus", "value": "off", "timestamp": 1693481121909, "interval": 498493}, {"eventtype": "focus", "value": "on", "timestamp": 1693481128412, "interval": 6503}, {"eventtype": "focus", "value": "off", "timestamp": 1693481177417, "interval": 49005}, {"eventtype": "focus", "value": "on", "timestamp": 1693481179742, "interval": 2325}, {"eventtype": "window_resize", "value": [1024, 767], "timestamp": 1693481816672, "interval": 636930}], "useragent": "Mozilla/5.0 (Windows NT 10.0; Win64; x64) AppleWebKit/537.36 (KHTML, like Gecko) Chrome/116.0.0.0 Safari/537.36", "mode": "live", "id": "w75504673:a55373489", "status": "user data saved", "Beginhit": "2023-08-31 11:16:28.464752", "Beginexp": "2023-08-31 11:17:04.692188", "Endhit": "2023-08-31 11:36:58.344182", "psiturkStatus": 3, "browser": "<redacted>", "platform": "windows", "language": "sv-SE"}