{"condition": 0, "counterbalance": 0, "assignmentId": "a11749427", "workerId": "w87723338", "hitId": "h99828184", "currenttrial": 55, "bonus": 0, "data": [{"uniqueid": "w87723338:a11749427", "current_trial": 0, "dateTime": 1693481389737, "trialdata": {"success": true, "trial_type": "fullscreen", "trial_index": 0, "time_elapsed": 5133, "internal_node_id": "0.0-0.0"}}, {"uniqueid": "w87723338:a11749427", "current_trial": 1, "dateTime": 1693481423824, "trialdata": {"view_history": [{"page_index": 0, "viewing_time": 34082}], "rt": 34083, "trial_id": "exp_instructions_control", "trial_type": "instructions", "trial_index": 1, "time_elapsed": 39220, "internal_node_id": "0.0-1.0"}}, {"uniqueid": "w87723338:a11749427", "current_trial": 2, "dateTime": 1693481785022, "trialdata": {"view_history": [{"page_index": 0, "viewing_time": 116285}, {"page_index": 1, "viewing_time": 139829}, {"page_index": 2, "viewing_time": 28782}, {"page_index": 3, "viewing_time": 76299}], "rt": 361195, "trial_id": "mouselab_instructions_1_control", "trial_type": "instructions", "trial_index": 2, "time_elapsed": 400417, "internal_node_id": "0.0-2.0-1.0"}}, {"uniqueid": "w87723338:a11749427", "current_trial": 3, "dateTime": 1693481849558, "trialdata": {"revealed_states": [], "clicked_states": ["1", "23", "12", "13", "14", "15", "16", "17", "19", "21", "20", "24", "25", "26", "27", "29", "30"], "num_clicks_accrued": [0, 0, 0, 0, 0, 0, 0, 0, 0, 0, 0, 0, 0], "stateRewards": ["", -10, 10, -10, -10, -10, -10, 10, -10, -10, -10, -10, -10, -10, 10, -10, 10, -10, -10, 10, -10, 10, -10, -10, -10, -10, 10, -10, 10, -10, 10, -10, 10, -10], "withholdReward": false, "trial_id": "practice_1", "block": "test", "trialIndex": 0, "score": -35, "costs": -8.5, "simulationMode": [null, null, null, null, null], "rewards": [-10, -10, -10, 10, -10], "path": ["0", "0", "23", "24", "25", "26", "27"], "rt": [49538, 525, 426, 1006, 634], "actions": ["left", "left", "left", "up", "up"], "actionTimes": [52064, 53101, 54029, 55546, 56688], "queries": {"click": {"state": {"target": ["1", "23", "12", "13", "14", "15", "16", "17", "19", "21", "20", "24", "25", "26", "27", "29", "30"], "time": [4756, 6620, 9154, 10897, 14253, 22616, 23868, 25101, 27314, 29252, 30981, 35371, 36465, 39459, 41384, 43264, 44724]}, "edge": {"target": [], "time": []}}, "mouseover": {"state": {"target": ["1", "23", "0", "12", "13", "13", "14", "14", "14", "14", "15", "23", "24", "25", "24", "31", "24", "23", "0", "0", "1", "2", "1", "2", "2", "1", "1", "18", "15", "16", "17", "18", "14", "19", "21", "21", "22", "20", "19", "22", "22", "19", "0", "23", "24", "23", "24", "25", "26", "27", "27", "29", "29", "26", "24", "31", "30", "32"], "time": [4331, 5727, 7102, 7365, 9844, 10740, 11490, 11657, 13725, 13942, 15087, 15385, 15428, 15510, 15726, 15941, 16233, 16447, 16822, 17003, 17934, 18163, 18642, 18988, 19405, 19907, 20045, 22121, 22238, 23405, 24362, 25897, 26501, 26883, 27835, 28973, 29771, 30465, 31382, 31465, 32020, 32930, 34299, 34341, 34416, 34680, 35146, 35749, 39179, 40061, 40888, 41946, 42470, 43660, 43984, 44178, 44276, 45192]}, "edge": {"target": [], "time": []}}, "mouseout": {"state": {"target": ["12", "0", "1", "23", "0", "12", "13", "13", "14", "14", "14", "14", "15", "23", "24", "25", "24", "31", "24", "23", "0", "0", "1", "2", "1", "2", "2", "1", "1", "18", "15", "16", "17", "15", "18", "14", "19", "21", "21", "22", "19", "20", "19", "22", "22", "19", "0", "23", "24", "23", "24", "25", "24", "25", "26", "27", "27", "29", "29", "26", "24", "31", "30", "32"], "time": [783, 1631, 5561, 7074, 7213, 9811, 10478, 11228, 11560, 13489, 13774, 14629, 15252, 15406, 15468, 15676, 15892, 16205, 16371, 16649, 16836, 17600, 18045, 18190, 18815, 19191, 19794, 19956, 21808, 22169, 23230, 24286, 25668, 25786, 26391, 26585, 27766, 28487, 29661, 30132, 30209, 31347, 31431, 31632, 32770, 33889, 34307, 34382, 34611, 34895, 35510, 37243, 38424, 39082, 39923, 40540, 41845, 42165, 43631, 43671, 44085, 44206, 45071, 48136]}, "edge": {"target": [], "time": []}}}, "displayed_time": "57.21", "trialTime": 64008, "trial_type": "mouselab-mdp", "trial_index": 3, "time_elapsed": 464954, "internal_node_id": "0.0-2.0-2.0-0.0"}}, {"uniqueid": "w87723338:a11749427", "current_trial": 4, "dateTime": 1693481883087, "trialdata": {"revealed_states": [], "clicked_states": ["1"], "num_clicks_accrued": [0, 0, 0, 0, 0, 0, 0, 0, 0, 0, 0, 0, 0], "stateRewards": ["", 10, 10, 10, -10, -10, -10, 10, -10, -10, -10, 10, 10, 10, -10, -10, 10, 10, -10, 10, 10, 10, 10, -10, 10, 10, 10, 10, 10, 10, 10, 10, -10, 10], "withholdReward": false, "trial_id": "practice_2", "block": "test", "trialIndex": 1, "score": 33, "costs": -0.5, "simulationMode": [null, null, null, null, null], "rewards": [10, 10, 10, -10, 10], "path": ["0", "0", "1", "2", "3", "8", "11"], "rt": [4654, 515, 2790, 3105, 4758], "actions": ["up", "up", "up", "left", "left"], "actionTimes": [11367, 12397, 15696, 19308, 24570], "queries": {"click": {"state": {"target": ["1"], "time": [8995]}, "edge": {"target": [], "time": []}}, "mouseover": {"state": {"target": ["0", "12", "0", "1", "22", "19"], "time": [7398, 7801, 8218, 8557, 9293, 9342]}, "edge": {"target": [], "time": []}}, "mouseout": {"state": {"target": ["29", "24", "23", "0", "12", "13", "12", "0", "0", "23", "0", "23", "0", "12", "0", "1", "22", "19", "23", "11"], "time": [3378, 3405, 3426, 3440, 3461, 3529, 3586, 3745, 3918, 4287, 4453, 6184, 7460, 7986, 8250, 9204, 9308, 9356, 20965, 21889]}, "edge": {"target": [], "time": []}}}, "displayed_time": "25.08", "trialTime": 33225, "trial_type": "mouselab-mdp", "trial_index": 4, "time_elapsed": 498482, "internal_node_id": "0.0-2.0-2.0-1.0"}}, {"uniqueid": "w87723338:a11749427", "current_trial": 5, "dateTime": 1693481959123, "trialdata": {"view_history": [{"page_index": 0, "viewing_time": 53230}, {"page_index": 1, "viewing_time": 22801}], "rt": 76032, "trial_id": "mouselab_instructions_2_control", "trial_type": "instructions", "trial_index": 5, "time_elapsed": 574518, "internal_node_id": "0.0-2.0-3.0"}}, {"uniqueid": "w87723338:a11749427", "current_trial": 6, "dateTime": 1693482035808, "trialdata": {"rt": 76679, "response": {"Q0": "The cost for clicking on nodes may vary between nodes.", "Q1": "The better I perform the higher my bonus will be.", "Q2": "No, the amount of cash at each node of the web may be different each time.", "Q3": "To get the highest total score.", "Q4": "Only before moving the spider.", "Q5": "3 seconds"}, "question_order": [0, 1, 2, 3, 4, 5], "correct": {"Q0": "The cost for clicking on nodes may vary between nodes.", "Q1": "The better I perform the higher my bonus will be.", "Q2": "No, the amount of cash at each node of the web may be different each time.", "Q3": "To get the highest total score.", "Q4": "Only before moving the spider.", "Q5": "3 seconds"}, "trial_id": "mouselab_quiz_control", "trial_type": "survey-multi-choice", "trial_index": 6, "time_elapsed": 651204, "internal_node_id": "0.0-2.0-4.0"}}, {"uniqueid": "w87723338:a11749427", "current_trial": 7, "dateTime": 1693482050851, "trialdata": {"rt": 15034, "response": {"Q0": "No"}, "question_order": [0], "trial_id": "repeat_check", "trial_type": "survey-multi-choice", "trial_index": 7, "time_elapsed": 666247, "internal_node_id": "0.0-4.0-0.0"}}, {"uniqueid": "w87723338:a11749427", "current_trial": 8, "dateTime": 1693482081520, "trialdata": {"rt": 30663, "stimulus": "\n<h1> Get ready to start the game! </h1>\n\nThank you for reading the instructions. Get ready start with the 40 rounds of this game.\n<br><br>\nIf you need to take a break, feel free to take one after the end of a round, before continuing to the next one.\n<br><br>\nRemember, the more money the spider gets, the bigger your bonus will be!\n<br><br>\n<div style='text-align: center;'>Press <code>space</code> to begin.</div>\n\n<br><br>\n(If, at any point, the <code>space</code> key does not take you to the next page, click once on the text and try again.)", "response": " ", "trial_id": "mdp_ready", "trial_type": "html-keyboard-response", "trial_index": 8, "time_elapsed": 696916, "internal_node_id": "0.0-6.0-0.0"}}, {"uniqueid": "w87723338:a11749427", "current_trial": 9, "dateTime": 1693482107600, "trialdata": {"revealed_states": [], "clicked_states": ["1", "12", "23", "13"], "num_clicks_accrued": [0, 0, 0, 0, 0, 0, 0, 0, 0, 0, 0, 0, 0], "stateRewards": ["", -2, 3, 3, -14, 62, 36, 49, 16, 11, 17, -84, 2, -1, 6, 2, -82, -73, 49, -6, -87, 48, 50, -1, -2, -1, -16, -11, 37, -44, 4, 55, 73, -10], "withholdReward": false, "trial_id": "mdp_trial_1", "block": "test", "trialIndex": 2, "score": 43.4, "costs": -5.6, "simulationMode": [null, null, null, null, null], "rewards": [2, -1, 6, -6, 48], "path": ["0", "0", "12", "13", "14", "19", "21"], "rt": [13573, 766, 606, 865, 1192], "actions": ["right", "right", "right", "down", "down"], "actionTimes": [17188, 18464, 19581, 20958, 22660], "queries": {"click": {"state": {"target": ["1", "12", "23", "13"], "time": [4187, 7338, 9434, 12110]}, "edge": {"target": [], "time": []}}, "mouseover": {"state": {"target": ["1", "12", "23", "0", "13", "13", "13"], "time": [3948, 4839, 8579, 10176, 10768, 11475, 11766]}, "edge": {"target": [], "time": []}}, "mouseout": {"state": {"target": ["3", "1", "12", "1", "1", "12", "12", "12", "23", "0", "12", "13", "13", "13"], "time": [1309, 1539, 2628, 3184, 4489, 7865, 8184, 8406, 9569, 10231, 10503, 10857, 11538, 12468]}, "edge": {"target": [], "time": []}}}, "displayed_time": "23.17", "trialTime": 25758, "trial_type": "mouselab-mdp", "trial_index": 9, "time_elapsed": 722996, "internal_node_id": "0.0-6.0-1.0-0.0"}}, {"uniqueid": "w87723338:a11749427", "current_trial": 10, "dateTime": 1693482129621, "trialdata": {"revealed_states": [], "clicked_states": ["1", "12"], "num_clicks_accrued": [0, 0, 0, 0, 0, 0, 0, 0, 0, 0, 0, 0, 0], "stateRewards": ["", -1, 3, 2, 9, 41, 4, -46, -12, -54, -87, -25, 2, 3, -1, 11, -77, 12, -33, -9, -32, 35, 72, 1, 3, -7, 4, 37, 65, -73, 6, 77, -43, 8], "withholdReward": false, "trial_id": "mdp_trial_2", "block": "test", "trialIndex": 3, "score": -64.8, "costs": -2.8, "simulationMode": [null, null, null, null, null], "rewards": [2, 3, -1, 11, -77], "path": ["0", "0", "12", "13", "14", "15", "16"], "rt": [8813, 438, 474, 864, 479], "actions": ["right", "right", "right", "up", "up"], "actionTimes": [11499, 12448, 13423, 14803, 15801], "queries": {"click": {"state": {"target": ["1", "12"], "time": [3433, 7674]}, "edge": {"target": [], "time": []}}, "mouseover": {"state": {"target": ["1", "12", "12"], "time": [3065, 3665, 6579]}, "edge": {"target": [], "time": []}}, "mouseout": {"state": {"target": ["0", "1", "12", "12"], "time": [2777, 3638, 3727, 10052]}, "edge": {"target": [], "time": []}}}, "displayed_time": "16.70", "trialTime": 21733, "trial_type": "mouselab-mdp", "trial_index": 10, "time_elapsed": 745016, "internal_node_id": "0.0-6.0-1.0-1.0"}}, {"uniqueid": "w87723338:a11749427", "current_trial": 11, "dateTime": 1693482155038, "trialdata": {"revealed_states": [], "clicked_states": ["1", "12", "23", "26"], "num_clicks_accrued": [0, 0, 0, 0, 0, 0, 0, 0, 0, 0, 0, 0, 0], "stateRewards": ["", -1, 1, 6, -6, 70, 66, 67, -16, -75, -35, 37, -1, 4, 4, -6, 47, -9, 63, 15, 21, -63, 13, 1, 3, -6, 10, 79, -29, 18, -15, 9, -67, -19], "withholdReward": false, "trial_id": "mdp_trial_3", "block": "test", "trialIndex": 4, "score": -26.6, "costs": -5.6, "simulationMode": [null, null, null, null, null], "rewards": [1, 3, -6, 10, -29], "path": ["0", "0", "23", "24", "25", "26", "28"], "rt": [15558, 261, 296, 690, 826], "actions": ["left", "left", "left", "up", "right"], "actionTimes": [17147, 17923, 18724, 19920, 21259], "queries": {"click": {"state": {"target": ["1", "12", "23", "26"], "time": [2559, 6633, 9990, 13408]}, "edge": {"target": [], "time": []}}, "mouseover": {"state": {"target": ["1", "12", "0", "23", "0", "0", "24", "25", "26", "24"], "time": [2128, 5717, 8738, 8925, 10349, 12230, 12536, 12785, 12903, 13960]}, "edge": {"target": [], "time": []}}, "mouseout": {"state": {"target": ["31", "0", "1", "12", "0", "23", "23", "0", "0", "23", "24", "25", "26", "24"], "time": [898, 1947, 2885, 8697, 8835, 10103, 10315, 10405, 12432, 12516, 12598, 12814, 13772, 14099]}, "edge": {"target": [], "time": []}}}, "displayed_time": "21.77", "trialTime": 25113, "trial_type": "mouselab-mdp", "trial_index": 11, "time_elapsed": 770434, "internal_node_id": "0.0-6.0-1.0-2.0"}}, {"uniqueid": "w87723338:a11749427", "current_trial": 12, "dateTime": 1693482180906, "trialdata": {"revealed_states": [], "clicked_states": ["1", "7", "3"], "num_clicks_accrued": [0, 0, 0, 0, 0, 0, 0, 0, 0, 0, 0, 0, 0], "stateRewards": ["", 2, -3, -5, 5, 11, -9, -33, 6, 67, 6, -30, -1, -2, -6, 13, 55, 13, 72, -14, 75, 21, -66, -2, -4, 6, 15, -1, -35, 60, 2, 51, -73, 12], "withholdReward": false, "trial_id": "mdp_trial_4", "block": "test", "trialIndex": 5, "score": -34.2, "costs": -4.199999999999999, "simulationMode": [null, null, null, null, null], "rewards": [2, -3, -5, 6, -30], "path": ["0", "0", "1", "2", "3", "8", "11"], "rt": [16781, 512, 908, 562, 554], "actions": ["up", "up", "up", "left", "left"], "actionTimes": [18574, 19597, 21011, 22082, 23144], "queries": {"click": {"state": {"target": ["1", "7", "3"], "time": [2689, 6309, 9759]}, "edge": {"target": [], "time": []}}, "mouseover": {"state": {"target": ["1", "2", "7", "2", "3", "2", "10", "13"], "time": [2335, 5207, 5639, 8744, 8861, 14423, 14732, 16791]}, "edge": {"target": [], "time": []}}, "mouseout": {"state": {"target": ["0", "1", "2", "7", "2", "3", "2", "10", "13"], "time": [1425, 5091, 5329, 6619, 8785, 10105, 14431, 16548, 16826]}, "edge": {"target": [], "time": []}}}, "displayed_time": "23.65", "trialTime": 25580, "trial_type": "mouselab-mdp", "trial_index": 12, "time_elapsed": 796301, "internal_node_id": "0.0-6.0-1.0-3.0"}}, {"uniqueid": "w87723338:a11749427", "current_trial": 13, "dateTime": 1693482198775, "trialdata": {"revealed_states": [], "clicked_states": [], "num_clicks_accrued": [0, 0, 0, 0, 0, 0, 0, 0, 0, 0, 0, 0, 0], "stateRewards": ["", 1, 3, 1, -13, 52, -28, 67, -14, 3, 63, -70, -1, -4, 7, -11, -10, 47, -18, 6, 69, -9, -61, 2, 3, -6, 10, 63, -34, 40, -6, -79, -35, -32], "withholdReward": false, "trial_id": "mdp_trial_5", "block": "test", "trialIndex": 6, "score": 44, "costs": 0, "simulationMode": [null, null, null, null, null], "rewards": [1, 3, 1, -13, 52], "path": ["0", "0", "1", "2", "3", "4", "5"], "rt": [1392, 160, 259, 404, 337], "actions": ["up", "up", "up", "right", "up"], "actionTimes": [3117, 3786, 4549, 5467, 6314], "queries": {"click": {"state": {"target": [], "time": []}, "edge": {"target": [], "time": []}}, "mouseover": {"state": {"target": [], "time": []}, "edge": {"target": [], "time": []}}, "mouseout": {"state": {"target": [], "time": []}, "edge": {"target": [], "time": []}}}, "displayed_time": "15.73", "trialTime": 17602, "trial_type": "mouselab-mdp", "trial_index": 13, "time_elapsed": 814171, "internal_node_id": "0.0-6.0-1.0-4.0"}}, {"uniqueid": "w87723338:a11749427", "current_trial": 14, "dateTime": 1693482217798, "trialdata": {"revealed_states": [], "clicked_states": [], "num_clicks_accrued": [0, 0, 0, 0, 0, 0, 0, 0, 0, 0, 0, 0, 0], "stateRewards": ["", -2, -4, -6, 12, -58, -70, -80, 2, 16, -88, -62, 1, 2, -5, 11, 77, -35, -44, -5, 18, -83, 87, 1, -3, -5, 13, -44, -21, -86, 10, -52, 8, 29], "withholdReward": false, "trial_id": "mdp_trial_6", "block": "test", "trialIndex": 7, "score": 11, "costs": 0, "simulationMode": [null, null, null, null, null], "rewards": [1, -3, -5, 10, 8], "path": ["0", "0", "23", "24", "25", "30", "32"], "rt": [3327, 236, 315, 543, 425], "actions": ["left", "left", "left", "down", "down"], "actionTimes": [5988, 6732, 7553, 8607, 9537], "queries": {"click": {"state": {"target": [], "time": []}, "edge": {"target": [], "time": []}}, "mouseover": {"state": {"target": [], "time": []}, "edge": {"target": [], "time": []}}, "mouseout": {"state": {"target": [], "time": []}, "edge": {"target": [], "time": []}}}, "displayed_time": "16.66", "trialTime": 18716, "trial_type": "mouselab-mdp", "trial_index": 14, "time_elapsed": 833194, "internal_node_id": "0.0-6.0-1.0-5.0"}}, {"uniqueid": "w87723338:a11749427", "current_trial": 15, "dateTime": 1693482236420, "trialdata": {"revealed_states": [], "clicked_states": [], "num_clicks_accrued": [0, 0, 0, 0, 0, 0, 0, 0, 0, 0, 0, 0, 0], "stateRewards": ["", -2, -1, -4, -15, -14, -67, 32, -3, -59, 63, 31, 2, -1, -7, -15, 71, -66, -27, -3, -54, -39, 72, 2, 1, 1, -13, 77, -40, 35, -9, 35, 75, 57], "withholdReward": false, "trial_id": "mdp_trial_7", "block": "test", "trialIndex": 8, "score": -48, "costs": 0, "simulationMode": [null, null, null, null, null], "rewards": [2, -1, -7, -3, -39], "path": ["0", "0", "12", "13", "14", "19", "21"], "rt": [3355, 1258, 1336, 983, 1297], "actions": ["right", "right", "right", "down", "down"], "actionTimes": [5882, 7646, 9501, 10995, 12810], "queries": {"click": {"state": {"target": [], "time": []}, "edge": {"target": [], "time": []}}, "mouseover": {"state": {"target": [], "time": []}, "edge": {"target": [], "time": []}}, "mouseout": {"state": {"target": [], "time": []}, "edge": {"target": [], "time": []}}}, "displayed_time": "16.54", "trialTime": 18310, "trial_type": "mouselab-mdp", "trial_index": 15, "time_elapsed": 851816, "internal_node_id": "0.0-6.0-1.0-6.0"}}, {"uniqueid": "w87723338:a11749427", "current_trial": 16, "dateTime": 1693482255602, "trialdata": {"revealed_states": [], "clicked_states": ["1"], "num_clicks_accrued": [0, 0, 0, 0, 0, 0, 0, 0, 0, 0, 0, 0, 0], "stateRewards": ["", 1, 1, 5, 6, -29, -7, 3, -16, 9, -46, 65, -1, 4, -1, -16, -63, -77, -87, 8, 80, -50, 43, -1, -1, -5, 5, -38, -71, -62, 9, 81, -50, -52], "withholdReward": false, "trial_id": "mdp_trial_8", "block": "test", "trialIndex": 9, "score": 54.6, "costs": -1.4, "simulationMode": [null, null, null, null, null], "rewards": [1, 1, 5, -16, 65], "path": ["0", "0", "1", "2", "3", "8", "11"], "rt": [4295, 1601, 836, 980, 361], "actions": ["up", "up", "up", "left", "left"], "actionTimes": [7342, 9456, 10804, 12291, 13158], "queries": {"click": {"state": {"target": ["1"], "time": [4035]}, "edge": {"target": [], "time": []}}, "mouseover": {"state": {"target": ["1"], "time": [3651]}, "edge": {"target": [], "time": []}}, "mouseout": {"state": {"target": ["0"], "time": [3533]}, "edge": {"target": [], "time": []}}}, "displayed_time": "17.05", "trialTime": 18848, "trial_type": "mouselab-mdp", "trial_index": 16, "time_elapsed": 870998, "internal_node_id": "0.0-6.0-1.0-7.0"}}, {"uniqueid": "w87723338:a11749427", "current_trial": 17, "dateTime": 1693482273431, "trialdata": {"revealed_states": [], "clicked_states": ["23"], "num_clicks_accrued": [0, 0, 0, 0, 0, 0, 0, 0, 0, 0, 0, 0, 0], "stateRewards": ["", -2, -1, -3, -1, -78, -6, 2, -1, 22, -88, 32, 2, 2, -7, -8, -51, -17, 54, 2, -44, 54, 75, 2, -2, -8, -15, -29, 12, -67, 15, -1, -47, -47], "withholdReward": false, "trial_id": "mdp_trial_9", "block": "test", "trialIndex": 10, "score": -41.4, "costs": -1.4, "simulationMode": [null, null, null, null, null], "rewards": [2, -2, -8, 15, -47], "path": ["0", "0", "23", "24", "25", "30", "32"], "rt": [4851, 913, 331, 465, 336], "actions": ["left", "left", "left", "down", "down"], "actionTimes": [7213, 8639, 9480, 10454, 11297], "queries": {"click": {"state": {"target": ["23"], "time": [3686]}, "edge": {"target": [], "time": []}}, "mouseover": {"state": {"target": ["23", "21"], "time": [3135, 5947]}, "edge": {"target": [], "time": []}}, "mouseout": {"state": {"target": ["1", "23", "0", "23", "21"], "time": [1595, 1752, 1912, 4857, 5970]}, "edge": {"target": [], "time": []}}}, "displayed_time": "16.36", "trialTime": 17503, "trial_type": "mouselab-mdp", "trial_index": 17, "time_elapsed": 888826, "internal_node_id": "0.0-6.0-1.0-8.0"}}, {"uniqueid": "w87723338:a11749427", "current_trial": 18, "dateTime": 1693482293272, "trialdata": {"revealed_states": [], "clicked_states": ["1", "13", "23"], "num_clicks_accrued": [0, 0, 0, 0, 0, 0, 0, 0, 0, 0, 0, 0, 0], "stateRewards": ["", -1, 2, -7, -12, -62, 12, -13, 5, 77, -71, 83, 1, -4, 7, 15, -42, -87, -4, 5, -25, 44, 88, -1, 4, -5, -8, 14, 51, 8, -5, 83, -24, -19], "withholdReward": false, "trial_id": "mdp_trial_10", "block": "test", "trialIndex": 11, "score": 71.8, "costs": -4.199999999999999, "simulationMode": [null, null, null, null, null], "rewards": [-1, 4, -5, -5, 83], "path": ["0", "0", "23", "24", "25", "30", "31"], "rt": [11082, 573, 340, 345, 288], "actions": ["left", "left", "left", "down", "right"], "actionTimes": [13117, 14207, 15053, 15911, 16708], "queries": {"click": {"state": {"target": ["1", "13", "23"], "time": [3163, 6412, 9376]}, "edge": {"target": [], "time": []}}, "mouseover": {"state": {"target": ["1", "12", "13", "23", "0", "22"], "time": [2479, 3560, 5684, 8698, 9708, 9790]}, "edge": {"target": [], "time": []}}, "mouseout": {"state": {"target": ["14", "0", "1", "12", "13", "23", "0", "22"], "time": [1206, 2353, 3465, 3600, 6644, 9686, 9723, 10586]}, "edge": {"target": [], "time": []}}}, "displayed_time": "17.22", "trialTime": 19515, "trial_type": "mouselab-mdp", "trial_index": 18, "time_elapsed": 908667, "internal_node_id": "0.0-6.0-1.0-9.0"}}, {"uniqueid": "w87723338:a11749427", "current_trial": 19, "dateTime": 1693482311800, "trialdata": {"revealed_states": [], "clicked_states": ["1"], "num_clicks_accrued": [0, 0, 0, 0, 0, 0, 0, 0, 0, 0, 0, 0, 0], "stateRewards": ["", 2, -1, -4, -13, 74, 77, 3, 2, -43, -2, -11, 2, 3, 7, 11, -26, -29, -33, -3, -3, -13, -3, 1, 3, -7, 14, -59, 33, 9, -5, 34, 79, 68], "withholdReward": false, "trial_id": "mdp_trial_11", "block": "test", "trialIndex": 12, "score": 56.6, "costs": -1.4, "simulationMode": [null, null, null, null, null], "rewards": [2, -1, -4, -13, 74], "path": ["0", "0", "1", "2", "3", "4", "5"], "rt": [3632, 505, 297, 1642, 2027], "actions": ["up", "up", "up", "right", "up"], "actionTimes": [5941, 6955, 7756, 9904, 12434], "queries": {"click": {"state": {"target": ["1"], "time": [3235]}, "edge": {"target": [], "time": []}}, "mouseover": {"state": {"target": ["1", "12", "19"], "time": [2954, 3455, 3519]}, "edge": {"target": [], "time": []}}, "mouseout": {"state": {"target": ["22", "12", "1", "1", "12", "19"], "time": [1519, 1598, 1773, 3439, 3473, 3538]}, "edge": {"target": [], "time": []}}}, "displayed_time": "16.31", "trialTime": 18220, "trial_type": "mouselab-mdp", "trial_index": 19, "time_elapsed": 927196, "internal_node_id": "0.0-6.0-1.0-10.0"}}, {"uniqueid": "w87723338:a11749427", "current_trial": 20, "dateTime": 1693482329704, "trialdata": {"revealed_states": [], "clicked_states": ["1"], "num_clicks_accrued": [0, 0, 0, 0, 0, 0, 0, 0, 0, 0, 0, 0, 0], "stateRewards": ["", 2, 4, -3, 16, -58, 30, -35, 11, -60, 47, 27, -2, -1, -7, -16, 23, -70, 68, -10, -65, -43, -34, -2, 1, 7, 9, -63, 34, -31, -8, -12, -86, 59], "withholdReward": false, "trial_id": "mdp_trial_12", "block": "test", "trialIndex": 13, "score": -17.4, "costs": -1.4, "simulationMode": [null, null, null, null, null], "rewards": [2, 4, -3, 16, -35], "path": ["0", "0", "1", "2", "3", "4", "7"], "rt": [3674, 788, 350, 677, 258], "actions": ["up", "up", "up", "right", "down"], "actionTimes": [5650, 6953, 7807, 8995, 9762], "queries": {"click": {"state": {"target": ["1"], "time": [2734]}, "edge": {"target": [], "time": []}}, "mouseover": {"state": {"target": ["1", "12", "13", "19", "20"], "time": [2512, 2999, 3026, 3074, 3109]}, "edge": {"target": [], "time": []}}, "mouseout": {"state": {"target": ["19", "22", "12", "0", "1", "12", "13", "19"], "time": [1038, 1082, 1454, 2287, 2972, 3017, 3041, 3092]}, "edge": {"target": [], "time": []}}}, "displayed_time": "15.98", "trialTime": 17585, "trial_type": "mouselab-mdp", "trial_index": 20, "time_elapsed": 945100, "internal_node_id": "0.0-6.0-1.0-11.0"}}, {"uniqueid": "w87723338:a11749427", "current_trial": 21, "dateTime": 1693482350648, "trialdata": {"revealed_states": [], "clicked_states": ["23", "1", "12"], "num_clicks_accrued": [0, 0, 0, 0, 0, 0, 0, 0, 0, 0, 0, 0, 0], "stateRewards": ["", 1, 4, 7, -16, -84, -6, -46, -12, -7, -49, -26, -1, 2, -4, 2, 22, 37, -64, 1, 88, -13, -10, 1, -4, -2, 5, 2, -10, -34, 9, 66, 55, 38], "withholdReward": false, "trial_id": "mdp_trial_13", "block": "test", "trialIndex": 14, "score": -92.2, "costs": -4.199999999999999, "simulationMode": [null, null, null, null, null], "rewards": [1, 4, 7, -16, -84], "path": ["0", "0", "1", "2", "3", "4", "5"], "rt": [13061, 437, 348, 245, 600], "actions": ["up", "up", "up", "right", "up"], "actionTimes": [14591, 15538, 16403, 17155, 18266], "queries": {"click": {"state": {"target": ["23", "1", "12"], "time": [3585, 6497, 10565]}, "edge": {"target": [], "time": []}}, "mouseover": {"state": {"target": ["1", "23", "12", "13", "14", "18", "1", "18", "15", "12", "22"], "time": [2729, 3312, 3854, 3895, 3980, 5929, 6152, 6772, 6821, 10311, 11035]}, "edge": {"target": [], "time": []}}, "mouseout": {"state": {"target": ["20", "13", "12", "1", "23", "12", "13", "14", "18", "1", "18", "15", "12", "22"], "time": [736, 784, 826, 3166, 3671, 3884, 3933, 5728, 5986, 6710, 6797, 6832, 11007, 11072]}, "edge": {"target": [], "time": []}}}, "displayed_time": "18.78", "trialTime": 20613, "trial_type": "mouselab-mdp", "trial_index": 21, "time_elapsed": 966044, "internal_node_id": "0.0-6.0-1.0-12.0"}}, {"uniqueid": "w87723338:a11749427", "current_trial": 22, "dateTime": 1693482368172, "trialdata": {"revealed_states": [], "clicked_states": ["12"], "num_clicks_accrued": [0, 0, 0, 0, 0, 0, 0, 0, 0, 0, 0, 0, 0], "stateRewards": ["", -1, -2, 8, -6, -79, -6, 87, 9, -5, -66, -38, 2, 2, 5, -6, -82, 74, 85, -8, 67, -30, -15, 1, -2, -2, -2, 87, 64, 49, 7, 2, -38, -9], "withholdReward": false, "trial_id": "mdp_trial_14", "block": "test", "trialIndex": 15, "score": -80.4, "costs": -1.4, "simulationMode": [null, null, null, null, null], "rewards": [2, 2, 5, -6, -82], "path": ["0", "0", "12", "13", "14", "15", "16"], "rt": [3500, 232, 315, 438, 287], "actions": ["right", "right", "right", "up", "up"], "actionTimes": [5017, 5759, 6585, 7528, 8321], "queries": {"click": {"state": {"target": ["12"], "time": [2292]}, "edge": {"target": [], "time": []}}, "mouseover": {"state": {"target": ["12", "0"], "time": [1971, 2538]}, "edge": {"target": [], "time": []}}, "mouseout": {"state": {"target": ["22", "0", "12", "0"], "time": [748, 1263, 2516, 2569]}, "edge": {"target": [], "time": []}}}, "displayed_time": "15.52", "trialTime": 17188, "trial_type": "mouselab-mdp", "trial_index": 22, "time_elapsed": 983568, "internal_node_id": "0.0-6.0-1.0-13.0"}}, {"uniqueid": "w87723338:a11749427", "current_trial": 23, "dateTime": 1693482385375, "trialdata": {"revealed_states": [], "clicked_states": ["1", "14"], "num_clicks_accrued": [0, 0, 0, 0, 0, 0, 0, 0, 0, 0, 0, 0, 0], "stateRewards": ["", -1, 3, 8, 10, -86, 61, -36, 10, 17, -60, 24, -1, -3, 3, 11, 50, 60, 33, -3, -20, 58, -6, 1, -4, -4, 13, -70, -71, 43, 14, 52, 82, -11], "withholdReward": false, "trial_id": "mdp_trial_15", "block": "test", "trialIndex": 16, "score": 57.2, "costs": -2.8, "simulationMode": [null, null, null, null, null], "rewards": [-1, -3, 3, 11, 50], "path": ["0", "0", "12", "13", "14", "15", "16"], "rt": [9382, 187, 157, 1025, 163], "actions": ["right", "right", "right", "up", "up"], "actionTimes": [10682, 11379, 12043, 13578, 14244], "queries": {"click": {"state": {"target": ["1", "14"], "time": [3827, 7343]}, "edge": {"target": [], "time": []}}, "mouseover": {"state": {"target": ["12", "1", "12", "12", "13", "14", "13"], "time": [1755, 3621, 4039, 6413, 6564, 6974, 7623]}, "edge": {"target": [], "time": []}}, "mouseout": {"state": {"target": ["0", "12", "1", "1", "12", "12", "13", "14", "13"], "time": [1713, 3407, 3910, 4013, 4066, 6460, 6905, 7593, 7659]}, "edge": {"target": [], "time": []}}}, "displayed_time": "15.30", "trialTime": 16828, "trial_type": "mouselab-mdp", "trial_index": 23, "time_elapsed": 1000771, "internal_node_id": "0.0-6.0-1.0-14.0"}}, {"uniqueid": "w87723338:a11749427", "current_trial": 24, "dateTime": 1693482402749, "trialdata": {"revealed_states": [], "clicked_states": ["14"], "num_clicks_accrued": [0, 0, 0, 0, 0, 0, 0, 0, 0, 0, 0, 0, 0], "stateRewards": ["", 2, 4, -6, -13, -75, -81, 30, 7, 5, 59, -65, -1, -1, 7, 14, -38, 36, -41, 1, -54, -5, 64, 2, -1, 5, 6, -19, 79, 11, 16, -33, -50, 58], "withholdReward": false, "trial_id": "mdp_trial_16", "block": "test", "trialIndex": 17, "score": 53.6, "costs": -1.4, "simulationMode": [null, null, null, null, null], "rewards": [-1, -1, 7, 14, 36], "path": ["0", "0", "12", "13", "14", "15", "17"], "rt": [4539, 275, 260, 932, 366], "actions": ["right", "right", "right", "up", "right"], "actionTimes": [5998, 6782, 7552, 8996, 9873], "queries": {"click": {"state": {"target": ["14"], "time": [2328]}, "edge": {"target": [], "time": []}}, "mouseover": {"state": {"target": ["12", "13", "14", "13", "12", "0"], "time": [1798, 1881, 1957, 2516, 2545, 2571]}, "edge": {"target": [], "time": []}}, "mouseout": {"state": {"target": ["12", "0", "12", "13", "14", "13", "12", "0"], "time": [936, 1779, 1853, 1923, 2498, 2535, 2561, 2590]}, "edge": {"target": [], "time": []}}}, "displayed_time": "15.46", "trialTime": 16965, "trial_type": "mouselab-mdp", "trial_index": 24, "time_elapsed": 1018144, "internal_node_id": "0.0-6.0-1.0-15.0"}}, {"uniqueid": "w87723338:a11749427", "current_trial": 25, "dateTime": 1693482421244, "trialdata": {"revealed_states": [], "clicked_states": ["25", "3", "14"], "num_clicks_accrued": [0, 0, 0, 0, 0, 0, 0, 0, 0, 0, 0, 0, 0], "stateRewards": ["", 2, -4, -4, 13, -80, 62, 13, -11, 57, -13, -44, 1, 4, 3, -4, -29, -88, 15, 16, -58, 68, -45, -1, -3, -1, -9, -44, -86, -19, -7, -36, 59, 66], "withholdReward": false, "trial_id": "mdp_trial_17", "block": "test", "trialIndex": 18, "score": -38.2, "costs": -4.199999999999999, "simulationMode": [null, null, null, null, null], "rewards": [1, 4, 3, 16, -58], "path": ["0", "0", "12", "13", "14", "19", "20"], "rt": [11627, 81, 218, 121, 527], "actions": ["right", "right", "right", "down", "right"], "actionTimes": [13114, 13706, 14427, 15058, 16097], "queries": {"click": {"state": {"target": ["25", "3", "14"], "time": [2933, 5894, 9274]}, "edge": {"target": [], "time": []}}, "mouseover": {"state": {"target": ["23", "0", "12", "18", "25", "24", "23", "13", "2", "3", "7", "18", "14", "13", "12", "22", "22", "31"], "time": [1661, 1779, 1801, 1842, 2699, 3114, 3144, 4842, 5376, 5501, 6207, 8258, 8529, 9527, 9562, 11401, 11609, 11748]}, "edge": {"target": [], "time": []}}, "mouseout": {"state": {"target": ["23", "0", "23", "0", "12", "18", "25", "24", "23", "13", "2", "3", "7", "18", "14", "13", "12", "22", "22", "31"], "time": [1050, 1612, 1744, 1795, 1814, 2230, 3007, 3133, 3156, 4869, 5417, 6159, 6220, 8377, 9503, 9553, 9579, 11429, 11637, 11770]}, "edge": {"target": [], "time": []}}}, "displayed_time": "16.60", "trialTime": 18147, "trial_type": "mouselab-mdp", "trial_index": 25, "time_elapsed": 1036640, "internal_node_id": "0.0-6.0-1.0-16.0"}}, {"uniqueid": "w87723338:a11749427", "current_trial": 26, "dateTime": 1693482438369, "trialdata": {"revealed_states": [], "clicked_states": ["15", "26"], "num_clicks_accrued": [0, 0, 0, 0, 0, 0, 0, 0, 0, 0, 0, 0, 0], "stateRewards": ["", -2, 2, -5, 1, 42, -63, -58, -6, 2, 16, 81, -2, 4, 7, -10, 33, 3, -33, -2, -52, -84, -27, 2, -3, -3, 15, -74, -14, -5, -5, -84, 79, -31], "withholdReward": false, "trial_id": "mdp_trial_18", "block": "test", "trialIndex": 19, "score": -65.8, "costs": -2.8, "simulationMode": [null, null, null, null, null], "rewards": [2, -3, -3, 15, -74], "path": ["0", "0", "23", "24", "25", "26", "27"], "rt": [8155, 183, 239, 988, 301], "actions": ["left", "left", "left", "up", "up"], "actionTimes": [9547, 10236, 10987, 12485, 13298], "queries": {"click": {"state": {"target": ["15", "26"], "time": [2948, 5653]}, "edge": {"target": [], "time": []}}, "mouseover": {"state": {"target": ["0", "12", "13", "15", "12", "0", "23", "24", "26", "28"], "time": [1734, 2025, 2330, 2629, 3201, 3259, 5080, 5191, 5302, 5858]}, "edge": {"target": [], "time": []}}, "mouseout": {"state": {"target": ["1", "0", "12", "13", "15", "12", "0", "23", "24", "26", "28"], "time": [788, 1783, 2261, 2393, 3109, 3224, 5045, 5149, 5205, 5833, 5891]}, "edge": {"target": [], "time": []}}}, "displayed_time": "15.39", "trialTime": 16813, "trial_type": "mouselab-mdp", "trial_index": 26, "time_elapsed": 1053764, "internal_node_id": "0.0-6.0-1.0-17.0"}}, {"uniqueid": "w87723338:a11749427", "current_trial": 27, "dateTime": 1693482460699, "trialdata": {"revealed_states": [], "clicked_states": ["3", "5", "25", "14"], "num_clicks_accrued": [0, 0, 0, 0, 0, 0, 0, 0, 0, 0, 0, 0, 0], "stateRewards": ["", -2, -2, -3, -6, -15, -11, 41, -12, -63, -76, 2, -2, -3, 8, 9, -36, -2, -18, -16, -32, -85, -17, -2, 1, 5, -16, 82, 35, -88, -1, 80, -82, -20], "withholdReward": false, "trial_id": "mdp_trial_19", "block": "test", "trialIndex": 20, "score": -103.6, "costs": -5.6, "simulationMode": [null, null, null, null, null], "rewards": [-2, -3, 8, -16, -85], "path": ["0", "0", "12", "13", "14", "19", "21"], "rt": [12992, 89, 355, 2004, 683], "actions": ["right", "right", "right", "down", "down"], "actionTimes": [14600, 15200, 16064, 18581, 19772], "queries": {"click": {"state": {"target": ["3", "5", "25", "14"], "time": [2913, 5712, 8876, 11765]}, "edge": {"target": [], "time": []}}, "mouseover": {"state": {"target": ["1", "2", "3", "2", "1", "12", "7", "4", "5", "2", "10", "26", "25", "25", "24", "14", "22"], "time": [2264, 2382, 2674, 3134, 3172, 3250, 5042, 5126, 5284, 6057, 6134, 8055, 8325, 8603, 9088, 11396, 12101]}, "edge": {"target": [], "time": []}}, "mouseout": {"state": {"target": ["1", "2", "3", "2", "1", "12", "7", "4", "5", "3", "2", "10", "26", "25", "25", "25", "24", "14", "22"], "time": [2306, 2569, 3110, 3151, 3196, 4960, 5083, 5215, 5954, 6024, 6066, 7757, 8242, 8416, 8937, 9062, 9106, 12028, 12111]}, "edge": {"target": [], "time": []}}}, "displayed_time": "20.28", "trialTime": 21990, "trial_type": "mouselab-mdp", "trial_index": 27, "time_elapsed": 1076095, "internal_node_id": "0.0-6.0-1.0-18.0"}}, {"uniqueid": "w87723338:a11749427", "current_trial": 28, "dateTime": 1693482479042, "trialdata": {"revealed_states": [], "clicked_states": ["3", "17"], "num_clicks_accrued": [0, 0, 0, 0, 0, 0, 0, 0, 0, 0, 0, 0, 0], "stateRewards": ["", -2, 1, -8, 12, -65, -79, 16, 7, -80, -17, -45, -2, 2, -5, -2, -85, 23, -4, -7, 48, 27, -76, 2, 3, 5, 2, 43, 71, -13, 7, -49, 59, -31], "withholdReward": false, "trial_id": "mdp_trial_20", "block": "test", "trialIndex": 21, "score": 13.2, "costs": -2.8, "simulationMode": [null, null, null, null, null], "rewards": [-2, 2, -5, -2, 23], "path": ["0", "0", "12", "13", "14", "15", "17"], "rt": [6969, 155, 189, 539, 153], "actions": ["right", "right", "right", "up", "right"], "actionTimes": [8439, 9105, 9810, 10850, 11512], "queries": {"click": {"state": {"target": ["3", "17"], "time": [2660, 5313]}, "edge": {"target": [], "time": []}}, "mouseover": {"state": {"target": ["1", "2", "3", "2", "7", "18", "17", "15", "12", "12", "22", "19"], "time": [1970, 2157, 2428, 2954, 2996, 4733, 5005, 5539, 5630, 7355, 7483, 7560]}, "edge": {"target": [], "time": []}}, "mouseout": {"state": {"target": ["0", "1", "2", "3", "2", "7", "18", "17", "15", "12", "12", "22", "19", "22"], "time": [1888, 2074, 2324, 2930, 2965, 3008, 4769, 5522, 5571, 5676, 7392, 7525, 7581, 16886]}, "edge": {"target": [], "time": []}}}, "displayed_time": "15.49", "trialTime": 18090, "trial_type": "mouselab-mdp", "trial_index": 28, "time_elapsed": 1094437, "internal_node_id": "0.0-6.0-1.0-19.0"}}, {"uniqueid": "w87723338:a11749427", "current_trial": 29, "dateTime": 1693482504558, "trialdata": {"revealed_states": [], "clicked_states": ["17", "9", "5", "21", "32", "33"], "num_clicks_accrued": [0, 0, 0, 0, 0, 0, 0, 0, 0, 0, 0, 0, 0], "stateRewards": ["", 1, 4, -8, -5, -15, -7, 21, 13, -30, 40, -65, 1, 1, 5, -14, 35, 27, -38, -11, 36, -58, -47, -2, 4, -3, 13, -16, -49, 22, 15, -56, -44, -10], "withholdReward": false, "trial_id": "mdp_trial_21", "block": "test", "trialIndex": 22, "score": 11.6, "costs": -8.4, "simulationMode": [null, null, null, null, null], "rewards": [1, 1, 5, -14, 27], "path": ["0", "0", "12", "13", "14", "15", "17"], "rt": [18482, 94, 151, 346, 116], "actions": ["right", "right", "right", "up", "right"], "actionTimes": [19887, 20489, 21151, 21998, 22621], "queries": {"click": {"state": {"target": ["17", "9", "5", "21", "32", "33"], "time": [2573, 5379, 9139, 11944, 14153, 16591]}, "edge": {"target": [], "time": []}}, "mouseover": {"state": {"target": ["12", "13", "14", "17", "15", "28", "10", "8", "9", "2", "6", "5", "6", "15", "22", "21", "32", "30", "33", "30", "31"], "time": [1520, 1590, 1680, 1903, 2880, 4805, 4923, 4965, 5096, 5656, 8083, 8470, 9427, 9499, 11443, 11694, 12666, 16234, 16387, 16804, 16842]}, "edge": {"target": [], "time": []}}, "mouseout": {"state": {"target": ["12", "13", "14", "17", "15", "28", "10", "8", "9", "2", "6", "5", "6", "15", "22", "21", "32", "30", "33", "30", "31"], "time": [1563, 1646, 1764, 2827, 2918, 4881, 4937, 5006, 5600, 5681, 8186, 9391, 9436, 9534, 11478, 12149, 14411, 16264, 16777, 16832, 16860]}, "edge": {"target": [], "time": []}}}, "displayed_time": "23.13", "trialTime": 25271, "trial_type": "mouselab-mdp", "trial_index": 29, "time_elapsed": 1119954, "internal_node_id": "0.0-6.0-1.0-20.0"}}, {"uniqueid": "w87723338:a11749427", "current_trial": 30, "dateTime": 1693482521749, "trialdata": {"revealed_states": [], "clicked_states": ["5"], "num_clicks_accrued": [0, 0, 0, 0, 0, 0, 0, 0, 0, 0, 0, 0, 0], "stateRewards": ["", -1, -3, -6, 14, 41, 18, 63, -14, 80, 21, 17, -2, -4, -2, -5, 13, 70, 8, -4, -64, -10, -20, 2, -1, 4, -1, -17, -55, 42, -7, 47, 54, 15], "withholdReward": false, "trial_id": "mdp_trial_22", "block": "test", "trialIndex": 23, "score": 43.6, "costs": -1.4, "simulationMode": [null, null, null, null, null], "rewards": [-1, -3, -6, 14, 41], "path": ["0", "0", "1", "2", "3", "4", "5"], "rt": [9372, 97, 125, 154, 425], "actions": ["up", "up", "up", "right", "up"], "actionTimes": [10804, 11411, 12041, 12704, 13640], "queries": {"click": {"state": {"target": ["5"], "time": [2470]}, "edge": {"target": [], "time": []}}, "mouseover": {"state": {"target": ["1", "2", "3", "5", "3", "3", "9", "4", "7", "4", "16", "17"], "time": [1866, 1884, 1910, 2197, 2809, 4724, 5726, 8207, 8387, 9597, 9665, 9693]}, "edge": {"target": [], "time": []}}, "mouseout": {"state": {"target": ["0", "1", "2", "3", "5", "3", "3", "9", "4", "7", "4", "16", "17"], "time": [1124, 1874, 1903, 1937, 2758, 2954, 4736, 7582, 8284, 9173, 9625, 9672, 9714]}, "edge": {"target": [], "time": []}}}, "displayed_time": "15.43", "trialTime": 16750, "trial_type": "mouselab-mdp", "trial_index": 30, "time_elapsed": 1137144, "internal_node_id": "0.0-6.0-1.0-21.0"}}, {"uniqueid": "w87723338:a11749427", "current_trial": 31, "dateTime": 1693482541995, "trialdata": {"revealed_states": [], "clicked_states": ["5", "9", "17", "29"], "num_clicks_accrued": [0, 0, 0, 0, 0, 0, 0, 0, 0, 0, 0, 0, 0], "stateRewards": ["", -2, -3, 1, -14, 48, -49, 67, -1, -35, -48, 3, -2, 1, -4, -5, 86, -84, 39, 1, 48, 41, -42, -1, -4, 2, -7, 18, -86, 17, 7, -9, 57, -69], "withholdReward": false, "trial_id": "mdp_trial_23", "block": "test", "trialIndex": 24, "score": 24.4, "costs": -5.6, "simulationMode": [null, null, null, null, null], "rewards": [-2, -3, 1, -14, 48], "path": ["0", "0", "1", "2", "3", "4", "5"], "rt": [12773, 451, 197, 547, 68], "actions": ["up", "up", "up", "right", "up"], "actionTimes": [14222, 15182, 15888, 16944, 17520], "queries": {"click": {"state": {"target": ["5", "9", "17", "29"], "time": [2296, 4873, 7753, 10831]}, "edge": {"target": [], "time": []}}, "mouseover": {"state": {"target": ["7", "5", "8", "11", "9", "11", "27", "27", "28", "1", "17", "15", "23", "24", "25", "29", "29", "26", "12", "13", "14"], "time": [1829, 2072, 2523, 4225, 4627, 5122, 5161, 7092, 7168, 7210, 7425, 7946, 8062, 10105, 10161, 10397, 10569, 11111, 13355, 13379, 13403]}, "edge": {"target": [], "time": []}}, "mouseout": {"state": {"target": ["14", "13", "12", "0", "7", "5", "8", "11", "9", "11", "27", "27", "28", "1", "17", "15", "23", "24", "25", "29", "29", "26", "12", "13", "14"], "time": [885, 947, 1010, 1733, 1857, 2455, 2545, 4266, 5058, 5133, 5199, 7113, 7176, 7219, 7922, 7969, 10070, 10141, 10188, 10445, 11056, 11156, 13370, 13391, 13423]}, "edge": {"target": [], "time": []}}}, "displayed_time": "18.03", "trialTime": 19940, "trial_type": "mouselab-mdp", "trial_index": 31, "time_elapsed": 1157390, "internal_node_id": "0.0-6.0-1.0-22.0"}}, {"uniqueid": "w87723338:a11749427", "current_trial": 32, "dateTime": 1693482558908, "trialdata": {"revealed_states": [], "clicked_states": [], "num_clicks_accrued": [0, 0, 0, 0, 0, 0, 0, 0, 0, 0, 0, 0, 0], "stateRewards": ["", 2, -4, 4, 9, 69, 9, -75, 12, -86, 66, 25, -1, 3, 2, -13, -88, -3, 1, 4, -69, 49, -84, 2, -1, 4, 2, -18, -81, -52, -15, -69, -54, 25], "withholdReward": false, "trial_id": "mdp_trial_24", "block": "test", "trialIndex": 25, "score": -8, "costs": 0, "simulationMode": [null, null, null, null, null], "rewards": [-1, 3, 2, -13, 1], "path": ["0", "0", "12", "13", "14", "15", "18"], "rt": [1084, 12, 40, 133, 227], "actions": ["right", "right", "right", "up", "left"], "actionTimes": [2412, 2923, 3475, 4119, 4852], "queries": {"click": {"state": {"target": [], "time": []}, "edge": {"target": [], "time": []}}, "mouseover": {"state": {"target": [], "time": []}, "edge": {"target": [], "time": []}}, "mouseout": {"state": {"target": ["14", "13", "12"], "time": [790, 818, 839]}, "edge": {"target": [], "time": []}}}, "displayed_time": "15.33", "trialTime": 16562, "trial_type": "mouselab-mdp", "trial_index": 32, "time_elapsed": 1174303, "internal_node_id": "0.0-6.0-1.0-23.0"}}, {"uniqueid": "w87723338:a11749427", "current_trial": 33, "dateTime": 1693482578206, "trialdata": {"revealed_states": [], "clicked_states": ["5", "17", "21", "22"], "num_clicks_accrued": [0, 0, 0, 0, 0, 0, 0, 0, 0, 0, 0, 0, 0], "stateRewards": ["", 1, -4, -6, -1, -21, 17, -72, 10, 77, 67, -46, -1, 4, -2, 14, -66, -49, -45, -15, -52, 23, -67, 2, -2, -2, 15, -3, 45, -64, 5, -44, 83, 61], "withholdReward": false, "trial_id": "mdp_trial_25", "block": "test", "trialIndex": 26, "score": 3.3999999999999986, "costs": -5.6, "simulationMode": [null, null, null, null, null], "rewards": [-1, 4, -2, -15, 23], "path": ["0", "0", "12", "13", "14", "19", "21"], "rt": [12657, 381, 289, 237, 236], "actions": ["right", "right", "right", "down", "down"], "actionTimes": [13557, 14448, 15245, 15992, 16733], "queries": {"click": {"state": {"target": ["5", "17", "21", "22"], "time": [1923, 4689, 7011, 9683]}, "edge": {"target": [], "time": []}}, "mouseover": {"state": {"target": ["7", "4", "5", "4", "2", "17", "13", "21", "22"], "time": [1472, 1526, 1610, 2147, 2179, 4456, 4936, 6761, 9365]}, "edge": {"target": [], "time": []}}, "mouseout": {"state": {"target": ["0", "7", "4", "5", "4", "2", "17", "13", "21", "22"], "time": [1415, 1505, 1582, 2125, 2160, 2198, 4857, 4958, 7205, 9919]}, "edge": {"target": [], "time": []}}}, "displayed_time": "17.23", "trialTime": 18952, "trial_type": "mouselab-mdp", "trial_index": 33, "time_elapsed": 1193601, "internal_node_id": "0.0-6.0-1.0-24.0"}}, {"uniqueid": "w87723338:a11749427", "current_trial": 34, "dateTime": 1693482595010, "trialdata": {"revealed_states": [], "clicked_states": ["9", "11"], "num_clicks_accrued": [0, 0, 0, 0, 0, 0, 0, 0, 0, 0, 0, 0, 0], "stateRewards": ["", -1, 1, 3, -8, -23, -15, -14, -11, -23, 58, 68, 1, 3, 5, 12, -17, -41, -7, -10, -4, 82, 10, 1, 4, -4, 11, 73, 55, -55, -1, -86, -86, 54], "withholdReward": false, "trial_id": "mdp_trial_26", "block": "test", "trialIndex": 27, "score": 57.2, "costs": -2.8, "simulationMode": [null, null, null, null, null], "rewards": [-1, 1, 3, -11, 68], "path": ["0", "0", "1", "2", "3", "8", "11"], "rt": [6958, 310, 153, 97, 133], "actions": ["up", "up", "up", "left", "left"], "actionTimes": [7981, 8803, 9463, 10067, 10707], "queries": {"click": {"state": {"target": ["9", "11"], "time": [1874, 4291]}, "edge": {"target": [], "time": []}}, "mouseover": {"state": {"target": ["1", "2", "3", "9", "2", "1", "10", "11", "23"], "time": [1227, 1295, 1393, 1650, 2144, 3791, 3906, 4052, 4551]}, "edge": {"target": [], "time": []}}, "mouseout": {"state": {"target": ["0", "1", "2", "3", "9", "2", "1", "10", "11", "23"], "time": [1157, 1268, 1344, 1518, 2092, 2165, 3816, 3914, 4472, 4562]}, "edge": {"target": [], "time": []}}}, "displayed_time": "15.02", "trialTime": 16419, "trial_type": "mouselab-mdp", "trial_index": 34, "time_elapsed": 1210406, "internal_node_id": "0.0-6.0-1.0-25.0"}}, {"uniqueid": "w87723338:a11749427", "current_trial": 35, "dateTime": 1693482611825, "trialdata": {"revealed_states": [], "clicked_states": ["29", "17"], "num_clicks_accrued": [0, 0, 0, 0, 0, 0, 0, 0, 0, 0, 0, 0, 0], "stateRewards": ["", 1, 2, 7, 13, 88, -71, 27, 3, 60, 5, -53, -2, 2, -6, -1, -30, 79, 47, -4, -14, 46, 68, 1, 1, 8, 10, -14, 86, 48, -11, -67, -44, 5], "withholdReward": false, "trial_id": "mdp_trial_27", "block": "test", "trialIndex": 28, "score": 69.2, "costs": -2.8, "simulationMode": [null, null, null, null, null], "rewards": [-2, 2, -6, -1, 79], "path": ["0", "0", "12", "13", "14", "15", "17"], "rt": [8694, 111, 199, 389, 143], "actions": ["right", "right", "right", "up", "right"], "actionTimes": [9979, 10599, 11310, 12209, 12860], "queries": {"click": {"state": {"target": ["29", "17"], "time": [2054, 5384]}, "edge": {"target": [], "time": []}}, "mouseover": {"state": {"target": ["0", "25", "29", "25", "31", "19", "14", "17", "14", "13", "22"], "time": [1364, 1618, 1813, 2245, 2292, 4799, 4937, 5118, 5640, 5661, 5692]}, "edge": {"target": [], "time": []}}, "mouseout": {"state": {"target": ["0", "0", "25", "29", "25", "31", "19", "14", "17", "14", "13", "22"], "time": [1076, 1413, 1688, 2216, 2255, 2302, 4827, 5007, 5586, 5650, 5671, 5703]}, "edge": {"target": [], "time": []}}}, "displayed_time": "15.28", "trialTime": 16462, "trial_type": "mouselab-mdp", "trial_index": 35, "time_elapsed": 1227220, "internal_node_id": "0.0-6.0-1.0-26.0"}}, {"uniqueid": "w87723338:a11749427", "current_trial": 36, "dateTime": 1693482634508, "trialdata": {"revealed_states": [], "clicked_states": ["5", "21", "17", "16", "33", "29"], "num_clicks_accrued": [0, 0, 0, 0, 0, 0, 0, 0, 0, 0, 0, 0, 0], "stateRewards": ["", -1, 3, 1, -11, -22, -36, 19, -5, -70, -52, 50, -2, -4, 4, -2, -41, -83, 29, -2, 22, 10, -6, -2, 3, -2, 14, 54, 44, 77, -9, -65, -37, -40], "withholdReward": false, "trial_id": "mdp_trial_28", "block": "test", "trialIndex": 29, "score": 81.6, "costs": -8.4, "simulationMode": [null, null, null, null, null], "rewards": [-2, 3, -2, 14, 77], "path": ["0", "0", "23", "24", "25", "26", "29"], "rt": [15868, 68, 172, 452, 139], "actions": ["left", "left", "left", "up", "left"], "actionTimes": [17260, 17834, 18516, 19477, 20130], "queries": {"click": {"state": {"target": ["5", "21", "17", "16", "33", "29"], "time": [2147, 4531, 6835, 9214, 11600, 13789]}, "edge": {"target": [], "time": []}}, "mouseover": {"state": {"target": ["7", "4", "5", "4", "22", "19", "19", "21", "14", "17", "15", "13", "12", "12", "18", "16", "18", "12", "31", "30", "33", "30", "31", "25", "26", "29", "26", "24", "24", "28", "27", "12", "13", "19"], "time": [1740, 1782, 1878, 2388, 2554, 2715, 3940, 4329, 6351, 6593, 7036, 7085, 7116, 8697, 8836, 9016, 9495, 9551, 11183, 11248, 11361, 11950, 12059, 13238, 13287, 13460, 13974, 14052, 15106, 15178, 15331, 16078, 16116, 16237]}, "edge": {"target": [], "time": []}}, "mouseout": {"state": {"target": ["0", "7", "4", "5", "4", "22", "19", "19", "21", "14", "17", "15", "13", "12", "12", "18", "16", "18", "12", "31", "30", "33", "30", "31", "25", "26", "29", "26", "24", "24", "28", "27", "12", "13", "19"], "time": [996, 1768, 1823, 2233, 2414, 2653, 3691, 4010, 4745, 6435, 7014, 7047, 7098, 7131, 8738, 8912, 9425, 9508, 9565, 11218, 11308, 11702, 12009, 13162, 13248, 13351, 13894, 14021, 14123, 15143, 15235, 15925, 16100, 16126, 16314]}, "edge": {"target": [], "time": []}}}, "displayed_time": "20.64", "trialTime": 22319, "trial_type": "mouselab-mdp", "trial_index": 36, "time_elapsed": 1249904, "internal_node_id": "0.0-6.0-1.0-27.0"}}, {"uniqueid": "w87723338:a11749427", "current_trial": 37, "dateTime": 1693482662278, "trialdata": {"revealed_states": [], "clicked_states": ["16", "29", "9", "27", "28", "32"], "num_clicks_accrued": [0, 0, 0, 0, 0, 0, 0, 0, 0, 0, 0, 0, 0], "stateRewards": ["", -1, -3, -5, -14, -13, -47, 79, 8, -60, -64, 41, -1, 2, 3, 13, -46, 61, -79, -11, -64, -65, 23, 1, -2, 6, -14, 46, 32, 21, 7, 75, -66, 15], "withholdReward": false, "trial_id": "mdp_trial_29", "block": "test", "trialIndex": 30, "score": 28.6, "costs": -8.4, "simulationMode": [null, null, null, null, null], "rewards": [1, -2, 6, -14, 46], "path": ["0", "0", "23", "24", "25", "26", "27"], "rt": [19417, 295, 145, 906, 145], "actions": ["left", "left", "left", "up", "up"], "actionTimes": [21665, 22466, 23122, 24536, 25191], "queries": {"click": {"state": {"target": ["16", "29", "9", "27", "28", "32"], "time": [3400, 5853, 8432, 11527, 14644, 18693]}, "edge": {"target": [], "time": []}}, "mouseover": {"state": {"target": ["12", "13", "15", "16", "13", "13", "12", "28", "26", "29", "26", "23", "10", "8", "9", "4", "4", "3", "10", "28", "27", "28", "23", "28", "30", "25", "31", "32"], "time": [2792, 2840, 2945, 3209, 3711, 5258, 5293, 5361, 5386, 5611, 6070, 6151, 8048, 8105, 8193, 8742, 10353, 10443, 10505, 10832, 11019, 11772, 12132, 12844, 14946, 17300, 18013, 18373]}, "edge": {"target": [], "time": []}}, "mouseout": {"state": {"target": ["13", "12", "0", "12", "13", "15", "16", "13", "13", "12", "28", "26", "29", "26", "23", "10", "8", "9", "4", "4", "3", "10", "28", "27", "28", "23", "28", "30", "25", "31", "32"], "time": [625, 757, 2669, 2820, 2882, 3053, 3603, 4183, 5284, 5306, 5375, 5394, 6051, 6099, 6169, 8083, 8138, 8672, 8765, 10417, 10464, 10540, 10909, 11700, 11792, 12215, 14876, 17171, 17825, 18047, 18949]}, "edge": {"target": [], "time": []}}}, "displayed_time": "25.70", "trialTime": 27384, "trial_type": "mouselab-mdp", "trial_index": 37, "time_elapsed": 1277672, "internal_node_id": "0.0-6.0-1.0-28.0"}}, {"uniqueid": "w87723338:a11749427", "current_trial": 38, "dateTime": 1693482685023, "trialdata": {"revealed_states": [], "clicked_states": ["29", "27", "9", "32", "33"], "num_clicks_accrued": [0, 0, 0, 0, 0, 0, 0, 0, 0, 0, 0, 0, 0], "stateRewards": ["", 2, -1, -2, -5, -47, -57, -33, -11, 31, -18, -72, -2, 1, -4, -8, -46, -53, -50, 15, -85, -9, 39, -2, -2, 1, 14, -1, -8, 53, -12, -41, -74, 62], "withholdReward": false, "trial_id": "mdp_trial_30", "block": "test", "trialIndex": 31, "score": 40, "costs": -7, "simulationMode": [null, null, null, null, null], "rewards": [-2, -2, 1, -12, 62], "path": ["0", "0", "23", "24", "25", "30", "33"], "rt": [16378, 123, 150, 134, 207], "actions": ["left", "left", "left", "down", "left"], "actionTimes": [17893, 18524, 19181, 19825, 20544], "queries": {"click": {"state": {"target": ["29", "27", "9", "32", "33"], "time": [3304, 6176, 8417, 11652, 14204]}, "edge": {"target": [], "time": []}}, "mouseover": {"state": {"target": ["1", "7", "4", "5", "11", "27", "29", "26", "28", "1", "4", "8", "27", "10", "2", "3", "9", "4", "1", "23", "31", "32", "33", "30", "31"], "time": [1824, 1873, 1900, 2060, 2616, 2687, 3074, 3478, 3517, 3574, 5171, 5650, 5726, 6389, 7969, 8026, 8116, 8707, 11122, 11156, 11218, 11426, 13947, 14412, 14457]}, "edge": {"target": [], "time": []}}, "mouseout": {"state": {"target": ["0", "1", "7", "4", "5", "11", "27", "29", "26", "28", "1", "4", "8", "27", "10", "2", "3", "9", "4", "1", "23", "31", "32", "33", "30", "31"], "time": [1782, 1852, 1886, 1909, 2123, 2644, 2768, 3456, 3507, 3537, 3593, 5274, 5671, 6336, 6409, 8010, 8053, 8643, 8719, 11130, 11176, 11323, 11752, 14383, 14438, 14476]}, "edge": {"target": [], "time": []}}}, "displayed_time": "21.06", "trialTime": 22414, "trial_type": "mouselab-mdp", "trial_index": 38, "time_elapsed": 1300419, "internal_node_id": "0.0-6.0-1.0-29.0"}}, {"uniqueid": "w87723338:a11749427", "current_trial": 39, "dateTime": 1693482714683, "trialdata": {"revealed_states": [], "clicked_states": ["27", "17", "16", "32", "21", "15", "14", "9"], "num_clicks_accrued": [0, 0, 0, 0, 0, 0, 0, 0, 0, 0, 0, 0, 0], "stateRewards": ["", 2, 3, -3, 4, 72, -28, 34, -12, 57, -64, -15, 2, 1, -4, -15, 2, 49, 31, -1, -42, -58, 31, -2, 1, -2, -13, -75, -19, -22, -6, 61, 10, -56], "withholdReward": false, "trial_id": "mdp_trial_31", "block": "test", "trialIndex": 32, "score": 35.8, "costs": -11.200000000000001, "simulationMode": [null, null, null, null, null], "rewards": [2, 3, -3, -12, 57], "path": ["0", "0", "1", "2", "3", "8", "9"], "rt": [23494, 105, 60, 62, 171], "actions": ["up", "up", "up", "left", "up"], "actionTimes": [24902, 25515, 26086, 26658, 27336], "queries": {"click": {"state": {"target": ["27", "17", "16", "32", "21", "15", "14", "9"], "time": [2557, 5122, 7663, 9766, 12742, 15074, 17632, 20406]}, "edge": {"target": [], "time": []}}, "mouseover": {"state": {"target": ["0", "23", "24", "26", "27", "1", "18", "15", "17", "15", "18", "18", "16", "18", "0", "31", "32", "22", "19", "19", "21", "19", "14", "15", "13", "12", "13", "14", "13", "2", "3", "8", "9", "8", "2", "18", "14", "14"], "time": [1640, 1966, 2029, 2105, 2271, 4625, 4729, 4785, 4861, 5300, 5342, 7194, 7458, 7915, 8026, 8226, 8494, 12054, 12145, 12366, 12499, 14101, 14263, 14860, 15343, 17144, 17248, 17331, 17872, 19592, 19636, 19838, 20199, 21234, 23102, 23289, 23400, 23845]}, "edge": {"target": [], "time": []}}, "mouseout": {"state": {"target": ["0", "0", "23", "24", "26", "27", "27", "1", "18", "15", "17", "15", "18", "18", "16", "18", "0", "31", "32", "22", "19", "19", "21", "19", "14", "15", "15", "13", "12", "13", "14", "14", "13", "2", "3", "8", "9", "8", "2", "18", "14"], "time": [1084, 1703, 2002, 2037, 2217, 2657, 2774, 4653, 4764, 4827, 5289, 5332, 5363, 7216, 7854, 7928, 8065, 8314, 9909, 12104, 12284, 12423, 12839, 14167, 14715, 15150, 15283, 15401, 17159, 17304, 17719, 17833, 17883, 19603, 19657, 20157, 20716, 21288, 23165, 23310, 23518]}, "edge": {"target": [], "time": []}}}, "displayed_time": "27.85", "trialTime": 29331, "trial_type": "mouselab-mdp", "trial_index": 39, "time_elapsed": 1330079, "internal_node_id": "0.0-6.0-1.0-30.0"}}, {"uniqueid": "w87723338:a11749427", "current_trial": 40, "dateTime": 1693482734049, "trialdata": {"revealed_states": [], "clicked_states": ["9", "5", "8", "2"], "num_clicks_accrued": [0, 0, 0, 0, 0, 0, 0, 0, 0, 0, 0, 0, 0], "stateRewards": ["", -1, 1, 8, -8, -49, 62, -78, 16, 28, -81, 78, -2, -3, -1, -4, 67, 49, -2, -13, -16, -39, 83, 1, -4, 4, -5, -20, 7, 84, 7, -32, -59, 19], "withholdReward": false, "trial_id": "mdp_trial_32", "block": "test", "trialIndex": 33, "score": 46.4, "costs": -5.6, "simulationMode": [null, null, null, null, null], "rewards": [-1, 1, 8, 16, 28], "path": ["0", "0", "1", "2", "3", "8", "9"], "rt": [13193, 274, 179, 123, 175], "actions": ["up", "up", "up", "left", "up"], "actionTimes": [14429, 15215, 15907, 16538, 17222], "queries": {"click": {"state": {"target": ["9", "5", "8", "2"], "time": [2081, 4954, 7864, 11376]}, "edge": {"target": [], "time": []}}, "mouseover": {"state": {"target": ["3", "9", "4", "5", "6", "6", "4", "8", "2", "1", "24", "25", "29", "26", "2", "2"], "time": [1687, 1839, 2410, 4375, 5311, 7126, 7199, 7638, 8094, 9719, 9900, 9970, 10115, 10754, 10851, 11080]}, "edge": {"target": [], "time": []}}, "mouseout": {"state": {"target": ["14", "13", "12", "3", "9", "4", "5", "6", "6", "4", "8", "2", "1", "24", "25", "29", "26", "2", "2"], "time": [630, 720, 776, 1756, 2330, 2442, 5218, 5321, 7178, 7226, 8037, 8133, 9782, 9941, 10038, 10719, 10776, 10921, 11609]}, "edge": {"target": [], "time": []}}}, "displayed_time": "17.73", "trialTime": 19018, "trial_type": "mouselab-mdp", "trial_index": 40, "time_elapsed": 1349444, "internal_node_id": "0.0-6.0-1.0-31.0"}}, {"uniqueid": "w87723338:a11749427", "current_trial": 41, "dateTime": 1693482766886, "trialdata": {"revealed_states": [], "clicked_states": ["9", "6", "5", "17", "2", "8", "33", "32", "29"], "num_clicks_accrued": [0, 0, 0, 0, 0, 0, 0, 0, 0, 0, 0, 0, 0], "stateRewards": ["", 2, -1, 4, -9, -43, 7, 54, -13, 38, -40, -83, -1, 2, -8, -10, 34, -33, 11, -14, -79, 65, 26, 1, 2, 4, 10, 21, 1, 86, 4, -53, 28, -29], "withholdReward": false, "trial_id": "mdp_trial_33", "block": "test", "trialIndex": 34, "score": 90.4, "costs": -12.600000000000001, "simulationMode": [null, null, null, null, null], "rewards": [1, 2, 4, 10, 86], "path": ["0", "0", "23", "24", "25", "26", "29"], "rt": [25606, 421, 180, 665, 49], "actions": ["left", "left", "left", "up", "left"], "actionTimes": [26888, 27819, 28506, 29677, 30237], "queries": {"click": {"state": {"target": ["9", "6", "5", "17", "2", "8", "33", "32", "29"], "time": [2376, 5169, 7097, 9275, 12202, 15003, 18281, 20790, 23662]}, "edge": {"target": [], "time": []}}, "mouseover": {"state": {"target": ["9", "5", "3", "4", "6", "4", "5", "3", "2", "7", "15", "17", "15", "18", "1", "1", "12", "1", "2", "18", "15", "17", "15", "18", "10", "8", "8", "3", "7", "1", "24", "25", "33", "30", "31", "31", "32", "30", "29", "26", "28"], "time": [2144, 2736, 4445, 4751, 4814, 5596, 6447, 7552, 8552, 8631, 8854, 8986, 9443, 9485, 9534, 10823, 11347, 11527, 11944, 12917, 12944, 14325, 14374, 14429, 14569, 14617, 14672, 15219, 17360, 17471, 17630, 17852, 18075, 18560, 18665, 20289, 20373, 22929, 23290, 23860, 23961]}, "edge": {"target": [], "time": []}}, "mouseout": {"state": {"target": ["9", "5", "3", "4", "6", "4", "5", "3", "2", "7", "15", "17", "15", "18", "1", "1", "12", "1", "2", "2", "18", "15", "17", "17", "15", "18", "2", "10", "8", "8", "3", "7", "1", "24", "25", "33", "30", "31", "31", "32", "30", "29", "26", "28"], "time": [2466, 4257, 4723, 4786, 5549, 5645, 7473, 7598, 8591, 8687, 8888, 9423, 9473, 9496, 9566, 11230, 11416, 11537, 12445, 12863, 12929, 12964, 12999, 14353, 14409, 14457, 14548, 14578, 14625, 15198, 15240, 17409, 17481, 17748, 17894, 18505, 18619, 18759, 20299, 21027, 22963, 23741, 23921, 25497]}, "edge": {"target": [], "time": []}}}, "displayed_time": "30.75", "trialTime": 32487, "trial_type": "mouselab-mdp", "trial_index": 41, "time_elapsed": 1382282, "internal_node_id": "0.0-6.0-1.0-32.0"}}, {"uniqueid": "w87723338:a11749427", "current_trial": 42, "dateTime": 1693482787113, "trialdata": {"revealed_states": [], "clicked_states": ["29", "27", "33", "32", "25"], "num_clicks_accrued": [0, 0, 0, 0, 0, 0, 0, 0, 0, 0, 0, 0, 0], "stateRewards": ["", -1, -3, -7, -7, -76, 30, -49, 11, -70, 56, 2, 1, 4, -3, -14, -59, -83, -25, -9, -21, -67, -73, -2, 4, 4, -9, -11, -32, 60, 9, -87, 22, -64], "withholdReward": false, "trial_id": "mdp_trial_34", "block": "test", "trialIndex": 35, "score": 50, "costs": -7, "simulationMode": [null, null, null, null, null], "rewards": [-2, 4, 4, -9, 60], "path": ["0", "0", "23", "24", "25", "26", "29"], "rt": [14032, 69, 161, 183, 41], "actions": ["left", "left", "left", "up", "left"], "actionTimes": [15591, 16167, 16834, 17530, 18082], "queries": {"click": {"state": {"target": ["29", "27", "33", "32", "25"], "time": [2649, 5149, 7603, 9974, 12430]}, "edge": {"target": [], "time": []}}, "mouseover": {"state": {"target": ["28", "26", "26", "29", "26", "28", "10", "8", "11", "27", "28", "28", "26", "33", "30", "25", "30", "32", "30", "25", "24", "23", "12", "13", "14"], "time": [1897, 1946, 2196, 2433, 2888, 2983, 3489, 3599, 4600, 4883, 5427, 6946, 7056, 7312, 7859, 9464, 9527, 9639, 10194, 10276, 13005, 14589, 14637, 14661, 14680]}, "edge": {"target": [], "time": []}}, "mouseout": {"state": {"target": ["28", "26", "26", "29", "26", "28", "10", "8", "11", "27", "28", "28", "26", "33", "30", "25", "30", "32", "30", "25", "24", "23", "12", "13", "14"], "time": [1925, 1960, 2206, 2846, 2944, 3021, 3543, 3682, 4710, 5318, 5439, 7022, 7098, 7824, 7884, 9486, 9576, 10064, 10234, 12940, 14562, 14605, 14650, 14671, 14691]}, "edge": {"target": [], "time": []}}}, "displayed_time": "18.59", "trialTime": 19859, "trial_type": "mouselab-mdp", "trial_index": 42, "time_elapsed": 1402509, "internal_node_id": "0.0-6.0-1.0-33.0"}}, {"uniqueid": "w87723338:a11749427", "current_trial": 43, "dateTime": 1693482809760, "trialdata": {"revealed_states": [], "clicked_states": ["9", "10", "3", "8", "2"], "num_clicks_accrued": [0, 0, 0, 0, 0, 0, 0, 0, 0, 0, 0, 0, 0], "stateRewards": ["", -1, -4, -6, -15, 21, -67, -63, 9, 51, 69, -14, -1, 3, 8, -8, 39, 72, 63, 15, 19, 47, 15, 1, 4, 5, 16, -18, 34, 35, -14, -80, 40, 1], "withholdReward": false, "trial_id": "mdp_trial_35", "block": "test", "trialIndex": 36, "score": 60, "costs": -7, "simulationMode": [null, null, null, null, null], "rewards": [-1, -4, -6, 9, 69], "path": ["0", "0", "1", "2", "3", "8", "10"], "rt": [13207, 114, 95, 362, 657], "actions": ["up", "up", "up", "left", "down"], "actionTimes": [15055, 15680, 16300, 17171, 18350], "queries": {"click": {"state": {"target": ["9", "10", "3", "8", "2"], "time": [2896, 5660, 8066, 10138, 13121]}, "edge": {"target": [], "time": []}}, "mouseover": {"state": {"target": ["1", "2", "3", "9", "5", "5", "3", "10", "2", "7", "3", "8", "2", "2", "2", "2", "18", "15", "14"], "time": [2163, 2288, 2406, 2607, 3400, 4863, 5247, 5378, 5899, 5995, 7043, 9738, 10402, 12072, 12390, 12800, 13413, 13447, 13968]}, "edge": {"target": [], "time": []}}, "mouseout": {"state": {"target": ["12", "0", "0", "1", "2", "3", "9", "5", "5", "3", "10", "2", "7", "3", "8", "2", "2", "2", "2", "2", "18", "15"], "time": [774, 801, 2107, 2211, 2371, 2510, 3308, 3483, 5177, 5287, 5874, 5951, 6875, 8378, 10351, 10414, 12169, 12439, 13231, 13359, 13435, 13459]}, "edge": {"target": [], "time": []}}}, "displayed_time": "18.86", "trialTime": 22317, "trial_type": "mouselab-mdp", "trial_index": 43, "time_elapsed": 1425155, "internal_node_id": "0.0-6.0-1.0-34.0"}}, {"uniqueid": "w87723338:a11749427", "current_trial": 44, "dateTime": 1693482842302, "trialdata": {"revealed_states": [], "clicked_states": ["9", "29", "32", "21", "22", "31", "6", "5", "16"], "num_clicks_accrued": [0, 0, 0, 0, 0, 0, 0, 0, 0, 0, 0, 0, 0], "stateRewards": ["", -2, 1, -7, 9, 8, 25, 61, -7, -17, 69, -81, 1, 4, -4, -11, 16, 67, 44, 3, 6, -45, -54, -2, 3, 6, -11, -15, 32, -47, 3, -39, -6, -88], "withholdReward": false, "trial_id": "mdp_trial_36", "block": "test", "trialIndex": 37, "score": -3.6000000000000014, "costs": -12.600000000000001, "simulationMode": [null, null, null, null, null], "rewards": [-2, 1, -7, 9, 8], "path": ["0", "0", "1", "2", "3", "4", "5"], "rt": [25630, 7, 108, 120, 142], "actions": ["up", "up", "up", "right", "up"], "actionTimes": [27994, 28509, 29130, 29759, 30415], "queries": {"click": {"state": {"target": ["9", "29", "32", "21", "22", "31", "6", "5", "16"], "time": [3141, 6221, 8746, 11247, 13633, 16434, 19301, 21960, 24863]}, "edge": {"target": [], "time": []}}, "mouseover": {"state": {"target": ["3", "9", "5", "4", "7", "1", "23", "24", "25", "29", "29", "32", "21", "22", "12", "0", "23", "24", "31", "0", "7", "4", "6", "5", "16", "14"], "time": [2662, 2874, 3397, 5224, 5259, 5315, 5404, 5487, 5539, 5689, 5960, 8495, 10898, 13000, 15611, 15722, 15833, 16007, 16210, 18555, 18701, 18778, 19145, 21721, 24533, 27102]}, "edge": {"target": [], "time": []}}, "mouseout": {"state": {"target": ["14", "15", "18", "12", "0", "3", "9", "5", "4", "7", "1", "23", "24", "25", "29", "29", "32", "21", "22", "22", "22", "12", "0", "23", "24", "31", "0", "7", "4", "6", "5", "6", "16", "14"], "time": [1453, 1502, 1613, 1773, 2462, 2717, 3217, 3417, 5234, 5287, 5335, 5432, 5515, 5548, 5724, 6453, 9007, 11510, 13730, 13931, 15556, 15653, 15785, 15952, 16105, 16521, 18576, 18743, 19020, 21296, 22202, 22654, 25134, 27158]}, "edge": {"target": [], "time": []}}}, "displayed_time": "30.92", "trialTime": 32195, "trial_type": "mouselab-mdp", "trial_index": 44, "time_elapsed": 1457697, "internal_node_id": "0.0-6.0-1.0-35.0"}}, {"uniqueid": "w87723338:a11749427", "current_trial": 45, "dateTime": 1693482863956, "trialdata": {"revealed_states": [], "clicked_states": ["5", "17", "21", "32", "33"], "num_clicks_accrued": [0, 0, 0, 0, 0, 0, 0, 0, 0, 0, 0, 0, 0], "stateRewards": ["", -1, -2, -8, 8, -27, -82, 19, -14, -62, 4, 1, -2, 2, 6, 10, 73, -51, -2, 2, 73, -48, 54, -1, 2, -4, 11, -25, 47, 86, 15, 33, 43, -42], "withholdReward": false, "trial_id": "mdp_trial_37", "block": "test", "trialIndex": 38, "score": 48, "costs": -7, "simulationMode": [null, null, null, null, null], "rewards": [-1, 2, -4, 15, 43], "path": ["0", "0", "23", "24", "25", "30", "32"], "rt": [14244, 189, 166, 85, 268], "actions": ["left", "left", "left", "down", "down"], "actionTimes": [16791, 17495, 18166, 18760, 19547], "queries": {"click": {"state": {"target": ["5", "17", "21", "32", "33"], "time": [3680, 6045, 8133, 10619, 14325]}, "edge": {"target": [], "time": []}}, "mouseover": {"state": {"target": ["7", "4", "5", "18", "17", "15", "13", "12", "22", "19", "21", "32", "31", "30", "33", "30", "31"], "time": [3209, 3265, 3431, 4067, 5730, 6232, 6277, 6320, 7367, 7441, 7903, 10291, 13874, 14008, 14152, 14499, 14545]}, "edge": {"target": [], "time": []}}, "mouseout": {"state": {"target": ["13", "12", "0", "7", "4", "5", "18", "17", "15", "13", "12", "22", "19", "21", "21", "32", "31", "30", "33", "30", "31"], "time": [1396, 1716, 2870, 3232, 3300, 3936, 4331, 6211, 6244, 6307, 6333, 7408, 7475, 8226, 8374, 10715, 13957, 14097, 14430, 14532, 14591]}, "edge": {"target": [], "time": []}}}, "displayed_time": "20.06", "trialTime": 21270, "trial_type": "mouselab-mdp", "trial_index": 45, "time_elapsed": 1479352, "internal_node_id": "0.0-6.0-1.0-36.0"}}, {"uniqueid": "w87723338:a11749427", "current_trial": 46, "dateTime": 1693482889994, "trialdata": {"revealed_states": [], "clicked_states": ["27", "28", "32", "21", "20", "14", "13"], "num_clicks_accrued": [0, 0, 0, 0, 0, 0, 0, 0, 0, 0, 0, 0, 0], "stateRewards": ["", 1, 3, -2, 15, 51, 15, -19, 11, 67, -45, -73, 2, 4, -2, -13, 36, 9, -28, 10, -30, 31, 16, 1, 2, -1, -16, 14, -22, 36, -1, 88, -5, 45], "withholdReward": false, "trial_id": "mdp_trial_38", "block": "test", "trialIndex": 39, "score": 35.2, "costs": -9.8, "simulationMode": [null, null, null, null, null], "rewards": [2, 4, -2, 10, 31], "path": ["0", "0", "12", "13", "14", "19", "21"], "rt": [20332, 22, 129, 80, 130], "actions": ["right", "right", "right", "down", "down"], "actionTimes": [21469, 22003, 22643, 23237, 23876], "queries": {"click": {"state": {"target": ["27", "28", "32", "21", "20", "14", "13"], "time": [3401, 6257, 8525, 11111, 13305, 15776, 18265]}, "edge": {"target": [], "time": []}}, "mouseover": {"state": {"target": ["1", "2", "3", "5", "5", "4", "2", "23", "24", "25", "25", "26", "27", "28", "23", "23", "23", "28", "23", "23", "23", "31", "30", "32", "22", "21", "21", "22", "19", "20", "19", "22", "13", "14", "22", "22", "13", "19"], "time": [1322, 1371, 1412, 1643, 2057, 2321, 2356, 2418, 2441, 2530, 2814, 2926, 3182, 3694, 3747, 4464, 5002, 5960, 6512, 7558, 7904, 8084, 8182, 8348, 9053, 10786, 10878, 12729, 12870, 13038, 13607, 14752, 14972, 15583, 16088, 17798, 17937, 18529]}, "edge": {"target": [], "time": []}}, "mouseout": {"state": {"target": ["0", "1", "2", "3", "5", "5", "4", "2", "23", "24", "25", "25", "26", "27", "28", "23", "23", "23", "28", "23", "23", "23", "31", "30", "32", "22", "21", "21", "22", "19", "20", "19", "22", "13", "14", "22", "22", "13", "19"], "time": [1287, 1350, 1398, 1454, 1745, 2294, 2332, 2371, 2429, 2495, 2565, 2857, 3114, 3653, 3716, 3778, 4637, 5738, 6500, 6528, 7629, 8002, 8148, 8192, 8621, 10633, 10827, 11377, 12806, 12960, 13582, 13641, 14882, 15070, 16021, 16163, 17862, 18496, 18603]}, "edge": {"target": [], "time": []}}}, "displayed_time": "24.38", "trialTime": 25639, "trial_type": "mouselab-mdp", "trial_index": 46, "time_elapsed": 1505389, "internal_node_id": "0.0-6.0-1.0-37.0"}}, {"uniqueid": "w87723338:a11749427", "current_trial": 47, "dateTime": 1693482911266, "trialdata": {"revealed_states": [], "clicked_states": ["17", "21", "32", "33", "25"], "num_clicks_accrued": [0, 0, 0, 0, 0, 0, 0, 0, 0, 0, 0, 0, 0], "stateRewards": ["", 2, -1, -3, 16, -3, -16, -62, -1, 13, -26, 43, -1, 4, 3, -9, -54, -37, -3, -12, -71, -68, -57, 1, -3, 2, -9, 2, -2, -9, -11, 84, -52, 55], "withholdReward": false, "trial_id": "mdp_trial_39", "block": "test", "trialIndex": 40, "score": 37, "costs": -7, "simulationMode": [null, null, null, null, null], "rewards": [1, -3, 2, -11, 55], "path": ["0", "0", "23", "24", "25", "30", "33"], "rt": [15091, 101, 152, 71, 203], "actions": ["left", "left", "left", "down", "left"], "actionTimes": [16352, 16966, 17625, 18197, 18919], "queries": {"click": {"state": {"target": ["17", "21", "32", "33", "25"], "time": [2501, 5178, 7920, 10742, 13873]}, "edge": {"target": [], "time": []}}, "mouseover": {"state": {"target": ["15", "17", "15", "13", "12", "22", "21", "32", "30", "33", "33", "33", "30", "23", "1", "3", "9", "11", "28", "25", "24", "22", "19", "19"], "time": [2052, 2294, 2741, 2829, 2865, 4723, 4875, 7702, 10029, 10250, 10506, 10604, 11012, 11123, 11218, 11344, 11582, 13145, 13215, 13625, 14051, 14144, 14176, 14761]}, "edge": {"target": [], "time": []}}, "mouseout": {"state": {"target": ["21", "0", "15", "17", "17", "15", "13", "12", "22", "21", "32", "30", "33", "33", "33", "30", "23", "1", "3", "9", "11", "28", "25", "24", "22", "19", "19"], "time": [662, 759, 2176, 2578, 2701, 2773, 2842, 2918, 4765, 5363, 8168, 10097, 10326, 10519, 10958, 11038, 11145, 11252, 11396, 13097, 13164, 13226, 14016, 14066, 14163, 14212, 14978]}, "edge": {"target": [], "time": []}}}, "displayed_time": "19.43", "trialTime": 20929, "trial_type": "mouselab-mdp", "trial_index": 47, "time_elapsed": 1526661, "internal_node_id": "0.0-6.0-1.0-38.0"}}, {"uniqueid": "w87723338:a11749427", "current_trial": 48, "dateTime": 1693482928806, "trialdata": {"revealed_states": [], "clicked_states": ["5", "29"], "num_clicks_accrued": [0, 0, 0, 0, 0, 0, 0, 0, 0, 0, 0, 0, 0], "stateRewards": ["", -1, -3, -7, -4, -85, -70, 79, 8, 84, -66, 42, 2, -2, -3, -16, -54, -66, 68, -3, 21, -14, 7, -2, -1, -3, -8, 75, 80, 86, -7, -84, 73, -16], "withholdReward": false, "trial_id": "mdp_trial_40", "block": "test", "trialIndex": 41, "score": 69.2, "costs": -2.8, "simulationMode": [null, null, null, null, null], "rewards": [-2, -1, -3, -8, 86], "path": ["0", "0", "23", "24", "25", "26", "29"], "rt": [7728, 171, 223, 199, 106], "actions": ["left", "left", "left", "up", "left"], "actionTimes": [9534, 10210, 10942, 11649, 12262], "queries": {"click": {"state": {"target": ["5", "29"], "time": [3109, 5542]}, "edge": {"target": [], "time": []}}, "mouseover": {"state": {"target": ["1", "5", "3", "10", "26", "29", "24", "23", "31", "31"], "time": [2394, 2866, 3413, 3496, 5115, 5261, 5769, 5793, 7538, 7772]}, "edge": {"target": [], "time": []}}, "mouseout": {"state": {"target": ["22", "0", "1", "5", "3", "10", "26", "29", "24", "23", "31", "31"], "time": [1129, 2374, 2410, 3351, 3461, 3594, 5163, 5703, 5781, 5818, 7615, 7818]}, "edge": {"target": [], "time": []}}}, "displayed_time": "15.81", "trialTime": 17205, "trial_type": "mouselab-mdp", "trial_index": 48, "time_elapsed": 1544202, "internal_node_id": "0.0-6.0-1.0-39.0"}}, {"uniqueid": "w87723338:a11749427", "current_trial": 49, "dateTime": 1693482991445, "trialdata": {"rt": 62621, "response": {"Q0": "$-2 to $2", "Q1": "$-32 to $32", "Q2": "$-88 to $88", "Q3": "The cost was always $1.4.", "Q4": "Very motivated"}, "question_order": [0, 1, 2, 3, 4], "trial_id": "final_quiz_control", "trial_type": "survey-multi-choice", "trial_index": 49, "time_elapsed": 1606841, "internal_node_id": "0.0-6.0-2.0"}}, {"uniqueid": "w87723338:a11749427", "current_trial": 50, "dateTime": 1693483368087, "trialdata": {"rt": 376551, "response": {"Q0": "I tried to use Note Inspector in order to know how much I get in the last step and if the road is safe till the end without losing too much money in node-inspector.", "Q1": "Not much, cause it depends on luck and choice.", "Q2": "Pretty difficult. Cause the cash ary, and there is no consistency in the cash that you will receive or will be deducted. And mainly depends on luck cause you can lose a lot of money in cash inspector, so I tried to use it less with the opportunity to wish that I would get a high score for the road after reeling for how much I would get at the last step."}, "trial_id": "self_report_control", "trial_type": "survey-text", "trial_index": 50, "time_elapsed": 1983482, "internal_node_id": "0.0-6.0-3.0"}}, {"uniqueid": "w87723338:a11749427", "current_trial": 51, "dateTime": 1693483419268, "trialdata": {"rt": 51165, "response": {"gender": "female", "age": "32", "colorblind": "0", "effort": "0"}, "trial_type": "survey-html-form", "trial_index": 51, "time_elapsed": 2034664, "internal_node_id": "0.0-6.0-4.0"}}, {"uniqueid": "w87723338:a11749427", "current_trial": 52, "dateTime": 1693483594617, "trialdata": {"rt": 175307, "response": {"Q0": "No", "Q1": " Didn't Play it before. This is the first time to hear or play it.", "Q2": "N/A"}, "trial_type": "survey-text", "trial_index": 52, "time_elapsed": 2210013, "internal_node_id": "0.0-6.0-5.0"}}, {"uniqueid": "w87723338:a11749427", "current_trial": 53, "dateTime": 1693483631593, "trialdata": {"rt": 36959, "stimulus": "<h1>Completion Code Instructions (1/2)</h1>\n<br><br><br><br>\nYou have reached the end of the experiment! The completion code consists of two parts: (1) a code with 2 characters (2) a code with 6 characters. On this page, you will receive the second part of the code. The first part of the completion code will be on the next page.\n<br><br>\nThe second part of your completion code is: <b>EWEK22</b>\n<br><br>\nPlease note this down. Then, press 'Finish HIT' in order to find the first part of your completion code. Once the data has been saved, you will receive this code either in this window or in the original browser window where you started the experiment.\n", "response": 0, "trial_type": "html-button-response", "trial_index": 53, "time_elapsed": 2246988, "internal_node_id": "0.0-6.0-6.0"}}, {"uniqueid": "w87723338:a11749427", "current_trial": 54, "dateTime": 1693483632597, "trialdata": {"success": true, "trial_type": "fullscreen", "trial_index": 54, "time_elapsed": 2247993, "internal_node_id": "0.0-7.0"}}], "questiondata": {"params": {"CODE": "C6DMOQA6", "MIN_TIME": 14, "inspectCost": 1, "startTime": "Thu Aug 31 2023 12:29:43 GMT+0100 (British Summer Time)", "bonusRate": 0.002, "variance": "1_2_4_8_44", "branching": "31123"}, "final_score": 612.8}, "eventdata": [{"eventtype": "initialized", "value": null, "timestamp": 1693481382013, "interval": 0}, {"eventtype": "window_resize", "value": [1920, 978], "timestamp": 1693481382013, "interval": 0}, {"eventtype": "window_resize", "value": [1920, 978], "timestamp": 1693481382568, "interval": 555}, {"eventtype": "window_resize", "value": [1920, 1080], "timestamp": 1693481388965, "interval": 6397}, {"eventtype": "window_resize", "value": [1920, 978], "timestamp": 1693483631835, "interval": 2242870}], "useragent": "Mozilla/5.0 (Windows NT 10.0; Win64; x64) AppleWebKit/537.36 (KHTML, like Gecko) Chrome/117.0.0.0 Safari/537.36 Edg/117.0.2045.12", "mode": "live", "id": "w87723338:a11749427", "status": "user data saved", "Beginhit": "2023-08-31 11:29:40.935221", "Beginexp": "2023-08-31 11:29:50.719909", "Endhit": "2023-08-31 12:07:13.624048", "psiturkStatus": 3, "browser": "<redacted>", "platform": "windows", "language": "en-US"}