{"condition": 0, "counterbalance": 0, "assignmentId": "a78911564", "workerId": "w16961234", "hitId": "h51184731", "currenttrial": 25, "bonus": 0, "data": [{"uniqueid": "w16961234:a78911564", "current_trial": 0, "dateTime": 1693480779924, "trialdata": {"success": true, "trial_type": "fullscreen", "trial_index": 0, "time_elapsed": 8990, "internal_node_id": "0.0-0.0"}}, {"uniqueid": "w16961234:a78911564", "current_trial": 1, "dateTime": 1693480806662, "trialdata": {"view_history": [{"page_index": 0, "viewing_time": 26732}], "rt": 26733, "trial_id": "exp_instructions_control", "trial_type": "instructions", "trial_index": 1, "time_elapsed": 35728, "internal_node_id": "0.0-1.0"}}, {"uniqueid": "w16961234:a78911564", "current_trial": 2, "dateTime": 1693481201194, "trialdata": {"view_history": [{"page_index": 0, "viewing_time": 145880}, {"page_index": 1, "viewing_time": 119230}, {"page_index": 2, "viewing_time": 33602}, {"page_index": 3, "viewing_time": 95814}], "rt": 394527, "trial_id": "mouselab_instructions_1_control", "trial_type": "instructions", "trial_index": 2, "time_elapsed": 430259, "internal_node_id": "0.0-2.0-1.0"}}, {"uniqueid": "w16961234:a78911564", "current_trial": 3, "dateTime": 1693481221959, "trialdata": {"revealed_states": [], "clicked_states": [], "num_clicks_accrued": [0, 0, 0, 0, 0, 0, 0, 0, 0, 0, 0, 0, 0], "stateRewards": ["", -10, 10, 10, -10, 10, -10, 10, 10, 10, -10, -10, -10, 10, 10, 10, 10, -10, -10, 10, 10, 10, 10, -10, -10, 10, -10, -10, -10, 10, 10, 10, 10, -10], "withholdReward": false, "trial_id": "practice_1", "block": "test", "trialIndex": 0, "score": 33.5, "costs": 0, "simulationMode": [null, null, null, null, null], "rewards": [-10, 10, 10, 10, 10], "path": ["0", "0", "12", "13", "14", "15", "16"], "rt": [4677, 104, 291, 833, 1051], "actions": ["right", "right", "right", "up", "up"], "actionTimes": [7154, 7769, 8555, 9879, 11446], "queries": {"click": {"state": {"target": [], "time": []}, "edge": {"target": [], "time": []}}, "mouseover": {"state": {"target": ["0", "12"], "time": [3267, 4325]}, "edge": {"target": [], "time": []}}, "mouseout": {"state": {"target": ["0", "0", "12"], "time": [1243, 3527, 4613]}, "edge": {"target": [], "time": []}}}, "displayed_time": "11.95", "trialTime": 19353, "trial_type": "mouselab-mdp", "trial_index": 3, "time_elapsed": 451024, "internal_node_id": "0.0-2.0-2.0-0.0"}}, {"uniqueid": "w16961234:a78911564", "current_trial": 4, "dateTime": 1693481241027, "trialdata": {"revealed_states": [], "clicked_states": [], "num_clicks_accrued": [0, 0, 0, 0, 0, 0, 0, 0, 0, 0, 0, 0, 0], "stateRewards": ["", 10, -10, 10, 10, -10, -10, -10, -10, 10, -10, -10, -10, -10, 10, -10, -10, 10, 10, -10, 10, -10, 10, 10, -10, 10, -10, 10, 10, 10, 10, 10, -10, 10], "withholdReward": false, "trial_id": "practice_2", "block": "test", "trialIndex": 1, "score": 13.5, "costs": 0, "simulationMode": [null, null, null, null, null], "rewards": [10, -10, 10, -10, 10], "path": ["0", "0", "23", "24", "25", "26", "27"], "rt": [1470, 434, 5245, 936, 446], "actions": ["left", "left", "left", "up", "up"], "actionTimes": [5932, 6885, 12645, 14089, 15046], "queries": {"click": {"state": {"target": [], "time": []}, "edge": {"target": [], "time": []}}, "mouseover": {"state": {"target": [], "time": []}, "edge": {"target": [], "time": []}}, "mouseout": {"state": {"target": ["0"], "time": [4231]}, "edge": {"target": [], "time": []}}}, "displayed_time": "15.55", "trialTime": 18858, "trial_type": "mouselab-mdp", "trial_index": 4, "time_elapsed": 470092, "internal_node_id": "0.0-2.0-2.0-1.0"}}, {"uniqueid": "w16961234:a78911564", "current_trial": 5, "dateTime": 1693481300752, "trialdata": {"view_history": [{"page_index": 0, "viewing_time": 43359}, {"page_index": 1, "viewing_time": 16360}], "rt": 59720, "trial_id": "mouselab_instructions_2_control", "trial_type": "instructions", "trial_index": 5, "time_elapsed": 529817, "internal_node_id": "0.0-2.0-3.0"}}, {"uniqueid": "w16961234:a78911564", "current_trial": 6, "dateTime": 1693481393752, "trialdata": {"rt": 92979, "response": {"Q0": "The cost for clicking on nodes may vary between nodes.", "Q1": "The better I perform the higher my bonus will be.", "Q2": "No, the structure of the web will be different each time.", "Q3": "To get the highest total score.", "Q4": "Only before moving the spider.", "Q5": "3 seconds"}, "question_order": [0, 1, 2, 3, 4, 5], "correct": {"Q0": "The cost for clicking on nodes may vary between nodes.", "Q1": "The better I perform the higher my bonus will be.", "Q2": "No, the amount of cash at each node of the web may be different each time.", "Q3": "To get the highest total score.", "Q4": "Only before moving the spider.", "Q5": "3 seconds"}, "trial_id": "mouselab_quiz_control", "trial_type": "survey-multi-choice", "trial_index": 6, "time_elapsed": 622818, "internal_node_id": "0.0-2.0-4.0"}}, {"uniqueid": "w16961234:a78911564", "current_trial": 7, "dateTime": 1693481505115, "trialdata": {"success": true, "trial_type": "fullscreen", "trial_index": 7, "time_elapsed": 734181, "internal_node_id": "0.0-2.1-0.1-0.1"}}, {"uniqueid": "w16961234:a78911564", "current_trial": 8, "dateTime": 1693481830302, "trialdata": {"view_history": [{"page_index": 0, "viewing_time": 185330}, {"page_index": 1, "viewing_time": 41760}, {"page_index": 2, "viewing_time": 26162}, {"page_index": 3, "viewing_time": 71931}], "rt": 325184, "trial_id": "mouselab_instructions_1_control", "trial_type": "instructions", "trial_index": 8, "time_elapsed": 1059368, "internal_node_id": "0.0-2.1-1.1"}}, {"uniqueid": "w16961234:a78911564", "current_trial": 9, "dateTime": 1693481844367, "trialdata": {"revealed_states": [], "clicked_states": [], "num_clicks_accrued": [0, 0, 0, 0, 0, 0, 0, 0, 0, 0, 0, 0, 0], "stateRewards": ["", -10, 10, 10, -10, 10, -10, 10, 10, 10, -10, -10, -10, 10, 10, 10, 10, -10, -10, 10, 10, 10, 10, -10, -10, 10, -10, -10, -10, 10, 10, 10, 10, -10], "withholdReward": false, "trial_id": "practice_1", "block": "test", "trialIndex": 2, "score": 33.5, "costs": 0, "simulationMode": [null, null, null, null, null], "rewards": [-10, 10, 10, 10, 10], "path": ["0", "0", "12", "13", "14", "15", "16"], "rt": [1220, 219, 380, 1269, 482], "actions": ["right", "right", "right", "up", "up"], "actionTimes": [6821, 7545, 8423, 10195, 11177], "queries": {"click": {"state": {"target": [], "time": []}, "edge": {"target": [], "time": []}}, "mouseover": {"state": {"target": ["0"], "time": [5760]}, "edge": {"target": [], "time": []}}, "mouseout": {"state": {"target": ["0", "12", "12", "0"], "time": [2940, 3242, 3659, 5313]}, "edge": {"target": [], "time": []}}}, "displayed_time": "11.69", "trialTime": 13808, "trial_type": "mouselab-mdp", "trial_index": 9, "time_elapsed": 1073432, "internal_node_id": "0.0-2.1-2.1-0.1"}}, {"uniqueid": "w16961234:a78911564", "current_trial": 10, "dateTime": 1693481859108, "trialdata": {"revealed_states": [], "clicked_states": [], "num_clicks_accrued": [0, 0, 0, 0, 0, 0, 0, 0, 0, 0, 0, 0, 0], "stateRewards": ["", 10, -10, 10, 10, -10, -10, -10, -10, 10, -10, -10, -10, -10, 10, -10, -10, 10, 10, -10, 10, -10, 10, 10, -10, 10, -10, 10, 10, 10, 10, 10, -10, 10], "withholdReward": false, "trial_id": "practice_2", "block": "test", "trialIndex": 3, "score": 13.5, "costs": 0, "simulationMode": [null, null, null, null, null], "rewards": [10, -10, 10, -10, 10], "path": ["0", "0", "23", "24", "25", "26", "29"], "rt": [1237, 170, 249, 1450, 1651], "actions": ["left", "left", "left", "up", "left"], "actionTimes": [3956, 4629, 5384, 7350, 9505], "queries": {"click": {"state": {"target": [], "time": []}, "edge": {"target": [], "time": []}}, "mouseover": {"state": {"target": [], "time": []}, "edge": {"target": [], "time": []}}, "mouseout": {"state": {"target": ["0", "12", "13", "14", "13", "12", "0"], "time": [1300, 1334, 1349, 1718, 1783, 1967, 2319]}, "edge": {"target": [], "time": []}}}, "displayed_time": "10.02", "trialTime": 14523, "trial_type": "mouselab-mdp", "trial_index": 10, "time_elapsed": 1088173, "internal_node_id": "0.0-2.1-2.1-1.1"}}, {"uniqueid": "w16961234:a78911564", "current_trial": 11, "dateTime": 1693481901655, "trialdata": {"view_history": [{"page_index": 0, "viewing_time": 36520}, {"page_index": 1, "viewing_time": 6022}], "rt": 42543, "trial_id": "mouselab_instructions_2_control", "trial_type": "instructions", "trial_index": 11, "time_elapsed": 1130721, "internal_node_id": "0.0-2.1-3.1"}}, {"uniqueid": "w16961234:a78911564", "current_trial": 12, "dateTime": 1693482032977, "trialdata": {"rt": 131317, "response": {"Q0": "The cost for clicking on nodes may vary between nodes.", "Q1": "I will receive a $1 bonus if I perform well, otherwise I will receive no bonus.", "Q2": "No, the structure of the web will be different each time.", "Q3": "To get the highest total score.", "Q4": "Only after moving the spider.", "Q5": "3 seconds"}, "question_order": [0, 1, 2, 3, 4, 5], "correct": {"Q0": "The cost for clicking on nodes may vary between nodes.", "Q1": "The better I perform the higher my bonus will be.", "Q2": "No, the amount of cash at each node of the web may be different each time.", "Q3": "To get the highest total score.", "Q4": "Only before moving the spider.", "Q5": "3 seconds"}, "trial_id": "mouselab_quiz_control", "trial_type": "survey-multi-choice", "trial_index": 12, "time_elapsed": 1262043, "internal_node_id": "0.0-2.1-4.1"}}, {"uniqueid": "w16961234:a78911564", "current_trial": 13, "dateTime": 1693482112978, "trialdata": {"success": true, "trial_type": "fullscreen", "trial_index": 13, "time_elapsed": 1342044, "internal_node_id": "0.0-2.2-0.2-0.2"}}, {"uniqueid": "w16961234:a78911564", "current_trial": 14, "dateTime": 1693482403371, "trialdata": {"view_history": [{"page_index": 0, "viewing_time": 107427}, {"page_index": 1, "viewing_time": 102513}, {"page_index": 2, "viewing_time": 33907}, {"page_index": 3, "viewing_time": 46540}], "rt": 290389, "trial_id": "mouselab_instructions_1_control", "trial_type": "instructions", "trial_index": 14, "time_elapsed": 1632437, "internal_node_id": "0.0-2.2-1.2"}}, {"uniqueid": "w16961234:a78911564", "current_trial": 15, "dateTime": 1693482420601, "trialdata": {"revealed_states": [], "clicked_states": [], "num_clicks_accrued": [0, 0, 0, 0, 0, 0, 0, 0, 0, 0, 0, 0, 0], "stateRewards": ["", -10, 10, 10, -10, 10, -10, 10, 10, 10, -10, -10, -10, 10, 10, 10, 10, -10, -10, 10, 10, 10, 10, -10, -10, 10, -10, -10, -10, 10, 10, 10, 10, -10], "withholdReward": false, "trial_id": "practice_1", "block": "test", "trialIndex": 4, "score": 33.5, "costs": 0, "simulationMode": [null, null, null, null, null], "rewards": [-10, 10, 10, 10, 10], "path": ["0", "0", "12", "13", "14", "15", "16"], "rt": [2181, 495, 2081, 2425, 317], "actions": ["right", "right", "right", "up", "up"], "actionTimes": [7001, 8007, 10624, 13552, 14379], "queries": {"click": {"state": {"target": [], "time": []}, "edge": {"target": [], "time": []}}, "mouseover": {"state": {"target": ["0"], "time": [4851]}, "edge": {"target": [], "time": []}}, "mouseout": {"state": {"target": ["0", "0"], "time": [1673, 4058]}, "edge": {"target": [], "time": []}}}, "displayed_time": "14.89", "trialTime": 16962, "trial_type": "mouselab-mdp", "trial_index": 15, "time_elapsed": 1649666, "internal_node_id": "0.0-2.2-2.2-0.2"}}, {"uniqueid": "w16961234:a78911564", "current_trial": 16, "dateTime": 1693482439782, "trialdata": {"revealed_states": [], "clicked_states": [], "num_clicks_accrued": [0, 0, 0, 0, 0, 0, 0, 0, 0, 0, 0, 0, 0], "stateRewards": ["", 10, -10, 10, 10, -10, -10, -10, -10, 10, -10, -10, -10, -10, 10, -10, -10, 10, 10, -10, 10, -10, 10, 10, -10, 10, -10, 10, 10, 10, 10, 10, -10, 10], "withholdReward": false, "trial_id": "practice_2", "block": "test", "trialIndex": 5, "score": 13.5, "costs": 0, "simulationMode": [null, null, null, null, null], "rewards": [10, -10, 10, -10, 10], "path": ["0", "0", "23", "24", "25", "26", "27"], "rt": [1460, 4422, 370, 1296, 112], "actions": ["left", "left", "left", "up", "up"], "actionTimes": [8296, 13223, 14105, 15913, 16530], "queries": {"click": {"state": {"target": [], "time": []}, "edge": {"target": [], "time": []}}, "mouseover": {"state": {"target": [], "time": []}, "edge": {"target": [], "time": []}}, "mouseout": {"state": {"target": ["0"], "time": [5981]}, "edge": {"target": [], "time": []}}}, "displayed_time": "17.05", "trialTime": 18915, "trial_type": "mouselab-mdp", "trial_index": 16, "time_elapsed": 1668847, "internal_node_id": "0.0-2.2-2.2-1.2"}}, {"uniqueid": "w16961234:a78911564", "current_trial": 17, "dateTime": 1693482527258, "trialdata": {"view_history": [{"page_index": 0, "viewing_time": 84234}, {"page_index": 1, "viewing_time": 3239}], "rt": 87473, "trial_id": "mouselab_instructions_2_control", "trial_type": "instructions", "trial_index": 17, "time_elapsed": 1756324, "internal_node_id": "0.0-2.2-3.2"}}, {"uniqueid": "w16961234:a78911564", "current_trial": 18, "dateTime": 1693482599366, "trialdata": {"rt": 72103, "response": {"Q0": "The cost for clicking on nodes may vary between nodes.", "Q1": "The better I perform the higher my bonus will be.", "Q2": "No, the structure of the web will be different each time.", "Q3": "To get the highest total score.", "Q4": "Only before moving the spider.", "Q5": "3 seconds"}, "question_order": [0, 1, 2, 3, 4, 5], "correct": {"Q0": "The cost for clicking on nodes may vary between nodes.", "Q1": "The better I perform the higher my bonus will be.", "Q2": "No, the amount of cash at each node of the web may be different each time.", "Q3": "To get the highest total score.", "Q4": "Only before moving the spider.", "Q5": "3 seconds"}, "trial_id": "mouselab_quiz_control", "trial_type": "survey-multi-choice", "trial_index": 18, "time_elapsed": 1828432, "internal_node_id": "0.0-2.2-4.2"}}, {"uniqueid": "w16961234:a78911564", "current_trial": 19, "dateTime": 1693482642345, "trialdata": {"success": true, "trial_type": "fullscreen", "trial_index": 19, "time_elapsed": 1871411, "internal_node_id": "0.0-2.3-0.3-0.3"}}, {"uniqueid": "w16961234:a78911564", "current_trial": 20, "dateTime": 1693482779350, "trialdata": {"view_history": [{"page_index": 0, "viewing_time": 11011}, {"page_index": 1, "viewing_time": 40474}, {"page_index": 2, "viewing_time": 35879}, {"page_index": 3, "viewing_time": 49636}], "rt": 137001, "trial_id": "mouselab_instructions_1_control", "trial_type": "instructions", "trial_index": 20, "time_elapsed": 2008416, "internal_node_id": "0.0-2.3-1.3"}}, {"uniqueid": "w16961234:a78911564", "current_trial": 21, "dateTime": 1693482788435, "trialdata": {"revealed_states": [], "clicked_states": [], "num_clicks_accrued": [0, 0, 0, 0, 0, 0, 0, 0, 0, 0, 0, 0, 0], "stateRewards": ["", -10, 10, 10, -10, 10, -10, 10, 10, 10, -10, -10, -10, 10, 10, 10, 10, -10, -10, 10, 10, 10, 10, -10, -10, 10, -10, -10, -10, 10, 10, 10, 10, -10], "withholdReward": false, "trial_id": "practice_1", "block": "test", "trialIndex": 6, "score": -26.5, "costs": 0, "simulationMode": [null, null, null, null, null], "rewards": [-10, -10, 10, -10, -10], "path": ["0", "0", "23", "24", "25", "26", "27"], "rt": [1531, 49, 139, 761, 166], "actions": ["left", "left", "left", "up", "up"], "actionTimes": [2950, 3511, 4163, 5436, 6110], "queries": {"click": {"state": {"target": [], "time": []}, "edge": {"target": [], "time": []}}, "mouseover": {"state": {"target": [], "time": []}, "edge": {"target": [], "time": []}}, "mouseout": {"state": {"target": ["0"], "time": [2041]}, "edge": {"target": [], "time": []}}}, "displayed_time": "6.63", "trialTime": 8774, "trial_type": "mouselab-mdp", "trial_index": 21, "time_elapsed": 2017501, "internal_node_id": "0.0-2.3-2.3-0.3"}}, {"uniqueid": "w16961234:a78911564", "current_trial": 22, "dateTime": 1693482799434, "trialdata": {"revealed_states": [], "clicked_states": [], "num_clicks_accrued": [0, 0, 0, 0, 0, 0, 0, 0, 0, 0, 0, 0, 0], "stateRewards": ["", 10, -10, 10, 10, -10, -10, -10, -10, 10, -10, -10, -10, -10, 10, -10, -10, 10, 10, -10, 10, -10, 10, 10, -10, 10, -10, 10, 10, 10, 10, 10, -10, 10], "withholdReward": false, "trial_id": "practice_2", "block": "test", "trialIndex": 7, "score": -26.5, "costs": 0, "simulationMode": [null, null, null, null, null], "rewards": [-10, -10, 10, -10, -10], "path": ["0", "0", "12", "13", "14", "15", "16"], "rt": [1596, 1, 57, 921, 135], "actions": ["right", "right", "right", "up", "up"], "actionTimes": [4441, 4958, 5545, 6989, 7638], "queries": {"click": {"state": {"target": [], "time": []}, "edge": {"target": [], "time": []}}, "mouseover": {"state": {"target": [], "time": []}, "edge": {"target": [], "time": []}}, "mouseout": {"state": {"target": ["28", "27", "27", "0", "24"], "time": [1667, 1681, 1882, 2465, 9783]}, "edge": {"target": [], "time": []}}}, "displayed_time": "8.15", "trialTime": 10716, "trial_type": "mouselab-mdp", "trial_index": 22, "time_elapsed": 2028499, "internal_node_id": "0.0-2.3-2.3-1.3"}}, {"uniqueid": "w16961234:a78911564", "current_trial": 23, "dateTime": 1693482814652, "trialdata": {"view_history": [{"page_index": 0, "viewing_time": 13374}, {"page_index": 1, "viewing_time": 1842}], "rt": 15216, "trial_id": "mouselab_instructions_2_control", "trial_type": "instructions", "trial_index": 23, "time_elapsed": 2043718, "internal_node_id": "0.0-2.3-3.3"}}, {"uniqueid": "w16961234:a78911564", "current_trial": 24, "dateTime": 1693482884981, "trialdata": {"rt": 70326, "response": {"Q0": "The cost for clicking on nodes may vary between nodes.", "Q1": "The better I perform the higher my bonus will be.", "Q2": "No, the amount of cash at each node of the web may be different each time.", "Q3": "To get the highest total score.", "Q4": "Any time during the round.", "Q5": "3 seconds"}, "question_order": [0, 1, 2, 3, 4, 5], "correct": {"Q0": "The cost for clicking on nodes may vary between nodes.", "Q1": "The better I perform the higher my bonus will be.", "Q2": "No, the amount of cash at each node of the web may be different each time.", "Q3": "To get the highest total score.", "Q4": "Only before moving the spider.", "Q5": "3 seconds"}, "trial_id": "mouselab_quiz_control", "trial_type": "survey-multi-choice", "trial_index": 24, "time_elapsed": 2114047, "internal_node_id": "0.0-2.3-4.3"}}], "questiondata": {"params": {"CODE": "C6DMOQA6", "MIN_TIME": 14, "inspectCost": 1, "startTime": "Thu Aug 31 2023 13:19:29 GMT+0200 (South Africa Standard Time)", "bonusRate": 0.002, "variance": "1_2_4_8_44", "branching": "31123"}}, "eventdata": [{"eventtype": "initialized", "value": null, "timestamp": 1693480768707, "interval": 0}, {"eventtype": "window_resize", "value": [1024, 748], "timestamp": 1693480768707, "interval": 0}, {"eventtype": "window_resize", "value": [1024, 748], "timestamp": 1693480769220, "interval": 513}, {"eventtype": "window_resize", "value": [1536, 864], "timestamp": 1693480779458, "interval": 10238}, {"eventtype": "focus", "value": "off", "timestamp": 1693481500094, "interval": 720636}, {"eventtype": "focus", "value": "on", "timestamp": 1693481500094, "interval": 0}, {"eventtype": "window_resize", "value": [1024, 748], "timestamp": 1693481500337, "interval": 243}, {"eventtype": "window_resize", "value": [1536, 864], "timestamp": 1693481504350, "interval": 4013}, {"eventtype": "focus", "value": "off", "timestamp": 1693482106028, "interval": 601678}, {"eventtype": "focus", "value": "on", "timestamp": 1693482106028, "interval": 0}, {"eventtype": "window_resize", "value": [1024, 748], "timestamp": 1693482106242, "interval": 214}, {"eventtype": "window_resize", "value": [1536, 864], "timestamp": 1693482112206, "interval": 5964}, {"eventtype": "focus", "value": "off", "timestamp": 1693482640129, "interval": 527923}, {"eventtype": "focus", "value": "on", "timestamp": 1693482640129, "interval": 0}, {"eventtype": "window_resize", "value": [1024, 748], "timestamp": 1693482640343, "interval": 214}, {"eventtype": "window_resize", "value": [1536, 864], "timestamp": 1693482641592, "interval": 1249}, {"eventtype": "window_resize", "value": [1024, 748], "timestamp": 1693482913835, "interval": 272243}], "useragent": "Mozilla/5.0 (Windows NT 10.0; Win64; x64) AppleWebKit/537.36 (KHTML, like Gecko) Chrome/116.0.0.0 Safari/537.36 Edg/116.0.1938.54", "mode": "live", "id": "w16961234:a78911564", "status": "user data saved", "Beginhit": "2023-08-31 11:19:27.339097", "Beginexp": "2023-08-31 11:19:41.998556", "Endhit": null, "psiturkStatus": 6, "browser": "<redacted>", "platform": "windows", "language": "en-GB", "excludeReason": "quizfail"}