{"condition": 1, "counterbalance": 0, "assignmentId": "a14811388", "workerId": "w73820164", "hitId": "h23716849", "currenttrial": 68, "bonus": 0, "data": [{"uniqueid": "w73820164:a14811388", "current_trial": 0, "dateTime": 1693564662981, "trialdata": {"success": true, "trial_type": "fullscreen", "trial_index": 0, "time_elapsed": 22372, "internal_node_id": "0.0-0.0"}}, {"uniqueid": "w73820164:a14811388", "current_trial": 1, "dateTime": 1693564671683, "trialdata": {"view_history": [{"page_index": 0, "viewing_time": 8701}], "rt": 8701, "trial_id": "exp_instructions_misaligned", "trial_type": "instructions", "trial_index": 1, "time_elapsed": 31075, "internal_node_id": "0.0-1.0"}}, {"uniqueid": "w73820164:a14811388", "current_trial": 2, "dateTime": 1693564778122, "trialdata": {"view_history": [{"page_index": 0, "viewing_time": 31249}, {"page_index": 1, "viewing_time": 46118}, {"page_index": 2, "viewing_time": 14862}, {"page_index": 3, "viewing_time": 14209}], "rt": 106438, "trial_id": "mouselab_instructions_1_misaligned", "trial_type": "instructions", "trial_index": 2, "time_elapsed": 137514, "internal_node_id": "0.0-2.0-1.0"}}, {"uniqueid": "w73820164:a14811388", "current_trial": 3, "dateTime": 1693564795187, "trialdata": {"revealed_states": [], "clicked_states": ["12", "13", "14"], "num_clicks_accrued": [0, 0, 0, 0, 0, 0, 0, 0, 0, 0, 0, 0, 0], "stateRewards": ["", -10, 10, 10, -10, -10, -10, -10, 10, 10, 10, -10, -10, 10, 10, 10, 10, 10, 10, 10, 10, -10, -10, -10, -10, 10, -10, -10, 10, 10, -10, 10, -10, 10], "withholdReward": false, "trial_id": "practice_1", "block": "test", "trialIndex": 0, "score": 32, "costs": -1.5, "simulationMode": [null, null, null, null, null], "rewards": [-10, 10, 10, 10, 10], "path": ["0", "0", "12", "13", "14", "15", "18"], "rt": [6302, 217, 144, 525, 296], "actions": ["right", "right", "right", "up", "left"], "actionTimes": [8253, 8965, 9608, 10634, 11426], "queries": {"click": {"state": {"target": ["12", "13", "14"], "time": [3421, 4557, 5929]}, "edge": {"target": [], "time": []}}, "mouseover": {"state": {"target": ["12", "13", "0", "13", "18", "14"], "time": [3039, 3914, 4213, 4428, 4921, 5741]}, "edge": {"target": [], "time": []}}, "mouseout": {"state": {"target": ["12", "0", "23", "0", "12", "13", "12", "0", "12", "13", "18", "14"], "time": [1407, 1442, 1657, 3005, 3803, 4157, 4199, 4282, 4303, 4831, 5658, 6310]}, "edge": {"target": [], "time": []}}}, "displayed_time": "11.92", "trialTime": 16817, "trial_type": "mouselab-mdp", "trial_index": 3, "time_elapsed": 154579, "internal_node_id": "0.0-2.0-2.0-0.0"}}, {"uniqueid": "w73820164:a14811388", "current_trial": 4, "dateTime": 1693564823885, "trialdata": {"revealed_states": [], "clicked_states": ["13", "14", "12", "23", "24", "25", "1", "2", "3"], "num_clicks_accrued": [0, 0, 0, 0, 0, 0, 0, 0, 0, 0, 0, 0, 0], "stateRewards": ["", 10, 10, -10, 10, -10, -10, 10, 10, -10, 10, 10, 10, -10, -10, 10, 10, 10, 10, -10, -10, -10, 10, 10, 10, -10, 10, -10, 10, -10, -10, -10, 10, -10], "withholdReward": false, "trial_id": "practice_2", "block": "test", "trialIndex": 1, "score": 9, "costs": -4.5, "simulationMode": [null, null, null, null, null], "rewards": [10, -10, -10, 10, 10], "path": ["0", "0", "12", "13", "14", "15", "18"], "rt": [19617, 1529, 1943, 61, 65], "actions": ["right", "right", "right", "up", "left"], "actionTimes": [20851, 22879, 25320, 25883, 26449], "queries": {"click": {"state": {"target": ["13", "14", "12", "23", "24", "25", "1", "2", "3"], "time": [2130, 3559, 5204, 6891, 10004, 12646, 14374, 15835, 17195]}, "edge": {"target": [], "time": []}}, "mouseover": {"state": {"target": ["12", "13", "14", "14", "19", "12", "23", "23", "0", "24", "23", "1", "25", "25", "1", "1", "2", "3"], "time": [1494, 1709, 2410, 3244, 3917, 5060, 6153, 6556, 9403, 9862, 10973, 11362, 12244, 12327, 12931, 13244, 14661, 16299]}, "edge": {"target": [], "time": []}}, "mouseout": {"state": {"target": ["12", "0", "12", "13", "14", "14", "19", "13", "12", "23", "23", "12", "0", "23", "24", "23", "1", "25", "25", "1", "1", "2", "3", "2"], "time": [682, 1431, 1625, 2355, 3014, 3855, 4348, 4653, 5501, 6219, 7383, 9369, 9438, 9792, 10917, 11056, 12147, 12258, 12848, 12966, 14584, 16153, 17535, 17640]}, "edge": {"target": [], "time": []}}}, "displayed_time": "26.95", "trialTime": 28601, "trial_type": "mouselab-mdp", "trial_index": 4, "time_elapsed": 183276, "internal_node_id": "0.0-2.0-2.0-1.0"}}, {"uniqueid": "w73820164:a14811388", "current_trial": 5, "dateTime": 1693564836326, "trialdata": {"view_history": [{"page_index": 0, "viewing_time": 8850}, {"page_index": 1, "viewing_time": 3590}], "rt": 12440, "trial_id": "mouselab_instructions_2_misaligned", "trial_type": "instructions", "trial_index": 5, "time_elapsed": 195718, "internal_node_id": "0.0-2.0-3.0"}}, {"uniqueid": "w73820164:a14811388", "current_trial": 6, "dateTime": 1693564980917, "trialdata": {"rt": 144589, "response": {"Q0": "The cost for clicking on nodes may vary between nodes.", "Q1": "The better I perform the higher my bonus will be.", "Q2": "No, the amount of cash at each node of the web may be different each time.", "Q3": "To get the highest total score.", "Q4": "Any time during the round.", "Q5": "3 seconds"}, "question_order": [0, 1, 2, 3, 4, 5], "correct": {"Q0": "The cost for clicking on nodes may vary between nodes.", "Q1": "The better I perform the higher my bonus will be.", "Q2": "No, the amount of cash at each node of the web may be different each time.", "Q3": "To get the highest total score.", "Q4": "Only before moving the spider.", "Q5": "3 seconds"}, "trial_id": "mouselab_quiz_misaligned", "trial_type": "survey-multi-choice", "trial_index": 6, "time_elapsed": 340309, "internal_node_id": "0.0-2.0-4.0"}}, {"uniqueid": "w73820164:a14811388", "current_trial": 7, "dateTime": 1693564986687, "trialdata": {"success": true, "trial_type": "fullscreen", "trial_index": 7, "time_elapsed": 346079, "internal_node_id": "0.0-2.1-0.1-0.1"}}, {"uniqueid": "w73820164:a14811388", "current_trial": 8, "dateTime": 1693565032871, "trialdata": {"view_history": [{"page_index": 0, "viewing_time": 14687}, {"page_index": 1, "viewing_time": 4947}, {"page_index": 2, "viewing_time": 5624}, {"page_index": 3, "viewing_time": 20924}], "rt": 46182, "trial_id": "mouselab_instructions_1_misaligned", "trial_type": "instructions", "trial_index": 8, "time_elapsed": 392263, "internal_node_id": "0.0-2.1-1.1"}}, {"uniqueid": "w73820164:a14811388", "current_trial": 9, "dateTime": 1693565041714, "trialdata": {"revealed_states": [], "clicked_states": [], "num_clicks_accrued": [0, 0, 0, 0, 0, 0, 0, 0, 0, 0, 0, 0, 0], "stateRewards": ["", -10, 10, 10, -10, -10, -10, -10, 10, 10, 10, -10, -10, 10, 10, 10, 10, 10, 10, 10, 10, -10, -10, -10, -10, 10, -10, -10, 10, 10, -10, 10, -10, 10], "withholdReward": false, "trial_id": "practice_1", "block": "test", "trialIndex": 2, "score": 33.5, "costs": 0, "simulationMode": [null, null, null, null, null], "rewards": [-10, 10, 10, 10, 10], "path": ["0", "0", "1", "2", "3", "8", "10"], "rt": [1184, 25, 53, 237, 114], "actions": ["up", "up", "up", "left", "down"], "actionTimes": [3400, 3926, 4483, 5221, 5834], "queries": {"click": {"state": {"target": [], "time": []}, "edge": {"target": [], "time": []}}, "mouseover": {"state": {"target": [], "time": []}, "edge": {"target": [], "time": []}}, "mouseout": {"state": {"target": ["12", "0", "0"], "time": [1164, 1498, 7692]}, "edge": {"target": [], "time": []}}}, "displayed_time": "6.33", "trialTime": 8741, "trial_type": "mouselab-mdp", "trial_index": 9, "time_elapsed": 401106, "internal_node_id": "0.0-2.1-2.1-0.1"}}, {"uniqueid": "w73820164:a14811388", "current_trial": 10, "dateTime": 1693565057876, "trialdata": {"revealed_states": [], "clicked_states": ["12", "23", "1", "2", "13", "24"], "num_clicks_accrued": [0, 0, 0, 0, 0, 0, 0, 0, 0, 0, 0, 0, 0], "stateRewards": ["", 10, 10, -10, 10, -10, -10, 10, 10, -10, 10, 10, 10, -10, -10, 10, 10, 10, 10, -10, -10, -10, 10, 10, 10, -10, 10, -10, 10, -10, -10, -10, 10, -10], "withholdReward": false, "trial_id": "practice_2", "block": "test", "trialIndex": 3, "score": 30.5, "costs": -3, "simulationMode": [null, null, null, null, null], "rewards": [10, 10, -10, 10, 10], "path": ["0", "0", "1", "2", "3", "8", "10"], "rt": [10837, 75, 93, 82, 20], "actions": ["up", "up", "up", "left", "down"], "actionTimes": [11840, 12420, 13014, 13593, 14114], "queries": {"click": {"state": {"target": ["12", "23", "1", "2", "13", "24"], "time": [1630, 2985, 4298, 6859, 9333, 10778]}, "edge": {"target": [], "time": []}}, "mouseover": {"state": {"target": ["12", "13", "0", "23", "1", "2", "13", "12", "0", "12", "13", "12", "23", "24"], "time": [1538, 1927, 2586, 2649, 3420, 6753, 7350, 8218, 8364, 8600, 9043, 9677, 9787, 9996]}, "edge": {"target": [], "time": []}}, "mouseout": {"state": {"target": ["0", "12", "13", "12", "0", "23", "1", "2", "13", "12", "0", "12", "13", "12", "23", "24"], "time": [614, 1634, 2482, 2573, 2621, 3267, 4801, 7239, 8191, 8274, 8558, 8642, 9628, 9711, 9801, 11003]}, "edge": {"target": [], "time": []}}}, "displayed_time": "14.62", "trialTime": 16068, "trial_type": "mouselab-mdp", "trial_index": 10, "time_elapsed": 417268, "internal_node_id": "0.0-2.1-2.1-1.1"}}, {"uniqueid": "w73820164:a14811388", "current_trial": 11, "dateTime": 1693565082601, "trialdata": {"view_history": [{"page_index": 0, "viewing_time": 22514}, {"page_index": 1, "viewing_time": 2210}], "rt": 24724, "trial_id": "mouselab_instructions_2_misaligned", "trial_type": "instructions", "trial_index": 11, "time_elapsed": 441993, "internal_node_id": "0.0-2.1-3.1"}}, {"uniqueid": "w73820164:a14811388", "current_trial": 12, "dateTime": 1693565118605, "trialdata": {"rt": 36002, "response": {"Q0": "The cost for clicking on nodes may vary between nodes.", "Q1": "The better I perform the higher my bonus will be.", "Q2": "No, the structure of the web will be different each time.", "Q3": "To get the highest total score.", "Q4": "Any time during the round.", "Q5": "3 seconds"}, "question_order": [0, 1, 2, 3, 4, 5], "correct": {"Q0": "The cost for clicking on nodes may vary between nodes.", "Q1": "The better I perform the higher my bonus will be.", "Q2": "No, the amount of cash at each node of the web may be different each time.", "Q3": "To get the highest total score.", "Q4": "Only before moving the spider.", "Q5": "3 seconds"}, "trial_id": "mouselab_quiz_misaligned", "trial_type": "survey-multi-choice", "trial_index": 12, "time_elapsed": 477997, "internal_node_id": "0.0-2.1-4.1"}}, {"uniqueid": "w73820164:a14811388", "current_trial": 13, "dateTime": 1693565122721, "trialdata": {"success": true, "trial_type": "fullscreen", "trial_index": 13, "time_elapsed": 482112, "internal_node_id": "0.0-2.2-0.2-0.2"}}, {"uniqueid": "w73820164:a14811388", "current_trial": 14, "dateTime": 1693565127740, "trialdata": {"view_history": [{"page_index": 0, "viewing_time": 1328}, {"page_index": 1, "viewing_time": 1844}, {"page_index": 2, "viewing_time": 929}, {"page_index": 3, "viewing_time": 917}], "rt": 5019, "trial_id": "mouselab_instructions_1_misaligned", "trial_type": "instructions", "trial_index": 14, "time_elapsed": 487132, "internal_node_id": "0.0-2.2-1.2"}}, {"uniqueid": "w73820164:a14811388", "current_trial": 15, "dateTime": 1693565134170, "trialdata": {"revealed_states": [], "clicked_states": [], "num_clicks_accrued": [0, 0, 0, 0, 0, 0, 0, 0, 0, 0, 0, 0, 0], "stateRewards": ["", -10, 10, 10, -10, -10, -10, -10, 10, 10, 10, -10, -10, 10, 10, 10, 10, 10, 10, 10, 10, -10, -10, -10, -10, 10, -10, -10, 10, 10, -10, 10, -10, 10], "withholdReward": false, "trial_id": "practice_1", "block": "test", "trialIndex": 4, "score": 33.5, "costs": 0, "simulationMode": [null, null, null, null, null], "rewards": [-10, 10, 10, 10, 10], "path": ["0", "0", "1", "2", "3", "8", "10"], "rt": [813, 139, 41, 258, 446], "actions": ["up", "up", "up", "left", "down"], "actionTimes": [1783, 2418, 2966, 3731, 4676], "queries": {"click": {"state": {"target": [], "time": []}, "edge": {"target": [], "time": []}}, "mouseover": {"state": {"target": [], "time": []}, "edge": {"target": [], "time": []}}, "mouseout": {"state": {"target": ["0"], "time": [820]}, "edge": {"target": [], "time": []}}}, "displayed_time": "5.17", "trialTime": 6324, "trial_type": "mouselab-mdp", "trial_index": 15, "time_elapsed": 493562, "internal_node_id": "0.0-2.2-2.2-0.2"}}, {"uniqueid": "w73820164:a14811388", "current_trial": 16, "dateTime": 1693565141387, "trialdata": {"revealed_states": [], "clicked_states": [], "num_clicks_accrued": [0, 0, 0, 0, 0, 0, 0, 0, 0, 0, 0, 0, 0], "stateRewards": ["", 10, 10, -10, 10, -10, -10, 10, 10, -10, 10, 10, 10, -10, -10, 10, 10, 10, 10, -10, -10, -10, 10, 10, 10, -10, 10, -10, 10, -10, -10, -10, 10, -10], "withholdReward": false, "trial_id": "practice_2", "block": "test", "trialIndex": 5, "score": 33.5, "costs": 0, "simulationMode": [null, null, null, null, null], "rewards": [10, 10, -10, 10, 10], "path": ["0", "0", "1", "2", "3", "8", "10"], "rt": [631, 174, 116, 115, 126], "actions": ["up", "up", "up", "left", "down"], "actionTimes": [2329, 3005, 3621, 4245, 4867], "queries": {"click": {"state": {"target": [], "time": []}, "edge": {"target": [], "time": []}}, "mouseover": {"state": {"target": [], "time": []}, "edge": {"target": [], "time": []}}, "mouseout": {"state": {"target": ["0"], "time": [1168]}, "edge": {"target": [], "time": []}}}, "displayed_time": "5.37", "trialTime": 7114, "trial_type": "mouselab-mdp", "trial_index": 16, "time_elapsed": 500779, "internal_node_id": "0.0-2.2-2.2-1.2"}}, {"uniqueid": "w73820164:a14811388", "current_trial": 17, "dateTime": 1693565144665, "trialdata": {"view_history": [{"page_index": 0, "viewing_time": 1541}, {"page_index": 1, "viewing_time": 1736}], "rt": 3277, "trial_id": "mouselab_instructions_2_misaligned", "trial_type": "instructions", "trial_index": 17, "time_elapsed": 504057, "internal_node_id": "0.0-2.2-3.2"}}, {"uniqueid": "w73820164:a14811388", "current_trial": 18, "dateTime": 1693565191181, "trialdata": {"rt": 46513, "response": {"Q0": "The cost for clicking on nodes may vary between nodes.", "Q1": "The better I perform the higher my bonus will be.", "Q2": "No, the amount of cash at each node of the web may be different each time.", "Q3": "To get the highest total score.", "Q4": "Only before moving the spider.", "Q5": "3 seconds"}, "question_order": [0, 1, 2, 3, 4, 5], "correct": {"Q0": "The cost for clicking on nodes may vary between nodes.", "Q1": "The better I perform the higher my bonus will be.", "Q2": "No, the amount of cash at each node of the web may be different each time.", "Q3": "To get the highest total score.", "Q4": "Only before moving the spider.", "Q5": "3 seconds"}, "trial_id": "mouselab_quiz_misaligned", "trial_type": "survey-multi-choice", "trial_index": 18, "time_elapsed": 550573, "internal_node_id": "0.0-2.2-4.2"}}, {"uniqueid": "w73820164:a14811388", "current_trial": 19, "dateTime": 1693565201742, "trialdata": {"rt": 10558, "response": {"Q0": "No"}, "question_order": [0], "trial_id": "repeat_check", "trial_type": "survey-multi-choice", "trial_index": 19, "time_elapsed": 561134, "internal_node_id": "0.0-4.0-0.0"}}, {"uniqueid": "w73820164:a14811388", "current_trial": 20, "dateTime": 1693565208638, "trialdata": {"rt": 6893, "stimulus": "\n<h1> Get ready to start the game! </h1>\n\nThank you for reading the instructions. Get ready start with the 40 rounds of this game.\n<br><br>\nIf you need to take a break, feel free to take one after the end of a round, before continuing to the next one.\n<br><br>\nRemember, the more money the spider gets, the bigger your bonus will be!\n<br><br>\n<div style='text-align: center;'>Press <code>space</code> to begin.</div>\n\n<br><br>\n(If, at any point, the <code>space</code> key does not take you to the next page, click once on the text and try again.)", "response": " ", "trial_id": "mdp_ready", "trial_type": "html-keyboard-response", "trial_index": 20, "time_elapsed": 568030, "internal_node_id": "0.0-6.0-0.0"}}, {"uniqueid": "w73820164:a14811388", "current_trial": 21, "dateTime": 1693565226241, "trialdata": {"revealed_states": [], "clicked_states": ["1", "2", "3", "23", "24", "12", "13"], "num_clicks_accrued": [0, 0, 0, 0, 0, 0, 0, 0, 0, 0, 0, 0, 0], "stateRewards": ["", -1, 1, -6, -1, 80, 23, 2, -11, 73, -81, 59, 1, 3, 5, -1, -26, 28, -3, 16, -59, -13, -50, -2, -2, 2, 15, -50, 86, 17, -4, 37, 35, 44], "withholdReward": false, "trial_id": "mdp_trial_1", "block": "test", "trialIndex": 6, "score": -19.25, "costs": -1.25, "simulationMode": [null, null, null, null, null], "rewards": [1, 3, 5, -1, -26], "path": ["0", "0", "12", "13", "14", "15", "16"], "rt": [6732, 136, 158, 291, 133], "actions": ["right", "right", "right", "up", "up"], "actionTimes": [8518, 9153, 9814, 10613, 11247], "queries": {"click": {"state": {"target": ["1", "2", "3", "23", "24", "12", "13"], "time": [2373, 2947, 4377, 5532, 6165, 6839, 7307]}, "edge": {"target": [], "time": []}}, "mouseover": {"state": {"target": ["1", "2", "3", "23", "24", "0", "12", "13"], "time": [2183, 2697, 3780, 5287, 6080, 6509, 6592, 7231]}, "edge": {"target": [], "time": []}}, "mouseout": {"state": {"target": ["23", "0", "1", "2", "3", "3", "2", "23", "24", "23", "0", "12", "13", "13"], "time": [1530, 2113, 2620, 3628, 4529, 5065, 5176, 6009, 6426, 6488, 6544, 7106, 7378, 7926]}, "edge": {"target": [], "time": []}}}, "displayed_time": "15.80", "trialTime": 17492, "trial_type": "mouselab-mdp", "trial_index": 21, "time_elapsed": 585633, "internal_node_id": "0.0-6.0-1.0-0.0"}}, {"uniqueid": "w73820164:a14811388", "current_trial": 22, "dateTime": 1693565249188, "trialdata": {"revealed_states": [], "clicked_states": ["12", "13", "14", "15", "16", "1", "2", "23", "24", "25", "30", "33", "3", "8", "11"], "num_clicks_accrued": [0, 0, 0, 0, 0, 0, 0, 0, 0, 0, 0, 0, 0], "stateRewards": ["", -1, 3, 1, -11, -22, -36, 19, -5, -70, -52, 50, -2, -4, 4, -2, -41, -83, 29, -2, 22, 10, -6, -2, 3, -2, 14, 54, 44, 77, -9, -65, -37, -40], "withholdReward": false, "trial_id": "mdp_trial_2", "block": "test", "trialIndex": 7, "score": 33.75, "costs": -14.25, "simulationMode": [null, null, null, null, null], "rewards": [-1, 3, 1, -5, 50], "path": ["0", "0", "1", "2", "3", "8", "11"], "rt": [16952, 385, 126, 343, 194], "actions": ["up", "up", "up", "left", "left"], "actionTimes": [17988, 18876, 19499, 20341, 21032], "queries": {"click": {"state": {"target": ["12", "13", "14", "15", "16", "1", "2", "23", "24", "25", "30", "33", "3", "8", "11"], "time": [1707, 2251, 2634, 2997, 3404, 7224, 7757, 8417, 8884, 9631, 10292, 10795, 13684, 14269, 14898]}, "edge": {"target": [], "time": []}}, "mouseover": {"state": {"target": ["0", "12", "12", "13", "14", "15", "16", "18", "1", "1", "1", "2", "23", "24", "28", "25", "30", "33", "32", "31", "23", "2", "3", "8", "11", "4"], "time": [1365, 1441, 1622, 2115, 2517, 2851, 3267, 3781, 4288, 6177, 6865, 7622, 8261, 8830, 9372, 9504, 9976, 10719, 11156, 12837, 12893, 13240, 13608, 14157, 14851, 15420]}, "edge": {"target": [], "time": []}}, "mouseout": {"state": {"target": ["13", "12", "0", "12", "12", "13", "14", "15", "16", "16", "18", "1", "1", "1", "2", "2", "23", "23", "24", "28", "25", "30", "33", "32", "31", "23", "2", "3", "8", "11"], "time": [600, 656, 1407, 1497, 1906, 2476, 2744, 3191, 3521, 3733, 3837, 6059, 6420, 7538, 7761, 8136, 8435, 8761, 9136, 9386, 9934, 10594, 11094, 11179, 12865, 12899, 13400, 14073, 14670, 15129]}, "edge": {"target": [], "time": []}}}, "displayed_time": "21.53", "trialTime": 22836, "trial_type": "mouselab-mdp", "trial_index": 22, "time_elapsed": 608580, "internal_node_id": "0.0-6.0-1.0-1.0"}}, {"uniqueid": "w73820164:a14811388", "current_trial": 23, "dateTime": 1693565267472, "trialdata": {"revealed_states": [], "clicked_states": ["21", "22", "20"], "num_clicks_accrued": [0, 0, 0, 0, 0, 0, 0, 0, 0, 0, 0, 0, 0], "stateRewards": ["", 1, 3, 1, -13, 52, -28, 67, -14, 3, 63, -70, -1, -4, 7, -11, -10, 47, -18, 6, 69, -9, -61, 2, 3, -6, 10, 63, -34, 40, -6, -79, -35, -32], "withholdReward": false, "trial_id": "mdp_trial_3", "block": "test", "trialIndex": 8, "score": 70.55, "costs": -6.449999999999999, "simulationMode": [null, null, null, null, null], "rewards": [-1, -4, 7, 6, 69], "path": ["0", "0", "12", "13", "14", "19", "20"], "rt": [10511, 35, 24, 73, 79], "actions": ["right", "right", "right", "down", "right"], "actionTimes": [13391, 13926, 14457, 15026, 15602], "queries": {"click": {"state": {"target": ["21", "22", "20"], "time": [3519, 6570, 9618]}, "edge": {"target": [], "time": []}}, "mouseover": {"state": {"target": ["0", "12", "22", "19", "21", "20", "19", "22", "19", "20", "17"], "time": [3071, 3105, 3140, 3175, 3321, 3737, 4216, 4355, 6911, 7251, 11334]}, "edge": {"target": [], "time": []}}, "mouseout": {"state": {"target": ["4", "1", "0", "0", "12", "22", "19", "21", "20", "19", "22", "19", "20", "20", "17", "14", "22"], "time": [626, 771, 792, 3077, 3112, 3160, 3188, 3668, 4196, 4258, 6869, 6994, 10175, 11133, 16536, 16585, 16633]}, "edge": {"target": [], "time": []}}}, "displayed_time": "16.88", "trialTime": 18166, "trial_type": "mouselab-mdp", "trial_index": 23, "time_elapsed": 626864, "internal_node_id": "0.0-6.0-1.0-2.0"}}, {"uniqueid": "w73820164:a14811388", "current_trial": 24, "dateTime": 1693565290763, "trialdata": {"revealed_states": [], "clicked_states": ["32", "31", "33", "28", "29"], "num_clicks_accrued": [0, 0, 0, 0, 0, 0, 0, 0, 0, 0, 0, 0, 0], "stateRewards": ["", -1, 1, 8, -8, -49, 62, -78, 16, 28, -81, 78, -2, -3, -1, -4, 67, 49, -2, -13, -16, -39, 83, 1, -4, 4, -5, -20, 7, 84, 7, -32, -59, 19], "withholdReward": false, "trial_id": "mdp_trial_4", "block": "test", "trialIndex": 9, "score": 69.25, "costs": -10.75, "simulationMode": [null, null, null, null, null], "rewards": [1, -4, 4, -5, 84], "path": ["0", "0", "23", "24", "25", "26", "29"], "rt": [17015, 263, 165, 12, 22], "actions": ["left", "left", "left", "up", "left"], "actionTimes": [18757, 19518, 20183, 20697, 21228], "queries": {"click": {"state": {"target": ["32", "31", "33", "28", "29"], "time": [2326, 5387, 8483, 11743, 14826]}, "edge": {"target": [], "time": []}}, "mouseover": {"state": {"target": ["31", "32", "31", "31", "30", "33", "25", "28", "28", "26", "29", "27"], "time": [1989, 2232, 2593, 3142, 5733, 5857, 9163, 9225, 9455, 12232, 12337, 15476]}, "edge": {"target": [], "time": []}}, "mouseout": {"state": {"target": ["0", "31", "32", "31", "31", "30", "33", "25", "28", "28", "26", "29", "27", "26", "24"], "time": [1934, 2010, 2552, 2802, 5697, 5781, 9135, 9183, 9232, 12191, 12288, 15288, 22261, 22302, 22323]}, "edge": {"target": [], "time": []}}}, "displayed_time": "21.73", "trialTime": 23181, "trial_type": "mouselab-mdp", "trial_index": 24, "time_elapsed": 650154, "internal_node_id": "0.0-6.0-1.0-3.0"}}, {"uniqueid": "w73820164:a14811388", "current_trial": 25, "dateTime": 1693565307169, "trialdata": {"revealed_states": [], "clicked_states": ["29", "27"], "num_clicks_accrued": [0, 0, 0, 0, 0, 0, 0, 0, 0, 0, 0, 0, 0], "stateRewards": ["", -2, -2, -3, -6, -15, -11, 41, -12, -63, -76, 2, -2, -3, 8, 9, -36, -2, -18, -16, -32, -85, -17, -2, 1, 5, -16, 82, 35, -88, -1, 80, -82, -20], "withholdReward": false, "trial_id": "mdp_trial_5", "block": "test", "trialIndex": 10, "score": 65.7, "costs": -4.3, "simulationMode": [null, null, null, null, null], "rewards": [-2, 1, 5, -16, 82], "path": ["0", "0", "23", "24", "25", "26", "27"], "rt": [7748, 224, 117, 11, 45], "actions": ["left", "left", "left", "up", "up"], "actionTimes": [8782, 9509, 10130, 10643, 11191], "queries": {"click": {"state": {"target": ["29", "27"], "time": [1646, 4822]}, "edge": {"target": [], "time": []}}, "mouseover": {"state": {"target": ["23", "29", "27", "28"], "time": [1255, 1408, 1970, 5207]}, "edge": {"target": [], "time": []}}, "mouseout": {"state": {"target": ["0", "23", "29", "27", "28", "28", "24"], "time": [727, 1269, 1901, 5123, 8012, 12054, 12082]}, "edge": {"target": [], "time": []}}}, "displayed_time": "15.04", "trialTime": 16297, "trial_type": "mouselab-mdp", "trial_index": 25, "time_elapsed": 666560, "internal_node_id": "0.0-6.0-1.0-4.0"}}, {"uniqueid": "w73820164:a14811388", "current_trial": 26, "dateTime": 1693565323760, "trialdata": {"revealed_states": [], "clicked_states": ["32", "31"], "num_clicks_accrued": [0, 0, 0, 0, 0, 0, 0, 0, 0, 0, 0, 0, 0], "stateRewards": ["", -1, 3, 2, 9, 41, 4, -46, -12, -54, -87, -25, 2, 3, -1, 11, -77, 12, -33, -9, -32, 35, 72, 1, 3, -7, 4, 37, 65, -73, 6, 77, -43, 8], "withholdReward": false, "trial_id": "mdp_trial_6", "block": "test", "trialIndex": 11, "score": 75.7, "costs": -4.3, "simulationMode": [null, null, null, null, null], "rewards": [1, 3, -7, 6, 77], "path": ["0", "0", "23", "24", "25", "30", "31"], "rt": [7738, 322, 107, 75, 39], "actions": ["left", "left", "left", "down", "right"], "actionTimes": [8743, 9562, 10166, 10738, 11279], "queries": {"click": {"state": {"target": ["32", "31"], "time": [1660, 4820]}, "edge": {"target": [], "time": []}}, "mouseover": {"state": {"target": ["23", "30", "33", "32", "31", "30", "33"], "time": [1169, 1252, 1294, 1551, 2169, 5593, 5843]}, "edge": {"target": [], "time": []}}, "mouseout": {"state": {"target": ["0", "23", "30", "33", "32", "31", "30", "33", "32"], "time": [1155, 1190, 1273, 1301, 1849, 5456, 5718, 12121, 12142]}, "edge": {"target": [], "time": []}}}, "displayed_time": "15.01", "trialTime": 16482, "trial_type": "mouselab-mdp", "trial_index": 26, "time_elapsed": 683152, "internal_node_id": "0.0-6.0-1.0-5.0"}}, {"uniqueid": "w73820164:a14811388", "current_trial": 27, "dateTime": 1693565340359, "trialdata": {"revealed_states": [], "clicked_states": ["32"], "num_clicks_accrued": [0, 0, 0, 0, 0, 0, 0, 0, 0, 0, 0, 0, 0], "stateRewards": ["", -1, 4, -5, 9, 29, -75, -42, -16, 24, -28, -41, 2, -3, 1, 10, 60, 47, 55, -1, -53, 22, -40, 2, -3, -6, 4, -26, 44, 54, 15, -76, 42, 14], "withholdReward": false, "trial_id": "mdp_trial_7", "block": "test", "trialIndex": 12, "score": 47.85, "costs": -2.15, "simulationMode": [null, null, null, null, null], "rewards": [2, -3, -6, 15, 42], "path": ["0", "0", "23", "24", "25", "30", "32"], "rt": [4229, 452, 41, 59, 803], "actions": ["left", "left", "left", "down", "down"], "actionTimes": [5190, 6141, 6682, 7241, 8555], "queries": {"click": {"state": {"target": ["32"], "time": [1481]}, "edge": {"target": [], "time": []}}, "mouseover": {"state": {"target": ["31", "32", "30", "30", "30"], "time": [1153, 1383, 2070, 2716, 3542]}, "edge": {"target": [], "time": []}}, "mouseout": {"state": {"target": ["12", "0", "31", "32", "30", "30", "30"], "time": [729, 1084, 1167, 1994, 2091, 3188, 3730]}, "edge": {"target": [], "time": []}}}, "displayed_time": "14.96", "trialTime": 16488, "trial_type": "mouselab-mdp", "trial_index": 27, "time_elapsed": 699750, "internal_node_id": "0.0-6.0-1.0-6.0"}}, {"uniqueid": "w73820164:a14811388", "current_trial": 28, "dateTime": 1693565356807, "trialdata": {"revealed_states": [], "clicked_states": ["32", "33"], "num_clicks_accrued": [0, 0, 0, 0, 0, 0, 0, 0, 0, 0, 0, 0, 0], "stateRewards": ["", 1, -2, -3, 14, -42, -87, -37, -11, -50, 33, -44, -2, 4, -7, 13, 48, -75, -66, 12, 23, -2, 82, 1, -4, 3, 12, 51, -15, -26, -11, -52, -29, 82], "withholdReward": false, "trial_id": "mdp_trial_8", "block": "test", "trialIndex": 13, "score": 66.7, "costs": -4.3, "simulationMode": [null, null, null, null, null], "rewards": [1, -4, 3, -11, 82], "path": ["0", "0", "23", "24", "25", "30", "33"], "rt": [7796, 275, 128, 40, 34], "actions": ["left", "left", "left", "down", "left"], "actionTimes": [8807, 9585, 10209, 10746, 11282], "queries": {"click": {"state": {"target": ["32", "33"], "time": [1515, 4926]}, "edge": {"target": [], "time": []}}, "mouseover": {"state": {"target": ["0", "31", "32", "33", "31"], "time": [1128, 1225, 1357, 4712, 5600]}, "edge": {"target": [], "time": []}}, "mouseout": {"state": {"target": ["0", "0", "31", "32", "33", "31", "30", "33"], "time": [537, 1163, 1274, 4656, 5357, 12059, 12107, 12184]}, "edge": {"target": [], "time": []}}}, "displayed_time": "15.01", "trialTime": 16335, "trial_type": "mouselab-mdp", "trial_index": 28, "time_elapsed": 716199, "internal_node_id": "0.0-6.0-1.0-7.0"}}, {"uniqueid": "w73820164:a14811388", "current_trial": 29, "dateTime": 1693565372984, "trialdata": {"revealed_states": [], "clicked_states": ["32", "33"], "num_clicks_accrued": [0, 0, 0, 0, 0, 0, 0, 0, 0, 0, 0, 0, 0], "stateRewards": ["", -1, 1, 3, -8, -23, -15, -14, -11, -23, 58, 68, 1, 3, 5, 12, -17, -41, -7, -10, -4, 82, 10, 1, 4, -4, 11, 73, 55, -55, -1, -86, -86, 54], "withholdReward": false, "trial_id": "mdp_trial_9", "block": "test", "trialIndex": 14, "score": 49.7, "costs": -4.3, "simulationMode": [null, null, null, null, null], "rewards": [1, 4, -4, -1, 54], "path": ["0", "0", "23", "24", "25", "30", "33"], "rt": [7592, 323, 44, 73, 123], "actions": ["left", "left", "left", "down", "left"], "actionTimes": [8478, 9304, 9843, 10414, 11048], "queries": {"click": {"state": {"target": ["32", "33"], "time": [1473, 4656]}, "edge": {"target": [], "time": []}}, "mouseover": {"state": {"target": ["31", "32", "33", "30", "31", "31"], "time": [1125, 1354, 3021, 5132, 5180, 5507]}, "edge": {"target": [], "time": []}}, "mouseout": {"state": {"target": ["0", "31", "32", "33", "30", "31", "31"], "time": [1041, 1153, 2347, 5076, 5166, 5215, 11854]}, "edge": {"target": [], "time": []}}}, "displayed_time": "14.89", "trialTime": 16064, "trial_type": "mouselab-mdp", "trial_index": 29, "time_elapsed": 732376, "internal_node_id": "0.0-6.0-1.0-8.0"}}, {"uniqueid": "w73820164:a14811388", "current_trial": 30, "dateTime": 1693565391414, "trialdata": {"revealed_states": [], "clicked_states": ["32", "33", "31"], "num_clicks_accrued": [0, 0, 0, 0, 0, 0, 0, 0, 0, 0, 0, 0, 0], "stateRewards": ["", 1, -1, 1, -14, -10, 67, -28, -11, 72, 40, -65, -1, 1, 1, -2, 8, -55, 34, -10, 61, 33, -15, 2, -4, 7, 4, -75, 63, -21, -16, 61, 19, 21], "withholdReward": false, "trial_id": "mdp_trial_10", "block": "test", "trialIndex": 15, "score": 43.55, "costs": -6.449999999999999, "simulationMode": [null, null, null, null, null], "rewards": [2, -4, 7, -16, 61], "path": ["0", "0", "23", "24", "25", "30", "31"], "rt": [12783, 364, 79, 1, 283], "actions": ["left", "left", "left", "down", "right"], "actionTimes": [13816, 14679, 15255, 15761, 16550], "queries": {"click": {"state": {"target": ["32", "33", "31"], "time": [1825, 5652, 10102]}, "edge": {"target": [], "time": []}}, "mouseover": {"state": {"target": ["0", "31", "32", "32", "33", "31", "32"], "time": [1224, 1453, 1495, 1717, 5120, 9947, 11724]}, "edge": {"target": [], "time": []}}, "mouseout": {"state": {"target": ["0", "0", "31", "32", "32", "33", "31", "32"], "time": [842, 1287, 1460, 1537, 5037, 5960, 10523, 11835]}, "edge": {"target": [], "time": []}}}, "displayed_time": "17.05", "trialTime": 18322, "trial_type": "mouselab-mdp", "trial_index": 30, "time_elapsed": 750806, "internal_node_id": "0.0-6.0-1.0-9.0"}}, {"uniqueid": "w73820164:a14811388", "current_trial": 31, "dateTime": 1693565415379, "trialdata": {"revealed_states": [], "clicked_states": ["31", "32", "33", "29", "27"], "num_clicks_accrued": [0, 0, 0, 0, 0, 0, 0, 0, 0, 0, 0, 0, 0], "stateRewards": ["", -2, -3, -7, 7, -54, -69, -4, -14, -77, 22, 40, -2, -1, 5, 6, -35, 50, -60, 10, -28, 75, 57, 1, -4, -2, 2, 68, 34, -18, 12, 3, -21, -43], "withholdReward": false, "trial_id": "mdp_trial_11", "block": "test", "trialIndex": 16, "score": 54.25, "costs": -10.75, "simulationMode": [null, null, null, null, null], "rewards": [1, -4, -2, 2, 68], "path": ["0", "0", "23", "24", "25", "26", "27"], "rt": [16392, 855, 55, 18, 370], "actions": ["left", "left", "left", "up", "up"], "actionTimes": [18715, 20077, 20630, 21149, 22029], "queries": {"click": {"state": {"target": ["31", "32", "33", "29", "27"], "time": [3010, 6230, 9304, 12351, 15443]}, "edge": {"target": [], "time": []}}, "mouseover": {"state": {"target": ["0", "31", "30", "32", "31", "32", "33", "29", "27", "27", "28"], "time": [2505, 2574, 2595, 2713, 2922, 5895, 6671, 10213, 12810, 13165, 15859]}, "edge": {"target": [], "time": []}}, "mouseout": {"state": {"target": ["0", "1", "2", "1", "0", "0", "31", "30", "32", "31", "31", "32", "33", "29", "27", "27", "28"], "time": [1865, 1907, 2088, 2129, 2346, 2532, 2588, 2602, 2762, 4046, 5366, 6560, 9713, 12685, 12929, 15776, 18630]}, "edge": {"target": [], "time": []}}}, "displayed_time": "22.53", "trialTime": 23852, "trial_type": "mouselab-mdp", "trial_index": 31, "time_elapsed": 774771, "internal_node_id": "0.0-6.0-1.0-10.0"}}, {"uniqueid": "w73820164:a14811388", "current_trial": 32, "dateTime": 1693565432464, "trialdata": {"revealed_states": [], "clicked_states": ["32"], "num_clicks_accrued": [0, 0, 0, 0, 0, 0, 0, 0, 0, 0, 0, 0, 0], "stateRewards": ["", -1, -3, -7, -4, -85, -70, 79, 8, 84, -66, 42, 2, -2, -3, -16, -54, -66, 68, -3, 21, -14, 7, -2, -1, -3, -8, 75, 80, 86, -7, -84, 73, -16], "withholdReward": false, "trial_id": "mdp_trial_12", "block": "test", "trialIndex": 17, "score": 57.85, "costs": -2.15, "simulationMode": [null, null, null, null, null], "rewards": [-2, -1, -3, -7, 73], "path": ["0", "0", "23", "24", "25", "30", "32"], "rt": [5664, 190, 85, 289, 31], "actions": ["left", "left", "left", "down", "down"], "actionTimes": [7876, 8566, 9149, 9936, 10469], "queries": {"click": {"state": {"target": ["32"], "time": [4409]}, "edge": {"target": [], "time": []}}, "mouseover": {"state": {"target": ["0", "31", "32", "31"], "time": [2562, 3284, 4250, 7041]}, "edge": {"target": [], "time": []}}, "mouseout": {"state": {"target": ["1", "0", "31", "32", "32", "31"], "time": [1888, 3243, 3298, 5131, 6555, 8405]}, "edge": {"target": [], "time": []}}}, "displayed_time": "16.21", "trialTime": 16974, "trial_type": "mouselab-mdp", "trial_index": 32, "time_elapsed": 791856, "internal_node_id": "0.0-6.0-1.0-11.0"}}, {"uniqueid": "w73820164:a14811388", "current_trial": 33, "dateTime": 1693565454393, "trialdata": {"revealed_states": [], "clicked_states": ["32", "31", "33", "28", "29"], "num_clicks_accrued": [0, 0, 0, 0, 0, 0, 0, 0, 0, 0, 0, 0, 0], "stateRewards": ["", -1, -3, -7, -7, -76, 30, -49, 11, -70, 56, 2, 1, 4, -3, -14, -59, -83, -25, -9, -21, -67, -73, -2, 4, 4, -9, -11, -32, 60, 9, -87, 22, -64], "withholdReward": false, "trial_id": "mdp_trial_13", "block": "test", "trialIndex": 18, "score": 46.25, "costs": -10.75, "simulationMode": [null, null, null, null, null], "rewards": [-2, 4, 4, -9, 60], "path": ["0", "0", "23", "24", "25", "26", "29"], "rt": [16525, 398, 89, 48, 1], "actions": ["left", "left", "left", "up", "left"], "actionTimes": [18044, 18939, 19526, 20075, 20577], "queries": {"click": {"state": {"target": ["32", "31", "33", "28", "29"], "time": [2016, 5564, 8655, 11697, 14790]}, "edge": {"target": [], "time": []}}, "mouseover": {"state": {"target": ["0", "32", "31", "30", "33", "28", "26", "29", "27"], "time": [1630, 1991, 3984, 6095, 6165, 9450, 12117, 12200, 15255]}, "edge": {"target": [], "time": []}}, "mouseout": {"state": {"target": ["0", "32", "31", "30", "33", "28", "26", "29", "27"], "time": [1658, 3873, 6061, 6130, 9075, 12089, 12158, 15144, 21665]}, "edge": {"target": [], "time": []}}}, "displayed_time": "21.09", "trialTime": 21818, "trial_type": "mouselab-mdp", "trial_index": 33, "time_elapsed": 813785, "internal_node_id": "0.0-6.0-1.0-12.0"}}, {"uniqueid": "w73820164:a14811388", "current_trial": 34, "dateTime": 1693565470403, "trialdata": {"revealed_states": [], "clicked_states": ["31", "32"], "num_clicks_accrued": [0, 0, 0, 0, 0, 0, 0, 0, 0, 0, 0, 0, 0], "stateRewards": ["", 1, 1, 1, 15, -76, 52, -32, 14, -57, 37, 49, 1, -4, -3, 6, 83, -76, 25, 9, 36, -1, -17, -1, 4, 4, -2, -22, -21, 58, -15, -57, 49, -24], "withholdReward": false, "trial_id": "mdp_trial_14", "block": "test", "trialIndex": 19, "score": 36.7, "costs": -4.3, "simulationMode": [null, null, null, null, null], "rewards": [-1, 4, 4, -15, 49], "path": ["0", "0", "23", "24", "25", "30", "32"], "rt": [7126, 352, 417, 1, 124], "actions": ["left", "left", "left", "down", "down"], "actionTimes": [8251, 9104, 10022, 10524, 11153], "queries": {"click": {"state": {"target": ["31", "32"], "time": [1872, 4940]}, "edge": {"target": [], "time": []}}, "mouseover": {"state": {"target": ["23", "31", "30", "32", "31", "32", "33"], "time": [1389, 1458, 1493, 1576, 1799, 2215, 5827]}, "edge": {"target": [], "time": []}}, "mouseout": {"state": {"target": ["26", "24", "23", "23", "31", "30", "32", "31", "32", "33", "30"], "time": [652, 694, 770, 1417, 1465, 1535, 1722, 2153, 5340, 11799, 11833]}, "edge": {"target": [], "time": []}}}, "displayed_time": "15.13", "trialTime": 15884, "trial_type": "mouselab-mdp", "trial_index": 34, "time_elapsed": 829795, "internal_node_id": "0.0-6.0-1.0-13.0"}}, {"uniqueid": "w73820164:a14811388", "current_trial": 35, "dateTime": 1693565486907, "trialdata": {"revealed_states": [], "clicked_states": ["31"], "num_clicks_accrued": [0, 0, 0, 0, 0, 0, 0, 0, 0, 0, 0, 0, 0], "stateRewards": ["", 1, -3, 4, 13, -72, 52, 5, 5, -58, 5, 14, 2, 1, 3, -14, -86, -4, 73, 6, -58, -50, 49, 2, -3, -4, 2, 33, -41, 42, -11, 81, 45, 53], "withholdReward": false, "trial_id": "mdp_trial_15", "block": "test", "trialIndex": 20, "score": 62.85, "costs": -2.15, "simulationMode": [null, null, null, null, null], "rewards": [2, -3, -4, -11, 81], "path": ["0", "0", "23", "24", "25", "30", "31"], "rt": [3987, 399, 163, 130, 34], "actions": ["left", "left", "left", "down", "right"], "actionTimes": [5605, 6506, 7165, 7792, 8328], "queries": {"click": {"state": {"target": ["31"], "time": [2495]}, "edge": {"target": [], "time": []}}, "mouseover": {"state": {"target": ["31", "31", "32"], "time": [2015, 2356, 4696]}, "edge": {"target": [], "time": []}}, "mouseout": {"state": {"target": ["0", "31", "31", "32"], "time": [1932, 2071, 2844, 6168]}, "edge": {"target": [], "time": []}}}, "displayed_time": "15.62", "trialTime": 16389, "trial_type": "mouselab-mdp", "trial_index": 35, "time_elapsed": 846299, "internal_node_id": "0.0-6.0-1.0-14.0"}}, {"uniqueid": "w73820164:a14811388", "current_trial": 36, "dateTime": 1693565506284, "trialdata": {"revealed_states": [], "clicked_states": ["31", "32", "33", "28"], "num_clicks_accrued": [0, 0, 0, 0, 0, 0, 0, 0, 0, 0, 0, 0, 0], "stateRewards": ["", -2, -4, 4, -11, -63, -60, -7, 2, -14, 81, -43, -1, -1, -5, 7, 10, 69, 40, 8, -83, 52, 60, 1, 2, 5, -5, 16, 64, 14, -3, 29, 7, -51], "withholdReward": false, "trial_id": "mdp_trial_16", "block": "test", "trialIndex": 21, "score": 58.4, "costs": -8.6, "simulationMode": [null, null, null, null, null], "rewards": [1, 2, 5, -5, 64], "path": ["0", "0", "23", "24", "25", "26", "28"], "rt": [13978, 539, 117, 113, 166], "actions": ["left", "left", "left", "up", "right"], "actionTimes": [15001, 16039, 16659, 17273, 17937], "queries": {"click": {"state": {"target": ["31", "32", "33", "28"], "time": [1603, 5475, 8696, 11862]}, "edge": {"target": [], "time": []}}, "mouseover": {"state": {"target": ["31", "32", "32", "33", "25", "28", "27"], "time": [1513, 5116, 5415, 7075, 9186, 9714, 12325]}, "edge": {"target": [], "time": []}}, "mouseout": {"state": {"target": ["0", "31", "32", "32", "33", "25", "28", "27", "26"], "time": [1207, 1991, 5130, 5915, 9089, 9200, 12144, 19020, 19096]}, "edge": {"target": [], "time": []}}}, "displayed_time": "18.44", "trialTime": 19250, "trial_type": "mouselab-mdp", "trial_index": 36, "time_elapsed": 865676, "internal_node_id": "0.0-6.0-1.0-15.0"}}, {"uniqueid": "w73820164:a14811388", "current_trial": 37, "dateTime": 1693565521796, "trialdata": {"revealed_states": [], "clicked_states": ["31", "32", "33"], "num_clicks_accrued": [0, 0, 0, 0, 0, 0, 0, 0, 0, 0, 0, 0, 0], "stateRewards": ["", -2, -1, -1, 5, -54, -87, 35, 2, -8, 20, -22, 1, 3, 6, 13, -75, -32, -55, -3, 56, 62, -22, -1, -4, -1, -7, -51, 84, 70, 7, -15, 5, 55], "withholdReward": false, "trial_id": "mdp_trial_17", "block": "test", "trialIndex": 22, "score": 49.55, "costs": -6.449999999999999, "simulationMode": [null, null, null, null, null], "rewards": [-1, -4, -1, 7, 55], "path": ["0", "0", "23", "24", "25", "30", "33"], "rt": [10149, 420, 168, 128, 65], "actions": ["left", "left", "left", "down", "left"], "actionTimes": [11057, 11973, 12638, 13265, 13830], "queries": {"click": {"state": {"target": ["31", "32", "33"], "time": [1530, 4677, 7783]}, "edge": {"target": [], "time": []}}, "mouseover": {"state": {"target": ["23", "31", "31", "32", "33", "30", "24", "28"], "time": [1115, 1163, 1455, 3719, 6830, 8330, 8545, 9143]}, "edge": {"target": [], "time": []}}, "mouseout": {"state": {"target": ["25", "0", "23", "31", "31", "32", "33", "30", "24"], "time": [413, 1080, 1129, 1219, 3629, 5087, 8296, 8344, 8573]}, "edge": {"target": [], "time": []}}}, "displayed_time": "14.91", "trialTime": 15391, "trial_type": "mouselab-mdp", "trial_index": 37, "time_elapsed": 881188, "internal_node_id": "0.0-6.0-1.0-16.0"}}, {"uniqueid": "w73820164:a14811388", "current_trial": 38, "dateTime": 1693565551243, "trialdata": {"revealed_states": [], "clicked_states": ["31", "32", "33", "29", "27", "28", "10"], "num_clicks_accrued": [0, 0, 0, 0, 0, 0, 0, 0, 0, 0, 0, 0, 0], "stateRewards": ["", 1, 4, -8, -5, -15, -7, 21, 13, -30, 40, -65, 1, 1, 5, -14, 35, 27, -38, -11, 36, -58, -47, -2, 4, -3, 13, -16, -49, 22, 15, -56, -44, -10], "withholdReward": false, "trial_id": "mdp_trial_18", "block": "test", "trialIndex": 23, "score": 34.95, "costs": -15.05, "simulationMode": [null, null, null, null, null], "rewards": [1, 4, -8, 13, 40], "path": ["0", "0", "1", "2", "3", "8", "10"], "rt": [24153, 327, 69, 262, 450], "actions": ["up", "up", "up", "left", "down"], "actionTimes": [25019, 25843, 26412, 27174, 28128], "queries": {"click": {"state": {"target": ["31", "32", "33", "29", "27", "28", "10"], "time": [1387, 4499, 7644, 10771, 13984, 17147, 21585]}, "edge": {"target": [], "time": []}}, "mouseover": {"state": {"target": ["0", "31", "31", "32", "33", "33", "29", "29", "27", "28", "10", "8", "11", "10", "11"], "time": [1049, 1140, 1306, 1994, 4890, 5306, 8306, 8744, 11209, 14418, 20515, 20577, 20925, 21230, 23091]}, "edge": {"target": [], "time": []}}, "mouseout": {"state": {"target": ["28", "23", "0", "31", "31", "32", "33", "33", "29", "29", "27", "28", "28", "28", "10", "8", "11", "10", "11", "10"], "time": [424, 674, 1064, 1154, 1799, 4813, 4904, 8008, 8334, 11105, 14355, 18147, 19758, 20473, 20543, 20633, 21112, 22147, 24876, 28946]}, "edge": {"target": [], "time": []}}}, "displayed_time": "28.63", "trialTime": 29315, "trial_type": "mouselab-mdp", "trial_index": 38, "time_elapsed": 910635, "internal_node_id": "0.0-6.0-1.0-17.0"}}, {"uniqueid": "w73820164:a14811388", "current_trial": 39, "dateTime": 1693565566935, "trialdata": {"revealed_states": [], "clicked_states": ["32", "31"], "num_clicks_accrued": [0, 0, 0, 0, 0, 0, 0, 0, 0, 0, 0, 0, 0], "stateRewards": ["", 1, -1, 1, 13, 31, -56, 72, 2, 41, 5, 63, -2, -3, -2, 3, -71, -26, 52, 13, -31, 24, -67, 2, -2, 5, 4, 66, 43, 72, 9, 86, -26, 44], "withholdReward": false, "trial_id": "mdp_trial_19", "block": "test", "trialIndex": 24, "score": 95.7, "costs": -4.3, "simulationMode": [null, null, null, null, null], "rewards": [2, -2, 5, 9, 86], "path": ["0", "0", "23", "24", "25", "30", "31"], "rt": [7272, 350, 83, 96, 63], "actions": ["left", "left", "left", "down", "right"], "actionTimes": [8478, 9329, 9908, 10504, 11075], "queries": {"click": {"state": {"target": ["32", "31"], "time": [1792, 4997]}, "edge": {"target": [], "time": []}}, "mouseover": {"state": {"target": ["32", "31", "31", "30", "33"], "time": [1678, 3331, 4887, 5456, 5589]}, "edge": {"target": [], "time": []}}, "mouseout": {"state": {"target": ["0", "0", "32", "31", "31", "30", "33", "30"], "time": [310, 1352, 2102, 4777, 5421, 5539, 11824, 11859]}, "edge": {"target": [], "time": []}}}, "displayed_time": "15.21", "trialTime": 15572, "trial_type": "mouselab-mdp", "trial_index": 39, "time_elapsed": 926327, "internal_node_id": "0.0-6.0-1.0-18.0"}}, {"uniqueid": "w73820164:a14811388", "current_trial": 40, "dateTime": 1693565582362, "trialdata": {"revealed_states": [], "clicked_states": ["31"], "num_clicks_accrued": [0, 0, 0, 0, 0, 0, 0, 0, 0, 0, 0, 0, 0], "stateRewards": ["", -1, 2, -6, 6, 43, 78, 78, -2, 55, -29, -17, -2, -4, 1, -15, 13, 7, -79, 8, -28, -68, 36, -1, -3, 3, -16, 84, -18, 87, 10, 32, 13, -81], "withholdReward": false, "trial_id": "mdp_trial_20", "block": "test", "trialIndex": 25, "score": 38.85, "costs": -2.15, "simulationMode": [null, null, null, null, null], "rewards": [-1, -3, 3, 10, 32], "path": ["0", "0", "23", "24", "25", "30", "31"], "rt": [4501, 11, 48, 117, 615], "actions": ["left", "left", "left", "down", "right"], "actionTimes": [5190, 5698, 6256, 6873, 7989], "queries": {"click": {"state": {"target": ["31"], "time": [1458]}, "edge": {"target": [], "time": []}}, "mouseover": {"state": {"target": ["0", "31", "31", "32"], "time": [929, 1019, 1346, 3255]}, "edge": {"target": [], "time": []}}, "mouseout": {"state": {"target": ["0", "0", "31", "31", "32"], "time": [561, 950, 1068, 1901, 8860]}, "edge": {"target": [], "time": []}}}, "displayed_time": "14.69", "trialTime": 15304, "trial_type": "mouselab-mdp", "trial_index": 40, "time_elapsed": 941754, "internal_node_id": "0.0-6.0-1.0-19.0"}}, {"uniqueid": "w73820164:a14811388", "current_trial": 41, "dateTime": 1693565607793, "trialdata": {"revealed_states": [], "clicked_states": ["31", "32", "33", "29", "27", "28"], "num_clicks_accrued": [0, 0, 0, 0, 0, 0, 0, 0, 0, 0, 0, 0, 0], "stateRewards": ["", -1, 1, -5, -6, -78, 47, -13, 12, 48, -88, 20, 2, -3, -2, 13, -20, 37, -57, 14, -38, 30, 31, -2, -2, 8, 2, -23, 78, 28, 12, -74, -88, 8], "withholdReward": false, "trial_id": "mdp_trial_21", "block": "test", "trialIndex": 26, "score": 71.1, "costs": -12.9, "simulationMode": [null, null, null, null, null], "rewards": [-2, -2, 8, 2, 78], "path": ["0", "0", "23", "24", "25", "26", "28"], "rt": [20702, 5, 57, 60, 110], "actions": ["left", "left", "left", "up", "right"], "actionTimes": [21672, 22177, 22742, 23301, 23913], "queries": {"click": {"state": {"target": ["31", "32", "33", "29", "27", "28"], "time": [1505, 4725, 7825, 11023, 15073, 18218]}, "edge": {"target": [], "time": []}}, "mouseover": {"state": {"target": ["31", "32", "33", "26", "29", "27", "26", "28", "2", "10", "10"], "time": [1295, 1871, 5149, 8545, 9093, 11430, 15517, 15677, 18698, 19406, 19816]}, "edge": {"target": [], "time": []}}, "mouseout": {"state": {"target": ["0", "31", "32", "33", "26", "29", "27", "26", "28", "2", "10", "10"], "time": [1219, 1795, 4854, 8364, 8601, 11316, 15420, 15538, 18581, 19003, 19587, 24837]}, "edge": {"target": [], "time": []}}}, "displayed_time": "24.42", "trialTime": 25296, "trial_type": "mouselab-mdp", "trial_index": 41, "time_elapsed": 967185, "internal_node_id": "0.0-6.0-1.0-20.0"}}, {"uniqueid": "w73820164:a14811388", "current_trial": 42, "dateTime": 1693565623932, "trialdata": {"revealed_states": [], "clicked_states": ["31"], "num_clicks_accrued": [0, 0, 0, 0, 0, 0, 0, 0, 0, 0, 0, 0, 0], "stateRewards": ["", 1, -3, -4, -11, -56, 61, -47, -16, -28, -9, 69, -2, -3, -4, -8, 40, -86, 59, -4, 80, 27, 54, -1, 3, -1, 8, 67, 23, 50, 6, 83, -43, -29], "withholdReward": false, "trial_id": "mdp_trial_22", "block": "test", "trialIndex": 27, "score": 87.85, "costs": -2.15, "simulationMode": [null, null, null, null, null], "rewards": [-1, 3, -1, 6, 83], "path": ["0", "0", "23", "24", "25", "30", "31"], "rt": [4189, 378, 165, 106, 280], "actions": ["left", "left", "left", "down", "right"], "actionTimes": [5375, 6250, 6912, 7520, 8298], "queries": {"click": {"state": {"target": ["31"], "time": [1769]}, "edge": {"target": [], "time": []}}, "mouseover": {"state": {"target": ["0", "31", "32"], "time": [1343, 1545, 4732]}, "edge": {"target": [], "time": []}}, "mouseout": {"state": {"target": ["23", "0", "0", "31", "32"], "time": [524, 572, 1371, 4482, 11538]}, "edge": {"target": [], "time": []}}}, "displayed_time": "15.19", "trialTime": 16003, "trial_type": "mouselab-mdp", "trial_index": 42, "time_elapsed": 983323, "internal_node_id": "0.0-6.0-1.0-21.0"}}, {"uniqueid": "w73820164:a14811388", "current_trial": 43, "dateTime": 1693565639071, "trialdata": {"revealed_states": [], "clicked_states": ["31", "32", "33"], "num_clicks_accrued": [0, 0, 0, 0, 0, 0, 0, 0, 0, 0, 0, 0, 0], "stateRewards": ["", -2, 2, 3, -7, -31, -33, 29, -8, -57, 50, -83, -1, -1, 5, 13, -23, -62, 25, 5, -66, -85, 14, 1, -2, -1, 16, 71, 33, -19, -14, 5, -43, 79], "withholdReward": false, "trial_id": "mdp_trial_23", "block": "test", "trialIndex": 28, "score": 56.55, "costs": -6.449999999999999, "simulationMode": [null, null, null, null, null], "rewards": [1, -2, -1, -14, 79], "path": ["0", "0", "23", "24", "25", "30", "33"], "rt": [10192, 327, 74, 76, 5], "actions": ["left", "left", "left", "down", "left"], "actionTimes": [10865, 11692, 12264, 12836, 13341], "queries": {"click": {"state": {"target": ["31", "32", "33"], "time": [1200, 4346, 7443]}, "edge": {"target": [], "time": []}}, "mouseover": {"state": {"target": ["31", "31", "32", "33", "25", "24", "28"], "time": [960, 1106, 4086, 5391, 7801, 7822, 8072]}, "edge": {"target": [], "time": []}}, "mouseout": {"state": {"target": ["0", "31", "31", "32", "33", "25", "24", "28", "24"], "time": [877, 989, 1599, 4662, 7759, 7808, 7836, 14579, 14655]}, "edge": {"target": [], "time": []}}}, "displayed_time": "14.68", "trialTime": 14995, "trial_type": "mouselab-mdp", "trial_index": 43, "time_elapsed": 998463, "internal_node_id": "0.0-6.0-1.0-22.0"}}, {"uniqueid": "w73820164:a14811388", "current_trial": 44, "dateTime": 1693565654184, "trialdata": {"revealed_states": [], "clicked_states": ["31", "32"], "num_clicks_accrued": [0, 0, 0, 0, 0, 0, 0, 0, 0, 0, 0, 0, 0], "stateRewards": ["", 1, -2, 7, -14, 88, -56, -44, -14, 64, -51, -57, -2, 3, -4, -9, -11, 19, -77, -1, 68, 75, -67, -1, 1, -2, 5, -37, 70, -34, -10, -72, 63, -41], "withholdReward": false, "trial_id": "mdp_trial_24", "block": "test", "trialIndex": 29, "score": 46.7, "costs": -4.3, "simulationMode": [null, null, null, null, null], "rewards": [-1, 1, -2, -10, 63], "path": ["0", "0", "23", "24", "25", "30", "32"], "rt": [7238, 35, 102, 428, 42], "actions": ["left", "left", "left", "down", "down"], "actionTimes": [7936, 8468, 9070, 10000, 10544], "queries": {"click": {"state": {"target": ["31", "32"], "time": [1209, 4313]}, "edge": {"target": [], "time": []}}, "mouseover": {"state": {"target": ["31", "32", "30", "33"], "time": [1091, 1918, 4703, 5064]}, "edge": {"target": [], "time": []}}, "mouseout": {"state": {"target": ["23", "0", "31", "32", "30"], "time": [460, 828, 1751, 4633, 4717]}, "edge": {"target": [], "time": []}}}, "displayed_time": "14.70", "trialTime": 14975, "trial_type": "mouselab-mdp", "trial_index": 44, "time_elapsed": 1013576, "internal_node_id": "0.0-6.0-1.0-23.0"}}, {"uniqueid": "w73820164:a14811388", "current_trial": 45, "dateTime": 1693565670313, "trialdata": {"revealed_states": [], "clicked_states": ["32", "31"], "num_clicks_accrued": [0, 0, 0, 0, 0, 0, 0, 0, 0, 0, 0, 0, 0], "stateRewards": ["", -1, 3, -7, 16, -32, -74, -48, 2, 10, 15, -30, 1, 1, -2, 10, 12, -83, 67, 13, -66, 47, 65, -2, 4, 2, -14, -8, -57, 24, 9, 65, 12, 46], "withholdReward": false, "trial_id": "mdp_trial_25", "block": "test", "trialIndex": 30, "score": 73.7, "costs": -4.3, "simulationMode": [null, null, null, null, null], "rewards": [-2, 4, 2, 9, 65], "path": ["0", "0", "23", "24", "25", "30", "31"], "rt": [7139, 518, 110, 47, 65], "actions": ["left", "left", "left", "down", "right"], "actionTimes": [8437, 9457, 10069, 10617, 11184], "queries": {"click": {"state": {"target": ["32", "31"], "time": [1906, 5141]}, "edge": {"target": [], "time": []}}, "mouseover": {"state": {"target": ["32", "31", "30", "33"], "time": [1708, 3986, 5486, 5708]}, "edge": {"target": [], "time": []}}, "mouseout": {"state": {"target": ["33", "32", "23", "0", "32", "31", "30", "33"], "time": [138, 381, 541, 1430, 3500, 5451, 5562, 11965]}, "edge": {"target": [], "time": []}}}, "displayed_time": "15.30", "trialTime": 15984, "trial_type": "mouselab-mdp", "trial_index": 45, "time_elapsed": 1029705, "internal_node_id": "0.0-6.0-1.0-24.0"}}, {"uniqueid": "w73820164:a14811388", "current_trial": 46, "dateTime": 1693565685745, "trialdata": {"revealed_states": [], "clicked_states": ["31", "32"], "num_clicks_accrued": [0, 0, 0, 0, 0, 0, 0, 0, 0, 0, 0, 0, 0], "stateRewards": ["", -2, 2, -5, 1, 42, -63, -58, -6, 2, 16, 81, -2, 4, 7, -10, 33, 3, -33, -2, -52, -84, -27, 2, -3, -3, 15, -74, -14, -5, -5, -84, 79, -31], "withholdReward": false, "trial_id": "mdp_trial_26", "block": "test", "trialIndex": 31, "score": 65.7, "costs": -4.3, "simulationMode": [null, null, null, null, null], "rewards": [2, -3, -3, -5, 79], "path": ["0", "0", "23", "24", "25", "30", "32"], "rt": [6837, 489, 88, 328, 37], "actions": ["left", "left", "left", "down", "down"], "actionTimes": [7563, 8549, 9134, 9964, 10500], "queries": {"click": {"state": {"target": ["31", "32"], "time": [1194, 4328]}, "edge": {"target": [], "time": []}}, "mouseover": {"state": {"target": ["0", "31", "32", "30", "33"], "time": [844, 1058, 2684, 4712, 5031]}, "edge": {"target": [], "time": []}}, "mouseout": {"state": {"target": ["31", "0", "0", "31", "32", "30", "33", "32"], "time": [378, 517, 871, 1489, 4622, 4732, 9847, 14886]}, "edge": {"target": [], "time": []}}}, "displayed_time": "14.73", "trialTime": 15295, "trial_type": "mouselab-mdp", "trial_index": 46, "time_elapsed": 1045137, "internal_node_id": "0.0-6.0-1.0-25.0"}}, {"uniqueid": "w73820164:a14811388", "current_trial": 47, "dateTime": 1693565700963, "trialdata": {"revealed_states": [], "clicked_states": ["31"], "num_clicks_accrued": [0, 0, 0, 0, 0, 0, 0, 0, 0, 0, 0, 0, 0], "stateRewards": ["", -2, 3, -1, -9, 44, 48, -37, -3, 71, -39, 87, -1, 3, -4, 4, -21, 59, -15, -8, -1, 28, -38, 2, 4, 4, 8, -85, -72, -63, 14, 58, 63, -46], "withholdReward": false, "trial_id": "mdp_trial_27", "block": "test", "trialIndex": 32, "score": 79.85, "costs": -2.15, "simulationMode": [null, null, null, null, null], "rewards": [2, 4, 4, 14, 58], "path": ["0", "0", "23", "24", "25", "30", "31"], "rt": [3795, 344, 9, 51, 513], "actions": ["left", "left", "left", "down", "right"], "actionTimes": [4543, 5388, 5899, 6455, 7473], "queries": {"click": {"state": {"target": ["31"], "time": [1367]}, "edge": {"target": [], "time": []}}, "mouseover": {"state": {"target": ["32", "31", "32"], "time": [1139, 1292, 2958]}, "edge": {"target": [], "time": []}}, "mouseout": {"state": {"target": ["0", "32", "31", "32"], "time": [910, 1160, 1749, 12035]}, "edge": {"target": [], "time": []}}}, "displayed_time": "14.75", "trialTime": 15086, "trial_type": "mouselab-mdp", "trial_index": 47, "time_elapsed": 1060354, "internal_node_id": "0.0-6.0-1.0-26.0"}}, {"uniqueid": "w73820164:a14811388", "current_trial": 48, "dateTime": 1693565716669, "trialdata": {"revealed_states": [], "clicked_states": ["31", "32"], "num_clicks_accrued": [0, 0, 0, 0, 0, 0, 0, 0, 0, 0, 0, 0, 0], "stateRewards": ["", 2, 3, -6, -5, -3, 55, 40, 11, 61, 11, 51, 2, -4, -6, 9, -25, 29, -15, -6, 7, -77, -2, -2, -4, 1, 14, -43, -1, 56, -12, -54, 41, -74], "withholdReward": false, "trial_id": "mdp_trial_28", "block": "test", "trialIndex": 33, "score": 19.7, "costs": -4.3, "simulationMode": [null, null, null, null, null], "rewards": [-2, -4, 1, -12, 41], "path": ["0", "0", "23", "24", "25", "30", "32"], "rt": [6909, 427, 24, 2, 24], "actions": ["left", "left", "left", "down", "down"], "actionTimes": [7742, 8666, 9186, 9691, 10220], "queries": {"click": {"state": {"target": ["31", "32"], "time": [1308, 4482]}, "edge": {"target": [], "time": []}}, "mouseover": {"state": {"target": ["31", "32", "33", "33", "33"], "time": [1063, 4391, 4924, 5153, 6765]}, "edge": {"target": [], "time": []}}, "mouseout": {"state": {"target": ["0", "31", "32", "33", "33", "33"], "time": [980, 1632, 4862, 4952, 5924, 15161]}, "edge": {"target": [], "time": []}}}, "displayed_time": "14.83", "trialTime": 15564, "trial_type": "mouselab-mdp", "trial_index": 48, "time_elapsed": 1076061, "internal_node_id": "0.0-6.0-1.0-27.0"}}, {"uniqueid": "w73820164:a14811388", "current_trial": 49, "dateTime": 1693565734787, "trialdata": {"revealed_states": [], "clicked_states": ["31", "32", "33", "29"], "num_clicks_accrued": [0, 0, 0, 0, 0, 0, 0, 0, 0, 0, 0, 0, 0], "stateRewards": ["", 1, 2, -3, 6, -88, 74, -45, 7, -46, 40, -77, 1, -4, 4, 3, 22, -25, -59, 8, -83, 19, -60, -1, -1, -1, -8, 26, -29, 64, -7, -88, -51, -55], "withholdReward": false, "trial_id": "mdp_trial_29", "block": "test", "trialIndex": 34, "score": 44.4, "costs": -8.6, "simulationMode": [null, null, null, null, null], "rewards": [-1, -1, -1, -8, 64], "path": ["0", "0", "23", "24", "25", "26", "29"], "rt": [13284, 57, 44, 6, 109], "actions": ["left", "left", "left", "up", "left"], "actionTimes": [14530, 15086, 15629, 16139, 16749], "queries": {"click": {"state": {"target": ["31", "32", "33", "29"], "time": [1850, 4960, 8087, 11277]}, "edge": {"target": [], "time": []}}, "mouseover": {"state": {"target": ["31", "32", "33", "29", "27", "27"], "time": [1784, 3722, 6145, 10409, 11701, 12027]}, "edge": {"target": [], "time": []}}, "mouseout": {"state": {"target": ["0", "31", "32", "33", "29", "27", "27"], "time": [1451, 2645, 5270, 10173, 11409, 11715, 17594]}, "edge": {"target": [], "time": []}}}, "displayed_time": "17.25", "trialTime": 17986, "trial_type": "mouselab-mdp", "trial_index": 49, "time_elapsed": 1094179, "internal_node_id": "0.0-6.0-1.0-28.0"}}, {"uniqueid": "w73820164:a14811388", "current_trial": 50, "dateTime": 1693565750116, "trialdata": {"revealed_states": [], "clicked_states": ["31", "32"], "num_clicks_accrued": [0, 0, 0, 0, 0, 0, 0, 0, 0, 0, 0, 0, 0], "stateRewards": ["", 2, 3, 8, 11, 25, -80, 6, -4, -56, 84, -23, -2, -4, -3, 4, -51, -9, -61, -15, -64, 67, -35, 1, -1, -7, -6, 83, 59, -15, 12, -79, 56, 41], "withholdReward": false, "trial_id": "mdp_trial_30", "block": "test", "trialIndex": 35, "score": 56.7, "costs": -4.3, "simulationMode": [null, null, null, null, null], "rewards": [1, -1, -7, 12, 56], "path": ["0", "0", "23", "24", "25", "30", "32"], "rt": [7257, 464, 117, 292, 1008], "actions": ["left", "left", "left", "down", "down"], "actionTimes": [8031, 8995, 9614, 10406, 11914], "queries": {"click": {"state": {"target": ["31", "32"], "time": [1428, 4546]}, "edge": {"target": [], "time": []}}, "mouseover": {"state": {"target": ["23", "31", "32", "33"], "time": [1134, 1266, 1905, 5537]}, "edge": {"target": [], "time": []}}, "mouseout": {"state": {"target": ["26", "24", "23", "0", "23", "31", "32"], "time": [252, 474, 571, 1058, 1162, 1801, 5036]}, "edge": {"target": [], "time": []}}}, "displayed_time": "14.78", "trialTime": 15170, "trial_type": "mouselab-mdp", "trial_index": 50, "time_elapsed": 1109508, "internal_node_id": "0.0-6.0-1.0-29.0"}}, {"uniqueid": "w73820164:a14811388", "current_trial": 51, "dateTime": 1693565765305, "trialdata": {"revealed_states": [], "clicked_states": ["31", "32"], "num_clicks_accrued": [0, 0, 0, 0, 0, 0, 0, 0, 0, 0, 0, 0, 0], "stateRewards": ["", 1, 1, -7, -9, -44, 24, -83, -15, 44, -24, 72, -2, -3, 4, -5, 57, 55, 29, -11, 22, 12, -25, -1, 2, 7, 12, 33, -8, 47, -4, 8, 50, -4], "withholdReward": false, "trial_id": "mdp_trial_31", "block": "test", "trialIndex": 36, "score": 49.7, "costs": -4.3, "simulationMode": [null, null, null, null, null], "rewards": [-1, 2, 7, -4, 50], "path": ["0", "0", "23", "24", "25", "30", "32"], "rt": [7135, 48, 90, 35, 39], "actions": ["left", "left", "left", "down", "down"], "actionTimes": [7887, 8431, 9022, 9557, 10096], "queries": {"click": {"state": {"target": ["31", "32"], "time": [1245, 4472]}, "edge": {"target": [], "time": []}}, "mouseover": {"state": {"target": ["31", "32", "33"], "time": [1209, 2480, 5098]}, "edge": {"target": [], "time": []}}, "mouseout": {"state": {"target": ["33", "30", "31", "0", "31", "32", "33"], "time": [354, 410, 431, 945, 2230, 4848, 7640]}, "edge": {"target": [], "time": []}}}, "displayed_time": "14.75", "trialTime": 15038, "trial_type": "mouselab-mdp", "trial_index": 51, "time_elapsed": 1124697, "internal_node_id": "0.0-6.0-1.0-30.0"}}, {"uniqueid": "w73820164:a14811388", "current_trial": 52, "dateTime": 1693565780957, "trialdata": {"revealed_states": [], "clicked_states": ["31"], "num_clicks_accrued": [0, 0, 0, 0, 0, 0, 0, 0, 0, 0, 0, 0, 0], "stateRewards": ["", -1, -3, -5, -14, -13, -47, 79, 8, -60, -64, 41, -1, 2, 3, 13, -46, 61, -79, -11, -64, -65, 23, 1, -2, 6, -14, 46, 32, 21, 7, 75, -66, 15], "withholdReward": false, "trial_id": "mdp_trial_32", "block": "test", "trialIndex": 37, "score": 84.85, "costs": -2.15, "simulationMode": [null, null, null, null, null], "rewards": [1, -2, 6, 7, 75], "path": ["0", "0", "23", "24", "25", "30", "31"], "rt": [4002, 2, 123, 75, 113], "actions": ["left", "left", "left", "down", "right"], "actionTimes": [4744, 5248, 5875, 6452, 7067], "queries": {"click": {"state": {"target": ["31"], "time": [1244]}, "edge": {"target": [], "time": []}}, "mouseover": {"state": {"target": ["31", "32"], "time": [1057, 2939]}, "edge": {"target": [], "time": []}}, "mouseout": {"state": {"target": ["0", "31"], "time": [584, 1699]}, "edge": {"target": [], "time": []}}}, "displayed_time": "14.74", "trialTime": 15489, "trial_type": "mouselab-mdp", "trial_index": 52, "time_elapsed": 1140349, "internal_node_id": "0.0-6.0-1.0-31.0"}}, {"uniqueid": "w73820164:a14811388", "current_trial": 53, "dateTime": 1693565798376, "trialdata": {"revealed_states": [], "clicked_states": ["32"], "num_clicks_accrued": [0, 0, 0, 0, 0, 0, 0, 0, 0, 0, 0, 0, 0], "stateRewards": ["", 1, 1, -5, 8, -6, 45, 16, -6, -7, -22, -38, -1, -4, 8, -11, -16, 21, -45, -15, -59, -32, 42, -1, 3, 6, 11, -7, 34, -27, -8, 85, 43, -9], "withholdReward": false, "trial_id": "mdp_trial_33", "block": "test", "trialIndex": 38, "score": 40.85, "costs": -2.15, "simulationMode": [null, null, null, null, null], "rewards": [-1, 3, 6, -8, 43], "path": ["0", "0", "23", "24", "25", "30", "32"], "rt": [4024, 433, 7, 317, 30], "actions": ["left", "left", "left", "down", "down"], "actionTimes": [6592, 7523, 8028, 8858, 9391], "queries": {"click": {"state": {"target": ["32"], "time": [3277]}, "edge": {"target": [], "time": []}}, "mouseover": {"state": {"target": ["32", "31"], "time": [3151, 3748]}, "edge": {"target": [], "time": []}}, "mouseout": {"state": {"target": ["32", "0", "0", "0", "32"], "time": [845, 1012, 1373, 2756, 3512]}, "edge": {"target": [], "time": []}}}, "displayed_time": "16.57", "trialTime": 17245, "trial_type": "mouselab-mdp", "trial_index": 53, "time_elapsed": 1157768, "internal_node_id": "0.0-6.0-1.0-32.0"}}, {"uniqueid": "w73820164:a14811388", "current_trial": 54, "dateTime": 1693565814056, "trialdata": {"revealed_states": [], "clicked_states": ["31"], "num_clicks_accrued": [0, 0, 0, 0, 0, 0, 0, 0, 0, 0, 0, 0, 0], "stateRewards": ["", 2, 3, -3, 12, -43, 81, -82, -15, 58, -7, -75, -1, -1, 3, -5, 50, -25, -8, 4, 66, 65, -66, 2, -4, 2, -1, -10, 10, 37, 11, 88, -37, 8], "withholdReward": false, "trial_id": "mdp_trial_34", "block": "test", "trialIndex": 39, "score": 96.85, "costs": -2.15, "simulationMode": [null, null, null, null, null], "rewards": [2, -4, 2, 11, 88], "path": ["0", "0", "23", "24", "25", "30", "31"], "rt": [3934, 11, 44, 66, 204], "actions": ["left", "left", "left", "down", "right"], "actionTimes": [4719, 5231, 5791, 6353, 7054], "queries": {"click": {"state": {"target": ["31"], "time": [1388]}, "edge": {"target": [], "time": []}}, "mouseover": {"state": {"target": ["0", "31", "32"], "time": [912, 1287, 3022]}, "edge": {"target": [], "time": []}}, "mouseout": {"state": {"target": ["31", "0", "0", "31", "32", "32"], "time": [300, 619, 939, 1675, 13370, 14884]}, "edge": {"target": [], "time": []}}}, "displayed_time": "14.79", "trialTime": 15511, "trial_type": "mouselab-mdp", "trial_index": 54, "time_elapsed": 1173447, "internal_node_id": "0.0-6.0-1.0-33.0"}}, {"uniqueid": "w73820164:a14811388", "current_trial": 55, "dateTime": 1693565829873, "trialdata": {"revealed_states": [], "clicked_states": ["32", "31"], "num_clicks_accrued": [0, 0, 0, 0, 0, 0, 0, 0, 0, 0, 0, 0, 0], "stateRewards": ["", 1, -2, -2, 10, -31, -77, 35, 9, -47, 8, 48, -2, 1, -4, -3, -26, -50, 43, -11, 76, -38, 17, 1, -1, 6, 10, 15, -9, 12, -8, 85, 11, -55], "withholdReward": false, "trial_id": "mdp_trial_35", "block": "test", "trialIndex": 40, "score": 78.7, "costs": -4.3, "simulationMode": [null, null, null, null, null], "rewards": [1, -1, 6, -8, 85], "path": ["0", "0", "23", "24", "25", "30", "31"], "rt": [7522, 33, 55, 46, 21], "actions": ["left", "left", "left", "down", "right"], "actionTimes": [8555, 9092, 9678, 10221, 10740], "queries": {"click": {"state": {"target": ["32", "31"], "time": [1607, 5132]}, "edge": {"target": [], "time": []}}, "mouseover": {"state": {"target": ["32", "31", "33", "30"], "time": [1542, 5049, 6424, 8327]}, "edge": {"target": [], "time": []}}, "mouseout": {"state": {"target": ["0", "32", "31", "33", "30"], "time": [1125, 1627, 5508, 8299, 8362]}, "edge": {"target": [], "time": []}}}, "displayed_time": "15.04", "trialTime": 15632, "trial_type": "mouselab-mdp", "trial_index": 55, "time_elapsed": 1189264, "internal_node_id": "0.0-6.0-1.0-34.0"}}, {"uniqueid": "w73820164:a14811388", "current_trial": 56, "dateTime": 1693565846458, "trialdata": {"revealed_states": [], "clicked_states": ["31", "32"], "num_clicks_accrued": [0, 0, 0, 0, 0, 0, 0, 0, 0, 0, 0, 0, 0], "stateRewards": ["", -2, 4, -3, -13, 63, -36, 62, 11, 78, 34, -51, 2, -2, 8, -6, -40, -18, 31, 9, 64, 39, 79, 1, 4, -4, 15, -12, 76, 73, -10, -77, 86, -4], "withholdReward": false, "trial_id": "mdp_trial_36", "block": "test", "trialIndex": 41, "score": 72.7, "costs": -4.3, "simulationMode": [null, null, null, null, null], "rewards": [1, 4, -4, -10, 86], "path": ["0", "0", "23", "24", "25", "30", "32"], "rt": [7061, 315, 19, 37, 498], "actions": ["left", "left", "left", "down", "down"], "actionTimes": [9179, 9992, 10509, 11056, 12051], "queries": {"click": {"state": {"target": ["31", "32"], "time": [2678, 5832]}, "edge": {"target": [], "time": []}}, "mouseover": {"state": {"target": ["31", "32", "33", "33"], "time": [2627, 3053, 6544, 6836]}, "edge": {"target": [], "time": []}}, "mouseout": {"state": {"target": ["31", "0", "0", "31", "32", "33"], "time": [571, 1453, 2273, 2961, 6447, 6572]}, "edge": {"target": [], "time": []}}}, "displayed_time": "16.12", "trialTime": 16407, "trial_type": "mouselab-mdp", "trial_index": 56, "time_elapsed": 1205850, "internal_node_id": "0.0-6.0-1.0-35.0"}}, {"uniqueid": "w73820164:a14811388", "current_trial": 57, "dateTime": 1693565862016, "trialdata": {"revealed_states": [], "clicked_states": ["31", "32"], "num_clicks_accrued": [0, 0, 0, 0, 0, 0, 0, 0, 0, 0, 0, 0, 0], "stateRewards": ["", -2, -3, 7, -13, 60, 9, 37, -6, 37, 20, 1, 2, -2, -8, 6, -80, -31, -10, -7, 70, -65, -44, -1, 1, 7, 6, -11, 73, -85, 16, -21, 47, 34], "withholdReward": false, "trial_id": "mdp_trial_37", "block": "test", "trialIndex": 42, "score": 65.7, "costs": -4.3, "simulationMode": [null, null, null, null, null], "rewards": [-1, 1, 7, 16, 47], "path": ["0", "0", "23", "24", "25", "30", "32"], "rt": [7107, 461, 43, 350, 91], "actions": ["left", "left", "left", "down", "down"], "actionTimes": [7880, 8838, 9377, 10233, 10829], "queries": {"click": {"state": {"target": ["31", "32"], "time": [1388, 4468]}, "edge": {"target": [], "time": []}}, "mouseover": {"state": {"target": ["0", "31", "32", "33"], "time": [952, 1306, 3591, 5028]}, "edge": {"target": [], "time": []}}, "mouseout": {"state": {"target": ["33", "31", "0", "0", "31", "32", "33"], "time": [251, 376, 646, 994, 1765, 4938, 7625]}, "edge": {"target": [], "time": []}}}, "displayed_time": "14.77", "trialTime": 15393, "trial_type": "mouselab-mdp", "trial_index": 57, "time_elapsed": 1221408, "internal_node_id": "0.0-6.0-1.0-36.0"}}, {"uniqueid": "w73820164:a14811388", "current_trial": 58, "dateTime": 1693565883377, "trialdata": {"revealed_states": [], "clicked_states": ["31", "32", "33", "29", "27"], "num_clicks_accrued": [0, 0, 0, 0, 0, 0, 0, 0, 0, 0, 0, 0, 0], "stateRewards": ["", -1, 1, 6, -6, 70, 66, 67, -16, -75, -35, 37, -1, 4, 4, -6, 47, -9, 63, 15, 21, -63, 13, 1, 3, -6, 10, 79, -29, 18, -15, 9, -67, -19], "withholdReward": false, "trial_id": "mdp_trial_38", "block": "test", "trialIndex": 43, "score": 76.25, "costs": -10.75, "simulationMode": [null, null, null, null, null], "rewards": [1, 3, -6, 10, 79], "path": ["0", "0", "23", "24", "25", "26", "27"], "rt": [16738, 259, 40, 75, 3], "actions": ["left", "left", "left", "up", "up"], "actionTimes": [17448, 18207, 18745, 19321, 19825], "queries": {"click": {"state": {"target": ["31", "32", "33", "29", "27"], "time": [1240, 4471, 7678, 10817, 14217]}, "edge": {"target": [], "time": []}}, "mouseover": {"state": {"target": ["0", "31", "32", "33", "29", "29", "27", "28"], "time": [815, 1176, 1967, 6259, 8474, 9426, 12940, 14572]}, "edge": {"target": [], "time": []}}, "mouseout": {"state": {"target": ["0", "0", "31", "32", "33", "29", "29", "27", "28", "24"], "time": [545, 835, 1569, 4835, 8308, 8822, 12731, 14509, 20600, 20662]}, "edge": {"target": [], "time": []}}}, "displayed_time": "20.34", "trialTime": 21207, "trial_type": "mouselab-mdp", "trial_index": 58, "time_elapsed": 1242768, "internal_node_id": "0.0-6.0-1.0-37.0"}}, {"uniqueid": "w73820164:a14811388", "current_trial": 59, "dateTime": 1693565899212, "trialdata": {"revealed_states": [], "clicked_states": ["31"], "num_clicks_accrued": [0, 0, 0, 0, 0, 0, 0, 0, 0, 0, 0, 0, 0], "stateRewards": ["", -2, 2, 3, -7, 76, 63, 21, 15, 35, -8, -44, 1, 1, -2, -12, 23, 24, 76, -9, 46, 66, -49, -2, -1, 7, 12, 40, -71, -45, -6, 38, -49, 46], "withholdReward": false, "trial_id": "mdp_trial_39", "block": "test", "trialIndex": 44, "score": 33.85, "costs": -2.15, "simulationMode": [null, null, null, null, null], "rewards": [-2, -1, 7, -6, 38], "path": ["0", "0", "23", "24", "25", "30", "31"], "rt": [5142, 25, 89, 33, 3], "actions": ["left", "left", "left", "down", "right"], "actionTimes": [5861, 6385, 6976, 7511, 8022], "queries": {"click": {"state": {"target": ["31"], "time": [1601]}, "edge": {"target": [], "time": []}}, "mouseover": {"state": {"target": ["0", "23", "31", "31", "32", "32"], "time": [799, 866, 921, 1338, 3504, 4754]}, "edge": {"target": [], "time": []}}, "mouseout": {"state": {"target": ["31", "0", "0", "23", "31", "31", "32", "32"], "time": [372, 726, 831, 879, 1116, 3331, 4628, 8873]}, "edge": {"target": [], "time": []}}}, "displayed_time": "14.72", "trialTime": 15669, "trial_type": "mouselab-mdp", "trial_index": 59, "time_elapsed": 1258603, "internal_node_id": "0.0-6.0-1.0-38.0"}}, {"uniqueid": "w73820164:a14811388", "current_trial": 60, "dateTime": 1693565914634, "trialdata": {"revealed_states": [], "clicked_states": ["31", "32"], "num_clicks_accrued": [0, 0, 0, 0, 0, 0, 0, 0, 0, 0, 0, 0, 0], "stateRewards": ["", 2, -2, -3, 10, -4, -1, -11, -8, -9, -36, -78, 2, 1, 7, -7, 44, -1, -31, -1, 26, 47, 83, 2, -4, -4, -6, -52, -76, -81, -1, -59, 45, 67], "withholdReward": false, "trial_id": "mdp_trial_40", "block": "test", "trialIndex": 45, "score": 33.7, "costs": -4.3, "simulationMode": [null, null, null, null, null], "rewards": [2, -4, -4, -1, 45], "path": ["0", "0", "23", "24", "25", "30", "32"], "rt": [6943, 358, 19, 353, 113], "actions": ["left", "left", "left", "down", "down"], "actionTimes": [7595, 8454, 8976, 9838, 10452], "queries": {"click": {"state": {"target": ["31", "32"], "time": [1130, 4304]}, "edge": {"target": [], "time": []}}, "mouseover": {"state": {"target": ["31", "32", "33", "33"], "time": [1025, 1941, 4886, 5699]}, "edge": {"target": [], "time": []}}, "mouseout": {"state": {"target": ["31", "0", "31", "32", "33"], "time": [351, 886, 1525, 4657, 5240]}, "edge": {"target": [], "time": []}}}, "displayed_time": "14.65", "trialTime": 15243, "trial_type": "mouselab-mdp", "trial_index": 60, "time_elapsed": 1274025, "internal_node_id": "0.0-6.0-1.0-39.0"}}, {"uniqueid": "w73820164:a14811388", "current_trial": 61, "dateTime": 1693565986027, "trialdata": {"rt": 71391, "response": {"Q0": "$-2 to $2", "Q1": "$-16 to $16", "Q2": "$-88 to $88", "Q3": "The cost was always $1.4.", "Q4": "Very motivated"}, "question_order": [0, 1, 2, 3, 4], "trial_id": "final_quiz_control", "trial_type": "survey-multi-choice", "trial_index": 61, "time_elapsed": 1345418, "internal_node_id": "0.0-6.0-2.0"}}, {"uniqueid": "w73820164:a14811388", "current_trial": 62, "dateTime": 1693566269621, "trialdata": {"rt": 283589, "response": {"Q0": "At first I didn't really have much of a strategy but I quickly noticed something (written in improved strategy below) ", "Q1": "I noticed early on that i had revealed all the earlier webs but got a massive negative value, which suggested to me that the outer webs had the highest potential value so i simply revealed the outer web values until i got a high enough value to counter the values on the way to it. this was reinforced by the working consistency of my new found strategy", "Q2": "Not at all it went quite smoothly once my strategy came into play"}, "trial_id": "self_report_control", "trial_type": "survey-text", "trial_index": 62, "time_elapsed": 1629013, "internal_node_id": "0.0-6.0-3.0"}}, {"uniqueid": "w73820164:a14811388", "current_trial": 63, "dateTime": 1693566366000, "trialdata": {"rt": 96377, "response": {"Q0": "Strongly disagree", "Q1": "Neither disagree nor agree", "Q2": "Neither disagree nor agree", "Q3": "Strongly agree", "Q4": "Neither disagree nor agree", "Q5": "Strongly agree", "Q6": "Strongly disagree"}, "question_order": [0, 1, 2, 3, 4, 5, 6], "trial_id": "self_report_2", "trial_type": "survey-multi-choice", "trial_index": 63, "time_elapsed": 1725392, "internal_node_id": "0.0-6.0-4.0"}}, {"uniqueid": "w73820164:a14811388", "current_trial": 64, "dateTime": 1693566391330, "trialdata": {"rt": 25327, "response": {"gender": "male", "age": "25", "colorblind": "0", "effort": "0"}, "trial_type": "survey-html-form", "trial_index": 64, "time_elapsed": 1750722, "internal_node_id": "0.0-6.0-5.0"}}, {"uniqueid": "w73820164:a14811388", "current_trial": 65, "dateTime": 1693566423797, "trialdata": {"rt": 32464, "response": {"Q0": "No ", "Q1": "No", "Q2": "None"}, "trial_type": "survey-text", "trial_index": 65, "time_elapsed": 1783189, "internal_node_id": "0.0-6.0-6.0"}}, {"uniqueid": "w73820164:a14811388", "current_trial": 66, "dateTime": 1693566448503, "trialdata": {"rt": 24703, "stimulus": "<h1>Completion Code Instructions (1/2)</h1>\n<br><br><br><br>\nYou have reached the end of the experiment! The completion code consists of two parts: (1) a code with 2 characters (2) a code with 6 characters. On this page, you will receive the second part of the code. The first part of the completion code will be on the next page.\n<br><br>\nThe second part of your completion code is: <b>EWEK22</b>\n<br><br>\nPlease note this down. Then, press 'Finish HIT' in order to find the first part of your completion code. Once the data has been saved, you will receive this code either in this window or in the original browser window where you started the experiment.\n", "response": 0, "trial_type": "html-button-response", "trial_index": 66, "time_elapsed": 1807895, "internal_node_id": "0.0-6.0-7.0"}}, {"uniqueid": "w73820164:a14811388", "current_trial": 67, "dateTime": 1693566449505, "trialdata": {"success": true, "trial_type": "fullscreen", "trial_index": 67, "time_elapsed": 1808897, "internal_node_id": "0.0-7.0"}}], "questiondata": {"params": {"CODE": "C6DMOQA6", "MIN_TIME": 14, "inspectCost": 1, "startTime": "Fri Sep 01 2023 11:37:19 GMT+0100 (British Summer Time)", "bonusRate": 0.002, "variance": "1_2_4_8_44", "branching": "31123"}, "final_score": 2274.25}, "eventdata": [{"eventtype": "initialized", "value": null, "timestamp": 1693564639527, "interval": 0}, {"eventtype": "window_resize", "value": [1024, 767], "timestamp": 1693564639527, "interval": 0}, {"eventtype": "window_resize", "value": [1024, 767], "timestamp": 1693564639849, "interval": 322}, {"eventtype": "window_resize", "value": [2560, 1342], "timestamp": 1693564642948, "interval": 3099}, {"eventtype": "focus", "value": "off", "timestamp": 1693564646437, "interval": 3489}, {"eventtype": "focus", "value": "on", "timestamp": 1693564659596, "interval": 13159}, {"eventtype": "window_resize", "value": [2560, 1440], "timestamp": 1693564662187, "interval": 2591}, {"eventtype": "focus", "value": "off", "timestamp": 1693564983229, "interval": 321042}, {"eventtype": "focus", "value": "on", "timestamp": 1693564983229, "interval": 0}, {"eventtype": "window_resize", "value": [2560, 1342], "timestamp": 1693564983431, "interval": 202}, {"eventtype": "window_resize", "value": [2560, 1440], "timestamp": 1693564985896, "interval": 2465}, {"eventtype": "focus", "value": "off", "timestamp": 1693565120635, "interval": 134739}, {"eventtype": "focus", "value": "on", "timestamp": 1693565120635, "interval": 0}, {"eventtype": "window_resize", "value": [2560, 1342], "timestamp": 1693565120838, "interval": 203}, {"eventtype": "window_resize", "value": [2560, 1440], "timestamp": 1693565121930, "interval": 1092}, {"eventtype": "window_resize", "value": [2560, 1342], "timestamp": 1693566448727, "interval": 1326797}], "useragent": "Mozilla/5.0 (Windows NT 10.0; Win64; x64) AppleWebKit/537.36 (KHTML, like Gecko) Chrome/116.0.0.0 Safari/537.36", "mode": "live", "id": "w73820164:a14811388", "status": "user data saved", "Beginhit": "2023-09-01 10:37:20.804576", "Beginexp": "2023-09-01 10:37:45.405712", "Endhit": "2023-09-01 11:07:32.37787", "psiturkStatus": 3, "browser": "<redacted>", "platform": "windows", "language": "en-GB"}