{"condition": 0, "counterbalance": 0, "assignmentId": "a43638278", "workerId": "w64871990", "hitId": "h94559887", "currenttrial": 55, "bonus": 0, "data": [{"uniqueid": "w64871990:a43638278", "current_trial": 0, "dateTime": 1691142596896, "trialdata": {"success": true, "trial_type": "fullscreen", "trial_index": 0, "time_elapsed": 8997, "internal_node_id": "0.0-0.0"}}, {"uniqueid": "w64871990:a43638278", "current_trial": 1, "dateTime": 1691142633085, "trialdata": {"view_history": [{"page_index": 0, "viewing_time": 36178}], "rt": 36178, "trial_id": "exp_instructions_control", "trial_type": "instructions", "trial_index": 1, "time_elapsed": 45187, "internal_node_id": "0.0-1.0"}}, {"uniqueid": "w64871990:a43638278", "current_trial": 2, "dateTime": 1691142641366, "trialdata": {"success": true, "trial_type": "fullscreen", "trial_index": 2, "time_elapsed": 53468, "internal_node_id": "0.0-2.0-0.0"}}, {"uniqueid": "w64871990:a43638278", "current_trial": 3, "dateTime": 1691143047141, "trialdata": {"view_history": [{"page_index": 0, "viewing_time": 120171}, {"page_index": 1, "viewing_time": 121208}, {"page_index": 2, "viewing_time": 88792}, {"page_index": 3, "viewing_time": 75600}], "rt": 405771, "trial_id": "mouselab_instructions_1_control", "trial_type": "instructions", "trial_index": 3, "time_elapsed": 459242, "internal_node_id": "0.0-2.0-1.0"}}, {"uniqueid": "w64871990:a43638278", "current_trial": 4, "dateTime": 1691143120055, "trialdata": {"revealed_states": [], "clicked_states": ["25", "14", "3", "21", "12", "15", "32", "5", "23", "24", "26", "27", "1", "2", "8", "10", "13", "19"], "num_clicks_accrued": [0, 0, 0, 0, 0, 0, 0, 0, 0, 0, 0, 0, 0], "stateRewards": ["", -10, -10, -10, -10, -10, -10, -10, 10, -10, -10, -10, 10, 10, -10, -10, 10, 10, 10, 10, -10, 10, -10, 10, 10, -10, 10, 10, -10, -10, 10, -10, 10, -10], "withholdReward": false, "trial_id": "practice_1", "block": "test", "trialIndex": 0, "score": 24.5, "costs": -9, "simulationMode": [null, null, null, null, null], "rewards": [10, 10, -10, 10, 10], "path": ["0", "0", "12", "13", "14", "19", "21"], "rt": [54802, 664, 591, 1080, 432], "actions": ["right", "right", "right", "down", "down"], "actionTimes": [56505, 57686, 58799, 60401, 61354], "queries": {"click": {"state": {"target": ["25", "14", "3", "21", "12", "15", "32", "5", "23", "24", "26", "27", "1", "2", "8", "10", "13", "19"], "time": [3685, 5377, 6654, 8232, 13325, 14926, 16341, 17667, 24491, 25542, 29586, 30976, 35165, 36323, 40004, 41782, 47247, 49078]}, "edge": {"target": [], "time": []}}, "mouseover": {"state": {"target": ["23", "24", "25", "25", "24", "23", "12", "13", "14", "18", "3", "2", "1", "0", "21", "32", "20", "19", "12", "0", "15", "18", "1", "28", "26", "26", "25", "30", "32", "1", "5", "4", "18", "13", "19", "21", "12", "24", "25", "24", "23", "24", "25", "26", "27", "31", "24", "28", "2", "2", "1", "2", "3", "8", "10", "18", "21", "22", "13", "12", "12", "13", "14", "19", "21", "32"], "time": [2775, 2919, 3020, 3370, 4533, 4567, 4667, 4883, 5053, 5916, 6315, 7183, 7267, 7433, 7935, 9737, 11312, 12187, 13003, 14047, 14608, 15230, 15299, 15331, 15364, 15647, 15848, 15898, 16029, 16831, 17370, 18081, 18131, 18150, 18181, 18464, 23034, 23580, 23614, 23851, 24053, 25029, 26179, 28951, 30427, 32836, 33629, 33862, 33942, 34359, 34559, 35709, 37715, 39562, 41176, 43733, 44164, 44958, 45055, 45375, 46096, 46839, 47706, 48522, 49439, 54110]}, "edge": {"target": [], "time": []}}, "mouseout": {"state": {"target": ["0", "23", "24", "25", "25", "24", "23", "12", "13", "14", "18", "3", "3", "2", "1", "0", "21", "21", "32", "21", "20", "19", "12", "0", "15", "18", "1", "28", "26", "26", "25", "30", "32", "1", "5", "4", "18", "13", "19", "21", "12", "24", "25", "24", "23", "24", "25", "26", "27", "26", "31", "24", "28", "2", "2", "1", "2", "2", "3", "8", "10", "18", "21", "22", "13", "12", "12", "13", "13", "14", "19", "21"], "time": [2669, 2869, 2970, 3102, 4517, 4550, 4583, 4701, 4987, 5866, 5932, 6781, 7133, 7233, 7333, 7533, 8365, 8766, 10839, 10955, 11334, 12255, 13948, 14099, 15214, 15264, 15315, 15348, 15381, 15798, 15864, 15948, 16764, 16848, 18047, 18098, 18148, 18165, 18214, 19631, 23535, 23596, 23667, 23947, 24928, 26079, 28800, 30111, 32328, 32461, 33079, 33676, 33893, 33975, 34509, 35626, 36959, 37259, 39345, 41075, 43414, 43774, 44864, 44989, 45072, 45442, 46639, 47363, 47606, 48472, 49373, 51580]}, "edge": {"target": [], "time": []}}}, "displayed_time": "61.87", "trialTime": 71800, "trial_type": "mouselab-mdp", "trial_index": 4, "time_elapsed": 532156, "internal_node_id": "0.0-2.0-2.0-0.0"}}, {"uniqueid": "w64871990:a43638278", "current_trial": 5, "dateTime": 1691143138524, "trialdata": {"revealed_states": [], "clicked_states": [], "num_clicks_accrued": [0, 0, 0, 0, 0, 0, 0, 0, 0, 0, 0, 0, 0], "stateRewards": ["", -10, -10, 10, 10, -10, 10, 10, -10, 10, 10, -10, 10, -10, 10, 10, -10, 10, 10, 10, -10, 10, -10, 10, 10, -10, 10, -10, 10, -10, 10, -10, -10, 10], "withholdReward": false, "trial_id": "practice_2", "block": "test", "trialIndex": 1, "score": 13.5, "costs": 0, "simulationMode": [null, null, null, null, null], "rewards": [10, 10, -10, 10, -10], "path": ["0", "0", "23", "24", "25", "26", "27"], "rt": [1496, 1364, 746, 979, 530], "actions": ["left", "left", "left", "up", "up"], "actionTimes": [4589, 6471, 7735, 9238, 10288], "queries": {"click": {"state": {"target": [], "time": []}, "edge": {"target": [], "time": []}}, "mouseover": {"state": {"target": [], "time": []}, "edge": {"target": [], "time": []}}, "mouseout": {"state": {"target": ["32", "31", "0", "0"], "time": [1975, 2171, 2790, 13750]}, "edge": {"target": [], "time": []}}}, "displayed_time": "10.81", "trialTime": 18210, "trial_type": "mouselab-mdp", "trial_index": 5, "time_elapsed": 550625, "internal_node_id": "0.0-2.0-2.0-1.0"}}, {"uniqueid": "w64871990:a43638278", "current_trial": 6, "dateTime": 1691143238101, "trialdata": {"view_history": [{"page_index": 0, "viewing_time": 77359}, {"page_index": 1, "viewing_time": 22216}], "rt": 99575, "trial_id": "mouselab_instructions_2_control", "trial_type": "instructions", "trial_index": 6, "time_elapsed": 650203, "internal_node_id": "0.0-2.0-3.0"}}, {"uniqueid": "w64871990:a43638278", "current_trial": 7, "dateTime": 1691143300110, "trialdata": {"rt": 62004, "response": {"Q0": "The cost for clicking on nodes may vary between nodes.", "Q1": "The better I perform the higher my bonus will be.", "Q2": "No, the amount of cash at each node of the web may be different each time.", "Q3": "To get the highest total score.", "Q4": "Only before moving the spider.", "Q5": "3 seconds"}, "question_order": [0, 1, 2, 3, 4, 5], "correct": {"Q0": "The cost for clicking on nodes may vary between nodes.", "Q1": "The better I perform the higher my bonus will be.", "Q2": "No, the amount of cash at each node of the web may be different each time.", "Q3": "To get the highest total score.", "Q4": "Only before moving the spider.", "Q5": "3 seconds"}, "trial_id": "mouselab_quiz_control", "trial_type": "survey-multi-choice", "trial_index": 7, "time_elapsed": 712212, "internal_node_id": "0.0-2.0-4.0"}}, {"uniqueid": "w64871990:a43638278", "current_trial": 8, "dateTime": 1691143329459, "trialdata": {"rt": 29338, "stimulus": "\n<h1> Get ready to start the game! </h1>\n\nThank you for reading the instructions. Get ready start with the 40 rounds of this game.\n<br><br>\nIf you need to take a break, feel free to take one after the end of a round, before continuing to the next one.\n<br><br>\nRemember, the more money the spider gets, the bigger your bonus will be!\n<br><br>\n<div style='text-align: center;'>Press <code>space</code> to begin.</div>\n\n<br><br>\n(If, at any point, the <code>space</code> key does not take you to the next page, click once on the text and try again.)", "response": " ", "trial_id": "mdp_ready", "trial_type": "html-keyboard-response", "trial_index": 8, "time_elapsed": 741560, "internal_node_id": "0.0-4.0-0.0"}}, {"uniqueid": "w64871990:a43638278", "current_trial": 9, "dateTime": 1691143353568, "trialdata": {"revealed_states": [], "clicked_states": ["3"], "num_clicks_accrued": [0, 0, 0, 0, 0, 0, 0, 0, 0, 0, 0, 0, 0], "stateRewards": ["", 2, -3, -8, 14, -7, -51, 73, 2, 36, 36, -43, -1, 3, -4, 1, 6, 87, -65, 15, 61, -42, -83, -1, 3, -2, -7, 30, -48, 35, 13, 26, 60, 78], "withholdReward": false, "trial_id": "mdp_trial_1", "block": "test", "trialIndex": 2, "score": 3.6, "costs": -1.4, "simulationMode": [null, null, null, null, null], "rewards": [-1, 3, -4, 1, 6], "path": ["0", "0", "12", "13", "14", "15", "16"], "rt": [5631, 1118, 827, 1188, 637], "actions": ["right", "right", "right", "up", "up"], "actionTimes": [8522, 10153, 11496, 13204, 14354], "queries": {"click": {"state": {"target": ["3"], "time": [4945]}, "edge": {"target": [], "time": []}}, "mouseover": {"state": {"target": ["23", "1", "2", "3", "3", "7", "12"], "time": [3982, 4132, 4166, 4249, 4572, 5349, 5699]}, "edge": {"target": [], "time": []}}, "mouseout": {"state": {"target": ["22", "0", "23", "1", "2", "3", "3", "7", "12"], "time": [971, 3830, 4066, 4149, 4215, 4266, 5252, 5398, 5749]}, "edge": {"target": [], "time": []}}}, "displayed_time": "16.89", "trialTime": 23816, "trial_type": "mouselab-mdp", "trial_index": 9, "time_elapsed": 765669, "internal_node_id": "0.0-4.0-1.0-0.0"}}, {"uniqueid": "w64871990:a43638278", "current_trial": 10, "dateTime": 1691143380286, "trialdata": {"revealed_states": [], "clicked_states": ["2", "30"], "num_clicks_accrued": [0, 0, 0, 0, 0, 0, 0, 0, 0, 0, 0, 0, 0], "stateRewards": ["", 2, -2, -3, 10, -4, -1, -11, -8, -9, -36, -78, 2, 1, 7, -7, 44, -1, -31, -1, 26, 47, 83, 2, -4, -4, -6, -52, -76, -81, -1, -59, 45, 67], "withholdReward": false, "trial_id": "mdp_trial_2", "block": "test", "trialIndex": 3, "score": -91.8, "costs": -2.8, "simulationMode": [null, null, null, null, null], "rewards": [2, -2, -3, -8, -78], "path": ["0", "0", "1", "2", "3", "8", "11"], "rt": [8201, 1162, 1559, 1510, 667], "actions": ["up", "up", "up", "left", "left"], "actionTimes": [10969, 12644, 14727, 16754, 17933], "queries": {"click": {"state": {"target": ["2", "30"], "time": [4762, 7839]}, "edge": {"target": [], "time": []}}, "mouseover": {"state": {"target": ["0", "0", "2", "0", "23", "30"], "time": [3619, 3970, 4433, 6933, 7214, 7535]}, "edge": {"target": [], "time": []}}, "mouseout": {"state": {"target": ["20", "14", "13", "12", "0", "0", "0", "2", "0", "23", "30"], "time": [1552, 1668, 1741, 1798, 2249, 3799, 4032, 5547, 7186, 7231, 8296]}, "edge": {"target": [], "time": []}}}, "displayed_time": "18.45", "trialTime": 26439, "trial_type": "mouselab-mdp", "trial_index": 10, "time_elapsed": 792387, "internal_node_id": "0.0-4.0-1.0-1.0"}}, {"uniqueid": "w64871990:a43638278", "current_trial": 11, "dateTime": 1691143401534, "trialdata": {"revealed_states": [], "clicked_states": [], "num_clicks_accrued": [0, 0, 0, 0, 0, 0, 0, 0, 0, 0, 0, 0, 0], "stateRewards": ["", 2, 4, -6, -13, -75, -81, 30, 7, 5, 59, -65, -1, -1, 7, 14, -38, 36, -41, 1, -54, -5, 64, 2, -1, 5, 6, -19, 79, 11, 16, -33, -50, 58], "withholdReward": false, "trial_id": "mdp_trial_3", "block": "test", "trialIndex": 4, "score": -58, "costs": 0, "simulationMode": [null, null, null, null, null], "rewards": [2, 4, -6, 7, -65], "path": ["0", "0", "1", "2", "3", "8", "11"], "rt": [3990, 974, 775, 1043, 606], "actions": ["up", "up", "up", "left", "left"], "actionTimes": [6775, 8260, 9544, 11096, 12240], "queries": {"click": {"state": {"target": [], "time": []}, "edge": {"target": [], "time": []}}, "mouseover": {"state": {"target": ["23", "0"], "time": [3587, 4189]}, "edge": {"target": [], "time": []}}, "mouseout": {"state": {"target": ["14", "18", "12", "0", "0", "23", "0"], "time": [1239, 1456, 1741, 2069, 3511, 3635, 5342]}, "edge": {"target": [], "time": []}}}, "displayed_time": "16.79", "trialTime": 20950, "trial_type": "mouselab-mdp", "trial_index": 11, "time_elapsed": 813635, "internal_node_id": "0.0-4.0-1.0-2.0"}}, {"uniqueid": "w64871990:a43638278", "current_trial": 12, "dateTime": 1691143427235, "trialdata": {"revealed_states": [], "clicked_states": [], "num_clicks_accrued": [0, 0, 0, 0, 0, 0, 0, 0, 0, 0, 0, 0, 0], "stateRewards": ["", -1, 4, -3, 3, 57, -61, 5, -11, 23, -1, 34, -2, -4, -1, -13, 27, 38, -36, 4, -45, 21, 88, 1, -2, -1, 1, -69, -5, -78, -12, -9, 38, -54], "withholdReward": false, "trial_id": "mdp_trial_4", "block": "test", "trialIndex": 5, "score": 18, "costs": 0, "simulationMode": [null, null, null, null, null], "rewards": [-2, -4, -1, 4, 21], "path": ["0", "0", "12", "13", "14", "19", "21"], "rt": [14096, 1430, 742, 821, 621], "actions": ["right", "right", "right", "down", "down"], "actionTimes": [16312, 18258, 19519, 20848, 21964], "queries": {"click": {"state": {"target": [], "time": []}, "edge": {"target": [], "time": []}}, "mouseover": {"state": {"target": ["0", "2", "31", "24", "24", "2", "3", "2", "1", "0", "7", "4", "18", "13"], "time": [2419, 5214, 5497, 5764, 6186, 6536, 6729, 7396, 7635, 8115, 14515, 14578, 14844, 15049]}, "edge": {"target": [], "time": []}}, "mouseout": {"state": {"target": ["21", "22", "12", "0", "2", "31", "24", "24", "2", "3", "2", "1", "0", "7", "4", "18", "13"], "time": [1034, 1099, 1336, 2551, 5383, 5671, 5815, 6231, 6596, 7352, 7552, 7872, 8164, 14528, 14730, 14879, 24614]}, "edge": {"target": [], "time": []}}}, "displayed_time": "22.48", "trialTime": 25382, "trial_type": "mouselab-mdp", "trial_index": 12, "time_elapsed": 839334, "internal_node_id": "0.0-4.0-1.0-3.0"}}, {"uniqueid": "w64871990:a43638278", "current_trial": 13, "dateTime": 1691143451926, "trialdata": {"revealed_states": [], "clicked_states": ["3"], "num_clicks_accrued": [0, 0, 0, 0, 0, 0, 0, 0, 0, 0, 0, 0, 0], "stateRewards": ["", 1, -1, 8, 4, 76, -33, -17, -3, -1, -54, -74, -2, 2, -5, 13, -51, 63, 83, 1, 84, 29, -36, 2, -1, 7, -12, -10, -44, -43, -14, 8, -69, 19], "withholdReward": false, "trial_id": "mdp_trial_5", "block": "test", "trialIndex": 6, "score": -44.4, "costs": -1.4, "simulationMode": [null, null, null, null, null], "rewards": [-2, 2, -5, 13, -51], "path": ["0", "0", "12", "13", "14", "15", "16"], "rt": [3316, 772, 579, 728, 477], "actions": ["right", "right", "right", "up", "up"], "actionTimes": [5711, 7006, 8078, 9327, 10325], "queries": {"click": {"state": {"target": ["3"], "time": [3285]}, "edge": {"target": [], "time": []}}, "mouseover": {"state": {"target": ["2", "3", "7", "12", "21"], "time": [2815, 2998, 3614, 3715, 4531]}, "edge": {"target": [], "time": []}}, "mouseout": {"state": {"target": ["12", "28", "0", "2", "3", "7", "12", "21", "19"], "time": [1054, 1419, 2752, 2865, 3548, 3631, 3764, 4748, 21000]}, "edge": {"target": [], "time": []}}}, "displayed_time": "16.40", "trialTime": 24349, "trial_type": "mouselab-mdp", "trial_index": 13, "time_elapsed": 864026, "internal_node_id": "0.0-4.0-1.0-4.0"}}, {"uniqueid": "w64871990:a43638278", "current_trial": 14, "dateTime": 1691143479361, "trialdata": {"revealed_states": [], "clicked_states": ["25", "1"], "num_clicks_accrued": [0, 0, 0, 0, 0, 0, 0, 0, 0, 0, 0, 0, 0], "stateRewards": ["", -2, -1, -3, -1, -78, -6, 2, -1, 22, -88, 32, 2, 2, -7, -8, -51, -17, 54, 2, -44, 54, 75, 2, -2, -8, -15, -29, 12, -67, 15, -1, -47, -47], "withholdReward": false, "trial_id": "mdp_trial_6", "block": "test", "trialIndex": 7, "score": 50.2, "costs": -2.8, "simulationMode": [null, null, null, null, null], "rewards": [2, 2, -7, 2, 54], "path": ["0", "0", "12", "13", "14", "19", "21"], "rt": [11461, 1656, 994, 1221, 782], "actions": ["right", "right", "right", "down", "down"], "actionTimes": [13324, 15489, 16993, 18736, 20034], "queries": {"click": {"state": {"target": ["25", "1"], "time": [2884, 6980]}, "edge": {"target": [], "time": []}}, "mouseover": {"state": {"target": ["31", "25", "30", "12", "13", "1", "0", "0", "0", "12", "12", "0", "0"], "time": [2338, 2624, 3233, 5126, 5437, 6289, 7985, 9889, 10420, 10587, 10737, 10771, 11083]}, "edge": {"target": [], "time": []}}, "mouseout": {"state": {"target": ["0", "0", "31", "25", "30", "12", "13", "1", "0", "0", "0", "12", "12", "0", "0", "7", "5", "33", "30", "31"], "time": [966, 2256, 2403, 3202, 3255, 5351, 5973, 7516, 8050, 10177, 10555, 10616, 10755, 10939, 11889, 22349, 22369, 24202, 24434, 24530]}, "edge": {"target": [], "time": []}}}, "displayed_time": "20.55", "trialTime": 27110, "trial_type": "mouselab-mdp", "trial_index": 14, "time_elapsed": 891461, "internal_node_id": "0.0-4.0-1.0-5.0"}}, {"uniqueid": "w64871990:a43638278", "current_trial": 15, "dateTime": 1691143504508, "trialdata": {"revealed_states": [], "clicked_states": ["26", "8"], "num_clicks_accrued": [0, 0, 0, 0, 0, 0, 0, 0, 0, 0, 0, 0, 0], "stateRewards": ["", 2, 3, -2, -8, -8, -41, 74, 15, -23, -80, 1, 1, 3, 3, -15, -63, -78, 67, 13, 75, -41, 86, 2, -2, 6, -3, -8, -49, 50, -6, 83, 74, 80], "withholdReward": false, "trial_id": "mdp_trial_7", "block": "test", "trialIndex": 8, "score": -7.800000000000001, "costs": -2.8, "simulationMode": [null, null, null, null, null], "rewards": [2, 3, -2, 15, -23], "path": ["0", "0", "1", "2", "3", "8", "9"], "rt": [9887, 1102, 753, 2145, 1203], "actions": ["up", "up", "up", "left", "up"], "actionTimes": [11807, 13417, 14685, 17343, 19074], "queries": {"click": {"state": {"target": ["26", "8"], "time": [3814, 7379]}, "edge": {"target": [], "time": []}}, "mouseover": {"state": {"target": ["0", "12", "13", "18", "1", "26", "28", "2", "4", "3", "3", "8", "8", "10", "23", "0"], "time": [2533, 2636, 2702, 2967, 3016, 3405, 4216, 4299, 4516, 6188, 6656, 6950, 7034, 7764, 7948, 10040]}, "edge": {"target": [], "time": []}}, "mouseout": {"state": {"target": ["0", "0", "12", "13", "18", "1", "26", "28", "2", "4", "3", "3", "8", "8", "8", "10", "23", "0"], "time": [2389, 2605, 2669, 2735, 2985, 3032, 3921, 4249, 4316, 6163, 6205, 6918, 6970, 7492, 7748, 7814, 8014, 10083]}, "edge": {"target": [], "time": []}}}, "displayed_time": "19.58", "trialTime": 24814, "trial_type": "mouselab-mdp", "trial_index": 15, "time_elapsed": 916609, "internal_node_id": "0.0-4.0-1.0-6.0"}}, {"uniqueid": "w64871990:a43638278", "current_trial": 16, "dateTime": 1691143531808, "trialdata": {"revealed_states": [], "clicked_states": ["4", "25", "27", "24"], "num_clicks_accrued": [0, 0, 0, 0, 0, 0, 0, 0, 0, 0, 0, 0, 0], "stateRewards": ["", 2, -1, 3, -12, -83, 6, -33, 9, 28, 24, -50, -2, -1, -2, -5, -87, 37, 82, 12, 80, -5, 10, -2, -3, -6, 9, 22, -1, 16, 9, 77, -62, 58], "withholdReward": false, "trial_id": "mdp_trial_8", "block": "test", "trialIndex": 9, "score": 14.399999999999999, "costs": -5.6, "simulationMode": [null, null, null, null, null], "rewards": [-2, -3, -6, 9, 22], "path": ["0", "0", "23", "24", "25", "26", "27"], "rt": [14141, 602, 715, 903, 615], "actions": ["left", "left", "left", "up", "up"], "actionTimes": [17066, 18186, 19410, 20831, 21959], "queries": {"click": {"state": {"target": ["4", "25", "27", "24"], "time": [3857, 6963, 9363, 12893]}, "edge": {"target": [], "time": []}}, "mouseover": {"state": {"target": ["7", "4", "2", "10", "10", "28", "25", "26", "27", "28", "24", "24"], "time": [3412, 3548, 5012, 6131, 6364, 6444, 6678, 8915, 9070, 9695, 9844, 12729]}, "edge": {"target": [], "time": []}}, "mouseout": {"state": {"target": ["14", "18", "0", "7", "4", "4", "2", "10", "10", "28", "25", "25", "26", "27", "28", "24", "24"], "time": [1685, 1815, 3235, 3512, 3978, 4379, 6071, 6336, 6397, 6528, 7395, 8874, 8995, 9645, 9728, 11613, 13161]}, "edge": {"target": [], "time": []}}}, "displayed_time": "22.48", "trialTime": 26917, "trial_type": "mouselab-mdp", "trial_index": 16, "time_elapsed": 943909, "internal_node_id": "0.0-4.0-1.0-7.0"}}, {"uniqueid": "w64871990:a43638278", "current_trial": 17, "dateTime": 1691143572342, "trialdata": {"revealed_states": [], "clicked_states": ["16", "15", "14", "13", "12", "19", "21", "23", "24"], "num_clicks_accrued": [0, 0, 0, 0, 0, 0, 0, 0, 0, 0, 0, 0, 0], "stateRewards": ["", 1, 4, 7, -16, -84, -6, -46, -12, -7, -49, -26, -1, 2, -4, 2, 22, 37, -64, 1, 88, -13, -10, 1, -4, -2, 5, 2, -10, -34, 9, 66, 55, 38], "withholdReward": false, "trial_id": "mdp_trial_9", "block": "test", "trialIndex": 10, "score": 8.399999999999999, "costs": -12.600000000000001, "simulationMode": [null, null, null, null, null], "rewards": [-1, 2, -4, 2, 22], "path": ["0", "0", "12", "13", "14", "15", "16"], "rt": [27030, 875, 509, 863, 541], "actions": ["right", "right", "right", "up", "up"], "actionTimes": [29395, 30791, 31810, 33196, 34258], "queries": {"click": {"state": {"target": ["16", "15", "14", "13", "12", "19", "21", "23", "24"], "time": [4019, 6301, 8476, 11061, 13314, 15918, 18130, 22601, 25581]}, "edge": {"target": [], "time": []}}, "mouseover": {"state": {"target": ["12", "13", "15", "16", "15", "14", "19", "13", "22", "12", "19", "21", "21", "0", "0", "24", "23", "23", "31", "24", "0"], "time": [2893, 3138, 3355, 3656, 4338, 6720, 8869, 10713, 11469, 13007, 15555, 16317, 17384, 21518, 21853, 21915, 22086, 22221, 24645, 24988, 27882]}, "edge": {"target": [], "time": []}}, "mouseout": {"state": {"target": ["20", "19", "22", "12", "0", "12", "13", "15", "16", "15", "14", "14", "19", "13", "22", "12", "19", "21", "21", "21", "0", "0", "24", "23", "23", "31", "24", "0", "7", "19"], "time": [1374, 1413, 1555, 1771, 2776, 3045, 3254, 3510, 4271, 6653, 8596, 8820, 10020, 11419, 12701, 13685, 16274, 16384, 18212, 18403, 21689, 21876, 22018, 22104, 22933, 24735, 26306, 28383, 37249, 38318]}, "edge": {"target": [], "time": []}}}, "displayed_time": "34.77", "trialTime": 40183, "trial_type": "mouselab-mdp", "trial_index": 17, "time_elapsed": 984443, "internal_node_id": "0.0-4.0-1.0-8.0"}}, {"uniqueid": "w64871990:a43638278", "current_trial": 18, "dateTime": 1691143595768, "trialdata": {"revealed_states": [], "clicked_states": ["1"], "num_clicks_accrued": [0, 0, 0, 0, 0, 0, 0, 0, 0, 0, 0, 0, 0], "stateRewards": ["", -2, -3, 7, -13, 60, 9, 37, -6, 37, 20, 1, 2, -2, -8, 6, -80, -31, -10, -7, 70, -65, -44, -1, 1, 7, 6, -11, 73, -85, 16, -21, 47, 34], "withholdReward": false, "trial_id": "mdp_trial_10", "block": "test", "trialIndex": 11, "score": -3.4000000000000004, "costs": -1.4, "simulationMode": [null, null, null, null, null], "rewards": [-2, -3, 7, -13, 9], "path": ["0", "0", "1", "2", "3", "4", "6"], "rt": [5888, 844, 1201, 1439, 621], "actions": ["up", "up", "up", "right", "right"], "actionTimes": [10280, 11648, 13369, 15327, 16455], "queries": {"click": {"state": {"target": ["1"], "time": [6046]}, "edge": {"target": [], "time": []}}, "mouseover": {"state": {"target": ["1", "12"], "time": [5490, 6401]}, "edge": {"target": [], "time": []}}, "mouseout": {"state": {"target": ["0", "0", "0", "1", "12"], "time": [1006, 1705, 5223, 6318, 6418]}, "edge": {"target": [], "time": []}}}, "displayed_time": "18.39", "trialTime": 23099, "trial_type": "mouselab-mdp", "trial_index": 18, "time_elapsed": 1007868, "internal_node_id": "0.0-4.0-1.0-9.0"}}, {"uniqueid": "w64871990:a43638278", "current_trial": 19, "dateTime": 1691143616518, "trialdata": {"revealed_states": [], "clicked_states": [], "num_clicks_accrued": [0, 0, 0, 0, 0, 0, 0, 0, 0, 0, 0, 0, 0], "stateRewards": ["", -1, -2, -1, -10, -57, 73, -72, -16, 75, -14, -46, -2, -3, -7, -1, -61, -60, 76, -4, 50, 4, 14, 2, 2, -7, 12, -65, -32, 15, -8, -76, -25, -61], "withholdReward": false, "trial_id": "mdp_trial_11", "block": "test", "trialIndex": 12, "score": -36, "costs": 0, "simulationMode": [null, null, null, null, null], "rewards": [2, 2, -7, -8, -25], "path": ["0", "0", "23", "24", "25", "30", "32"], "rt": [2547, 699, 810, 1001, 644], "actions": ["left", "left", "left", "down", "down"], "actionTimes": [5478, 6693, 8021, 9544, 10703], "queries": {"click": {"state": {"target": [], "time": []}, "edge": {"target": [], "time": []}}, "mouseover": {"state": {"target": [], "time": []}, "edge": {"target": [], "time": []}}, "mouseout": {"state": {"target": ["0"], "time": [3441]}, "edge": {"target": [], "time": []}}}, "displayed_time": "16.93", "trialTime": 20412, "trial_type": "mouselab-mdp", "trial_index": 19, "time_elapsed": 1028619, "internal_node_id": "0.0-4.0-1.0-10.0"}}, {"uniqueid": "w64871990:a43638278", "current_trial": 20, "dateTime": 1691143635166, "trialdata": {"revealed_states": [], "clicked_states": [], "num_clicks_accrued": [0, 0, 0, 0, 0, 0, 0, 0, 0, 0, 0, 0, 0], "stateRewards": ["", 1, 1, -3, 2, 22, -25, -11, -5, 50, 49, 3, 1, -1, 8, 14, -85, -30, 57, -6, -39, -16, 59, -2, -1, 5, 5, 59, -16, 8, 4, 67, 56, -9], "withholdReward": false, "trial_id": "mdp_trial_12", "block": "test", "trialIndex": 13, "score": 15, "costs": 0, "simulationMode": [null, null, null, null, null], "rewards": [-2, -1, 5, 5, 8], "path": ["0", "0", "23", "24", "25", "26", "29"], "rt": [2793, 1634, 1131, 1239, 1379], "actions": ["left", "left", "left", "up", "left"], "actionTimes": [4402, 6542, 8189, 9946, 11837], "queries": {"click": {"state": {"target": [], "time": []}, "edge": {"target": [], "time": []}}, "mouseover": {"state": {"target": [], "time": []}, "edge": {"target": [], "time": []}}, "mouseout": {"state": {"target": ["21", "0", "0"], "time": [274, 12908, 13394]}, "edge": {"target": [], "time": []}}}, "displayed_time": "15.61", "trialTime": 18298, "trial_type": "mouselab-mdp", "trial_index": 20, "time_elapsed": 1047267, "internal_node_id": "0.0-4.0-1.0-11.0"}}, {"uniqueid": "w64871990:a43638278", "current_trial": 21, "dateTime": 1691143654465, "trialdata": {"revealed_states": [], "clicked_states": [], "num_clicks_accrued": [0, 0, 0, 0, 0, 0, 0, 0, 0, 0, 0, 0, 0], "stateRewards": ["", 1, -3, 4, 13, -72, 52, 5, 5, -58, 5, 14, 2, 1, 3, -14, -86, -4, 73, 6, -58, -50, 49, 2, -3, -4, 2, 33, -41, 42, -11, 81, 45, 53], "withholdReward": false, "trial_id": "mdp_trial_13", "block": "test", "trialIndex": 14, "score": 39, "costs": 0, "simulationMode": [null, null, null, null, null], "rewards": [2, -3, -4, 2, 42], "path": ["0", "0", "23", "24", "25", "26", "29"], "rt": [1879, 982, 1040, 928, 947], "actions": ["left", "left", "left", "up", "left"], "actionTimes": [3184, 4690, 6251, 7701, 9169], "queries": {"click": {"state": {"target": [], "time": []}, "edge": {"target": [], "time": []}}, "mouseover": {"state": {"target": ["0"], "time": [1863]}, "edge": {"target": [], "time": []}}, "mouseout": {"state": {"target": ["22", "0"], "time": [393, 1894]}, "edge": {"target": [], "time": []}}}, "displayed_time": "15.32", "trialTime": 18917, "trial_type": "mouselab-mdp", "trial_index": 21, "time_elapsed": 1066566, "internal_node_id": "0.0-4.0-1.0-12.0"}}, {"uniqueid": "w64871990:a43638278", "current_trial": 22, "dateTime": 1691143676705, "trialdata": {"revealed_states": [], "clicked_states": [], "num_clicks_accrued": [0, 0, 0, 0, 0, 0, 0, 0, 0, 0, 0, 0, 0], "stateRewards": ["", 2, -1, -1, -9, -81, -30, 55, -6, 78, 25, 62, 2, 4, -1, 9, -85, 1, -19, 1, -60, 12, -34, 1, 4, -1, -13, -24, -16, -83, -8, 16, 43, 9], "withholdReward": false, "trial_id": "mdp_trial_14", "block": "test", "trialIndex": 15, "score": -92, "costs": 0, "simulationMode": [null, null, null, null, null], "rewards": [1, 4, -1, -13, -83], "path": ["0", "0", "23", "24", "25", "26", "29"], "rt": [1597, 968, 542, 907, 872], "actions": ["left", "left", "left", "up", "left"], "actionTimes": [3631, 5106, 6164, 7579, 8960], "queries": {"click": {"state": {"target": [], "time": []}, "edge": {"target": [], "time": []}}, "mouseover": {"state": {"target": [], "time": []}, "edge": {"target": [], "time": []}}, "mouseout": {"state": {"target": ["20", "14", "13", "0", "13", "12", "0"], "time": [806, 838, 855, 2461, 19103, 19387, 20570]}, "edge": {"target": [], "time": []}}}, "displayed_time": "16.04", "trialTime": 21843, "trial_type": "mouselab-mdp", "trial_index": 22, "time_elapsed": 1088805, "internal_node_id": "0.0-4.0-1.0-13.0"}}, {"uniqueid": "w64871990:a43638278", "current_trial": 23, "dateTime": 1691143696037, "trialdata": {"revealed_states": [], "clicked_states": [], "num_clicks_accrued": [0, 0, 0, 0, 0, 0, 0, 0, 0, 0, 0, 0, 0], "stateRewards": ["", -2, 1, -7, 9, 8, 25, 61, -7, -17, 69, -81, 1, 4, -4, -11, 16, 67, 44, 3, 6, -45, -54, -2, 3, 6, -11, -15, 32, -47, 3, -39, -6, -88], "withholdReward": false, "trial_id": "mdp_trial_15", "block": "test", "trialIndex": 16, "score": -96, "costs": 0, "simulationMode": [null, null, null, null, null], "rewards": [-2, 1, -7, -7, -81], "path": ["0", "0", "1", "2", "3", "8", "11"], "rt": [2642, 494, 465, 1159, 459], "actions": ["up", "up", "up", "left", "left"], "actionTimes": [4239, 5248, 6233, 7893, 8860], "queries": {"click": {"state": {"target": [], "time": []}, "edge": {"target": [], "time": []}}, "mouseover": {"state": {"target": ["0"], "time": [2135]}, "edge": {"target": [], "time": []}}, "mouseout": {"state": {"target": ["0", "0", "21", "15", "18", "0"], "time": [1046, 2183, 10500, 17353, 17398, 18269]}, "edge": {"target": [], "time": []}}}, "displayed_time": "15.60", "trialTime": 18964, "trial_type": "mouselab-mdp", "trial_index": 23, "time_elapsed": 1108138, "internal_node_id": "0.0-4.0-1.0-14.0"}}, {"uniqueid": "w64871990:a43638278", "current_trial": 24, "dateTime": 1691143715377, "trialdata": {"revealed_states": [], "clicked_states": [], "num_clicks_accrued": [0, 0, 0, 0, 0, 0, 0, 0, 0, 0, 0, 0, 0], "stateRewards": ["", 2, 3, -1, 6, 44, -4, -59, -14, -3, 64, 16, 1, -3, 3, 6, 3, 49, 19, 3, -49, -14, -86, 1, 2, -3, -8, -33, 14, 32, -13, -77, -47, -67], "withholdReward": false, "trial_id": "mdp_trial_16", "block": "test", "trialIndex": 17, "score": 6, "costs": 0, "simulationMode": [null, null, null, null, null], "rewards": [2, 3, -1, -14, 16], "path": ["0", "0", "1", "2", "3", "8", "11"], "rt": [1443, 702, 1020, 850, 476], "actions": ["up", "up", "up", "left", "left"], "actionTimes": [2973, 4189, 5723, 7086, 8087], "queries": {"click": {"state": {"target": [], "time": []}, "edge": {"target": [], "time": []}}, "mouseover": {"state": {"target": ["22"], "time": [2008]}, "edge": {"target": [], "time": []}}, "mouseout": {"state": {"target": ["0", "0", "22", "7", "2", "2", "1", "0"], "time": [755, 1907, 2028, 17504, 17525, 18103, 18156, 18174]}, "edge": {"target": [], "time": []}}}, "displayed_time": "15.53", "trialTime": 18974, "trial_type": "mouselab-mdp", "trial_index": 24, "time_elapsed": 1127478, "internal_node_id": "0.0-4.0-1.0-15.0"}}, {"uniqueid": "w64871990:a43638278", "current_trial": 25, "dateTime": 1691143735440, "trialdata": {"revealed_states": [], "clicked_states": [], "num_clicks_accrued": [0, 0, 0, 0, 0, 0, 0, 0, 0, 0, 0, 0, 0], "stateRewards": ["", -2, -3, -3, 9, 79, 67, 22, -15, -56, 27, -85, -2, 4, -4, -15, -20, -32, 60, 15, 71, 57, 17, 1, 2, -8, 15, -37, -81, 82, 15, 21, -3, 2], "withholdReward": false, "trial_id": "mdp_trial_17", "block": "test", "trialIndex": 18, "score": -108, "costs": 0, "simulationMode": [null, null, null, null, null], "rewards": [-2, -3, -3, -15, -85], "path": ["0", "0", "1", "2", "3", "8", "11"], "rt": [1409, 549, 916, 745, 379], "actions": ["up", "up", "up", "left", "left"], "actionTimes": [2919, 3987, 5421, 6683, 7584], "queries": {"click": {"state": {"target": [], "time": []}, "edge": {"target": [], "time": []}}, "mouseover": {"state": {"target": [], "time": []}, "edge": {"target": [], "time": []}}, "mouseout": {"state": {"target": ["0", "0", "22", "19", "16", "6", "5", "4", "7"], "time": [875, 8744, 8942, 8977, 18338, 18434, 18651, 18738, 18802]}, "edge": {"target": [], "time": []}}}, "displayed_time": "15.51", "trialTime": 19676, "trial_type": "mouselab-mdp", "trial_index": 25, "time_elapsed": 1147540, "internal_node_id": "0.0-4.0-1.0-16.0"}}, {"uniqueid": "w64871990:a43638278", "current_trial": 26, "dateTime": 1691143768767, "trialdata": {"revealed_states": [], "clicked_states": ["4", "6", "3", "2", "1", "7", "5"], "num_clicks_accrued": [0, 0, 0, 0, 0, 0, 0, 0, 0, 0, 0, 0, 0], "stateRewards": ["", -2, 2, 3, -7, 76, 63, 21, 15, 35, -8, -44, 1, 1, -2, -12, 23, 24, 76, -9, 46, 66, -49, -2, -1, 7, 12, 40, -71, -45, -6, 38, -49, 46], "withholdReward": false, "trial_id": "mdp_trial_18", "block": "test", "trialIndex": 19, "score": 62.2, "costs": -9.8, "simulationMode": [null, null, null, null, null], "rewards": [-2, 2, 3, -7, 76], "path": ["0", "0", "1", "2", "3", "4", "5"], "rt": [21877, 722, 489, 801, 735], "actions": ["up", "up", "up", "right", "up"], "actionTimes": [23607, 24851, 25851, 27162, 28412], "queries": {"click": {"state": {"target": ["4", "6", "3", "2", "1", "7", "5"], "time": [3781, 6522, 9370, 11470, 13773, 17092, 20020]}, "edge": {"target": [], "time": []}}, "mouseover": {"state": {"target": ["12", "13", "18", "7", "4", "7", "6", "7", "3", "3", "2", "2", "1", "1", "12", "7", "12", "4", "5", "6"], "time": [2384, 2449, 2899, 3218, 3399, 4182, 6257, 8484, 8781, 8969, 9697, 10797, 11830, 13365, 14196, 16246, 17945, 19584, 19710, 20494]}, "edge": {"target": [], "time": []}}, "mouseout": {"state": {"target": ["22", "23", "0", "12", "13", "18", "7", "4", "7", "6", "7", "3", "3", "2", "2", "2", "1", "1", "12", "7", "12", "7", "4", "5", "6", "20", "21"], "time": [602, 899, 2354, 2432, 2482, 2971, 3265, 4165, 4265, 6832, 8703, 8847, 9665, 9981, 11574, 11780, 11864, 14079, 14262, 17496, 19302, 19512, 19614, 20395, 20527, 30894, 31799]}, "edge": {"target": [], "time": []}}}, "displayed_time": "28.93", "trialTime": 32938, "trial_type": "mouselab-mdp", "trial_index": 26, "time_elapsed": 1180868, "internal_node_id": "0.0-4.0-1.0-17.0"}}, {"uniqueid": "w64871990:a43638278", "current_trial": 27, "dateTime": 1691143801545, "trialdata": {"revealed_states": [], "clicked_states": ["12", "13", "14", "15", "17", "18", "16"], "num_clicks_accrued": [0, 0, 0, 0, 0, 0, 0, 0, 0, 0, 0, 0, 0], "stateRewards": ["", 1, -2, -8, -3, 31, -84, -55, -14, 15, -58, 17, -2, -3, 7, 7, -12, 48, 67, 4, -44, -68, 46, 2, 3, -5, -7, 76, 27, 5, 11, 57, 52, 59], "withholdReward": false, "trial_id": "mdp_trial_19", "block": "test", "trialIndex": 20, "score": 66.2, "costs": -9.8, "simulationMode": [null, null, null, null, null], "rewards": [-2, -3, 7, 7, 67], "path": ["0", "0", "12", "13", "14", "15", "18"], "rt": [18030, 468, 442, 575, 872], "actions": ["right", "right", "right", "up", "left"], "actionTimes": [21548, 22537, 23493, 24575, 25955], "queries": {"click": {"state": {"target": ["12", "13", "14", "15", "17", "18", "16"], "time": [4657, 6605, 8737, 10870, 12994, 15226, 17669]}, "edge": {"target": [], "time": []}}, "mouseover": {"state": {"target": ["12", "13", "14", "15", "17", "18", "13", "15", "16", "15", "14", "19", "21"], "time": [4055, 5053, 8288, 10454, 12384, 14743, 16233, 16938, 17150, 18249, 18401, 19703, 19882]}, "edge": {"target": [], "time": []}}, "mouseout": {"state": {"target": ["0", "12", "13", "14", "14", "15", "17", "15", "18", "13", "15", "16", "15", "14", "19", "21"], "time": [3781, 5006, 7236, 9319, 10168, 12288, 13450, 14606, 15566, 16616, 17033, 18116, 18333, 18449, 19835, 19917]}, "edge": {"target": [], "time": []}}}, "displayed_time": "26.47", "trialTime": 32380, "trial_type": "mouselab-mdp", "trial_index": 27, "time_elapsed": 1213646, "internal_node_id": "0.0-4.0-1.0-18.0"}}, {"uniqueid": "w64871990:a43638278", "current_trial": 28, "dateTime": 1691143837003, "trialdata": {"revealed_states": [], "clicked_states": ["20", "21", "22", "32", "31", "33"], "num_clicks_accrued": [0, 0, 0, 0, 0, 0, 0, 0, 0, 0, 0, 0, 0], "stateRewards": ["", 1, 1, -5, 10, -31, 73, 14, -8, -23, 63, -70, -1, 2, 8, 7, 25, -59, 27, -10, -40, -71, -15, -2, 3, -8, -5, -19, 77, -34, 7, 67, 63, 19], "withholdReward": false, "trial_id": "mdp_trial_20", "block": "test", "trialIndex": 21, "score": 58.6, "costs": -8.4, "simulationMode": [null, null, null, null, null], "rewards": [-2, 3, -8, 7, 67], "path": ["0", "0", "23", "24", "25", "30", "31"], "rt": [19403, 537, 520, 746, 794], "actions": ["left", "left", "left", "down", "right"], "actionTimes": [25046, 26107, 27139, 28397, 29711], "queries": {"click": {"state": {"target": ["20", "21", "22", "32", "31", "33"], "time": [7482, 9993, 12558, 15335, 17614, 19900]}, "edge": {"target": [], "time": []}}, "mouseover": {"state": {"target": ["0", "22", "19", "20", "21", "21", "22", "32", "32", "31", "33", "32", "32"], "time": [5884, 6664, 6806, 7189, 8738, 9086, 12256, 14668, 15042, 17287, 19406, 20301, 22174]}, "edge": {"target": [], "time": []}}, "mouseout": {"state": {"target": ["21", "19", "22", "30", "12", "0", "0", "0", "22", "19", "20", "21", "21", "21", "22", "32", "32", "31", "33", "32", "32"], "time": [662, 4028, 4057, 4292, 4643, 4788, 5290, 6170, 6741, 7009, 7854, 8804, 10554, 12009, 12869, 14843, 15702, 17952, 20235, 20368, 22393]}, "edge": {"target": [], "time": []}}}, "displayed_time": "30.22", "trialTime": 35079, "trial_type": "mouselab-mdp", "trial_index": 28, "time_elapsed": 1249103, "internal_node_id": "0.0-4.0-1.0-19.0"}}, {"uniqueid": "w64871990:a43638278", "current_trial": 29, "dateTime": 1691143865375, "trialdata": {"revealed_states": [], "clicked_states": ["29", "27", "28", "11", "9", "10"], "num_clicks_accrued": [0, 0, 0, 0, 0, 0, 0, 0, 0, 0, 0, 0, 0], "stateRewards": ["", 1, -3, -1, 9, -34, -40, 22, -7, 45, 53, -11, 2, 4, 5, 15, 21, 37, -49, -3, 80, -28, -34, 1, -3, 1, 1, -40, -6, -5, -16, -85, -86, 59], "withholdReward": false, "trial_id": "mdp_trial_21", "block": "test", "trialIndex": 22, "score": 34.6, "costs": -8.4, "simulationMode": [null, null, null, null, null], "rewards": [1, -3, -1, -7, 53], "path": ["0", "0", "1", "2", "3", "8", "10"], "rt": [18614, 499, 396, 819, 669], "actions": ["up", "up", "up", "left", "down"], "actionTimes": [20636, 21654, 22566, 23906, 25089], "queries": {"click": {"state": {"target": ["29", "27", "28", "11", "9", "10"], "time": [4572, 6685, 8787, 11422, 13631, 17200]}, "edge": {"target": [], "time": []}}, "mouseover": {"state": {"target": ["24", "26", "29", "26", "27", "26", "28", "24", "10", "11", "8", "9", "3", "5", "8", "10", "22", "19"], "time": [3642, 3912, 4338, 5205, 5955, 7122, 8339, 9254, 10945, 11192, 13086, 13397, 14769, 15740, 16321, 16856, 19488, 19512]}, "edge": {"target": [], "time": []}}, "mouseout": {"state": {"target": ["15", "12", "0", "24", "26", "29", "26", "27", "26", "28", "24", "10", "11", "8", "9", "9", "3", "5", "8", "10", "22", "19", "19", "14", "3", "2", "1"], "time": [759, 1339, 2861, 3811, 3942, 4955, 5722, 7026, 7205, 9171, 9371, 10974, 11854, 13307, 13655, 13819, 15540, 16210, 16622, 17602, 19508, 19523, 26440, 26476, 26855, 26886, 26919]}, "edge": {"target": [], "time": []}}}, "displayed_time": "25.60", "trialTime": 27996, "trial_type": "mouselab-mdp", "trial_index": 29, "time_elapsed": 1277475, "internal_node_id": "0.0-4.0-1.0-20.0"}}, {"uniqueid": "w64871990:a43638278", "current_trial": 30, "dateTime": 1691143899154, "trialdata": {"revealed_states": [], "clicked_states": ["5", "6", "7", "16", "17", "18", "20", "21", "22"], "num_clicks_accrued": [0, 0, 0, 0, 0, 0, 0, 0, 0, 0, 0, 0, 0], "stateRewards": ["", 1, -2, -2, 10, -31, -77, 35, 9, -47, 8, 48, -2, 1, -4, -3, -26, -50, 43, -11, 76, -38, 17, 1, -1, 6, 10, 15, -9, 12, -8, 85, 11, -55], "withholdReward": false, "trial_id": "mdp_trial_22", "block": "test", "trialIndex": 23, "score": 47.4, "costs": -12.600000000000001, "simulationMode": [null, null, null, null, null], "rewards": [-2, 1, -4, -11, 76], "path": ["0", "0", "12", "13", "14", "19", "20"], "rt": [23759, 450, 344, 619, 368], "actions": ["right", "right", "right", "down", "right"], "actionTimes": [25681, 26649, 27508, 28653, 29532], "queries": {"click": {"state": {"target": ["5", "6", "7", "16", "17", "18", "20", "21", "22"], "time": [3139, 5456, 7716, 10580, 12543, 14905, 17355, 20053, 22441]}, "edge": {"target": [], "time": []}}, "mouseover": {"state": {"target": ["7", "4", "5", "6", "6", "7", "18", "16", "17", "14", "14", "18", "14", "19", "20", "21", "22"], "time": [2490, 2527, 2601, 3701, 5136, 6766, 9768, 9986, 11108, 13181, 13448, 14433, 15331, 15381, 16114, 18797, 22134]}, "edge": {"target": [], "time": []}}, "mouseout": {"state": {"target": ["22", "23", "0", "7", "4", "5", "6", "6", "7", "18", "16", "17", "14", "14", "18", "14", "19", "20", "21", "21", "22", "13", "10"], "time": [804, 1271, 2343, 2516, 2568, 3551, 4001, 5867, 8116, 9787, 10849, 12948, 13229, 13898, 15230, 15348, 15430, 17647, 20546, 21414, 22829, 31446, 31479]}, "edge": {"target": [], "time": []}}}, "displayed_time": "30.05", "trialTime": 33411, "trial_type": "mouselab-mdp", "trial_index": 30, "time_elapsed": 1311254, "internal_node_id": "0.0-4.0-1.0-21.0"}}, {"uniqueid": "w64871990:a43638278", "current_trial": 31, "dateTime": 1691143918349, "trialdata": {"revealed_states": [], "clicked_states": ["32", "31", "33"], "num_clicks_accrued": [0, 0, 0, 0, 0, 0, 0, 0, 0, 0, 0, 0, 0], "stateRewards": ["", -1, -3, -5, -14, -13, -47, 79, 8, -60, -64, 41, -1, 2, 3, 13, -46, 61, -79, -11, -64, -65, 23, 1, -2, 6, -14, 46, 32, 21, 7, 75, -66, 15], "withholdReward": false, "trial_id": "mdp_trial_23", "block": "test", "trialIndex": 24, "score": 82.8, "costs": -4.199999999999999, "simulationMode": [null, null, null, null, null], "rewards": [1, -2, 6, 7, 75], "path": ["0", "0", "23", "24", "25", "30", "31"], "rt": [9742, 447, 439, 526, 392], "actions": ["left", "left", "left", "down", "right"], "actionTimes": [11475, 12452, 13403, 14445, 15355], "queries": {"click": {"state": {"target": ["32", "31", "33"], "time": [3405, 5477, 7824]}, "edge": {"target": [], "time": []}}, "mouseover": {"state": {"target": ["0", "32", "31", "33"], "time": [2319, 3009, 4747, 7356]}, "edge": {"target": [], "time": []}}, "mouseout": {"state": {"target": ["0", "0", "32", "31", "32", "33"], "time": [1231, 2355, 3797, 5914, 6898, 8546]}, "edge": {"target": [], "time": []}}}, "displayed_time": "15.86", "trialTime": 18794, "trial_type": "mouselab-mdp", "trial_index": 31, "time_elapsed": 1330449, "internal_node_id": "0.0-4.0-1.0-22.0"}}, {"uniqueid": "w64871990:a43638278", "current_trial": 32, "dateTime": 1691143974235, "trialdata": {"revealed_states": [], "clicked_states": ["29", "27", "28", "31", "32", "33", "21", "20", "22", "17", "16", "18", "11", "9", "10", "7", "6", "5"], "num_clicks_accrued": [0, 0, 0, 0, 0, 0, 0, 0, 0, 0, 0, 0, 0], "stateRewards": ["", 1, 2, -3, -5, 66, -50, -47, -5, 1, 28, -27, 1, 1, -1, -6, 37, -25, 56, 1, -82, -66, -40, -1, -4, -7, 15, -61, -23, 26, 10, 14, -56, 29], "withholdReward": false, "trial_id": "mdp_trial_24", "block": "test", "trialIndex": 25, "score": 35.80000000000001, "costs": -25.199999999999992, "simulationMode": [null, null, null, null, null], "rewards": [1, 2, -3, -5, 66], "path": ["0", "0", "1", "2", "3", "4", "5"], "rt": [45443, 462, 344, 716, 545], "actions": ["up", "up", "up", "right", "up"], "actionTimes": [48135, 49112, 49977, 51216, 52278], "queries": {"click": {"state": {"target": ["29", "27", "28", "31", "32", "33", "21", "20", "22", "17", "16", "18", "11", "9", "10", "7", "6", "5"], "time": [4261, 6448, 8545, 10754, 12865, 15326, 18149, 20247, 22541, 24813, 26960, 29008, 32174, 34181, 36611, 39365, 41290, 43352]}, "edge": {"target": [], "time": []}}, "mouseover": {"state": {"target": ["0", "23", "24", "25", "26", "29", "26", "27", "24", "31", "24", "28", "24", "31", "32", "33", "21", "20", "22", "19", "17", "16", "18", "18", "12", "3", "11", "9", "3", "10", "1", "7", "6", "5", "18", "13", "14"], "time": [2978, 3242, 3311, 3584, 3641, 4026, 5810, 6113, 6875, 7075, 7442, 7858, 9041, 10397, 12241, 15042, 17799, 19722, 21738, 23871, 24425, 25941, 27620, 28287, 29919, 30136, 31340, 33186, 35917, 36235, 37534, 38935, 40284, 42766, 44239, 44766, 45572]}, "edge": {"target": [], "time": []}}, "mouseout": {"state": {"target": ["18", "15", "17", "14", "13", "12", "0", "0", "0", "0", "23", "24", "25", "26", "29", "26", "27", "24", "31", "24", "28", "24", "31", "32", "33", "32", "21", "20", "22", "19", "17", "16", "18", "18", "12", "3", "11", "9", "3", "10", "1", "7", "7", "6", "6", "5", "18", "13", "14", "15"], "time": [631, 655, 1030, 1110, 1144, 1162, 1209, 1497, 2159, 3212, 3275, 3395, 3615, 3858, 4758, 5992, 6792, 6927, 7275, 7691, 8874, 9157, 11074, 13207, 15723, 16657, 18623, 20555, 22922, 23905, 25537, 27404, 27807, 29787, 29936, 30893, 33036, 35152, 35984, 37218, 38685, 39474, 40018, 42214, 42467, 43800, 44350, 45554, 45586, 54181]}, "edge": {"target": [], "time": []}}}, "displayed_time": "52.80", "trialTime": 55481, "trial_type": "mouselab-mdp", "trial_index": 32, "time_elapsed": 1386336, "internal_node_id": "0.0-4.0-1.0-23.0"}}, {"uniqueid": "w64871990:a43638278", "current_trial": 33, "dateTime": 1691144002041, "trialdata": {"revealed_states": [], "clicked_states": ["5", "6", "7", "10", "11", "9"], "num_clicks_accrued": [0, 0, 0, 0, 0, 0, 0, 0, 0, 0, 0, 0, 0], "stateRewards": ["", -1, 1, 8, -8, -49, 62, -78, 16, 28, -81, 78, -2, -3, -1, -4, 67, 49, -2, -13, -16, -39, 83, 1, -4, 4, -5, -20, 7, 84, 7, -32, -59, 19], "withholdReward": false, "trial_id": "mdp_trial_25", "block": "test", "trialIndex": 26, "score": 93.6, "costs": -8.4, "simulationMode": [null, null, null, null, null], "rewards": [-1, 1, 8, 16, 78], "path": ["0", "0", "1", "2", "3", "8", "11"], "rt": [18004, 440, 280, 748, 372], "actions": ["up", "up", "up", "left", "left"], "actionTimes": [20951, 21906, 22695, 23964, 24854], "queries": {"click": {"state": {"target": ["5", "6", "7", "10", "11", "9"], "time": [5089, 7333, 9698, 12597, 15082, 17799]}, "edge": {"target": [], "time": []}}, "mouseover": {"state": {"target": ["12", "1", "10", "8", "9", "5", "6", "6", "7", "1", "10", "11", "9"], "time": [3890, 4073, 4237, 4269, 4420, 4637, 5534, 6953, 9270, 11316, 11900, 14781, 16832]}, "edge": {"target": [], "time": []}}, "mouseout": {"state": {"target": ["0", "12", "1", "10", "8", "9", "5", "5", "6", "6", "7", "1", "10", "11", "9"], "time": [3556, 3952, 4118, 4253, 4333, 4439, 5136, 5468, 5617, 7718, 10117, 11484, 14570, 16565, 18565]}, "edge": {"target": [], "time": []}}}, "displayed_time": "25.37", "trialTime": 27412, "trial_type": "mouselab-mdp", "trial_index": 33, "time_elapsed": 1414142, "internal_node_id": "0.0-4.0-1.0-24.0"}}, {"uniqueid": "w64871990:a43638278", "current_trial": 34, "dateTime": 1691144039637, "trialdata": {"revealed_states": [], "clicked_states": ["5", "6", "7", "17", "16", "18", "20", "21", "22", "32", "31"], "num_clicks_accrued": [0, 0, 0, 0, 0, 0, 0, 0, 0, 0, 0, 0, 0], "stateRewards": ["", 1, 3, -2, 15, 51, 15, -19, 11, 67, -45, -73, 2, 4, -2, -13, 36, 9, -28, 10, -30, 31, 16, 1, 2, -1, -16, 14, -22, 36, -1, 88, -5, 45], "withholdReward": false, "trial_id": "mdp_trial_26", "block": "test", "trialIndex": 27, "score": 73.6, "costs": -15.400000000000002, "simulationMode": [null, null, null, null, null], "rewards": [1, 2, -1, -1, 88], "path": ["0", "0", "23", "24", "25", "30", "31"], "rt": [29367, 264, 247, 649, 355], "actions": ["left", "left", "left", "down", "right"], "actionTimes": [31272, 32057, 32823, 33992, 34864], "queries": {"click": {"state": {"target": ["5", "6", "7", "17", "16", "18", "20", "21", "22", "32", "31"], "time": [4025, 6093, 8056, 10808, 13324, 15779, 17878, 19873, 21944, 24237, 26243]}, "edge": {"target": [], "time": []}}, "mouseover": {"state": {"target": ["0", "10", "5", "6", "6", "7", "12", "31", "30", "32", "20", "17", "15", "16", "15", "15", "18", "13", "19", "20", "21", "22", "32", "32", "31", "33", "33", "32"], "time": [2707, 3150, 3784, 4472, 5564, 6780, 8563, 8930, 9082, 9628, 9795, 10268, 12815, 13001, 13829, 15099, 15515, 16362, 16487, 16794, 18894, 21051, 22943, 23596, 25460, 26976, 27895, 29261]}, "edge": {"target": [], "time": []}}, "mouseout": {"state": {"target": ["20", "19", "14", "18", "0", "0", "0", "10", "5", "6", "6", "7", "12", "31", "30", "32", "20", "17", "17", "17", "15", "16", "15", "15", "18", "13", "19", "20", "21", "22", "32", "32", "31", "33", "33", "32"], "time": [749, 800, 916, 1053, 1115, 1449, 2735, 3320, 4398, 4615, 6547, 8447, 8647, 8982, 9191, 9647, 9881, 10870, 11263, 12688, 12846, 13736, 13929, 15294, 16279, 16378, 16528, 18194, 20277, 22426, 23544, 24692, 26609, 26995, 29027, 29595]}, "edge": {"target": [], "time": []}}}, "displayed_time": "35.38", "trialTime": 37193, "trial_type": "mouselab-mdp", "trial_index": 34, "time_elapsed": 1451737, "internal_node_id": "0.0-4.0-1.0-25.0"}}, {"uniqueid": "w64871990:a43638278", "current_trial": 35, "dateTime": 1691144060124, "trialdata": {"revealed_states": [], "clicked_states": ["29", "27", "28"], "num_clicks_accrued": [0, 0, 0, 0, 0, 0, 0, 0, 0, 0, 0, 0, 0], "stateRewards": ["", -1, 1, -2, 5, 73, 15, 61, 8, 7, 38, 76, 2, 2, -4, -6, -6, -26, 43, -5, -45, -85, -35, -2, 1, -4, 15, -10, 69, 72, -11, 84, -49, -38], "withholdReward": false, "trial_id": "mdp_trial_27", "block": "test", "trialIndex": 28, "score": 77.8, "costs": -4.199999999999999, "simulationMode": [null, null, null, null, null], "rewards": [-2, 1, -4, 15, 72], "path": ["0", "0", "23", "24", "25", "26", "29"], "rt": [10772, 444, 332, 559, 519], "actions": ["left", "left", "left", "up", "left"], "actionTimes": [13297, 14256, 15111, 16187, 17213], "queries": {"click": {"state": {"target": ["29", "27", "28"], "time": [5339, 7523, 9789]}, "edge": {"target": [], "time": []}}, "mouseover": {"state": {"target": ["0", "23", "26", "29", "25", "30", "31", "25", "29", "29", "26", "27", "28", "28", "24"], "time": [3571, 3663, 3729, 4069, 4163, 4279, 4529, 4728, 4762, 5116, 6262, 6528, 7961, 8794, 10177]}, "edge": {"target": [], "time": []}}, "mouseout": {"state": {"target": ["0", "23", "26", "29", "25", "30", "31", "25", "29", "29", "26", "27", "28", "28", "24", "23", "10", "11", "0", "21"], "time": [3615, 3681, 3747, 4114, 4245, 4431, 4695, 4745, 4950, 6229, 6378, 7912, 8011, 10144, 10211, 18586, 18614, 19246, 19342, 19624]}, "edge": {"target": [], "time": []}}}, "displayed_time": "17.73", "trialTime": 20070, "trial_type": "mouselab-mdp", "trial_index": 35, "time_elapsed": 1472224, "internal_node_id": "0.0-4.0-1.0-26.0"}}, {"uniqueid": "w64871990:a43638278", "current_trial": 36, "dateTime": 1691144087852, "trialdata": {"revealed_states": [], "clicked_states": ["33", "32", "31", "11", "9", "10"], "num_clicks_accrued": [0, 0, 0, 0, 0, 0, 0, 0, 0, 0, 0, 0, 0], "stateRewards": ["", -1, -1, 4, -16, -75, 81, -51, -7, -84, 73, -30, -2, 1, -3, -16, -77, 33, 14, 1, 45, 87, -66, 2, 2, -5, -7, -19, -17, 79, -3, 8, 49, 47], "withholdReward": false, "trial_id": "mdp_trial_28", "block": "test", "trialIndex": 29, "score": 59.6, "costs": -8.4, "simulationMode": [null, null, null, null, null], "rewards": [-1, -1, 4, -7, 73], "path": ["0", "0", "1", "2", "3", "8", "10"], "rt": [18286, 314, 321, 807, 298], "actions": ["up", "up", "up", "left", "down"], "actionTimes": [20762, 21593, 22434, 23758, 24576], "queries": {"click": {"state": {"target": ["33", "32", "31", "11", "9", "10"], "time": [5101, 7187, 9462, 12296, 14596, 16670]}, "edge": {"target": [], "time": []}}, "mouseover": {"state": {"target": ["1", "10", "28", "24", "25", "30", "33", "32", "32", "31", "10", "8", "11", "9", "8", "10", "2", "7", "12"], "time": [3150, 3280, 3820, 3875, 4133, 4298, 4782, 5398, 5997, 9165, 11709, 11865, 11998, 14365, 15779, 16129, 18646, 18895, 19471]}, "edge": {"target": [], "time": []}}, "mouseout": {"state": {"target": ["20", "18", "7", "7", "1", "10", "28", "24", "25", "30", "33", "32", "32", "31", "10", "8", "11", "9", "8", "10", "2", "7", "12"], "time": [1019, 1063, 1116, 1247, 3216, 3416, 3855, 3897, 4252, 4517, 5349, 5447, 7497, 9847, 11732, 11949, 14048, 15712, 15895, 17145, 18812, 19329, 19503]}, "edge": {"target": [], "time": []}}}, "displayed_time": "25.09", "trialTime": 27340, "trial_type": "mouselab-mdp", "trial_index": 36, "time_elapsed": 1499953, "internal_node_id": "0.0-4.0-1.0-27.0"}}, {"uniqueid": "w64871990:a43638278", "current_trial": 37, "dateTime": 1691144106534, "trialdata": {"revealed_states": [], "clicked_states": ["5", "6"], "num_clicks_accrued": [0, 0, 0, 0, 0, 0, 0, 0, 0, 0, 0, 0, 0], "stateRewards": ["", -1, 1, -6, -1, 80, 23, 2, -11, 73, -81, 59, 1, 3, 5, -1, -26, 28, -3, 16, -59, -13, -50, -2, -2, 2, 15, -50, 86, 17, -4, 37, 35, 44], "withholdReward": false, "trial_id": "mdp_trial_29", "block": "test", "trialIndex": 30, "score": 70.2, "costs": -2.8, "simulationMode": [null, null, null, null, null], "rewards": [-1, 1, -6, -1, 80], "path": ["0", "0", "1", "2", "3", "4", "5"], "rt": [7882, 358, 245, 485, 316], "actions": ["up", "up", "up", "right", "up"], "actionTimes": [9585, 10456, 11210, 12220, 13030], "queries": {"click": {"state": {"target": ["5", "6"], "time": [2881, 5309]}, "edge": {"target": [], "time": []}}, "mouseover": {"state": {"target": ["7", "4", "5", "6", "6", "7", "17"], "time": [2370, 2449, 2632, 3299, 4216, 7163, 7931]}, "edge": {"target": [], "time": []}}, "mouseout": {"state": {"target": ["0", "1", "0", "7", "4", "5", "5", "6", "6", "7", "17"], "time": [42, 751, 2154, 2421, 2537, 2987, 3215, 3332, 5997, 7887, 7952]}, "edge": {"target": [], "time": []}}}, "displayed_time": "15.70", "trialTime": 18279, "trial_type": "mouselab-mdp", "trial_index": 37, "time_elapsed": 1518634, "internal_node_id": "0.0-4.0-1.0-28.0"}}, {"uniqueid": "w64871990:a43638278", "current_trial": 38, "dateTime": 1691144124863, "trialdata": {"revealed_states": [], "clicked_states": ["18", "16"], "num_clicks_accrued": [0, 0, 0, 0, 0, 0, 0, 0, 0, 0, 0, 0, 0], "stateRewards": ["", -2, -3, -6, -7, 9, 16, 65, 5, -41, 20, -25, -1, -4, 1, -11, -49, -4, 71, 1, 39, -62, 52, -2, -3, 7, -9, -28, -70, 84, 8, 24, -58, 82], "withholdReward": false, "trial_id": "mdp_trial_30", "block": "test", "trialIndex": 31, "score": 53.2, "costs": -2.8, "simulationMode": [null, null, null, null, null], "rewards": [-1, -4, 1, -11, 71], "path": ["0", "0", "12", "13", "14", "15", "18"], "rt": [8925, 443, 356, 573, 929], "actions": ["right", "right", "right", "up", "left"], "actionTimes": [11031, 11996, 12865, 13965, 15417], "queries": {"click": {"state": {"target": ["18", "16"], "time": [4569, 6931]}, "edge": {"target": [], "time": []}}, "mouseover": {"state": {"target": ["12", "13", "18", "15", "16", "17", "17"], "time": [3773, 3876, 4270, 6468, 6623, 7385, 8385]}, "edge": {"target": [], "time": []}}, "mouseout": {"state": {"target": ["21", "24", "25", "24", "23", "0", "0", "12", "13", "18", "18", "15", "16", "17", "17"], "time": [559, 858, 1020, 1053, 1070, 1103, 2411, 3855, 3968, 5586, 6321, 6485, 7268, 7402, 9367]}, "edge": {"target": [], "time": []}}}, "displayed_time": "16.11", "trialTime": 17935, "trial_type": "mouselab-mdp", "trial_index": 38, "time_elapsed": 1536964, "internal_node_id": "0.0-4.0-1.0-29.0"}}, {"uniqueid": "w64871990:a43638278", "current_trial": 39, "dateTime": 1691144143338, "trialdata": {"revealed_states": [], "clicked_states": ["21"], "num_clicks_accrued": [0, 0, 0, 0, 0, 0, 0, 0, 0, 0, 0, 0, 0], "stateRewards": ["", -2, -3, -7, 7, -54, -69, -4, -14, -77, 22, 40, -2, -1, 5, 6, -35, 50, -60, 10, -28, 75, 57, 1, -4, -2, 2, 68, 34, -18, 12, 3, -21, -43], "withholdReward": false, "trial_id": "mdp_trial_31", "block": "test", "trialIndex": 32, "score": 85.6, "costs": -1.4, "simulationMode": [null, null, null, null, null], "rewards": [-2, -1, 5, 10, 75], "path": ["0", "0", "12", "13", "14", "19", "21"], "rt": [7826, 362, 308, 707, 340], "actions": ["right", "right", "right", "down", "down"], "actionTimes": [9502, 10383, 11213, 12427, 13277], "queries": {"click": {"state": {"target": ["21"], "time": [2969]}, "edge": {"target": [], "time": []}}, "mouseover": {"state": {"target": ["0", "21", "20", "19"], "time": [2188, 2425, 5335, 7837]}, "edge": {"target": [], "time": []}}, "mouseout": {"state": {"target": ["14", "22", "0", "21", "20", "19"], "time": [557, 691, 2205, 3822, 7690, 8237]}, "edge": {"target": [], "time": []}}}, "displayed_time": "15.68", "trialTime": 18048, "trial_type": "mouselab-mdp", "trial_index": 39, "time_elapsed": 1555438, "internal_node_id": "0.0-4.0-1.0-30.0"}}, {"uniqueid": "w64871990:a43638278", "current_trial": 40, "dateTime": 1691144196332, "trialdata": {"revealed_states": [], "clicked_states": ["32", "31", "33", "21", "22", "20", "17", "16", "18", "7", "6", "5", "9", "11", "10", "28"], "num_clicks_accrued": [0, 0, 0, 0, 0, 0, 0, 0, 0, 0, 0, 0, 0], "stateRewards": ["", -2, -1, -1, 5, -54, -87, 35, 2, -8, 20, -22, 1, 3, 6, 13, -75, -32, -55, -3, 56, 62, -22, -1, -4, -1, -7, -51, 84, 70, 7, -15, 5, 55], "withholdReward": false, "trial_id": "mdp_trial_32", "block": "test", "trialIndex": 33, "score": 48.60000000000001, "costs": -22.399999999999995, "simulationMode": [null, null, null, null, null], "rewards": [-1, -4, -1, -7, 84], "path": ["0", "0", "23", "24", "25", "26", "28"], "rt": [44203, 145, 236, 541, 363], "actions": ["left", "left", "left", "up", "right"], "actionTimes": [46409, 47075, 47834, 48889, 49760], "queries": {"click": {"state": {"target": ["32", "31", "33", "21", "22", "20", "17", "16", "18", "7", "6", "5", "9", "11", "10", "28"], "time": [4030, 6212, 8590, 11610, 13829, 15798, 18371, 20353, 22328, 24390, 26426, 28506, 30603, 32700, 34686, 36711]}, "edge": {"target": [], "time": []}}, "mouseover": {"state": {"target": ["0", "32", "31", "33", "32", "21", "21", "22", "19", "20", "17", "16", "16", "18", "7", "6", "5", "9", "11", "10", "24", "24", "28", "27", "27", "20", "12", "1", "10", "11", "27", "26", "29", "26", "27", "29", "24"], "time": [2873, 3359, 5942, 8207, 9105, 10890, 11287, 13271, 14271, 14320, 17503, 19352, 19602, 21552, 23135, 25284, 27168, 29384, 31217, 33517, 35432, 35865, 36065, 37816, 39809, 40666, 40715, 40849, 40946, 41017, 41466, 42582, 43269, 43363, 43634, 44762, 44931]}, "edge": {"target": [], "time": []}}, "mouseout": {"state": {"target": ["19", "14", "13", "12", "0", "0", "32", "31", "32", "33", "32", "21", "21", "21", "22", "19", "20", "17", "16", "16", "18", "7", "6", "5", "9", "11", "10", "24", "24", "28", "27", "27", "28", "20", "12", "1", "10", "11", "27", "26", "29", "26", "27", "29", "24", "5", "6", "16"], "time": [826, 874, 1057, 1090, 1123, 3014, 4522, 6606, 7607, 9039, 9121, 10921, 11661, 12887, 14221, 14304, 16887, 18906, 19452, 20528, 22475, 24751, 26867, 29168, 31099, 33091, 35035, 35582, 35999, 36790, 39540, 40080, 40133, 40699, 40731, 40896, 40963, 41083, 42534, 42646, 43294, 43380, 44586, 44884, 44946, 51900, 51926, 51944]}, "edge": {"target": [], "time": []}}}, "displayed_time": "50.28", "trialTime": 52583, "trial_type": "mouselab-mdp", "trial_index": 40, "time_elapsed": 1608432, "internal_node_id": "0.0-4.0-1.0-31.0"}}, {"uniqueid": "w64871990:a43638278", "current_trial": 41, "dateTime": 1691144239791, "trialdata": {"revealed_states": [], "clicked_states": ["29", "27", "28", "31", "33", "32", "21", "20", "22", "17", "18", "16"], "num_clicks_accrued": [0, 0, 0, 0, 0, 0, 0, 0, 0, 0, 0, 0, 0], "stateRewards": ["", 2, -1, -1, 7, 11, -40, -22, -2, 69, 37, 8, -2, 4, -8, -12, -2, -72, -3, -12, 17, 63, 12, 1, 3, -7, 6, 25, 61, 61, -9, 28, -17, 27], "withholdReward": false, "trial_id": "mdp_trial_33", "block": "test", "trialIndex": 34, "score": 28.200000000000003, "costs": -16.8, "simulationMode": [null, null, null, null, null], "rewards": [-2, 4, -8, -12, 63], "path": ["0", "0", "12", "13", "14", "19", "21"], "rt": [34134, 84, 360, 911, 365], "actions": ["right", "right", "right", "down", "down"], "actionTimes": [36530, 37133, 38009, 39444, 40329], "queries": {"click": {"state": {"target": ["29", "27", "28", "31", "33", "32", "21", "20", "22", "17", "18", "16"], "time": [5097, 7280, 9469, 11923, 14577, 16640, 19935, 23810, 26153, 28856, 31376, 33322]}, "edge": {"target": [], "time": []}}, "mouseover": {"state": {"target": ["24", "26", "26", "26", "29", "27", "28", "31", "30", "33", "32", "21", "20", "22", "19", "17", "15", "18", "16"], "time": [3926, 3987, 4147, 4423, 4789, 6608, 9174, 11293, 13891, 14221, 15419, 19521, 23388, 25183, 28170, 28566, 30653, 31051, 31931]}, "edge": {"target": [], "time": []}}, "mouseout": {"state": {"target": ["20", "21", "22", "0", "24", "26", "26", "26", "29", "27", "28", "28", "31", "30", "33", "32", "21", "20", "22", "19", "17", "17", "15", "18", "16"], "time": [824, 939, 1275, 3029, 3950, 4057, 4157, 4475, 6138, 7887, 9578, 10020, 13860, 13911, 15285, 17119, 22020, 24699, 27049, 28200, 29765, 30619, 30685, 31814, 35164]}, "edge": {"target": [], "time": []}}}, "displayed_time": "40.85", "trialTime": 43023, "trial_type": "mouselab-mdp", "trial_index": 41, "time_elapsed": 1651892, "internal_node_id": "0.0-4.0-1.0-32.0"}}, {"uniqueid": "w64871990:a43638278", "current_trial": 42, "dateTime": 1691144257148, "trialdata": {"revealed_states": [], "clicked_states": ["10", "7"], "num_clicks_accrued": [0, 0, 0, 0, 0, 0, 0, 0, 0, 0, 0, 0, 0], "stateRewards": ["", 2, 2, 3, -15, 23, -14, 73, -7, -32, -20, -6, 1, 1, -5, -12, 73, 6, -84, 11, -81, -57, 13, -2, -1, -4, -8, -52, -58, 49, 13, 5, -41, -41], "withholdReward": false, "trial_id": "mdp_trial_34", "block": "test", "trialIndex": 35, "score": 62.2, "costs": -2.8, "simulationMode": [null, null, null, null, null], "rewards": [2, 2, 3, -15, 73], "path": ["0", "0", "1", "2", "3", "4", "7"], "rt": [7902, 317, 242, 432, 145], "actions": ["up", "up", "up", "right", "down"], "actionTimes": [9618, 10452, 11210, 12150, 12812], "queries": {"click": {"state": {"target": ["10", "7"], "time": [3302, 5784]}, "edge": {"target": [], "time": []}}, "mouseover": {"state": {"target": ["1", "2", "10", "1", "7", "6"], "time": [2370, 2773, 2821, 5274, 5516, 7575]}, "edge": {"target": [], "time": []}}, "mouseout": {"state": {"target": ["9", "11", "0", "1", "2", "10", "10", "1", "7", "6", "16"], "time": [302, 718, 2283, 2537, 2804, 3433, 3868, 5320, 7233, 14616, 14649]}, "edge": {"target": [], "time": []}}}, "displayed_time": "15.72", "trialTime": 16936, "trial_type": "mouselab-mdp", "trial_index": 42, "time_elapsed": 1669249, "internal_node_id": "0.0-4.0-1.0-33.0"}}, {"uniqueid": "w64871990:a43638278", "current_trial": 43, "dateTime": 1691144282192, "trialdata": {"revealed_states": [], "clicked_states": ["5", "9", "11", "10", "6"], "num_clicks_accrued": [0, 0, 0, 0, 0, 0, 0, 0, 0, 0, 0, 0, 0], "stateRewards": ["", 1, 2, -3, 6, -88, 74, -45, 7, -46, 40, -77, 1, -4, 4, 3, 22, -25, -59, 8, -83, 19, -60, -1, -1, -1, -8, 26, -29, 64, -7, -88, -51, -55], "withholdReward": false, "trial_id": "mdp_trial_35", "block": "test", "trialIndex": 36, "score": 73, "costs": -7, "simulationMode": [null, null, null, null, null], "rewards": [1, 2, -3, 6, 74], "path": ["0", "0", "1", "2", "3", "4", "6"], "rt": [15976, 198, 236, 532, 270], "actions": ["up", "up", "up", "right", "right"], "actionTimes": [18265, 18977, 19732, 20777, 21562], "queries": {"click": {"state": {"target": ["5", "9", "11", "10", "6"], "time": [3868, 6652, 9678, 12151, 14663]}, "edge": {"target": [], "time": []}}, "mouseover": {"state": {"target": ["4", "5", "4", "7", "7", "3", "9", "9", "8", "10", "10", "11", "10", "7", "6", "18"], "time": [3330, 3427, 4562, 4611, 5932, 5983, 6145, 6379, 7230, 7311, 9031, 9393, 11863, 13626, 14093, 16760]}, "edge": {"target": [], "time": []}}, "mouseout": {"state": {"target": ["31", "24", "28", "23", "0", "4", "5", "4", "7", "7", "3", "9", "9", "8", "10", "10", "11", "10", "7", "6", "18"], "time": [999, 1044, 1216, 1331, 3096, 3377, 4545, 4594, 4694, 5956, 6013, 6163, 7187, 7278, 7361, 9210, 10160, 12543, 13692, 15392, 16791]}, "edge": {"target": [], "time": []}}}, "displayed_time": "22.08", "trialTime": 24645, "trial_type": "mouselab-mdp", "trial_index": 43, "time_elapsed": 1694292, "internal_node_id": "0.0-4.0-1.0-34.0"}}, {"uniqueid": "w64871990:a43638278", "current_trial": 44, "dateTime": 1691144313968, "trialdata": {"revealed_states": [], "clicked_states": ["16", "17", "18", "20", "21", "22", "9"], "num_clicks_accrued": [0, 0, 0, 0, 0, 0, 0, 0, 0, 0, 0, 0, 0], "stateRewards": ["", 1, 2, 2, -15, -84, 28, -26, 13, 31, 86, 30, -2, 1, -1, -8, 66, -40, -1, -10, -32, 57, -17, 1, 2, -2, 9, -23, 77, 85, 12, -32, -62, -35], "withholdReward": false, "trial_id": "mdp_trial_36", "block": "test", "trialIndex": 37, "score": 46.2, "costs": -9.8, "simulationMode": [null, null, null, null, null], "rewards": [-2, 1, -1, -8, 66], "path": ["0", "0", "12", "13", "14", "15", "16"], "rt": [23280, 313, 247, 400, 305], "actions": ["right", "right", "right", "up", "up"], "actionTimes": [25672, 26477, 27244, 28165, 28985], "queries": {"click": {"state": {"target": ["16", "17", "18", "20", "21", "22", "9"], "time": [4697, 7427, 10021, 12713, 15185, 17850, 21145]}, "edge": {"target": [], "time": []}}, "mouseover": {"state": {"target": ["19", "14", "15", "16", "15", "14", "14", "17", "14", "18", "13", "19", "20", "21", "22", "3", "9", "9", "8", "10", "0"], "time": [3905, 3984, 4083, 4319, 5134, 5673, 6916, 7050, 9358, 9533, 10566, 12166, 12437, 14720, 17513, 20445, 20681, 20819, 21613, 21779, 23522]}, "edge": {"target": [], "time": []}}, "mouseout": {"state": {"target": ["20", "21", "20", "21", "0", "19", "14", "15", "16", "16", "15", "14", "14", "17", "17", "14", "18", "13", "19", "20", "21", "21", "22", "22", "3", "9", "9", "8", "10", "0", "1"], "time": [872, 917, 1353, 1500, 2988, 3950, 4050, 4186, 4799, 5084, 5317, 5712, 6982, 7500, 8166, 9467, 10516, 10715, 12238, 13048, 15715, 17381, 18314, 20267, 20565, 20698, 21513, 21730, 21813, 23548, 30567]}, "edge": {"target": [], "time": []}}}, "displayed_time": "29.50", "trialTime": 31367, "trial_type": "mouselab-mdp", "trial_index": 44, "time_elapsed": 1726068, "internal_node_id": "0.0-4.0-1.0-35.0"}}, {"uniqueid": "w64871990:a43638278", "current_trial": 45, "dateTime": 1691144341968, "trialdata": {"revealed_states": [], "clicked_states": ["5", "6", "7", "10", "11", "9"], "num_clicks_accrued": [0, 0, 0, 0, 0, 0, 0, 0, 0, 0, 0, 0, 0], "stateRewards": ["", -2, 3, 3, -14, 62, 36, 49, 16, 11, 17, -84, 2, -1, 6, 2, -82, -73, 49, -6, -87, 48, 50, -1, -2, -1, -16, -11, 37, -44, 4, 55, 73, -10], "withholdReward": false, "trial_id": "mdp_trial_37", "block": "test", "trialIndex": 38, "score": 43.6, "costs": -8.4, "simulationMode": [null, null, null, null, null], "rewards": [-2, 3, 3, -14, 62], "path": ["0", "0", "1", "2", "3", "4", "5"], "rt": [18377, 151, 219, 531, 861], "actions": ["up", "up", "up", "right", "up"], "actionTimes": [20458, 21123, 21859, 22904, 24283], "queries": {"click": {"state": {"target": ["5", "6", "7", "10", "11", "9"], "time": [3413, 7464, 9802, 12255, 14444, 16401]}, "edge": {"target": [], "time": []}}, "mouseover": {"state": {"target": ["7", "4", "5", "4", "7", "7", "4", "6", "7", "12", "1", "10", "11", "8", "9", "2", "1", "12", "12", "22", "19"], "time": [2840, 2924, 3143, 4069, 4111, 5759, 6063, 6259, 9472, 10289, 11626, 11841, 13976, 15074, 15505, 16988, 17071, 17204, 18571, 18610, 18639]}, "edge": {"target": [], "time": []}}, "mouseout": {"state": {"target": ["13", "12", "0", "7", "4", "5", "4", "7", "7", "4", "6", "7", "12", "1", "10", "11", "8", "9", "9", "2", "1", "12", "12", "22", "19"], "time": [1125, 1223, 2690, 2890, 3058, 4040, 4089, 4158, 5974, 6091, 8023, 10140, 11323, 11672, 13655, 15022, 15104, 16549, 16871, 17038, 17104, 17637, 18594, 18624, 18689]}, "edge": {"target": [], "time": []}}}, "displayed_time": "24.80", "trialTime": 27483, "trial_type": "mouselab-mdp", "trial_index": 45, "time_elapsed": 1754069, "internal_node_id": "0.0-4.0-1.0-36.0"}}, {"uniqueid": "w64871990:a43638278", "current_trial": 46, "dateTime": 1691144362146, "trialdata": {"revealed_states": [], "clicked_states": ["29", "27", "28"], "num_clicks_accrued": [0, 0, 0, 0, 0, 0, 0, 0, 0, 0, 0, 0, 0], "stateRewards": ["", -2, 3, -5, -7, 66, 43, -60, -4, -70, -75, 4, -1, 2, 2, -13, 54, 11, -40, -1, 77, 32, 15, -2, 3, -8, -9, -35, 83, -27, 6, -74, -34, 44], "withholdReward": false, "trial_id": "mdp_trial_38", "block": "test", "trialIndex": 39, "score": 62.8, "costs": -4.199999999999999, "simulationMode": [null, null, null, null, null], "rewards": [-2, 3, -8, -9, 83], "path": ["0", "0", "23", "24", "25", "26", "28"], "rt": [10575, 314, 267, 644, 361], "actions": ["left", "left", "left", "up", "right"], "actionTimes": [13136, 13959, 14745, 15906, 16788], "queries": {"click": {"state": {"target": ["29", "27", "28"], "time": [4352, 6918, 9338]}, "edge": {"target": [], "time": []}}, "mouseover": {"state": {"target": ["23", "24", "25", "29", "30", "30", "25", "26", "27", "28", "24", "24", "28"], "time": [3580, 3628, 3661, 3913, 4962, 6311, 6360, 6444, 6697, 7344, 7395, 8228, 9080]}, "edge": {"target": [], "time": []}}, "mouseout": {"state": {"target": ["20", "14", "0", "23", "24", "25", "29", "30", "30", "25", "26", "27", "28", "24", "24", "28"], "time": [1148, 1529, 3512, 3613, 3645, 3678, 4779, 5111, 6327, 6410, 6550, 7294, 7361, 7561, 8867, 9693]}, "edge": {"target": [], "time": []}}}, "displayed_time": "17.32", "trialTime": 19755, "trial_type": "mouselab-mdp", "trial_index": 46, "time_elapsed": 1774246, "internal_node_id": "0.0-4.0-1.0-37.0"}}, {"uniqueid": "w64871990:a43638278", "current_trial": 47, "dateTime": 1691144407254, "trialdata": {"revealed_states": [], "clicked_states": ["5", "9", "29", "11", "6", "2", "32", "33", "31", "21", "20"], "num_clicks_accrued": [0, 0, 0, 0, 0, 0, 0, 0, 0, 0, 0, 0, 0], "stateRewards": ["", 1, -1, 4, 5, -32, 18, 20, 6, -88, -74, 9, -2, 1, -2, -14, 34, -77, -38, -1, 80, -36, 73, 2, 3, -8, 10, -48, -73, -71, -11, -22, 20, 54], "withholdReward": false, "trial_id": "mdp_trial_39", "block": "test", "trialIndex": 40, "score": 60.599999999999994, "costs": -15.400000000000002, "simulationMode": [null, null, null, null, null], "rewards": [-2, 1, -2, -1, 80], "path": ["0", "0", "12", "13", "14", "19", "20"], "rt": [33613, 341, 305, 647, 575], "actions": ["right", "right", "right", "down", "right"], "actionTimes": [38146, 39009, 39836, 40994, 42072], "queries": {"click": {"state": {"target": ["5", "9", "29", "11", "6", "2", "32", "33", "31", "21", "20"], "time": [6256, 9025, 11794, 14320, 16616, 19312, 21963, 25544, 28346, 31486, 34046]}, "edge": {"target": [], "time": []}}, "mouseover": {"state": {"target": ["7", "5", "4", "7", "2", "3", "9", "8", "10", "23", "24", "26", "29", "30", "32", "30", "25", "26", "11", "10", "2", "7", "7", "6", "13", "12", "1", "2", "1", "32", "33", "31", "21", "20"], "time": [5306, 5774, 6704, 6821, 8310, 8369, 8487, 9420, 9486, 9605, 11238, 11388, 11439, 12186, 12236, 13736, 13801, 13851, 14003, 14735, 14802, 14852, 15967, 16233, 18649, 18717, 18900, 19037, 19634, 21634, 24384, 27950, 31115, 33682]}, "edge": {"target": [], "time": []}}, "mouseout": {"state": {"target": ["12", "12", "0", "0", "0", "7", "5", "4", "7", "2", "3", "9", "8", "10", "23", "24", "26", "29", "30", "32", "30", "25", "26", "11", "11", "10", "2", "7", "7", "6", "13", "12", "1", "2", "1", "32", "33", "32", "31", "21", "20"], "time": [584, 2436, 3374, 3741, 5156, 5337, 6654, 6771, 6887, 8342, 8419, 9403, 9470, 9520, 9653, 11287, 11408, 12102, 12203, 13692, 13784, 13834, 13884, 14425, 14669, 14785, 14835, 15402, 16051, 16988, 18683, 18735, 18916, 19617, 19684, 22333, 26099, 26215, 28748, 33433, 34530]}, "edge": {"target": [], "time": []}}}, "displayed_time": "42.58", "trialTime": 44714, "trial_type": "mouselab-mdp", "trial_index": 47, "time_elapsed": 1819355, "internal_node_id": "0.0-4.0-1.0-38.0"}}, {"uniqueid": "w64871990:a43638278", "current_trial": 48, "dateTime": 1691144451605, "trialdata": {"revealed_states": [], "clicked_states": ["17", "20", "21", "22", "16", "18", "32", "31"], "num_clicks_accrued": [0, 0, 0, 0, 0, 0, 0, 0, 0, 0, 0, 0, 0], "stateRewards": ["", 2, 4, -3, 16, -58, 30, -35, 11, -60, 47, 27, -2, -1, -7, -16, 23, -70, 68, -10, -65, -43, -34, -2, 1, 7, 9, -63, 34, -31, -8, -12, -86, 59], "withholdReward": false, "trial_id": "mdp_trial_40", "block": "test", "trialIndex": 41, "score": -14.200000000000003, "costs": -11.200000000000001, "simulationMode": [null, null, null, null, null], "rewards": [-2, -1, -7, -16, 23], "path": ["0", "0", "12", "13", "14", "15", "16"], "rt": [30544, 180, 459, 2809, 331], "actions": ["right", "right", "right", "up", "up"], "actionTimes": [32794, 33480, 34460, 37775, 38597], "queries": {"click": {"state": {"target": ["17", "20", "21", "22", "16", "18", "32", "31"], "time": [3755, 6498, 9112, 11515, 13952, 16904, 20052, 22360]}, "edge": {"target": [], "time": []}}, "mouseover": {"state": {"target": ["20", "17", "20", "21", "22", "19", "14", "16", "15", "14", "13", "18", "12", "32", "31", "32", "33"], "time": [2922, 3356, 6122, 8786, 11253, 13102, 13169, 13621, 15002, 15170, 15829, 16621, 18169, 19643, 22035, 25050, 25899]}, "edge": {"target": [], "time": []}}, "mouseout": {"state": {"target": ["0", "0", "20", "17", "20", "21", "22", "19", "14", "16", "15", "14", "13", "18", "12", "32", "31", "32", "33"], "time": [921, 2684, 2972, 4673, 6838, 10989, 12237, 13136, 13238, 14936, 15069, 15269, 16269, 17936, 18186, 21318, 22884, 25372, 30033]}, "edge": {"target": [], "time": []}}}, "displayed_time": "39.12", "trialTime": 43891, "trial_type": "mouselab-mdp", "trial_index": 48, "time_elapsed": 1863706, "internal_node_id": "0.0-4.0-1.0-39.0"}}, {"uniqueid": "w64871990:a43638278", "current_trial": 49, "dateTime": 1691144562942, "trialdata": {"rt": 111322, "response": {"Q0": "$-2 to $2", "Q1": "$-16 to $16", "Q2": "$-88 to $88", "Q3": "The cost was always $1.4.", "Q4": "Very motivated"}, "question_order": [0, 1, 2, 3, 4], "trial_id": "final_quiz_control", "trial_type": "survey-multi-choice", "trial_index": 49, "time_elapsed": 1975043, "internal_node_id": "0.0-4.0-2.0"}}, {"uniqueid": "w64871990:a43638278", "current_trial": 50, "dateTime": 1691144925902, "trialdata": {"rt": 362890, "response": {"Q0": "Minimise the losses. Therefore I checked the last nodes for biggest gains and to avoid the big losses", "Q1": "Yes, I used the checker more than I had used at the beginning as I found out paying the1.4 was better than -88, for example.\n\nAt first I focused on the nodes closer to the start but I changed to focus on the last nodes. \n", "Q2": "Not difficult, very easy. "}, "trial_id": "self_report_control", "trial_type": "survey-text", "trial_index": 50, "time_elapsed": 2338004, "internal_node_id": "0.0-4.0-3.0"}}, {"uniqueid": "w64871990:a43638278", "current_trial": 51, "dateTime": 1691144984896, "trialdata": {"rt": 58955, "response": {"gender": "female", "age": "53", "colorblind": "0", "effort": "0"}, "trial_type": "survey-html-form", "trial_index": 51, "time_elapsed": 2396998, "internal_node_id": "0.0-4.0-4.0"}}, {"uniqueid": "w64871990:a43638278", "current_trial": 52, "dateTime": 1691145463325, "trialdata": {"rt": 478410, "response": {"Q0": "At first I thought that the 3s/(10s for the tests) meant that you had to do all the clicks you want to do in 3s.\n\nI saw that it was not so around the 20th game and from there I could do as many checks as I wanted and I performed much better. ", "Q1": "No. This was my first time", "Q2": ""}, "trial_type": "survey-text", "trial_index": 52, "time_elapsed": 2875427, "internal_node_id": "0.0-4.0-5.0"}}, {"uniqueid": "w64871990:a43638278", "current_trial": 53, "dateTime": 1691145467789, "trialdata": {"rt": 4429, "stimulus": "Press 'Finish HIT' in order to reach the completion code. Once the data has been saved, you will receive the code either in this window or in the original browser window where you started the experiment.\n", "response": 0, "trial_type": "html-button-response", "trial_index": 53, "time_elapsed": 2879891, "internal_node_id": "0.0-5.0"}}, {"uniqueid": "w64871990:a43638278", "current_trial": 54, "dateTime": 1691145468835, "trialdata": {"success": true, "trial_type": "fullscreen", "trial_index": 54, "time_elapsed": 2880937, "internal_node_id": "0.0-6.0"}}], "questiondata": {"params": {"CODE": "C6DMOQA6", "MIN_TIME": 14, "inspectCost": 1, "startTime": "Fri Aug 04 2023 11:49:45 GMT+0200 (South Africa Standard Time)", "bonusRate": 0.002, "variance": "1_2_4_8_44", "branching": "31123"}, "final_score": 929.4}, "eventdata": [{"eventtype": "initialized", "value": null, "timestamp": 1691142585113, "interval": 0}, {"eventtype": "window_resize", "value": [1024, 654], "timestamp": 1691142585113, "interval": 0}, {"eventtype": "window_resize", "value": [1024, 654], "timestamp": 1691142585632, "interval": 519}, {"eventtype": "window_resize", "value": [1366, 768], "timestamp": 1691142596131, "interval": 10499}, {"eventtype": "window_resize", "value": [1024, 654], "timestamp": 1691145468249, "interval": 2872118}], "useragent": "Mozilla/5.0 (Windows NT 10.0; Win64; x64) AppleWebKit/537.36 (KHTML, like Gecko) Chrome/115.0.0.0 Safari/537.36", "mode": "live", "id": "w64871990:a43638278", "status": "user data saved", "Beginhit": "2023-08-04 09:49:41.149233", "Beginexp": "2023-08-04 09:49:58.06222", "Endhit": "2023-08-04 10:37:51.646689", "psiturkStatus": 3, "browser": "<redacted>", "platform": "windows", "language": "en-US"}