{"condition": 0, "counterbalance": 0, "assignmentId": "a16630884", "workerId": "w82709030", "hitId": "h32438272", "currenttrial": 55, "bonus": 0, "data": [{"uniqueid": "w82709030:a16630884", "current_trial": 0, "dateTime": 1691070728009, "trialdata": {"success": true, "trial_type": "fullscreen", "trial_index": 0, "time_elapsed": 5297, "internal_node_id": "0.0-0.0"}}, {"uniqueid": "w82709030:a16630884", "current_trial": 1, "dateTime": 1691070759071, "trialdata": {"view_history": [{"page_index": 0, "viewing_time": 31036}], "rt": 31038, "trial_id": "exp_instructions_control", "trial_type": "instructions", "trial_index": 1, "time_elapsed": 36362, "internal_node_id": "0.0-1.0"}}, {"uniqueid": "w82709030:a16630884", "current_trial": 2, "dateTime": 1691070764549, "trialdata": {"success": true, "trial_type": "fullscreen", "trial_index": 2, "time_elapsed": 41839, "internal_node_id": "0.0-2.0-0.0"}}, {"uniqueid": "w82709030:a16630884", "current_trial": 3, "dateTime": 1691071088232, "trialdata": {"view_history": [{"page_index": 0, "viewing_time": 116018}, {"page_index": 1, "viewing_time": 102648}, {"page_index": 2, "viewing_time": 36063}, {"page_index": 3, "viewing_time": 68941}], "rt": 323671, "trial_id": "mouselab_instructions_1_control", "trial_type": "instructions", "trial_index": 3, "time_elapsed": 365523, "internal_node_id": "0.0-2.0-1.0"}}, {"uniqueid": "w82709030:a16630884", "current_trial": 4, "dateTime": 1691071106493, "trialdata": {"revealed_states": [], "clicked_states": [], "num_clicks_accrued": [0, 0, 0, 0, 0, 0, 0, 0, 0, 0, 0, 0, 0], "stateRewards": ["", 10, -10, 10, 10, 10, -10, 10, -10, 10, -10, 10, -10, 10, -10, 10, 10, 10, -10, 10, 10, 10, 10, 10, 10, -10, -10, 10, -10, 10, -10, -10, -10, -10], "withholdReward": false, "trial_id": "practice_1", "block": "test", "trialIndex": 0, "score": 13.5, "costs": 0, "simulationMode": [null, null, null, null, null], "rewards": [10, 10, -10, -10, 10], "path": ["0", "0", "23", "24", "25", "26", "29"], "rt": [1529, 364, 206, 545, 77], "actions": ["left", "left", "left", "up", "left"], "actionTimes": [7010, 7920, 8671, 9734, 10349], "queries": {"click": {"state": {"target": [], "time": []}, "edge": {"target": [], "time": []}}, "mouseover": {"state": {"target": [], "time": []}, "edge": {"target": [], "time": []}}, "mouseout": {"state": {"target": ["0"], "time": [14874]}, "edge": {"target": [], "time": []}}}, "displayed_time": "10.85", "trialTime": 16655, "trial_type": "mouselab-mdp", "trial_index": 4, "time_elapsed": 383782, "internal_node_id": "0.0-2.0-2.0-0.0"}}, {"uniqueid": "w82709030:a16630884", "current_trial": 5, "dateTime": 1691071133819, "trialdata": {"revealed_states": [], "clicked_states": [], "num_clicks_accrued": [0, 0, 0, 0, 0, 0, 0, 0, 0, 0, 0, 0, 0], "stateRewards": ["", -10, 10, 10, -10, -10, -10, -10, -10, 10, 10, -10, -10, 10, -10, 10, -10, -10, -10, 10, -10, 10, 10, 10, 10, 10, 10, 10, -10, 10, 10, 10, -10, 10], "withholdReward": false, "trial_id": "practice_2", "block": "test", "trialIndex": 1, "score": 53.5, "costs": 0, "simulationMode": [null, null, null, null, null], "rewards": [10, 10, 10, 10, 10], "path": ["0", "0", "23", "24", "25", "30", "31"], "rt": [2704, 297, 227, 155, 589], "actions": ["left", "left", "left", "down", "right"], "actionTimes": [15606, 16419, 17163, 17824, 18927], "queries": {"click": {"state": {"target": [], "time": []}, "edge": {"target": [], "time": []}}, "mouseover": {"state": {"target": [], "time": []}, "edge": {"target": [], "time": []}}, "mouseout": {"state": {"target": ["0"], "time": [25404]}, "edge": {"target": [], "time": []}}}, "displayed_time": "19.45", "trialTime": 26140, "trial_type": "mouselab-mdp", "trial_index": 5, "time_elapsed": 411108, "internal_node_id": "0.0-2.0-2.0-1.0"}}, {"uniqueid": "w82709030:a16630884", "current_trial": 6, "dateTime": 1691071190051, "trialdata": {"view_history": [{"page_index": 0, "viewing_time": 40181}, {"page_index": 1, "viewing_time": 16035}], "rt": 56217, "trial_id": "mouselab_instructions_2_control", "trial_type": "instructions", "trial_index": 6, "time_elapsed": 467342, "internal_node_id": "0.0-2.0-3.0"}}, {"uniqueid": "w82709030:a16630884", "current_trial": 7, "dateTime": 1691071233823, "trialdata": {"rt": 43755, "response": {"Q0": "The cost for clicking on nodes may vary between nodes.", "Q1": "The better I perform the higher my bonus will be.", "Q2": "No, the amount of cash at each node of the web may be different each time.", "Q3": "To get the highest total score.", "Q4": "Only before moving the spider.", "Q5": "3 seconds"}, "question_order": [0, 1, 2, 3, 4, 5], "correct": {"Q0": "The cost for clicking on nodes may vary between nodes.", "Q1": "The better I perform the higher my bonus will be.", "Q2": "No, the amount of cash at each node of the web may be different each time.", "Q3": "To get the highest total score.", "Q4": "Only before moving the spider.", "Q5": "3 seconds"}, "trial_id": "mouselab_quiz_control", "trial_type": "survey-multi-choice", "trial_index": 7, "time_elapsed": 511113, "internal_node_id": "0.0-2.0-4.0"}}, {"uniqueid": "w82709030:a16630884", "current_trial": 8, "dateTime": 1691071256313, "trialdata": {"rt": 22464, "stimulus": "\n<h1> Get ready to start the game! </h1>\n\nThank you for reading the instructions. Get ready start with the 40 rounds of this game.\n<br><br>\nIf you need to take a break, feel free to take one after the end of a round, before continuing to the next one.\n<br><br>\nRemember, the more money the spider gets, the bigger your bonus will be!\n<br><br>\n<div style='text-align: center;'>Press <code>space</code> to begin.</div>\n\n<br><br>\n(If, at any point, the <code>space</code> key does not take you to the next page, click once on the text and try again.)", "response": " ", "trial_id": "mdp_ready", "trial_type": "html-keyboard-response", "trial_index": 8, "time_elapsed": 533604, "internal_node_id": "0.0-4.0-0.0"}}, {"uniqueid": "w82709030:a16630884", "current_trial": 9, "dateTime": 1691071277772, "trialdata": {"revealed_states": [], "clicked_states": [], "num_clicks_accrued": [0, 0, 0, 0, 0, 0, 0, 0, 0, 0, 0, 0, 0], "stateRewards": ["", 2, -3, 5, -14, -63, -9, -24, -11, -54, -43, 68, 2, -2, -4, 7, -64, 30, 47, 12, -74, 11, 86, 1, -3, 3, 10, -71, -42, -52, -1, -29, -16, 69], "withholdReward": false, "trial_id": "mdp_trial_1", "block": "test", "trialIndex": 2, "score": -34, "costs": 0, "simulationMode": [null, null, null, null, null], "rewards": [2, -3, 5, -14, -24], "path": ["0", "0", "1", "2", "3", "4", "7"], "rt": [2093, 120, 407, 702, 771], "actions": ["up", "up", "up", "right", "down"], "actionTimes": [5545, 6191, 7174, 8394, 9676], "queries": {"click": {"state": {"target": [], "time": []}, "edge": {"target": [], "time": []}}, "mouseover": {"state": {"target": [], "time": []}, "edge": {"target": [], "time": []}}, "mouseout": {"state": {"target": ["10", "0", "0"], "time": [1808, 2265, 12831]}, "edge": {"target": [], "time": []}}}, "displayed_time": "17.45", "trialTime": 20220, "trial_type": "mouselab-mdp", "trial_index": 9, "time_elapsed": 555062, "internal_node_id": "0.0-4.0-1.0-0.0"}}, {"uniqueid": "w82709030:a16630884", "current_trial": 10, "dateTime": 1691071300400, "trialdata": {"revealed_states": [], "clicked_states": [], "num_clicks_accrued": [0, 0, 0, 0, 0, 0, 0, 0, 0, 0, 0, 0, 0], "stateRewards": ["", 2, -4, -4, 13, -80, 62, 13, -11, 57, -13, -44, 1, 4, 3, -4, -29, -88, 15, 16, -58, 68, -45, -1, -3, -1, -9, -44, -86, -19, -7, -36, 59, 66], "withholdReward": false, "trial_id": "mdp_trial_2", "block": "test", "trialIndex": 3, "score": -34, "costs": 0, "simulationMode": [null, null, null, null, null], "rewards": [1, 4, 3, 16, -58], "path": ["0", "0", "12", "13", "14", "19", "20"], "rt": [2207, 360, 579, 658, 395], "actions": ["right", "right", "right", "down", "right"], "actionTimes": [6954, 7860, 8956, 10130, 11032], "queries": {"click": {"state": {"target": [], "time": []}, "edge": {"target": [], "time": []}}, "mouseover": {"state": {"target": ["0"], "time": [5460]}, "edge": {"target": [], "time": []}}, "mouseout": {"state": {"target": ["0", "0"], "time": [3365, 12561]}, "edge": {"target": [], "time": []}}}, "displayed_time": "18.75", "trialTime": 21399, "trial_type": "mouselab-mdp", "trial_index": 10, "time_elapsed": 577688, "internal_node_id": "0.0-4.0-1.0-1.0"}}, {"uniqueid": "w82709030:a16630884", "current_trial": 11, "dateTime": 1691071320852, "trialdata": {"revealed_states": [], "clicked_states": [], "num_clicks_accrued": [0, 0, 0, 0, 0, 0, 0, 0, 0, 0, 0, 0, 0], "stateRewards": ["", -1, -3, 1, -4, -48, -63, -49, -2, -84, -19, 65, 2, -2, -2, -12, -4, 59, 9, 6, 75, 69, -13, -1, -3, -3, -2, -37, -68, -36, 13, 32, 18, -14], "withholdReward": false, "trial_id": "mdp_trial_3", "block": "test", "trialIndex": 4, "score": -45, "costs": 0, "simulationMode": [null, null, null, null, null], "rewards": [-1, -3, -3, -2, -36], "path": ["0", "0", "23", "24", "25", "26", "29"], "rt": [786, 701, 1171, 2352, 147], "actions": ["left", "left", "left", "up", "left"], "actionTimes": [3590, 4838, 6603, 9480, 10141], "queries": {"click": {"state": {"target": [], "time": []}, "edge": {"target": [], "time": []}}, "mouseover": {"state": {"target": [], "time": []}, "edge": {"target": [], "time": []}}, "mouseout": {"state": {"target": ["0"], "time": [13009]}, "edge": {"target": [], "time": []}}}, "displayed_time": "16.81", "trialTime": 19144, "trial_type": "mouselab-mdp", "trial_index": 11, "time_elapsed": 598141, "internal_node_id": "0.0-4.0-1.0-2.0"}}, {"uniqueid": "w82709030:a16630884", "current_trial": 12, "dateTime": 1691071340956, "trialdata": {"revealed_states": [], "clicked_states": [], "num_clicks_accrued": [0, 0, 0, 0, 0, 0, 0, 0, 0, 0, 0, 0, 0], "stateRewards": ["", 2, -1, 8, -2, -16, 69, -39, -7, -13, -27, -86, 2, -2, 2, 13, -34, -16, -20, -5, 19, 81, 32, -2, -1, 2, -14, 20, 80, 58, 4, 70, 12, 73], "withholdReward": false, "trial_id": "mdp_trial_4", "block": "test", "trialIndex": 5, "score": 15, "costs": 0, "simulationMode": [null, null, null, null, null], "rewards": [-2, -1, 2, 4, 12], "path": ["0", "0", "23", "24", "25", "30", "32"], "rt": [1633, 408, 382, 211, 245], "actions": ["left", "left", "left", "down", "down"], "actionTimes": [3832, 4777, 5725, 6451, 7217], "queries": {"click": {"state": {"target": [], "time": []}, "edge": {"target": [], "time": []}}, "mouseover": {"state": {"target": [], "time": []}, "edge": {"target": [], "time": []}}, "mouseout": {"state": {"target": ["0"], "time": [8738]}, "edge": {"target": [], "time": []}}}, "displayed_time": "16.20", "trialTime": 18543, "trial_type": "mouselab-mdp", "trial_index": 12, "time_elapsed": 618243, "internal_node_id": "0.0-4.0-1.0-3.0"}}, {"uniqueid": "w82709030:a16630884", "current_trial": 13, "dateTime": 1691071362027, "trialdata": {"revealed_states": [], "clicked_states": [], "num_clicks_accrued": [0, 0, 0, 0, 0, 0, 0, 0, 0, 0, 0, 0, 0], "stateRewards": ["", -1, 1, 8, -8, -49, 62, -78, 16, 28, -81, 78, -2, -3, -1, -4, 67, 49, -2, -13, -16, -39, 83, 1, -4, 4, -5, -20, 7, 84, 7, -32, -59, 19], "withholdReward": false, "trial_id": "mdp_trial_5", "block": "test", "trialIndex": 6, "score": 102, "costs": 0, "simulationMode": [null, null, null, null, null], "rewards": [-1, 1, 8, 16, 78], "path": ["0", "0", "1", "2", "3", "8", "11"], "rt": [585, 98, 210, 411, 156], "actions": ["up", "up", "up", "left", "left"], "actionTimes": [2905, 3563, 4290, 5244, 5928], "queries": {"click": {"state": {"target": [], "time": []}, "edge": {"target": [], "time": []}}, "mouseover": {"state": {"target": [], "time": []}, "edge": {"target": [], "time": []}}, "mouseout": {"state": {"target": ["0"], "time": [8103]}, "edge": {"target": [], "time": []}}}, "displayed_time": "16.32", "trialTime": 19526, "trial_type": "mouselab-mdp", "trial_index": 13, "time_elapsed": 639316, "internal_node_id": "0.0-4.0-1.0-4.0"}}, {"uniqueid": "w82709030:a16630884", "current_trial": 14, "dateTime": 1691071384095, "trialdata": {"revealed_states": [], "clicked_states": [], "num_clicks_accrued": [0, 0, 0, 0, 0, 0, 0, 0, 0, 0, 0, 0, 0], "stateRewards": ["", -2, -3, 1, -14, 48, -49, 67, -1, -35, -48, 3, -2, 1, -4, -5, 86, -84, 39, 1, 48, 41, -42, -1, -4, 2, -7, 18, -86, 17, 7, -9, 57, -69], "withholdReward": false, "trial_id": "mdp_trial_6", "block": "test", "trialIndex": 7, "score": -94, "costs": 0, "simulationMode": [null, null, null, null, null], "rewards": [-2, 1, -4, -5, -84], "path": ["0", "0", "12", "13", "14", "15", "17"], "rt": [776, 133, 317, 463, 49], "actions": ["right", "right", "right", "up", "right"], "actionTimes": [3184, 3877, 4711, 5690, 6260], "queries": {"click": {"state": {"target": [], "time": []}, "edge": {"target": [], "time": []}}, "mouseover": {"state": {"target": [], "time": []}, "edge": {"target": [], "time": []}}, "mouseout": {"state": {"target": ["0"], "time": [7849]}, "edge": {"target": [], "time": []}}}, "displayed_time": "16.41", "trialTime": 20364, "trial_type": "mouselab-mdp", "trial_index": 14, "time_elapsed": 661384, "internal_node_id": "0.0-4.0-1.0-5.0"}}, {"uniqueid": "w82709030:a16630884", "current_trial": 15, "dateTime": 1691071405415, "trialdata": {"revealed_states": [], "clicked_states": [], "num_clicks_accrued": [0, 0, 0, 0, 0, 0, 0, 0, 0, 0, 0, 0, 0], "stateRewards": ["", -1, 1, 8, -3, -24, 11, -65, -6, -77, 48, 44, -2, 1, -2, -7, -55, -35, 33, 8, -28, 19, -53, -1, -1, -5, -5, -70, 10, 44, 8, -58, -70, 51], "withholdReward": false, "trial_id": "mdp_trial_7", "block": "test", "trialIndex": 8, "score": 32, "costs": 0, "simulationMode": [null, null, null, null, null], "rewards": [-1, -1, -5, -5, 44], "path": ["0", "0", "23", "24", "25", "26", "29"], "rt": [1085, 59, 208, 636, 32], "actions": ["left", "left", "left", "up", "left"], "actionTimes": [3765, 4356, 5106, 6269, 6847], "queries": {"click": {"state": {"target": [], "time": []}, "edge": {"target": [], "time": []}}, "mouseover": {"state": {"target": [], "time": []}, "edge": {"target": [], "time": []}}, "mouseout": {"state": {"target": ["23", "0"], "time": [1154, 8536]}, "edge": {"target": [], "time": []}}}, "displayed_time": "16.68", "trialTime": 19661, "trial_type": "mouselab-mdp", "trial_index": 15, "time_elapsed": 682705, "internal_node_id": "0.0-4.0-1.0-6.0"}}, {"uniqueid": "w82709030:a16630884", "current_trial": 16, "dateTime": 1691071433114, "trialdata": {"revealed_states": [], "clicked_states": [], "num_clicks_accrued": [0, 0, 0, 0, 0, 0, 0, 0, 0, 0, 0, 0, 0], "stateRewards": ["", 2, 3, -2, -8, -8, -41, 74, 15, -23, -80, 1, 1, 3, 3, -15, -63, -78, 67, 13, 75, -41, 86, 2, -2, 6, -3, -8, -49, 50, -6, 83, 74, 80], "withholdReward": false, "trial_id": "mdp_trial_8", "block": "test", "trialIndex": 9, "score": -5, "costs": 0, "simulationMode": [null, null, null, null, null], "rewards": [2, -2, 6, -3, -8], "path": ["0", "0", "23", "24", "25", "26", "27"], "rt": [1596, 128, 142, 549, 325], "actions": ["left", "left", "left", "up", "up"], "actionTimes": [9905, 10563, 11239, 12321, 13188], "queries": {"click": {"state": {"target": [], "time": []}, "edge": {"target": [], "time": []}}, "mouseover": {"state": {"target": [], "time": []}, "edge": {"target": [], "time": []}}, "mouseout": {"state": {"target": ["0"], "time": [8558]}, "edge": {"target": [], "time": []}}}, "displayed_time": "22.31", "trialTime": 25838, "trial_type": "mouselab-mdp", "trial_index": 16, "time_elapsed": 710404, "internal_node_id": "0.0-4.0-1.0-7.0"}}, {"uniqueid": "w82709030:a16630884", "current_trial": 17, "dateTime": 1691071453377, "trialdata": {"revealed_states": [], "clicked_states": [], "num_clicks_accrued": [0, 0, 0, 0, 0, 0, 0, 0, 0, 0, 0, 0, 0], "stateRewards": ["", 1, -4, -4, 8, 1, -79, 68, -10, -79, 8, -74, -1, -3, -6, 14, 43, 23, 9, 5, -51, 63, 61, -2, 4, 6, -10, 69, -32, 57, 15, -80, -80, -77], "withholdReward": false, "trial_id": "mdp_trial_9", "block": "test", "trialIndex": 10, "score": -9, "costs": 0, "simulationMode": [null, null, null, null, null], "rewards": [1, -4, -4, -10, 8], "path": ["0", "0", "1", "2", "3", "8", "10"], "rt": [1172, 736, 461, 894, 988], "actions": ["up", "up", "up", "left", "down"], "actionTimes": [3375, 4648, 5642, 7089, 8614], "queries": {"click": {"state": {"target": [], "time": []}, "edge": {"target": [], "time": []}}, "mouseover": {"state": {"target": [], "time": []}, "edge": {"target": [], "time": []}}, "mouseout": {"state": {"target": ["0", "0"], "time": [1109, 11479]}, "edge": {"target": [], "time": []}}}, "displayed_time": "16.21", "trialTime": 18180, "trial_type": "mouselab-mdp", "trial_index": 17, "time_elapsed": 730666, "internal_node_id": "0.0-4.0-1.0-8.0"}}, {"uniqueid": "w82709030:a16630884", "current_trial": 18, "dateTime": 1691071483299, "trialdata": {"revealed_states": [], "clicked_states": [], "num_clicks_accrued": [0, 0, 0, 0, 0, 0, 0, 0, 0, 0, 0, 0, 0], "stateRewards": ["", -1, -3, -3, 1, -38, 2, -53, -2, -1, -81, 70, -1, 1, -5, -9, 46, 15, 35, -1, -22, 38, 59, -2, 4, -8, 13, 1, -83, -43, 4, 76, 13, 48], "withholdReward": false, "trial_id": "mdp_trial_10", "block": "test", "trialIndex": 11, "score": -10, "costs": 0, "simulationMode": [null, null, null, null, null], "rewards": [-1, -3, -3, -2, -1], "path": ["0", "0", "1", "2", "3", "8", "9"], "rt": [1323, 544, 298, 575, 326], "actions": ["up", "up", "up", "left", "up"], "actionTimes": [12613, 13695, 14523, 15614, 16494], "queries": {"click": {"state": {"target": [], "time": []}, "edge": {"target": [], "time": []}}, "mouseover": {"state": {"target": [], "time": []}, "edge": {"target": [], "time": []}}, "mouseout": {"state": {"target": ["0", "0"], "time": [46, 17550]}, "edge": {"target": [], "time": []}}}, "displayed_time": "25.29", "trialTime": 28070, "trial_type": "mouselab-mdp", "trial_index": 18, "time_elapsed": 760588, "internal_node_id": "0.0-4.0-1.0-9.0"}}, {"uniqueid": "w82709030:a16630884", "current_trial": 19, "dateTime": 1691071504003, "trialdata": {"revealed_states": [], "clicked_states": [], "num_clicks_accrued": [0, 0, 0, 0, 0, 0, 0, 0, 0, 0, 0, 0, 0], "stateRewards": ["", -2, 1, 6, -2, -10, -78, -69, 14, -15, 7, -1, 1, -1, -2, 13, 77, 32, 87, 5, -74, 30, -26, 1, 3, 4, 12, 39, 54, -43, 2, 10, 23, 13], "withholdReward": false, "trial_id": "mdp_trial_11", "block": "test", "trialIndex": 12, "score": 4, "costs": 0, "simulationMode": [null, null, null, null, null], "rewards": [-2, 1, 6, 14, -15], "path": ["0", "0", "1", "2", "3", "8", "9"], "rt": [768, 339, 404, 225, 363], "actions": ["up", "up", "up", "left", "up"], "actionTimes": [2948, 3832, 4770, 5530, 6427], "queries": {"click": {"state": {"target": [], "time": []}, "edge": {"target": [], "time": []}}, "mouseover": {"state": {"target": [], "time": []}, "edge": {"target": [], "time": []}}, "mouseout": {"state": {"target": ["0"], "time": [8771]}, "edge": {"target": [], "time": []}}}, "displayed_time": "16.18", "trialTime": 18847, "trial_type": "mouselab-mdp", "trial_index": 19, "time_elapsed": 781293, "internal_node_id": "0.0-4.0-1.0-10.0"}}, {"uniqueid": "w82709030:a16630884", "current_trial": 20, "dateTime": 1691071531477, "trialdata": {"revealed_states": [], "clicked_states": [], "num_clicks_accrued": [0, 0, 0, 0, 0, 0, 0, 0, 0, 0, 0, 0, 0], "stateRewards": ["", -2, 4, -7, -3, -76, 39, -28, 10, 14, 12, 60, 2, -3, 6, -10, 88, -34, -41, -3, 72, -13, -56, 1, 3, 2, 8, -51, 23, -57, 1, 14, -46, -16], "withholdReward": false, "trial_id": "mdp_trial_12", "block": "test", "trialIndex": 13, "score": 19, "costs": 0, "simulationMode": [null, null, null, null, null], "rewards": [-2, 4, -7, 10, 14], "path": ["0", "0", "1", "2", "3", "8", "9"], "rt": [1901, 268, 170, 633, 1019], "actions": ["up", "up", "up", "left", "up"], "actionTimes": [11666, 12462, 13169, 14326, 15898], "queries": {"click": {"state": {"target": [], "time": []}, "edge": {"target": [], "time": []}}, "mouseover": {"state": {"target": [], "time": []}, "edge": {"target": [], "time": []}}, "mouseout": {"state": {"target": ["0", "0"], "time": [7690, 24044]}, "edge": {"target": [], "time": []}}}, "displayed_time": "23.77", "trialTime": 25525, "trial_type": "mouselab-mdp", "trial_index": 20, "time_elapsed": 808766, "internal_node_id": "0.0-4.0-1.0-11.0"}}, {"uniqueid": "w82709030:a16630884", "current_trial": 21, "dateTime": 1691071552502, "trialdata": {"revealed_states": [], "clicked_states": [], "num_clicks_accrued": [0, 0, 0, 0, 0, 0, 0, 0, 0, 0, 0, 0, 0], "stateRewards": ["", -2, 3, -1, -9, 44, 48, -37, -3, 71, -39, 87, -1, 3, -4, 4, -21, 59, -15, -8, -1, 28, -38, 2, 4, 4, 8, -85, -72, -63, 14, 58, 63, -46], "withholdReward": false, "trial_id": "mdp_trial_13", "block": "test", "trialIndex": 14, "score": -67, "costs": 0, "simulationMode": [null, null, null, null, null], "rewards": [2, 4, 4, 8, -85], "path": ["0", "0", "23", "24", "25", "26", "27"], "rt": [1326, 149, 253, 1941, 237], "actions": ["left", "left", "left", "up", "up"], "actionTimes": [4296, 4972, 5770, 8247, 9016], "queries": {"click": {"state": {"target": [], "time": []}, "edge": {"target": [], "time": []}}, "mouseover": {"state": {"target": [], "time": []}, "edge": {"target": [], "time": []}}, "mouseout": {"state": {"target": ["0"], "time": [14978]}, "edge": {"target": [], "time": []}}}, "displayed_time": "16.97", "trialTime": 19144, "trial_type": "mouselab-mdp", "trial_index": 21, "time_elapsed": 829789, "internal_node_id": "0.0-4.0-1.0-12.0"}}, {"uniqueid": "w82709030:a16630884", "current_trial": 22, "dateTime": 1691071575041, "trialdata": {"revealed_states": [], "clicked_states": [], "num_clicks_accrued": [0, 0, 0, 0, 0, 0, 0, 0, 0, 0, 0, 0, 0], "stateRewards": ["", 1, -1, 4, -2, -75, -75, 84, -9, -60, -79, 59, 2, -4, 8, 9, -17, -82, 80, 14, -4, 49, 49, -1, 3, 6, -11, -33, 34, 55, 9, -57, 5, 59], "withholdReward": false, "trial_id": "mdp_trial_14", "block": "test", "trialIndex": 15, "score": 52, "costs": 0, "simulationMode": [null, null, null, null, null], "rewards": [-1, 3, 6, -11, 55], "path": ["0", "0", "23", "24", "25", "26", "29"], "rt": [1101, 158, 131, 1034, 8], "actions": ["left", "left", "left", "up", "left"], "actionTimes": [6023, 6733, 7416, 8984, 9515], "queries": {"click": {"state": {"target": [], "time": []}, "edge": {"target": [], "time": []}}, "mouseover": {"state": {"target": [], "time": []}, "edge": {"target": [], "time": []}}, "mouseout": {"state": {"target": ["0", "0", "0"], "time": [2606, 3004, 12356]}, "edge": {"target": [], "time": []}}}, "displayed_time": "18.92", "trialTime": 20587, "trial_type": "mouselab-mdp", "trial_index": 22, "time_elapsed": 852330, "internal_node_id": "0.0-4.0-1.0-13.0"}}, {"uniqueid": "w82709030:a16630884", "current_trial": 23, "dateTime": 1691071596854, "trialdata": {"revealed_states": [], "clicked_states": [], "num_clicks_accrued": [0, 0, 0, 0, 0, 0, 0, 0, 0, 0, 0, 0, 0], "stateRewards": ["", -2, 2, 3, -7, 76, 63, 21, 15, 35, -8, -44, 1, 1, -2, -12, 23, 24, 76, -9, 46, 66, -49, -2, -1, 7, 12, 40, -71, -45, -6, 38, -49, 46], "withholdReward": false, "trial_id": "mdp_trial_15", "block": "test", "trialIndex": 16, "score": -29, "costs": 0, "simulationMode": [null, null, null, null, null], "rewards": [-2, -1, 7, 12, -45], "path": ["0", "0", "23", "24", "25", "26", "29"], "rt": [1047, 144, 190, 442, 154], "actions": ["left", "left", "left", "up", "left"], "actionTimes": [5179, 5868, 6584, 7634, 8330], "queries": {"click": {"state": {"target": [], "time": []}, "edge": {"target": [], "time": []}}, "mouseover": {"state": {"target": [], "time": []}, "edge": {"target": [], "time": []}}, "mouseout": {"state": {"target": ["0", "0", "0"], "time": [1380, 2210, 10792]}, "edge": {"target": [], "time": []}}}, "displayed_time": "18.14", "trialTime": 19825, "trial_type": "mouselab-mdp", "trial_index": 23, "time_elapsed": 874143, "internal_node_id": "0.0-4.0-1.0-14.0"}}, {"uniqueid": "w82709030:a16630884", "current_trial": 24, "dateTime": 1691071621461, "trialdata": {"revealed_states": [], "clicked_states": [], "num_clicks_accrued": [0, 0, 0, 0, 0, 0, 0, 0, 0, 0, 0, 0, 0], "stateRewards": ["", 1, -1, 8, 4, 76, -33, -17, -3, -1, -54, -74, -2, 2, -5, 13, -51, 63, 83, 1, 84, 29, -36, 2, -1, 7, -12, -10, -44, -43, -14, 8, -69, 19], "withholdReward": false, "trial_id": "mdp_trial_16", "block": "test", "trialIndex": 17, "score": -47, "costs": 0, "simulationMode": [null, null, null, null, null], "rewards": [2, -1, 7, -12, -43], "path": ["0", "0", "23", "24", "25", "26", "29"], "rt": [1502, 332, 272, 633, 102], "actions": ["left", "left", "left", "up", "left"], "actionTimes": [6310, 7176, 7980, 9154, 9788], "queries": {"click": {"state": {"target": [], "time": []}, "edge": {"target": [], "time": []}}, "mouseover": {"state": {"target": ["0"], "time": [5333]}, "edge": {"target": [], "time": []}}, "mouseout": {"state": {"target": ["0", "0"], "time": [1363, 4855]}, "edge": {"target": [], "time": []}}}, "displayed_time": "18.81", "trialTime": 22390, "trial_type": "mouselab-mdp", "trial_index": 24, "time_elapsed": 898749, "internal_node_id": "0.0-4.0-1.0-15.0"}}, {"uniqueid": "w82709030:a16630884", "current_trial": 25, "dateTime": 1691071647779, "trialdata": {"revealed_states": [], "clicked_states": [], "num_clicks_accrued": [0, 0, 0, 0, 0, 0, 0, 0, 0, 0, 0, 0, 0], "stateRewards": ["", -2, -4, -2, 10, -8, -15, -47, 7, -84, 53, 5, -1, 2, -7, 3, 83, 31, 47, -1, 30, -8, 69, 2, -4, -1, 8, -7, 12, -8, -8, -13, 30, -84], "withholdReward": false, "trial_id": "mdp_trial_17", "block": "test", "trialIndex": 18, "score": 17, "costs": 0, "simulationMode": [null, null, null, null, null], "rewards": [2, -4, -1, 8, 12], "path": ["0", "0", "23", "24", "25", "26", "28"], "rt": [1224, 171, 129, 382, 196], "actions": ["left", "left", "left", "up", "right"], "actionTimes": [6325, 7032, 7690, 8610, 9362], "queries": {"click": {"state": {"target": [], "time": []}, "edge": {"target": [], "time": []}}, "mouseover": {"state": {"target": [], "time": []}, "edge": {"target": [], "time": []}}, "mouseout": {"state": {"target": ["0"], "time": [2851]}, "edge": {"target": [], "time": []}}}, "displayed_time": "19.10", "trialTime": 24136, "trial_type": "mouselab-mdp", "trial_index": 25, "time_elapsed": 925068, "internal_node_id": "0.0-4.0-1.0-16.0"}}, {"uniqueid": "w82709030:a16630884", "current_trial": 26, "dateTime": 1691071674203, "trialdata": {"revealed_states": [], "clicked_states": [], "num_clicks_accrued": [0, 0, 0, 0, 0, 0, 0, 0, 0, 0, 0, 0, 0], "stateRewards": ["", 2, 3, 8, 14, 69, -27, 17, 2, -71, -65, -10, 2, -3, 7, 8, 65, -10, 65, -12, 73, -12, 13, -2, -2, 6, 10, -79, -69, -18, 10, -85, 67, 74], "withholdReward": false, "trial_id": "mdp_trial_18", "block": "test", "trialIndex": 19, "score": 67, "costs": 0, "simulationMode": [null, null, null, null, null], "rewards": [2, -3, 7, -12, 73], "path": ["0", "0", "12", "13", "14", "19", "20"], "rt": [1244, 216, 314, 625, 775], "actions": ["right", "right", "right", "down", "right"], "actionTimes": [7537, 8295, 9136, 10329, 11650], "queries": {"click": {"state": {"target": [], "time": []}, "edge": {"target": [], "time": []}}, "mouseover": {"state": {"target": [], "time": []}, "edge": {"target": [], "time": []}}, "mouseout": {"state": {"target": ["0", "0", "0"], "time": [2737, 4155, 4385]}, "edge": {"target": [], "time": []}}}, "displayed_time": "20.30", "trialTime": 24321, "trial_type": "mouselab-mdp", "trial_index": 26, "time_elapsed": 951492, "internal_node_id": "0.0-4.0-1.0-17.0"}}, {"uniqueid": "w82709030:a16630884", "current_trial": 27, "dateTime": 1691071695295, "trialdata": {"revealed_states": [], "clicked_states": [], "num_clicks_accrued": [0, 0, 0, 0, 0, 0, 0, 0, 0, 0, 0, 0, 0], "stateRewards": ["", 1, 2, -3, -5, 66, -50, -47, -5, 1, 28, -27, 1, 1, -1, -6, 37, -25, 56, 1, -82, -66, -40, -1, -4, -7, 15, -61, -23, 26, 10, 14, -56, 29], "withholdReward": false, "trial_id": "mdp_trial_19", "block": "test", "trialIndex": 20, "score": -64, "costs": 0, "simulationMode": [null, null, null, null, null], "rewards": [1, 1, -1, 1, -66], "path": ["0", "0", "12", "13", "14", "19", "21"], "rt": [880, 147, 539, 580, 1174], "actions": ["right", "right", "right", "down", "down"], "actionTimes": [4018, 4786, 5872, 6978, 8687], "queries": {"click": {"state": {"target": [], "time": []}, "edge": {"target": [], "time": []}}, "mouseover": {"state": {"target": [], "time": []}, "edge": {"target": [], "time": []}}, "mouseout": {"state": {"target": ["0", "0"], "time": [1039, 13674]}, "edge": {"target": [], "time": []}}}, "displayed_time": "17.14", "trialTime": 18643, "trial_type": "mouselab-mdp", "trial_index": 27, "time_elapsed": 972584, "internal_node_id": "0.0-4.0-1.0-18.0"}}, {"uniqueid": "w82709030:a16630884", "current_trial": 28, "dateTime": 1691071720991, "trialdata": {"revealed_states": [], "clicked_states": [], "num_clicks_accrued": [0, 0, 0, 0, 0, 0, 0, 0, 0, 0, 0, 0, 0], "stateRewards": ["", -1, 2, 7, 8, 75, 67, -11, 6, 52, -17, 38, -1, 4, -8, 14, 74, -37, -17, -12, 52, 55, 71, -2, -1, -5, 2, 21, 6, -88, -14, 64, -61, -47], "withholdReward": false, "trial_id": "mdp_trial_20", "block": "test", "trialIndex": 21, "score": 35, "costs": 0, "simulationMode": [null, null, null, null, null], "rewards": [-1, 4, -8, -12, 52], "path": ["0", "0", "12", "13", "14", "19", "20"], "rt": [841, 219, 244, 188, 345], "actions": ["right", "right", "right", "down", "right"], "actionTimes": [5377, 6130, 6906, 7623, 8507], "queries": {"click": {"state": {"target": [], "time": []}, "edge": {"target": [], "time": []}}, "mouseover": {"state": {"target": [], "time": []}, "edge": {"target": [], "time": []}}, "mouseout": {"state": {"target": ["0", "0", "0"], "time": [2267, 2798, 17357]}, "edge": {"target": [], "time": []}}}, "displayed_time": "18.55", "trialTime": 23273, "trial_type": "mouselab-mdp", "trial_index": 28, "time_elapsed": 998281, "internal_node_id": "0.0-4.0-1.0-19.0"}}, {"uniqueid": "w82709030:a16630884", "current_trial": 29, "dateTime": 1691071744174, "trialdata": {"revealed_states": [], "clicked_states": [], "num_clicks_accrued": [0, 0, 0, 0, 0, 0, 0, 0, 0, 0, 0, 0, 0], "stateRewards": ["", 2, -4, 7, 3, 23, -42, 4, 7, -81, -33, 7, -2, -4, 5, -1, 50, -57, -14, -13, -14, 44, 55, -2, -2, 5, -2, 33, 1, 57, -13, -7, 58, 87], "withholdReward": false, "trial_id": "mdp_trial_21", "block": "test", "trialIndex": 22, "score": 31, "costs": 0, "simulationMode": [null, null, null, null, null], "rewards": [2, -4, 7, 3, 23], "path": ["0", "0", "1", "2", "3", "4", "5"], "rt": [1931, 125, 202, 253, 485], "actions": ["up", "up", "up", "right", "up"], "actionTimes": [5353, 6006, 6747, 7532, 8546], "queries": {"click": {"state": {"target": [], "time": []}, "edge": {"target": [], "time": []}}, "mouseover": {"state": {"target": [], "time": []}, "edge": {"target": [], "time": []}}, "mouseout": {"state": {"target": ["0", "0"], "time": [1189, 20345]}, "edge": {"target": [], "time": []}}}, "displayed_time": "17.42", "trialTime": 21082, "trial_type": "mouselab-mdp", "trial_index": 29, "time_elapsed": 1021464, "internal_node_id": "0.0-4.0-1.0-20.0"}}, {"uniqueid": "w82709030:a16630884", "current_trial": 30, "dateTime": 1691071772268, "trialdata": {"revealed_states": [], "clicked_states": [], "num_clicks_accrued": [0, 0, 0, 0, 0, 0, 0, 0, 0, 0, 0, 0, 0], "stateRewards": ["", 1, -1, -7, -7, -22, 15, -13, 13, 26, -32, 38, -1, 1, -7, -4, 16, -62, 86, 12, -54, 56, 64, -2, -1, 6, 14, -57, 37, 62, -6, -25, 50, -70], "withholdReward": false, "trial_id": "mdp_trial_22", "block": "test", "trialIndex": 23, "score": 5, "costs": 0, "simulationMode": [null, null, null, null, null], "rewards": [-1, 1, -7, -4, 16], "path": ["0", "0", "12", "13", "14", "15", "16"], "rt": [1274, 127, 177, 26, 258], "actions": ["right", "right", "right", "up", "up"], "actionTimes": [4793, 5450, 6145, 7026, 7969], "queries": {"click": {"state": {"target": [], "time": []}, "edge": {"target": [], "time": []}}, "mouseover": {"state": {"target": [], "time": []}, "edge": {"target": [], "time": []}}, "mouseout": {"state": {"target": ["0"], "time": [1480]}, "edge": {"target": [], "time": []}}}, "displayed_time": "17.52", "trialTime": 25941, "trial_type": "mouselab-mdp", "trial_index": 30, "time_elapsed": 1049556, "internal_node_id": "0.0-4.0-1.0-21.0"}}, {"uniqueid": "w82709030:a16630884", "current_trial": 31, "dateTime": 1691071796683, "trialdata": {"revealed_states": [], "clicked_states": ["12"], "num_clicks_accrued": [0, 0, 0, 0, 0, 0, 0, 0, 0, 0, 0, 0, 0], "stateRewards": ["", 2, 3, -6, -5, -3, 55, 40, 11, 61, 11, 51, 2, -4, -6, 9, -25, 29, -15, -6, 7, -77, -2, -2, -4, 1, 14, -43, -1, 56, -12, -54, 41, -74], "withholdReward": false, "trial_id": "mdp_trial_23", "block": "test", "trialIndex": 24, "score": -72.4, "costs": -1.4, "simulationMode": [null, null, null, null, null], "rewards": [-2, -4, 1, -12, -54], "path": ["0", "0", "23", "24", "25", "30", "31"], "rt": [3394, 545, 524, 648, 472], "actions": ["left", "left", "left", "down", "right"], "actionTimes": [8442, 9522, 10607, 11791, 12807], "queries": {"click": {"state": {"target": ["12"], "time": [6707]}, "edge": {"target": [], "time": []}}, "mouseover": {"state": {"target": ["12", "0"], "time": [6187, 7655]}, "edge": {"target": [], "time": []}}, "mouseout": {"state": {"target": ["0", "12", "0"], "time": [6039, 7519, 7765]}, "edge": {"target": [], "time": []}}}, "displayed_time": "19.05", "trialTime": 22156, "trial_type": "mouselab-mdp", "trial_index": 31, "time_elapsed": 1073971, "internal_node_id": "0.0-4.0-1.0-22.0"}}, {"uniqueid": "w82709030:a16630884", "current_trial": 32, "dateTime": 1691071819215, "trialdata": {"revealed_states": [], "clicked_states": [], "num_clicks_accrued": [0, 0, 0, 0, 0, 0, 0, 0, 0, 0, 0, 0, 0], "stateRewards": ["", 1, 2, 8, -2, 23, -69, -18, -16, 54, -21, 71, -1, -4, 7, 11, 43, -6, 88, 6, -55, 72, 43, 1, -3, -2, -1, 68, -31, -54, 4, -8, 25, -2], "withholdReward": false, "trial_id": "mdp_trial_24", "block": "test", "trialIndex": 25, "score": -8, "costs": 0, "simulationMode": [null, null, null, null, null], "rewards": [1, -3, -2, 4, -8], "path": ["0", "0", "23", "24", "25", "30", "31"], "rt": [1592, 868, 288, 218, 555], "actions": ["left", "left", "left", "down", "right"], "actionTimes": [5324, 6724, 7553, 8327, 9418], "queries": {"click": {"state": {"target": [], "time": []}, "edge": {"target": [], "time": []}}, "mouseover": {"state": {"target": [], "time": []}, "edge": {"target": [], "time": []}}, "mouseout": {"state": {"target": ["0", "0", "0"], "time": [1127, 1234, 18289]}, "edge": {"target": [], "time": []}}}, "displayed_time": "17.73", "trialTime": 20231, "trial_type": "mouselab-mdp", "trial_index": 32, "time_elapsed": 1096505, "internal_node_id": "0.0-4.0-1.0-23.0"}}, {"uniqueid": "w82709030:a16630884", "current_trial": 33, "dateTime": 1691071846068, "trialdata": {"revealed_states": [], "clicked_states": [], "num_clicks_accrued": [0, 0, 0, 0, 0, 0, 0, 0, 0, 0, 0, 0, 0], "stateRewards": ["", -1, 4, -8, 12, 14, 69, -8, 5, -72, -14, 56, -1, -1, -1, 9, 67, 19, 11, -9, -88, -58, 3, 2, -4, -8, 4, 62, 77, -74, 5, -31, 65, 88], "withholdReward": false, "trial_id": "mdp_trial_25", "block": "test", "trialIndex": 26, "score": 76, "costs": 0, "simulationMode": [null, null, null, null, null], "rewards": [-1, 4, -8, 12, 69], "path": ["0", "0", "1", "2", "3", "4", "6"], "rt": [832, 110, 48, 73, 1175], "actions": ["up", "up", "up", "right", "right"], "actionTimes": [7980, 8613, 9188, 9805, 11524], "queries": {"click": {"state": {"target": [], "time": []}, "edge": {"target": [], "time": []}}, "mouseover": {"state": {"target": [], "time": []}, "edge": {"target": [], "time": []}}, "mouseout": {"state": {"target": ["0", "0"], "time": [5076, 18686]}, "edge": {"target": [], "time": []}}}, "displayed_time": "21.15", "trialTime": 24646, "trial_type": "mouselab-mdp", "trial_index": 33, "time_elapsed": 1123357, "internal_node_id": "0.0-4.0-1.0-24.0"}}, {"uniqueid": "w82709030:a16630884", "current_trial": 34, "dateTime": 1691071870028, "trialdata": {"revealed_states": [], "clicked_states": [], "num_clicks_accrued": [0, 0, 0, 0, 0, 0, 0, 0, 0, 0, 0, 0, 0], "stateRewards": ["", -1, 2, 6, 11, 21, -21, -21, -6, 48, -71, 88, -1, -3, 3, 7, 64, 2, 9, -4, 37, -67, 72, 2, 2, -8, -8, -10, 71, -40, -3, 73, 80, 47], "withholdReward": false, "trial_id": "mdp_trial_26", "block": "test", "trialIndex": 27, "score": 39, "costs": 0, "simulationMode": [null, null, null, null, null], "rewards": [-1, 2, 6, 11, 21], "path": ["0", "0", "1", "2", "3", "4", "5"], "rt": [1487, 597, 303, 127, 659], "actions": ["up", "up", "up", "right", "up"], "actionTimes": [6295, 7437, 8266, 9014, 10210], "queries": {"click": {"state": {"target": [], "time": []}, "edge": {"target": [], "time": []}}, "mouseover": {"state": {"target": [], "time": []}, "edge": {"target": [], "time": []}}, "mouseout": {"state": {"target": ["0", "12", "0", "0", "0"], "time": [1674, 2005, 2089, 2603, 21375]}, "edge": {"target": [], "time": []}}}, "displayed_time": "18.81", "trialTime": 21713, "trial_type": "mouselab-mdp", "trial_index": 34, "time_elapsed": 1147318, "internal_node_id": "0.0-4.0-1.0-25.0"}}, {"uniqueid": "w82709030:a16630884", "current_trial": 35, "dateTime": 1691071892292, "trialdata": {"revealed_states": [], "clicked_states": [], "num_clicks_accrued": [0, 0, 0, 0, 0, 0, 0, 0, 0, 0, 0, 0, 0], "stateRewards": ["", 1, 1, 1, 15, -76, 52, -32, 14, -57, 37, 49, 1, -4, -3, 6, 83, -76, 25, 9, 36, -1, -17, -1, 4, 4, -2, -22, -21, 58, -15, -57, 49, -24], "withholdReward": false, "trial_id": "mdp_trial_27", "block": "test", "trialIndex": 28, "score": -17, "costs": 0, "simulationMode": [null, null, null, null, null], "rewards": [-1, 4, 4, -2, -22], "path": ["0", "0", "23", "24", "25", "26", "27"], "rt": [1610, 222, 145, 292, 204], "actions": ["left", "left", "left", "up", "up"], "actionTimes": [5155, 5936, 6614, 7441, 8191], "queries": {"click": {"state": {"target": [], "time": []}, "edge": {"target": [], "time": []}}, "mouseover": {"state": {"target": [], "time": []}, "edge": {"target": [], "time": []}}, "mouseout": {"state": {"target": ["0"], "time": [1590]}, "edge": {"target": [], "time": []}}}, "displayed_time": "17.55", "trialTime": 20030, "trial_type": "mouselab-mdp", "trial_index": 35, "time_elapsed": 1169581, "internal_node_id": "0.0-4.0-1.0-26.0"}}, {"uniqueid": "w82709030:a16630884", "current_trial": 36, "dateTime": 1691071915005, "trialdata": {"revealed_states": [], "clicked_states": [], "num_clicks_accrued": [0, 0, 0, 0, 0, 0, 0, 0, 0, 0, 0, 0, 0], "stateRewards": ["", 2, 3, -3, 12, -43, 81, -82, -15, 58, -7, -75, -1, -1, 3, -5, 50, -25, -8, 4, 66, 65, -66, 2, -4, 2, -1, -10, 10, 37, 11, 88, -37, 8], "withholdReward": false, "trial_id": "mdp_trial_28", "block": "test", "trialIndex": 29, "score": 46, "costs": 0, "simulationMode": [null, null, null, null, null], "rewards": [-1, -1, 3, -5, 50], "path": ["0", "0", "12", "13", "14", "15", "16"], "rt": [2022, 92, 235, 643, 23], "actions": ["right", "right", "right", "up", "up"], "actionTimes": [4890, 5535, 6316, 7493, 8053], "queries": {"click": {"state": {"target": [], "time": []}, "edge": {"target": [], "time": []}}, "mouseover": {"state": {"target": ["0"], "time": [3082]}, "edge": {"target": [], "time": []}}, "mouseout": {"state": {"target": ["0", "0"], "time": [1387, 19525]}, "edge": {"target": [], "time": []}}}, "displayed_time": "16.87", "trialTime": 20412, "trial_type": "mouselab-mdp", "trial_index": 36, "time_elapsed": 1192294, "internal_node_id": "0.0-4.0-1.0-27.0"}}, {"uniqueid": "w82709030:a16630884", "current_trial": 37, "dateTime": 1691071949935, "trialdata": {"revealed_states": [], "clicked_states": [], "num_clicks_accrued": [0, 0, 0, 0, 0, 0, 0, 0, 0, 0, 0, 0, 0], "stateRewards": ["", 1, 4, 7, -16, -84, -6, -46, -12, -7, -49, -26, -1, 2, -4, 2, 22, 37, -64, 1, 88, -13, -10, 1, -4, -2, 5, 2, -10, -34, 9, 66, 55, 38], "withholdReward": false, "trial_id": "mdp_trial_29", "block": "test", "trialIndex": 30, "score": -7, "costs": 0, "simulationMode": [null, null, null, null, null], "rewards": [1, 4, 7, -12, -7], "path": ["0", "0", "1", "2", "3", "8", "9"], "rt": [1176, 39, 14, 1064, 1223], "actions": ["up", "up", "up", "left", "up"], "actionTimes": [7862, 8518, 9093, 10723, 12497], "queries": {"click": {"state": {"target": [], "time": []}, "edge": {"target": [], "time": []}}, "mouseover": {"state": {"target": [], "time": []}, "edge": {"target": [], "time": []}}, "mouseout": {"state": {"target": ["0", "0"], "time": [4477, 31190]}, "edge": {"target": [], "time": []}}}, "displayed_time": "20.69", "trialTime": 32024, "trial_type": "mouselab-mdp", "trial_index": 37, "time_elapsed": 1227223, "internal_node_id": "0.0-4.0-1.0-28.0"}}, {"uniqueid": "w82709030:a16630884", "current_trial": 38, "dateTime": 1691071974740, "trialdata": {"revealed_states": [], "clicked_states": [], "num_clicks_accrued": [0, 0, 0, 0, 0, 0, 0, 0, 0, 0, 0, 0, 0], "stateRewards": ["", -2, -1, -5, 10, -36, -70, 68, -9, 86, 71, -10, 2, -4, 7, -7, 66, 44, -66, -13, -69, 43, 15, -2, 2, 6, -13, 62, 57, 50, -10, -69, 42, -72], "withholdReward": false, "trial_id": "mdp_trial_30", "block": "test", "trialIndex": 31, "score": 69, "costs": 0, "simulationMode": [null, null, null, null, null], "rewards": [-2, -1, -5, -9, 86], "path": ["0", "0", "1", "2", "3", "8", "9"], "rt": [1500, 343, 362, 921, 747], "actions": ["up", "up", "up", "left", "up"], "actionTimes": [5346, 6222, 7131, 8589, 9871], "queries": {"click": {"state": {"target": [], "time": []}, "edge": {"target": [], "time": []}}, "mouseover": {"state": {"target": [], "time": []}, "edge": {"target": [], "time": []}}, "mouseout": {"state": {"target": ["0", "0"], "time": [1322, 1713]}, "edge": {"target": [], "time": []}}}, "displayed_time": "17.85", "trialTime": 22276, "trial_type": "mouselab-mdp", "trial_index": 38, "time_elapsed": 1252029, "internal_node_id": "0.0-4.0-1.0-29.0"}}, {"uniqueid": "w82709030:a16630884", "current_trial": 39, "dateTime": 1691072000362, "trialdata": {"revealed_states": [], "clicked_states": [], "num_clicks_accrued": [0, 0, 0, 0, 0, 0, 0, 0, 0, 0, 0, 0, 0], "stateRewards": ["", 2, -3, 5, 11, -79, 54, 11, -9, -78, 33, 22, -2, -1, 2, 14, 43, 34, 1, 10, 49, -65, 39, -1, 1, -1, 3, -16, -2, 11, 2, 12, 48, -65], "withholdReward": false, "trial_id": "mdp_trial_31", "block": "test", "trialIndex": 32, "score": 26, "costs": 0, "simulationMode": [null, null, null, null, null], "rewards": [2, -3, 5, 11, 11], "path": ["0", "0", "1", "2", "3", "4", "7"], "rt": [1238, 746, 913, 961, 630], "actions": ["up", "up", "up", "right", "down"], "actionTimes": [6888, 8165, 9635, 11136, 12326], "queries": {"click": {"state": {"target": [], "time": []}, "edge": {"target": [], "time": []}}, "mouseover": {"state": {"target": [], "time": []}, "edge": {"target": [], "time": []}}, "mouseout": {"state": {"target": ["0"], "time": [3231]}, "edge": {"target": [], "time": []}}}, "displayed_time": "19.65", "trialTime": 22970, "trial_type": "mouselab-mdp", "trial_index": 39, "time_elapsed": 1277649, "internal_node_id": "0.0-4.0-1.0-30.0"}}, {"uniqueid": "w82709030:a16630884", "current_trial": 40, "dateTime": 1691072022987, "trialdata": {"revealed_states": [], "clicked_states": [], "num_clicks_accrued": [0, 0, 0, 0, 0, 0, 0, 0, 0, 0, 0, 0, 0], "stateRewards": ["", 1, 3, 1, -13, 52, -28, 67, -14, 3, 63, -70, -1, -4, 7, -11, -10, 47, -18, 6, 69, -9, -61, 2, 3, -6, 10, 63, -34, 40, -6, -79, -35, -32], "withholdReward": false, "trial_id": "mdp_trial_32", "block": "test", "trialIndex": 33, "score": -42, "costs": 0, "simulationMode": [null, null, null, null, null], "rewards": [2, 3, -6, -6, -35], "path": ["0", "0", "23", "24", "25", "30", "32"], "rt": [980, 502, 669, 646, 1013], "actions": ["left", "left", "left", "down", "down"], "actionTimes": [4724, 5857, 7065, 8248, 9827], "queries": {"click": {"state": {"target": [], "time": []}, "edge": {"target": [], "time": []}}, "mouseover": {"state": {"target": [], "time": []}, "edge": {"target": [], "time": []}}, "mouseout": {"state": {"target": ["0"], "time": [1627]}, "edge": {"target": [], "time": []}}}, "displayed_time": "17.75", "trialTime": 19891, "trial_type": "mouselab-mdp", "trial_index": 40, "time_elapsed": 1300276, "internal_node_id": "0.0-4.0-1.0-31.0"}}, {"uniqueid": "w82709030:a16630884", "current_trial": 41, "dateTime": 1691072046558, "trialdata": {"revealed_states": [], "clicked_states": [], "num_clicks_accrued": [0, 0, 0, 0, 0, 0, 0, 0, 0, 0, 0, 0, 0], "stateRewards": ["", 1, 1, -5, 10, -31, 73, 14, -8, -23, 63, -70, -1, 2, 8, 7, 25, -59, 27, -10, -40, -71, -15, -2, 3, -8, -5, -19, 77, -34, 7, 67, 63, 19], "withholdReward": false, "trial_id": "mdp_trial_33", "block": "test", "trialIndex": 34, "score": -72, "costs": 0, "simulationMode": [null, null, null, null, null], "rewards": [-1, 2, 8, -10, -71], "path": ["0", "0", "12", "13", "14", "19", "21"], "rt": [618, 471, 820, 498, 605], "actions": ["right", "right", "right", "down", "down"], "actionTimes": [4025, 5136, 6495, 7515, 8657], "queries": {"click": {"state": {"target": [], "time": []}, "edge": {"target": [], "time": []}}, "mouseover": {"state": {"target": [], "time": []}, "edge": {"target": [], "time": []}}, "mouseout": {"state": {"target": ["0"], "time": [1244]}, "edge": {"target": [], "time": []}}}, "displayed_time": "17.41", "trialTime": 19604, "trial_type": "mouselab-mdp", "trial_index": 41, "time_elapsed": 1323847, "internal_node_id": "0.0-4.0-1.0-32.0"}}, {"uniqueid": "w82709030:a16630884", "current_trial": 42, "dateTime": 1691072069641, "trialdata": {"revealed_states": [], "clicked_states": [], "num_clicks_accrued": [0, 0, 0, 0, 0, 0, 0, 0, 0, 0, 0, 0, 0], "stateRewards": ["", -1, -4, -3, 1, -45, -67, -24, 14, 32, 22, 22, -1, 1, -5, -7, 72, 84, -79, -5, 19, -40, -2, -1, -2, 8, -3, 84, -25, -28, 11, 64, -66, 77], "withholdReward": false, "trial_id": "mdp_trial_34", "block": "test", "trialIndex": 35, "score": -26, "costs": 0, "simulationMode": [null, null, null, null, null], "rewards": [-1, -2, 8, -3, -28], "path": ["0", "0", "23", "24", "25", "26", "29"], "rt": [631, 882, 644, 1215, 1027], "actions": ["left", "left", "left", "up", "left"], "actionTimes": [5647, 7047, 8289, 10058, 11623], "queries": {"click": {"state": {"target": [], "time": []}, "edge": {"target": [], "time": []}}, "mouseover": {"state": {"target": [], "time": []}, "edge": {"target": [], "time": []}}, "mouseout": {"state": {"target": ["0", "0"], "time": [1292, 2500]}, "edge": {"target": [], "time": []}}}, "displayed_time": "19.00", "trialTime": 20414, "trial_type": "mouselab-mdp", "trial_index": 42, "time_elapsed": 1346930, "internal_node_id": "0.0-4.0-1.0-33.0"}}, {"uniqueid": "w82709030:a16630884", "current_trial": 43, "dateTime": 1691072092322, "trialdata": {"revealed_states": [], "clicked_states": [], "num_clicks_accrued": [0, 0, 0, 0, 0, 0, 0, 0, 0, 0, 0, 0, 0], "stateRewards": ["", 1, 2, -3, 6, -88, 74, -45, 7, -46, 40, -77, 1, -4, 4, 3, 22, -25, -59, 8, -83, 19, -60, -1, -1, -1, -8, 26, -29, 64, -7, -88, -51, -55], "withholdReward": false, "trial_id": "mdp_trial_35", "block": "test", "trialIndex": 36, "score": -21, "costs": 0, "simulationMode": [null, null, null, null, null], "rewards": [1, -4, 4, 3, -25], "path": ["0", "0", "12", "13", "14", "15", "17"], "rt": [822, 223, 349, 293, 100], "actions": ["right", "right", "right", "up", "right"], "actionTimes": [4135, 4909, 5818, 6646, 7295], "queries": {"click": {"state": {"target": [], "time": []}, "edge": {"target": [], "time": []}}, "mouseover": {"state": {"target": [], "time": []}, "edge": {"target": [], "time": []}}, "mouseout": {"state": {"target": ["0", "0"], "time": [876, 19438]}, "edge": {"target": [], "time": []}}}, "displayed_time": "17.32", "trialTime": 20353, "trial_type": "mouselab-mdp", "trial_index": 43, "time_elapsed": 1369609, "internal_node_id": "0.0-4.0-1.0-34.0"}}, {"uniqueid": "w82709030:a16630884", "current_trial": 44, "dateTime": 1691072113824, "trialdata": {"revealed_states": [], "clicked_states": [], "num_clicks_accrued": [0, 0, 0, 0, 0, 0, 0, 0, 0, 0, 0, 0, 0], "stateRewards": ["", 1, 1, 5, 6, -29, -7, 3, -16, 9, -46, 65, -1, 4, -1, -16, -63, -77, -87, 8, 80, -50, 43, -1, -1, -5, 5, -38, -71, -62, 9, 81, -50, -52], "withholdReward": false, "trial_id": "mdp_trial_36", "block": "test", "trialIndex": 37, "score": 6, "costs": 0, "simulationMode": [null, null, null, null, null], "rewards": [1, 1, 5, 6, -7], "path": ["0", "0", "1", "2", "3", "4", "6"], "rt": [1532, 110, 56, 125, 44], "actions": ["up", "up", "up", "right", "right"], "actionTimes": [4329, 4968, 5567, 6241, 6826], "queries": {"click": {"state": {"target": [], "time": []}, "edge": {"target": [], "time": []}}, "mouseover": {"state": {"target": [], "time": []}, "edge": {"target": [], "time": []}}, "mouseout": {"state": {"target": [], "time": []}, "edge": {"target": [], "time": []}}}, "displayed_time": "16.80", "trialTime": 18900, "trial_type": "mouselab-mdp", "trial_index": 44, "time_elapsed": 1391113, "internal_node_id": "0.0-4.0-1.0-35.0"}}, {"uniqueid": "w82709030:a16630884", "current_trial": 45, "dateTime": 1691072136928, "trialdata": {"revealed_states": [], "clicked_states": [], "num_clicks_accrued": [0, 0, 0, 0, 0, 0, 0, 0, 0, 0, 0, 0, 0], "stateRewards": ["", 2, -1, -4, -13, 74, 77, 3, 2, -43, -2, -11, 2, 3, 7, 11, -26, -29, -33, -3, -3, -13, -3, 1, 3, -7, 14, -59, 33, 9, -5, 34, 79, 68], "withholdReward": false, "trial_id": "mdp_trial_37", "block": "test", "trialIndex": 38, "score": 61, "costs": 0, "simulationMode": [null, null, null, null, null], "rewards": [2, -1, -4, -13, 77], "path": ["0", "0", "1", "2", "3", "4", "6"], "rt": [492, 199, 112, 176, 536], "actions": ["up", "up", "up", "right", "right"], "actionTimes": [4674, 5410, 6096, 6811, 7896], "queries": {"click": {"state": {"target": [], "time": []}, "edge": {"target": [], "time": []}}, "mouseover": {"state": {"target": [], "time": []}, "edge": {"target": [], "time": []}}, "mouseout": {"state": {"target": ["0"], "time": [1898]}, "edge": {"target": [], "time": []}}}, "displayed_time": "18.18", "trialTime": 20413, "trial_type": "mouselab-mdp", "trial_index": 45, "time_elapsed": 1414216, "internal_node_id": "0.0-4.0-1.0-36.0"}}, {"uniqueid": "w82709030:a16630884", "current_trial": 46, "dateTime": 1691072161331, "trialdata": {"revealed_states": [], "clicked_states": [], "num_clicks_accrued": [0, 0, 0, 0, 0, 0, 0, 0, 0, 0, 0, 0, 0], "stateRewards": ["", -1, -4, 8, 8, -68, 47, 24, -7, -61, 49, -69, -1, -1, 8, -7, 42, 1, -45, -11, 10, -63, -6, 1, 4, 6, -16, 79, -37, -58, -12, 81, 18, -53], "withholdReward": false, "trial_id": "mdp_trial_38", "block": "test", "trialIndex": 39, "score": 45, "costs": 0, "simulationMode": [null, null, null, null, null], "rewards": [-1, -4, 8, -7, 49], "path": ["0", "0", "1", "2", "3", "8", "10"], "rt": [1973, 944, 168, 601, 819], "actions": ["up", "up", "up", "left", "down"], "actionTimes": [5889, 7372, 8073, 9245, 10611], "queries": {"click": {"state": {"target": [], "time": []}, "edge": {"target": [], "time": []}}, "mouseover": {"state": {"target": [], "time": []}, "edge": {"target": [], "time": []}}, "mouseout": {"state": {"target": ["0"], "time": [1676]}, "edge": {"target": [], "time": []}}}, "displayed_time": "17.92", "trialTime": 21783, "trial_type": "mouselab-mdp", "trial_index": 46, "time_elapsed": 1438621, "internal_node_id": "0.0-4.0-1.0-37.0"}}, {"uniqueid": "w82709030:a16630884", "current_trial": 47, "dateTime": 1691072183312, "trialdata": {"revealed_states": [], "clicked_states": [], "num_clicks_accrued": [0, 0, 0, 0, 0, 0, 0, 0, 0, 0, 0, 0, 0], "stateRewards": ["", -2, -2, -7, -13, -10, 49, -68, -1, 84, 70, 88, 1, 4, 4, 12, -57, 25, 30, 8, -1, -77, 57, 2, 3, 2, 3, -18, -80, 23, -15, -41, 70, 11], "withholdReward": false, "trial_id": "mdp_trial_39", "block": "test", "trialIndex": 40, "score": 76, "costs": 0, "simulationMode": [null, null, null, null, null], "rewards": [-2, -2, -7, -1, 88], "path": ["0", "0", "1", "2", "3", "8", "11"], "rt": [1177, 222, 109, 45, 69], "actions": ["up", "up", "up", "left", "left"], "actionTimes": [4820, 5576, 6237, 6821, 7448], "queries": {"click": {"state": {"target": [], "time": []}, "edge": {"target": [], "time": []}}, "mouseover": {"state": {"target": [], "time": []}, "edge": {"target": [], "time": []}}, "mouseout": {"state": {"target": ["0", "0"], "time": [1328, 16877]}, "edge": {"target": [], "time": []}}}, "displayed_time": "17.64", "trialTime": 19170, "trial_type": "mouselab-mdp", "trial_index": 47, "time_elapsed": 1460600, "internal_node_id": "0.0-4.0-1.0-38.0"}}, {"uniqueid": "w82709030:a16630884", "current_trial": 48, "dateTime": 1691072205933, "trialdata": {"revealed_states": [], "clicked_states": [], "num_clicks_accrued": [0, 0, 0, 0, 0, 0, 0, 0, 0, 0, 0, 0, 0], "stateRewards": ["", 2, 4, -6, -13, -75, -81, 30, 7, 5, 59, -65, -1, -1, 7, 14, -38, 36, -41, 1, -54, -5, 64, 2, -1, 5, 6, -19, 79, 11, 16, -33, -50, 58], "withholdReward": false, "trial_id": "mdp_trial_40", "block": "test", "trialIndex": 41, "score": -58, "costs": 0, "simulationMode": [null, null, null, null, null], "rewards": [2, 4, -6, 7, -65], "path": ["0", "0", "1", "2", "3", "8", "11"], "rt": [516, 95, 101, 182, 899], "actions": ["up", "up", "up", "left", "left"], "actionTimes": [4381, 4999, 5655, 6380, 7806], "queries": {"click": {"state": {"target": [], "time": []}, "edge": {"target": [], "time": []}}, "mouseover": {"state": {"target": [], "time": []}, "edge": {"target": [], "time": []}}, "mouseout": {"state": {"target": ["0", "0", "0", "1"], "time": [1459, 1615, 13357, 13418]}, "edge": {"target": [], "time": []}}}, "displayed_time": "17.87", "trialTime": 19825, "trial_type": "mouselab-mdp", "trial_index": 48, "time_elapsed": 1483223, "internal_node_id": "0.0-4.0-1.0-39.0"}}, {"uniqueid": "w82709030:a16630884", "current_trial": 49, "dateTime": 1691072259304, "trialdata": {"rt": 53308, "response": {"Q0": "$-2 to $2", "Q1": "$-16 to $16", "Q2": "$-88 to $88", "Q3": "The cost for clicking on nodes varied between nodes.", "Q4": "Slightly unmotivated"}, "question_order": [0, 1, 2, 3, 4], "trial_id": "final_quiz_control", "trial_type": "survey-multi-choice", "trial_index": 49, "time_elapsed": 1536594, "internal_node_id": "0.0-4.0-2.0"}}, {"uniqueid": "w82709030:a16630884", "current_trial": 50, "dateTime": 1691072423246, "trialdata": {"rt": 163871, "response": {"Q0": "I did one pattern at least 3 times to seethe difference and I would alternate from moving the spider down to moving it up", "Q1": "No", "Q2": "It was really difficult because the values varied way too much, not knowing which value you're clicking on was making me a bit anxious"}, "trial_id": "self_report_control", "trial_type": "survey-text", "trial_index": 50, "time_elapsed": 1700536, "internal_node_id": "0.0-4.0-3.0"}}, {"uniqueid": "w82709030:a16630884", "current_trial": 51, "dateTime": 1691072456208, "trialdata": {"rt": 32932, "response": {"gender": "female", "age": "30", "colorblind": "0", "effort": "0"}, "trial_type": "survey-html-form", "trial_index": 51, "time_elapsed": 1733498, "internal_node_id": "0.0-4.0-4.0"}}, {"uniqueid": "w82709030:a16630884", "current_trial": 52, "dateTime": 1691072564387, "trialdata": {"rt": 108142, "response": {"Q0": "I think I did not understand the inspection instruction, as in which button do I use to inspect a node", "Q1": "No, I have never participated in it before", "Q2": ""}, "trial_type": "survey-text", "trial_index": 52, "time_elapsed": 1841677, "internal_node_id": "0.0-4.0-5.0"}}, {"uniqueid": "w82709030:a16630884", "current_trial": 53, "dateTime": 1691072570937, "trialdata": {"rt": 6531, "stimulus": "Press 'Finish HIT' in order to reach the completion code. Once the data has been saved, you will receive the code either in this window or in the original browser window where you started the experiment.\n", "response": 0, "trial_type": "html-button-response", "trial_index": 53, "time_elapsed": 1848228, "internal_node_id": "0.0-5.0"}}, {"uniqueid": "w82709030:a16630884", "current_trial": 54, "dateTime": 1691072571955, "trialdata": {"success": true, "trial_type": "fullscreen", "trial_index": 54, "time_elapsed": 1849246, "internal_node_id": "0.0-6.0"}}], "questiondata": {"params": {"CODE": "C6DMOQA6", "MIN_TIME": 14, "inspectCost": 1, "startTime": "Thu Aug 03 2023 15:51:40 GMT+0200 (South Africa Standard Time)", "bonusRate": 0.002, "variance": "1_2_4_8_44", "branching": "31123"}, "final_score": 61.6}, "eventdata": [{"eventtype": "initialized", "value": null, "timestamp": 1691070699575, "interval": 0}, {"eventtype": "window_resize", "value": [1024, 694], "timestamp": 1691070699576, "interval": 1}, {"eventtype": "window_resize", "value": [1024, 694], "timestamp": 1691070700161, "interval": 585}, {"eventtype": "focus", "value": "off", "timestamp": 1691070722332, "interval": 22171}, {"eventtype": "focus", "value": "on", "timestamp": 1691070722343, "interval": 11}, {"eventtype": "window_resize", "value": [1366, 768], "timestamp": 1691070727371, "interval": 5028}, {"eventtype": "window_resize", "value": [1024, 694], "timestamp": 1691072571594, "interval": 1844223}], "useragent": "Mozilla/5.0 (Windows NT 10.0; Win64; x64) AppleWebKit/537.36 (KHTML, like Gecko) Chrome/115.0.0.0 Safari/537.36", "mode": "live", "id": "w82709030:a16630884", "status": "user data saved", "Beginhit": "2023-08-03 13:51:07.331313", "Beginexp": "2023-08-03 13:52:08.225779", "Endhit": "2023-08-03 14:22:56.712324", "psiturkStatus": 3, "browser": "<redacted>", "platform": "windows", "language": "en-GB"}