{"condition": 0, "counterbalance": 0, "assignmentId": "a59412631", "workerId": "w34076866", "hitId": "h76810631", "currenttrial": 55, "bonus": 0, "data": [{"uniqueid": "w34076866:a59412631", "current_trial": 0, "dateTime": 1691142333574, "trialdata": {"success": true, "trial_type": "fullscreen", "trial_index": 0, "time_elapsed": 12823, "internal_node_id": "0.0-0.0"}}, {"uniqueid": "w34076866:a59412631", "current_trial": 1, "dateTime": 1691142364254, "trialdata": {"view_history": [{"page_index": 0, "viewing_time": 30657}], "rt": 30661, "trial_id": "exp_instructions_control", "trial_type": "instructions", "trial_index": 1, "time_elapsed": 43504, "internal_node_id": "0.0-1.0"}}, {"uniqueid": "w34076866:a59412631", "current_trial": 2, "dateTime": 1691142369034, "trialdata": {"success": true, "trial_type": "fullscreen", "trial_index": 2, "time_elapsed": 48284, "internal_node_id": "0.0-2.0-0.0"}}, {"uniqueid": "w34076866:a59412631", "current_trial": 3, "dateTime": 1691142698447, "trialdata": {"view_history": [{"page_index": 0, "viewing_time": 102200}, {"page_index": 1, "viewing_time": 130437}, {"page_index": 2, "viewing_time": 30997}, {"page_index": 3, "viewing_time": 65773}], "rt": 329407, "trial_id": "mouselab_instructions_1_control", "trial_type": "instructions", "trial_index": 3, "time_elapsed": 377697, "internal_node_id": "0.0-2.0-1.0"}}, {"uniqueid": "w34076866:a59412631", "current_trial": 4, "dateTime": 1691142845030, "trialdata": {"revealed_states": [], "clicked_states": ["12", "23", "25", "13", "1", "2", "14", "15", "19", "26", "27", "28", "30", "10", "31", "29", "20", "18", "4", "3", "7", "22", "21", "32", "11", "33", "8", "9", "6", "16", "5", "17", "24"], "num_clicks_accrued": [0, 0, 0, 0, 0, 0, 0, 0, 0, 0, 0, 0, 0], "stateRewards": ["", 10, -10, -10, -10, 10, -10, 10, 10, -10, 10, -10, 10, -10, -10, 10, -10, 10, -10, 10, 10, -10, 10, 10, 10, -10, 10, 10, 10, -10, 10, -10, -10, 10], "withholdReward": false, "trial_id": "practice_1", "block": "test", "trialIndex": 0, "score": -23, "costs": -16.5, "simulationMode": [null, null, null, null, null], "rewards": [10, -10, -10, 10, -10], "path": ["0", "0", "1", "2", "3", "8", "9"], "rt": [117823, 3031, 4389, 607, 1139], "actions": ["up", "up", "up", "left", "up"], "actionTimes": [124682, 128250, 133182, 134345, 136047], "queries": {"click": {"state": {"target": ["12", "23", "25", "13", "1", "2", "14", "15", "19", "26", "27", "28", "30", "10", "31", "29", "20", "18", "4", "3", "7", "22", "21", "32", "11", "33", "8", "9", "6", "16", "5", "17", "24"], "time": [15011, 21171, 28044, 31671, 33939, 39528, 42982, 45776, 47927, 50939, 53814, 56133, 58017, 60267, 62175, 64543, 66676, 68981, 70454, 72254, 73352, 75040, 79970, 82197, 84230, 87568, 90836, 93006, 95106, 97541, 99650, 101335, 103158]}, "edge": {"target": [], "time": []}}, "mouseover": {"state": {"target": ["23", "24", "24", "12", "23", "23", "13", "12", "12", "13", "23", "0", "12", "0", "0", "12", "13", "12", "23", "24", "25", "24", "23", "13", "1", "13", "14", "2", "14", "2", "18", "14", "15", "14", "19", "22", "31", "25", "26", "27", "28", "26", "25", "30", "24", "2", "10", "23", "31", "30", "33", "29", "30", "13", "14", "20", "19", "14", "15", "18", "4", "2", "3", "2", "7", "22", "19", "20", "20", "21", "31", "30", "32", "30", "25", "11", "24", "30", "33", "28", "3", "8", "8", "10", "10", "9", "5", "6", "16", "5", "17", "12", "0", "23", "24", "0", "22", "19", "17", "16", "6", "8", "25", "30", "32", "30", "23", "10", "3", "6", "16", "21", "32", "31", "0", "12"], "time": [13598, 13657, 13776, 13924, 13979, 14059, 14128, 14216, 14438, 19884, 20819, 24186, 24239, 24878, 25176, 25356, 26271, 26914, 27000, 27119, 27433, 30706, 30783, 31439, 33666, 36856, 37105, 38624, 38806, 39198, 42077, 42575, 45515, 47346, 47493, 50200, 50298, 50483, 50665, 53209, 55668, 57395, 57545, 57814, 59523, 59705, 60004, 61382, 61568, 63751, 63964, 64347, 64968, 65756, 66120, 66555, 68316, 68414, 68483, 68795, 69783, 71773, 72020, 72529, 73092, 74408, 77022, 77123, 77537, 79846, 81596, 81656, 82041, 83557, 83647, 83987, 84725, 85091, 85665, 89950, 90034, 90416, 90633, 91559, 92266, 92630, 94454, 94820, 97130, 99392, 100642, 102531, 102578, 102625, 102878, 104578, 106089, 106134, 106590, 106753, 106837, 107116, 107216, 107269, 107340, 107498, 109312, 109545, 109867, 110130, 110312, 111772, 112602, 114647, 118420, 118635]}, "edge": {"target": [], "time": []}}, "mouseout": {"state": {"target": ["0", "23", "24", "24", "12", "23", "23", "13", "12", "12", "13", "23", "0", "12", "0", "0", "12", "13", "12", "23", "24", "25", "24", "23", "13", "1", "13", "14", "2", "14", "2", "18", "14", "15", "15", "14", "19", "22", "31", "25", "26", "27", "28", "26", "25", "30", "24", "2", "10", "23", "31", "30", "33", "29", "30", "13", "14", "20", "19", "14", "15", "18", "4", "2", "3", "3", "2", "7", "22", "19", "20", "20", "21", "31", "30", "32", "30", "25", "11", "24", "30", "33", "28", "3", "8", "8", "10", "10", "9", "5", "6", "16", "6", "5", "16", "17", "12", "0", "23", "24", "0", "22", "19", "17", "16", "6", "8", "25", "30", "32", "30", "23", "10", "3", "6", "16", "21", "32", "31", "0", "12"], "time": [10086, 13637, 13682, 13806, 13952, 14006, 14093, 14190, 14323, 19856, 20553, 24160, 24212, 24833, 24928, 25274, 26222, 26884, 26945, 27067, 27184, 29777, 30759, 30813, 33468, 36707, 37037, 38221, 38668, 38932, 42009, 42107, 45397, 45909, 47275, 47425, 48122, 50227, 50326, 50584, 53075, 55552, 57279, 57480, 57589, 58224, 59547, 59788, 60495, 61435, 63715, 63828, 64179, 64758, 65622, 65821, 66289, 68280, 68343, 68439, 68545, 69475, 71575, 71938, 72378, 72488, 72575, 74071, 75296, 77064, 77272, 79532, 81400, 81633, 81719, 83490, 83592, 83698, 84609, 84767, 85599, 89900, 89977, 90059, 90443, 91334, 91680, 92315, 94373, 94521, 96898, 97742, 99173, 100019, 100514, 102363, 102558, 102608, 102765, 104147, 105990, 106116, 106177, 106692, 106791, 106900, 107144, 107252, 107325, 107400, 107526, 109346, 109645, 109902, 110206, 110346, 111806, 112653, 114680, 118537, 120182]}, "edge": {"target": [], "time": []}}}, "displayed_time": "136.61", "trialTime": 144421, "trial_type": "mouselab-mdp", "trial_index": 4, "time_elapsed": 524279, "internal_node_id": "0.0-2.0-2.0-0.0"}}, {"uniqueid": "w34076866:a59412631", "current_trial": 5, "dateTime": 1691142971641, "trialdata": {"revealed_states": [], "clicked_states": ["12", "23", "24", "25", "13", "14", "1", "31", "30", "26", "33", "32", "29", "27", "28", "2", "7", "10", "8", "11", "9", "3", "4", "6", "5", "16", "18", "15", "17", "19", "22", "21", "20"], "num_clicks_accrued": [0, 0, 0, 0, 0, 0, 0, 0, 0, 0, 0, 0, 0], "stateRewards": ["", -10, 10, 10, -10, -10, 10, -10, 10, -10, 10, 10, -10, -10, -10, -10, 10, -10, 10, 10, 10, -10, -10, 10, 10, -10, 10, 10, -10, 10, -10, -10, -10, -10], "withholdReward": false, "trial_id": "practice_2", "block": "test", "trialIndex": 1, "score": 17, "costs": -16.5, "simulationMode": [null, null, null, null, null], "rewards": [10, 10, -10, 10, 10], "path": ["0", "0", "23", "24", "25", "26", "27"], "rt": [104108, 1528, 1632, 1446, 486], "actions": ["left", "left", "left", "up", "up"], "actionTimes": [109460, 111542, 113733, 115741, 116787], "queries": {"click": {"state": {"target": ["12", "23", "24", "25", "13", "14", "1", "31", "30", "26", "33", "32", "29", "27", "28", "2", "7", "10", "8", "11", "9", "3", "4", "6", "5", "16", "18", "15", "17", "19", "22", "21", "20"], "time": [7095, 12681, 17919, 20564, 25329, 29067, 32087, 34857, 37678, 40867, 43981, 46816, 49538, 53267, 56146, 59439, 62409, 65071, 68134, 70049, 72443, 74909, 77113, 80504, 82436, 84363, 86242, 87942, 89377, 91095, 92609, 94070, 95636]}, "edge": {"target": [], "time": []}}, "mouseover": {"state": {"target": ["0", "12", "0", "23", "24", "23", "25", "24", "23", "12", "0", "0", "12", "13", "12", "0", "23", "24", "24", "23", "0", "12", "13", "13", "12", "12", "12", "0", "23", "24", "23", "14", "13", "12", "13", "13", "1", "0", "31", "31", "30", "33", "26", "25", "24", "23", "28", "25", "33", "33", "32", "30", "25", "29", "27", "28", "23", "27", "2", "7", "2", "10", "8", "11", "9", "5", "3", "4", "2", "1", "24", "28", "6", "5", "16", "15", "16", "15", "18", "15", "17", "14", "19", "22", "22", "21", "20", "19", "19", "12", "26", "25", "26", "27", "11", "10", "1", "12", "0"], "time": [6522, 6739, 8905, 12358, 16593, 19950, 20283, 22576, 23082, 23389, 23573, 23676, 23718, 23758, 23847, 23924, 24024, 24106, 24271, 24317, 24412, 24538, 24838, 25135, 26924, 27029, 27520, 27595, 27678, 27891, 28019, 28679, 30694, 30787, 30917, 31227, 31798, 32360, 33248, 34189, 37082, 39894, 40605, 42517, 42968, 43056, 43267, 43509, 43606, 43780, 46024, 48871, 48988, 49100, 52988, 55944, 58186, 58552, 59218, 61563, 64604, 64770, 67795, 69761, 72173, 73165, 73943, 76788, 78865, 78953, 79128, 79466, 80275, 81144, 83104, 83458, 83561, 84841, 85993, 87620, 88337, 90155, 90771, 91920, 92222, 93496, 95231, 96816, 98670, 100216, 100752, 101845, 102113, 102238, 102731, 103076, 103273, 103591, 103676]}, "edge": {"target": [], "time": []}}, "mouseout": {"state": {"target": ["21", "0", "0", "12", "0", "23", "23", "24", "23", "24", "25", "24", "23", "12", "0", "0", "12", "13", "12", "0", "23", "24", "24", "23", "0", "12", "13", "13", "12", "12", "13", "12", "0", "23", "24", "23", "13", "13", "14", "13", "12", "13", "14", "13", "1", "0", "31", "31", "30", "33", "26", "30", "30", "25", "26", "24", "23", "28", "25", "33", "33", "32", "30", "25", "29", "29", "27", "28", "23", "27", "2", "7", "2", "10", "8", "11", "9", "5", "3", "4", "2", "1", "24", "28", "6", "4", "5", "6", "16", "15", "16", "15", "18", "15", "17", "14", "19", "22", "22", "21", "20", "19", "19", "20", "12", "26", "25", "26", "27", "11", "10", "1", "12"], "time": [2790, 4090, 6655, 8850, 12321, 14883, 15946, 19750, 20005, 20188, 22527, 23057, 23111, 23542, 23600, 23701, 23742, 23821, 23892, 23988, 24057, 24133, 24299, 24386, 24487, 24786, 24902, 26896, 26953, 27078, 27494, 27554, 27623, 27809, 27993, 28052, 28109, 28642, 30670, 30750, 30901, 30943, 31199, 31306, 32314, 32408, 33311, 36919, 39841, 40489, 41016, 41148, 42451, 42570, 42816, 43008, 43187, 43338, 43585, 43651, 44172, 48800, 48935, 49022, 49707, 50261, 54765, 57989, 58224, 58590, 59712, 62504, 64687, 67601, 69705, 71994, 72612, 73695, 76548, 78780, 78904, 79031, 79345, 79614, 80796, 80949, 82844, 83033, 83177, 83536, 84785, 85930, 87475, 88313, 90057, 90629, 91237, 91979, 92939, 94297, 96790, 96902, 98696, 98771, 100244, 100814, 101910, 102166, 102616, 102768, 103110, 103374, 103620]}, "edge": {"target": [], "time": []}}}, "displayed_time": "117.35", "trialTime": 125099, "trial_type": "mouselab-mdp", "trial_index": 5, "time_elapsed": 650888, "internal_node_id": "0.0-2.0-2.0-1.0"}}, {"uniqueid": "w34076866:a59412631", "current_trial": 6, "dateTime": 1691143039835, "trialdata": {"view_history": [{"page_index": 0, "viewing_time": 40696}, {"page_index": 1, "viewing_time": 27481}], "rt": 68179, "trial_id": "mouselab_instructions_2_control", "trial_type": "instructions", "trial_index": 6, "time_elapsed": 719085, "internal_node_id": "0.0-2.0-3.0"}}, {"uniqueid": "w34076866:a59412631", "current_trial": 7, "dateTime": 1691143097320, "trialdata": {"rt": 57454, "response": {"Q0": "The cost for clicking on nodes may vary between nodes.", "Q1": "The better I perform the higher my bonus will be.", "Q2": "No, the amount of cash at each node of the web may be different each time.", "Q3": "To get the highest total score.", "Q4": "Only before moving the spider.", "Q5": "3 seconds"}, "question_order": [0, 1, 2, 3, 4, 5], "correct": {"Q0": "The cost for clicking on nodes may vary between nodes.", "Q1": "The better I perform the higher my bonus will be.", "Q2": "No, the amount of cash at each node of the web may be different each time.", "Q3": "To get the highest total score.", "Q4": "Only before moving the spider.", "Q5": "3 seconds"}, "trial_id": "mouselab_quiz_control", "trial_type": "survey-multi-choice", "trial_index": 7, "time_elapsed": 776570, "internal_node_id": "0.0-2.0-4.0"}}, {"uniqueid": "w34076866:a59412631", "current_trial": 8, "dateTime": 1691143120183, "trialdata": {"rt": 22825, "stimulus": "\n<h1> Get ready to start the game! </h1>\n\nThank you for reading the instructions. Get ready start with the 40 rounds of this game.\n<br><br>\nIf you need to take a break, feel free to take one after the end of a round, before continuing to the next one.\n<br><br>\nRemember, the more money the spider gets, the bigger your bonus will be!\n<br><br>\n<div style='text-align: center;'>Press <code>space</code> to begin.</div>\n\n<br><br>\n(If, at any point, the <code>space</code> key does not take you to the next page, click once on the text and try again.)", "response": " ", "trial_id": "mdp_ready", "trial_type": "html-keyboard-response", "trial_index": 8, "time_elapsed": 799433, "internal_node_id": "0.0-4.0-0.0"}}, {"uniqueid": "w34076866:a59412631", "current_trial": 9, "dateTime": 1691143238151, "trialdata": {"revealed_states": [], "clicked_states": ["23", "1", "12", "2", "10", "8", "3", "4", "5", "9", "11", "6", "7", "18", "16", "15", "17", "13", "14", "22", "19", "20", "21", "24", "31", "30", "32", "33", "25", "26", "29", "27", "28"], "num_clicks_accrued": [0, 0, 0, 0, 0, 0, 0, 0, 0, 0, 0, 0, 0], "stateRewards": ["", 2, 3, 8, 11, 25, -80, 6, -4, -56, 84, -23, -2, -4, -3, 4, -51, -9, -61, -15, -64, 67, -35, 1, -1, -7, -6, 83, 59, -15, 12, -79, 56, 41], "withholdReward": false, "trial_id": "mdp_trial_1", "block": "test", "trialIndex": 2, "score": -60.199999999999974, "costs": -46.199999999999974, "simulationMode": [null, null, null, null, null], "rewards": [2, 3, 8, -4, -23], "path": ["0", "0", "1", "2", "3", "8", "11"], "rt": [87158, 2079, 4204, 743, 445], "actions": ["up", "up", "up", "left", "left"], "actionTimes": [91862, 94481, 99269, 100573, 101573], "queries": {"click": {"state": {"target": ["23", "1", "12", "2", "10", "8", "3", "4", "5", "9", "11", "6", "7", "18", "16", "15", "17", "13", "14", "22", "19", "20", "21", "24", "31", "30", "32", "33", "25", "26", "29", "27", "28"], "time": [6980, 8608, 10806, 13699, 16257, 18929, 21444, 23924, 26402, 28795, 31947, 34392, 36398, 38547, 40761, 43088, 45114, 47081, 49024, 51377, 53146, 54993, 57157, 59760, 61845, 63819, 65912, 67983, 70985, 73576, 76360, 78256, 80403]}, "edge": {"target": [], "time": []}}, "mouseover": {"state": {"target": ["28", "23", "1", "12", "13", "18", "2", "10", "8", "3", "2", "2", "4", "5", "9", "8", "11", "8", "3", "6", "6", "7", "18", "18", "15", "16", "15", "18", "17", "17", "14", "13", "14", "22", "19", "20", "21", "19", "15", "19", "12", "0", "23", "24", "31", "25", "25", "30", "32", "33", "21", "32", "25", "21", "26", "29", "27", "28"], "time": [5959, 6311, 8385, 10192, 12758, 13174, 13374, 15767, 18509, 21070, 22228, 23360, 23726, 26119, 26921, 30810, 31487, 32700, 32802, 33935, 34163, 34824, 38118, 38285, 40019, 40550, 41048, 43529, 44242, 44510, 45698, 46310, 47415, 49574, 52018, 53682, 55755, 57965, 58179, 58283, 58924, 59092, 59357, 59607, 61602, 62577, 62802, 63013, 64185, 66384, 70224, 70576, 70804, 72051, 73233, 76159, 76945, 78879]}, "edge": {"target": [], "time": []}}, "mouseout": {"state": {"target": ["0", "28", "23", "1", "12", "1", "12", "13", "18", "2", "12", "10", "8", "8", "8", "3", "3", "2", "2", "4", "5", "9", "8", "11", "8", "3", "6", "6", "7", "6", "6", "18", "18", "15", "16", "15", "18", "15", "17", "17", "14", "13", "14", "22", "19", "20", "21", "19", "19", "15", "19", "12", "0", "23", "24", "21", "31", "25", "25", "30", "30", "32", "33", "32", "32", "32", "21", "32", "32", "25", "21", "26", "29", "27", "28"], "time": [3231, 6227, 7261, 9940, 11607, 12285, 12674, 13125, 13221, 13876, 15177, 18260, 19125, 19634, 21034, 21583, 22151, 22392, 23410, 25903, 26658, 30657, 31242, 32630, 32751, 33881, 33965, 34737, 37050, 37185, 37459, 38185, 39913, 40511, 41005, 43509, 43572, 44135, 44358, 45410, 46264, 47340, 49437, 51659, 53410, 55372, 57624, 57733, 58014, 58235, 58364, 59041, 59308, 59523, 60025, 61248, 62452, 62634, 62893, 63974, 64091, 66189, 68402, 69248, 69692, 69858, 70338, 70425, 70608, 71849, 72111, 76074, 76546, 78559, 81212]}, "edge": {"target": [], "time": []}}}, "displayed_time": "102.23", "trialTime": 116383, "trial_type": "mouselab-mdp", "trial_index": 9, "time_elapsed": 917399, "internal_node_id": "0.0-4.0-1.0-0.0"}}, {"uniqueid": "w34076866:a59412631", "current_trial": 10, "dateTime": 1691143269188, "trialdata": {"revealed_states": [], "clicked_states": [], "num_clicks_accrued": [0, 0, 0, 0, 0, 0, 0, 0, 0, 0, 0, 0, 0], "stateRewards": ["", 2, -3, -2, 14, -4, 85, 46, 15, -28, 41, 31, -1, -1, -1, 5, 62, 79, 57, 12, -73, -64, 86, -1, 1, -3, -5, 68, 11, -32, 8, -80, -21, -56], "withholdReward": false, "trial_id": "mdp_trial_2", "block": "test", "trialIndex": 3, "score": 43, "costs": 0, "simulationMode": [null, null, null, null, null], "rewards": [2, -3, -2, 15, 31], "path": ["0", "0", "1", "2", "3", "8", "11"], "rt": [9139, 3705, 2226, 195, 392], "actions": ["up", "up", "up", "left", "left"], "actionTimes": [12452, 16728, 19535, 20261, 21216], "queries": {"click": {"state": {"target": [], "time": []}, "edge": {"target": [], "time": []}}, "mouseover": {"state": {"target": ["0", "23", "0", "23"], "time": [4175, 5006, 6343, 6454]}, "edge": {"target": [], "time": []}}, "mouseout": {"state": {"target": ["0", "23", "0"], "time": [4226, 5093, 6401]}, "edge": {"target": [], "time": []}}}, "displayed_time": "21.77", "trialTime": 28589, "trial_type": "mouselab-mdp", "trial_index": 10, "time_elapsed": 948436, "internal_node_id": "0.0-4.0-1.0-1.0"}}, {"uniqueid": "w34076866:a59412631", "current_trial": 11, "dateTime": 1691143305523, "trialdata": {"revealed_states": [], "clicked_states": [], "num_clicks_accrued": [0, 0, 0, 0, 0, 0, 0, 0, 0, 0, 0, 0, 0], "stateRewards": ["", -1, 1, 3, -8, -23, -15, -14, -11, -23, 58, 68, 1, 3, 5, 12, -17, -41, -7, -10, -4, 82, 10, 1, 4, -4, 11, 73, 55, -55, -1, -86, -86, 54], "withholdReward": false, "trial_id": "mdp_trial_3", "block": "test", "trialIndex": 4, "score": -43, "costs": 0, "simulationMode": [null, null, null, null, null], "rewards": [1, 4, -4, 11, -55], "path": ["0", "0", "23", "24", "25", "26", "29"], "rt": [8737, 1081, 755, 195, 1699], "actions": ["left", "left", "left", "up", "left"], "actionTimes": [15209, 16846, 18154, 18910, 21190], "queries": {"click": {"state": {"target": [], "time": []}, "edge": {"target": [], "time": []}}, "mouseover": {"state": {"target": ["0", "1", "0"], "time": [6553, 9325, 9789]}, "edge": {"target": [], "time": []}}, "mouseout": {"state": {"target": ["23", "0", "0", "0", "0", "0", "1", "0"], "time": [3868, 3934, 4398, 4633, 5080, 9225, 9730, 9823]}, "edge": {"target": [], "time": []}}}, "displayed_time": "21.75", "trialTime": 34575, "trial_type": "mouselab-mdp", "trial_index": 11, "time_elapsed": 984771, "internal_node_id": "0.0-4.0-1.0-2.0"}}, {"uniqueid": "w34076866:a59412631", "current_trial": 12, "dateTime": 1691143412097, "trialdata": {"revealed_states": [], "clicked_states": ["1", "10", "2", "3", "12", "14", "24", "23", "25", "30", "33", "31", "32", "28", "29", "27", "26", "7", "6", "4", "5", "8", "11", "9", "15", "17", "16", "18", "13", "22", "19", "20", "21"], "num_clicks_accrued": [0, 0, 0, 0, 0, 0, 0, 0, 0, 0, 0, 0, 0], "stateRewards": ["", 1, -4, 6, -3, 40, 76, -51, 5, -24, -63, 44, -2, -2, 8, 1, 76, -85, -58, 10, 59, 20, 11, -2, 3, -3, 3, -82, -10, 54, -7, -57, -6, -32], "withholdReward": false, "trial_id": "mdp_trial_4", "block": "test", "trialIndex": 5, "score": -99.19999999999997, "costs": -46.199999999999974, "simulationMode": [null, null, null, null, null], "rewards": [-2, -2, 8, 1, -58], "path": ["0", "0", "12", "13", "14", "15", "18"], "rt": [87396, 687, 644, 260, 2453], "actions": ["right", "right", "right", "up", "left"], "actionTimes": [92524, 93759, 94960, 95776, 98798], "queries": {"click": {"state": {"target": ["1", "10", "2", "3", "12", "14", "24", "23", "25", "30", "33", "31", "32", "28", "29", "27", "26", "7", "6", "4", "5", "8", "11", "9", "15", "17", "16", "18", "13", "22", "19", "20", "21"], "time": [7859, 9715, 12278, 14372, 17850, 20009, 21963, 23862, 26658, 28613, 30477, 32086, 34104, 37037, 39417, 42476, 44855, 46948, 49235, 51206, 53328, 56084, 58426, 60305, 64835, 66834, 68707, 71960, 74302, 77340, 79810, 82308, 85708]}, "edge": {"target": [], "time": []}}, "mouseover": {"state": {"target": ["1", "2", "10", "2", "7", "2", "3", "4", "6", "15", "14", "13", "12", "14", "13", "23", "24", "24", "23", "1", "7", "0", "25", "25", "30", "30", "33", "31", "32", "30", "25", "26", "28", "27", "29", "27", "29", "27", "26", "27", "26", "28", "10", "10", "2", "7", "4", "6", "4", "5", "9", "8", "8", "11", "9", "3", "4", "6", "13", "18", "16", "15", "17", "16", "18", "13", "13", "14", "14", "19", "22", "19", "20", "21"], "time": [7547, 8635, 8798, 11222, 11293, 11538, 13843, 16316, 16671, 17005, 17136, 17404, 17652, 19430, 20393, 20567, 20677, 21155, 22816, 24856, 25022, 26076, 26258, 26376, 26860, 27225, 30023, 30747, 32710, 34833, 34940, 35347, 36352, 38015, 38416, 39055, 39215, 39845, 41367, 42267, 42731, 45231, 45414, 45656, 45946, 46089, 48678, 49043, 50069, 53115, 54669, 55576, 55892, 58202, 59173, 62833, 62885, 63167, 63654, 64114, 64355, 64652, 65486, 67672, 69486, 73444, 74134, 76402, 76812, 76965, 77114, 77776, 82096, 83398]}, "edge": {"target": [], "time": []}}, "mouseout": {"state": {"target": ["0", "1", "1", "1", "2", "10", "2", "7", "2", "3", "4", "6", "15", "14", "13", "12", "14", "13", "12", "23", "24", "24", "23", "1", "7", "0", "23", "24", "25", "25", "30", "30", "33", "33", "30", "31", "32", "30", "25", "26", "28", "27", "29", "27", "29", "27", "26", "27", "27", "26", "28", "10", "10", "2", "7", "7", "26", "4", "6", "4", "5", "9", "8", "8", "8", "11", "8", "9", "3", "4", "6", "13", "18", "16", "15", "17", "16", "18", "13", "13", "13", "14", "14", "19", "22", "19", "20", "21"], "time": [6367, 7920, 8060, 8520, 8717, 11192, 11275, 11472, 13734, 16288, 16618, 16753, 17071, 17368, 17437, 18099, 20343, 20438, 20518, 20626, 20755, 22761, 24627, 24904, 25598, 26110, 26146, 26195, 26293, 26815, 26909, 30003, 30587, 30677, 30730, 32620, 34748, 34917, 35019, 35966, 37613, 38107, 38839, 39156, 39599, 41262, 42215, 42572, 42679, 45174, 45291, 45504, 45854, 46014, 47027, 48428, 48612, 48741, 49405, 53018, 53573, 55544, 55624, 56405, 58143, 58689, 59062, 60530, 62869, 62919, 63282, 64032, 64300, 64614, 65174, 67515, 69292, 73395, 73786, 74568, 76363, 76435, 76906, 77076, 77727, 81898, 82578, 85866]}, "edge": {"target": [], "time": []}}}, "displayed_time": "99.34", "trialTime": 104738, "trial_type": "mouselab-mdp", "trial_index": 12, "time_elapsed": 1091343, "internal_node_id": "0.0-4.0-1.0-3.0"}}, {"uniqueid": "w34076866:a59412631", "current_trial": 13, "dateTime": 1691143500173, "trialdata": {"revealed_states": [], "clicked_states": ["1", "2", "7", "3", "8", "10", "11", "9", "4", "5", "6", "12", "13", "14", "15", "18", "16", "17", "19", "20", "21", "22", "23", "24", "25", "30", "31", "32", "33", "26", "28", "29", "27"], "num_clicks_accrued": [0, 0, 0, 0, 0, 0, 0, 0, 0, 0, 0, 0, 0], "stateRewards": ["", -2, -4, -8, 8, 63, -50, -19, -7, -17, -31, 31, 1, 3, -5, 12, -35, -63, -29, -4, -17, -75, -79, -2, -3, -2, 8, -3, -85, 10, -2, -82, -82, 56], "withholdReward": false, "trial_id": "mdp_trial_5", "block": "test", "trialIndex": 6, "score": 10.800000000000026, "costs": -46.199999999999974, "simulationMode": [null, null, null, null, null], "rewards": [-2, -4, -8, 8, 63], "path": ["0", "0", "1", "2", "3", "4", "5"], "rt": [74346, 403, 747, 75, 382], "actions": ["up", "up", "up", "right", "up"], "actionTimes": [77453, 78394, 79695, 80342, 81274], "queries": {"click": {"state": {"target": ["1", "2", "7", "3", "8", "10", "11", "9", "4", "5", "6", "12", "13", "14", "15", "18", "16", "17", "19", "20", "21", "22", "23", "24", "25", "30", "31", "32", "33", "26", "28", "29", "27"], "time": [4433, 7812, 9799, 11968, 14263, 16127, 17825, 19700, 21736, 23606, 25374, 27557, 30348, 32420, 34023, 35946, 37897, 39882, 41893, 43795, 45754, 47647, 49502, 51495, 53345, 55277, 57236, 59539, 61581, 63623, 65853, 67908, 69858]}, "edge": {"target": [], "time": []}}, "mouseover": {"state": {"target": ["0", "1", "12", "2", "2", "7", "3", "8", "10", "11", "9", "4", "5", "6", "18", "13", "18", "12", "13", "14", "15", "18", "16", "17", "17", "19", "20", "20", "21", "22", "0", "23", "24", "31", "25", "30", "31", "32", "30", "33", "25", "26", "28", "28", "29", "27"], "time": [3205, 4247, 5149, 7023, 7522, 8550, 11037, 13935, 15014, 16570, 18451, 20409, 22285, 24202, 25710, 25775, 26746, 27179, 28011, 30974, 33219, 35045, 36482, 38355, 38705, 40199, 42444, 43104, 44068, 46262, 48211, 48496, 51168, 52066, 52526, 54554, 55571, 57771, 60974, 61311, 63083, 63307, 65080, 65339, 66839, 68660]}, "edge": {"target": [], "time": []}}, "mouseout": {"state": {"target": ["23", "0", "1", "12", "1", "2", "2", "2", "7", "3", "8", "10", "11", "9", "4", "5", "6", "6", "18", "13", "18", "12", "13", "14", "15", "18", "16", "17", "17", "17", "19", "20", "20", "20", "21", "22", "0", "23", "24", "31", "25", "30", "31", "32", "30", "33", "25", "26", "28", "28", "26", "29", "27", "28"], "time": [1531, 4161, 4720, 6907, 6962, 7218, 7880, 8368, 10393, 13804, 14876, 16363, 18112, 19956, 22167, 23835, 25490, 25628, 25758, 26539, 27062, 27787, 30459, 32477, 34823, 36208, 38214, 38499, 39997, 40115, 42242, 42705, 43841, 43983, 45869, 47921, 48342, 51120, 51713, 52226, 54085, 55488, 57659, 59983, 61048, 62903, 63154, 64033, 65178, 66154, 66237, 68439, 70258, 70490]}, "edge": {"target": [], "time": []}}}, "displayed_time": "81.84", "trialTime": 86200, "trial_type": "mouselab-mdp", "trial_index": 13, "time_elapsed": 1179421, "internal_node_id": "0.0-4.0-1.0-4.0"}}, {"uniqueid": "w34076866:a59412631", "current_trial": 14, "dateTime": 1691143596615, "trialdata": {"revealed_states": [], "clicked_states": ["1", "2", "10", "3", "8", "11", "9", "4", "5", "6", "7", "12", "13", "14", "15", "18", "16", "19", "17", "20", "21", "22", "23", "24", "25", "30", "32", "31", "33", "26", "28", "29", "27"], "num_clicks_accrued": [0, 0, 0, 0, 0, 0, 0, 0, 0, 0, 0, 0, 0], "stateRewards": ["", 2, 3, -1, 16, -78, -11, 46, 2, -20, 79, -67, 2, 3, 2, 11, -83, -42, -58, -11, -67, -22, 55, 2, -1, -1, -16, -83, -82, 23, -11, -29, 13, 13], "withholdReward": false, "trial_id": "mdp_trial_6", "block": "test", "trialIndex": 7, "score": 38.800000000000026, "costs": -46.199999999999974, "simulationMode": [null, null, null, null, null], "rewards": [2, 3, -1, 2, 79], "path": ["0", "0", "1", "2", "3", "8", "10"], "rt": [83449, 587, 1530, 198, 77], "actions": ["up", "up", "up", "left", "down"], "actionTimes": [87407, 88559, 90638, 91366, 92003], "queries": {"click": {"state": {"target": ["1", "2", "10", "3", "8", "11", "9", "4", "5", "6", "7", "12", "13", "14", "15", "18", "16", "19", "17", "20", "21", "22", "23", "24", "25", "30", "32", "31", "33", "26", "28", "29", "27"], "time": [5413, 7315, 9419, 11945, 14125, 16086, 18068, 21199, 23045, 24976, 26832, 28932, 30859, 32830, 34941, 36622, 38815, 42619, 45399, 47576, 50885, 53757, 56998, 60494, 63593, 66024, 69438, 71376, 73847, 75696, 77720, 79505, 81424]}, "edge": {"target": [], "time": []}}, "mouseover": {"state": {"target": ["1", "2", "10", "7", "3", "8", "10", "11", "9", "4", "6", "5", "4", "4", "5", "6", "7", "18", "13", "12", "13", "14", "15", "18", "16", "16", "17", "19", "17", "20", "21", "22", "22", "23", "24", "25", "30", "30", "32", "31", "30", "33", "33", "25", "26", "26", "28", "29", "27", "3", "8", "11", "10", "8", "8", "10"], "time": [5091, 5902, 8973, 10730, 11523, 13873, 15154, 15358, 17360, 19479, 19579, 20297, 20511, 20853, 21498, 23586, 25423, 27273, 27909, 28254, 29783, 31468, 34722, 35550, 37335, 38527, 39289, 41386, 43434, 47270, 50612, 53436, 53559, 56226, 60196, 63373, 65581, 65765, 69140, 71167, 73327, 73414, 73628, 74594, 74696, 74922, 77345, 78279, 80213, 82057, 82257, 82504, 83280, 83613, 83879, 83950]}, "edge": {"target": [], "time": []}}, "mouseout": {"state": {"target": ["0", "1", "2", "10", "7", "3", "8", "10", "11", "9", "4", "6", "5", "4", "4", "5", "5", "6", "7", "18", "13", "12", "13", "14", "15", "18", "16", "16", "16", "17", "19", "17", "20", "21", "22", "22", "23", "23", "24", "25", "30", "30", "30", "30", "32", "32", "31", "30", "33", "33", "25", "26", "26", "28", "26", "29", "27", "3", "8", "11", "10", "8", "8"], "time": [2096, 5803, 8754, 10462, 11293, 13833, 14772, 15203, 16566, 18429, 19529, 19658, 20479, 20555, 21414, 23168, 23392, 25272, 27200, 27804, 28008, 29501, 31192, 32918, 35274, 37056, 38230, 38900, 39110, 41055, 43222, 46910, 50312, 50999, 53482, 54078, 59834, 60098, 63309, 65468, 65613, 66436, 67741, 68940, 69598, 70779, 73079, 73381, 73465, 74351, 74641, 74747, 77190, 77979, 78050, 80059, 81773, 82209, 82314, 83151, 83496, 83780, 83915]}, "edge": {"target": [], "time": []}}}, "displayed_time": "92.56", "trialTime": 94581, "trial_type": "mouselab-mdp", "trial_index": 14, "time_elapsed": 1275864, "internal_node_id": "0.0-4.0-1.0-5.0"}}, {"uniqueid": "w34076866:a59412631", "current_trial": 15, "dateTime": 1691143647006, "trialdata": {"revealed_states": [], "clicked_states": ["1", "2", "3"], "num_clicks_accrued": [0, 0, 0, 0, 0, 0, 0, 0, 0, 0, 0, 0, 0], "stateRewards": ["", -1, 2, -6, 6, -82, -19, -39, -16, -83, 11, -33, -2, -2, 4, -6, -82, -1, -19, -6, -10, -67, -41, -2, 1, -7, 16, -23, -78, -52, 14, 31, -71, 74], "withholdReward": false, "trial_id": "mdp_trial_7", "block": "test", "trialIndex": 8, "score": -74.2, "costs": -4.199999999999999, "simulationMode": [null, null, null, null, null], "rewards": [-2, 1, -7, 16, -78], "path": ["0", "0", "23", "24", "25", "26", "28"], "rt": [30196, 1117, 524, 1363, 288], "actions": ["left", "left", "left", "up", "right"], "actionTimes": [36010, 37677, 38745, 40668, 41548], "queries": {"click": {"state": {"target": ["1", "2", "3"], "time": [8443, 10340, 12538]}, "edge": {"target": [], "time": []}}, "mouseover": {"state": {"target": ["1", "2", "3", "8"], "time": [8116, 9996, 11021, 16872]}, "edge": {"target": [], "time": []}}, "mouseout": {"state": {"target": ["10", "1", "1", "2", "3"], "time": [4173, 4272, 9176, 11006, 16741]}, "edge": {"target": [], "time": []}}}, "displayed_time": "42.10", "trialTime": 48616, "trial_type": "mouselab-mdp", "trial_index": 15, "time_elapsed": 1326254, "internal_node_id": "0.0-4.0-1.0-6.0"}}, {"uniqueid": "w34076866:a59412631", "current_trial": 16, "dateTime": 1691143738472, "trialdata": {"revealed_states": [], "clicked_states": ["1", "2", "3", "8", "11", "9", "5", "4", "6", "7", "10", "27", "29", "32", "21", "20", "16", "17", "28", "26", "25", "30", "31", "33", "24", "23", "14", "15", "18", "13", "12", "19", "22"], "num_clicks_accrued": [0, 0, 0, 0, 0, 0, 0, 0, 0, 0, 0, 0, 0], "stateRewards": ["", 1, -1, 4, -2, -75, -75, 84, -9, -60, -79, 59, 2, -4, 8, 9, -17, -82, 80, 14, -4, 49, 49, -1, 3, 6, -11, -33, 34, 55, 9, -57, 5, 59], "withholdReward": false, "trial_id": "mdp_trial_8", "block": "test", "trialIndex": 9, "score": 48.800000000000026, "costs": -46.199999999999974, "simulationMode": [null, null, null, null, null], "rewards": [2, -4, 8, 9, 80], "path": ["0", "0", "12", "13", "14", "15", "18"], "rt": [79375, 269, 243, 311, 69], "actions": ["right", "right", "right", "up", "left"], "actionTimes": [83050, 83882, 84679, 85549, 86196], "queries": {"click": {"state": {"target": ["1", "2", "3", "8", "11", "9", "5", "4", "6", "7", "10", "27", "29", "32", "21", "20", "16", "17", "28", "26", "25", "30", "31", "33", "24", "23", "14", "15", "18", "13", "12", "19", "22"], "time": [5793, 7549, 9515, 11403, 13909, 15695, 18127, 20049, 22070, 23913, 25721, 30234, 32885, 34816, 36804, 38645, 40704, 43105, 46040, 47948, 49585, 52495, 55342, 57277, 59219, 61492, 63289, 65195, 67016, 71283, 73292, 75416, 77430]}, "edge": {"target": [], "time": []}}, "mouseover": {"state": {"target": ["0", "1", "1", "2", "3", "8", "11", "9", "8", "8", "3", "5", "4", "6", "7", "1", "10", "2", "4", "8", "11", "27", "27", "28", "28", "27", "29", "32", "21", "20", "17", "17", "16", "15", "18", "15", "17", "15", "18", "1", "29", "26", "28", "26", "25", "30", "30", "31", "33", "24", "24", "30", "23", "12", "14", "15", "18", "13", "19", "13", "12", "22", "19", "13", "18", "22", "14", "18", "2"], "time": [4612, 4886, 5483, 7169, 9140, 10715, 13320, 15197, 16395, 16715, 16787, 17730, 19553, 21780, 23088, 24251, 24618, 26321, 26445, 28023, 28400, 28691, 28947, 29184, 29597, 29948, 32622, 33635, 35798, 37193, 39325, 39611, 40172, 41023, 41264, 41791, 41865, 44100, 44467, 45070, 45139, 45484, 45777, 46441, 48555, 50150, 52332, 53003, 56308, 57817, 58067, 60276, 61255, 62054, 62788, 64519, 66014, 67811, 68172, 70918, 72855, 75024, 75116, 75951, 76245, 76749, 79071, 81480, 81696]}, "edge": {"target": [], "time": []}}, "mouseout": {"state": {"target": ["8", "10", "1", "0", "0", "1", "1", "2", "2", "3", "8", "11", "9", "8", "8", "3", "11", "5", "4", "6", "7", "1", "10", "2", "4", "7", "7", "7", "8", "11", "27", "27", "28", "28", "27", "27", "29", "32", "21", "20", "17", "17", "16", "16", "15", "18", "15", "17", "15", "18", "1", "29", "26", "28", "28", "26", "25", "30", "30", "31", "30", "33", "24", "24", "24", "30", "23", "12", "14", "15", "15", "18", "13", "19", "18", "18", "13", "12", "22", "19", "13", "18", "22", "14", "18", "2"], "time": [874, 957, 1141, 2187, 4750, 5298, 6933, 7739, 8980, 10572, 13284, 14811, 15964, 16592, 16769, 16842, 17441, 19501, 21368, 22781, 24233, 24307, 26265, 26374, 26543, 26894, 27589, 27957, 28087, 28649, 28724, 29148, 29223, 29636, 30415, 30981, 33259, 35447, 37063, 38771, 39407, 39929, 40757, 40970, 41190, 41772, 41846, 43534, 44196, 45021, 45107, 45358, 45723, 46096, 46344, 48464, 50050, 51788, 52883, 55911, 56148, 57677, 57872, 60003, 60222, 60330, 61957, 62711, 64317, 65563, 65852, 67680, 67925, 69482, 70348, 70861, 72655, 73494, 75079, 75875, 76005, 76650, 78759, 79202, 81533, 81752]}, "edge": {"target": [], "time": []}}}, "displayed_time": "86.77", "trialTime": 89139, "trial_type": "mouselab-mdp", "trial_index": 16, "time_elapsed": 1417720, "internal_node_id": "0.0-4.0-1.0-7.0"}}, {"uniqueid": "w34076866:a59412631", "current_trial": 17, "dateTime": 1691143831813, "trialdata": {"revealed_states": [], "clicked_states": ["1", "9", "11", "5", "6", "18", "16", "17", "15", "20", "21", "22", "19", "14", "13", "12", "32", "33", "27", "29", "25", "24", "23", "26", "31", "30", "28", "10", "2", "8", "7", "4", "3"], "num_clicks_accrued": [0, 0, 0, 0, 0, 0, 0, 0, 0, 0, 0, 0, 0], "stateRewards": ["", -2, -1, -1, 5, -54, -87, 35, 2, -8, 20, -22, 1, 3, 6, 13, -75, -32, -55, -3, 56, 62, -22, -1, -4, -1, -7, -51, 84, 70, 7, -15, 5, 55], "withholdReward": false, "trial_id": "mdp_trial_9", "block": "test", "trialIndex": 10, "score": 24.800000000000026, "costs": -46.199999999999974, "simulationMode": [null, null, null, null, null], "rewards": [-1, -4, -1, -7, 84], "path": ["0", "0", "23", "24", "25", "26", "28"], "rt": [76880, 619, 204, 302, 238], "actions": ["left", "left", "left", "up", "right"], "actionTimes": [83777, 84940, 85705, 86568, 87384], "queries": {"click": {"state": {"target": ["1", "9", "11", "5", "6", "18", "16", "17", "15", "20", "21", "22", "19", "14", "13", "12", "32", "33", "27", "29", "25", "24", "23", "26", "31", "30", "28", "10", "2", "8", "7", "4", "3"], "time": [7854, 10545, 12679, 14537, 16523, 19295, 21579, 23547, 25644, 28065, 29993, 32468, 34513, 36714, 38735, 40691, 42727, 44754, 46728, 48927, 51499, 53575, 55379, 57405, 59396, 61342, 63022, 65720, 67857, 71499, 74350, 76517, 78839]}, "edge": {"target": [], "time": []}}, "mouseover": {"state": {"target": ["1", "1", "2", "2", "8", "9", "2", "10", "11", "8", "5", "6", "7", "7", "18", "13", "13", "18", "16", "17", "15", "14", "20", "14", "21", "22", "22", "19", "20", "20", "20", "19", "19", "14", "21", "21", "13", "12", "32", "32", "33", "29", "27", "26", "25", "29", "25", "24", "23", "26", "25", "30", "31", "30", "25", "28", "10", "24", "25", "26", "2", "28", "10", "11", "8", "28", "10", "7", "4", "3"], "time": [6964, 7617, 8628, 9796, 10113, 10243, 11117, 11437, 12019, 13046, 13501, 14957, 17710, 17983, 18117, 18334, 18769, 19070, 21276, 22100, 24590, 26322, 27828, 28678, 29460, 31456, 31797, 33084, 33157, 33336, 33690, 33877, 34125, 36450, 37527, 37699, 38016, 39253, 41578, 41791, 44050, 45835, 46098, 47705, 48184, 48598, 49556, 52433, 54156, 56095, 57848, 58156, 58457, 60355, 61840, 61949, 63646, 66342, 66701, 66969, 67513, 68637, 70431, 70884, 71282, 73328, 73584, 74009, 75375, 77105]}, "edge": {"target": [], "time": []}}, "mouseout": {"state": {"target": ["30", "24", "23", "1", "1", "1", "2", "2", "8", "9", "2", "10", "11", "8", "5", "6", "7", "7", "18", "13", "13", "18", "16", "17", "15", "14", "20", "14", "21", "20", "22", "22", "19", "20", "20", "20", "19", "19", "14", "21", "21", "19", "13", "12", "32", "32", "33", "29", "27", "26", "25", "29", "25", "24", "24", "23", "26", "25", "30", "31", "30", "25", "28", "10", "24", "25", "26", "2", "28", "10", "11", "8", "2", "28", "10", "7", "4", "3"], "time": [4737, 4788, 5003, 7319, 8012, 8372, 9065, 9931, 10194, 10946, 11345, 11574, 12990, 13111, 14863, 17625, 17849, 18084, 18263, 18506, 18987, 21114, 21969, 24541, 26263, 27496, 28480, 29214, 30528, 31221, 31509, 33030, 33139, 33214, 33392, 33817, 33932, 36335, 37073, 37575, 37753, 37806, 39232, 41446, 41656, 43606, 45549, 46004, 47557, 48109, 48402, 49396, 52306, 53627, 53953, 55800, 57789, 57903, 58399, 60227, 61555, 61896, 63365, 66171, 66398, 66872, 67134, 68198, 70342, 70533, 71165, 72048, 72966, 73526, 73623, 74415, 77084, 79166]}, "edge": {"target": [], "time": []}}}, "displayed_time": "87.93", "trialTime": 91539, "trial_type": "mouselab-mdp", "trial_index": 17, "time_elapsed": 1511063, "internal_node_id": "0.0-4.0-1.0-8.0"}}, {"uniqueid": "w34076866:a59412631", "current_trial": 18, "dateTime": 1691143921438, "trialdata": {"revealed_states": [], "clicked_states": ["1", "4", "11", "9", "5", "6", "17", "20", "21", "32", "33", "29", "27", "26", "28", "25", "24", "31", "30", "14", "16", "18", "15", "22", "19", "13", "12", "23", "8", "2", "10", "7", "3"], "num_clicks_accrued": [0, 0, 0, 0, 0, 0, 0, 0, 0, 0, 0, 0, 0], "stateRewards": ["", -2, -1, 3, -3, 71, -58, -21, 7, -10, -75, -37, 2, 4, -1, -12, -79, -29, -48, 3, -41, -10, -30, -1, -2, 1, -15, 13, 66, 22, -1, -42, -86, -55], "withholdReward": false, "trial_id": "mdp_trial_10", "block": "test", "trialIndex": 11, "score": 21.800000000000026, "costs": -46.199999999999974, "simulationMode": [null, null, null, null, null], "rewards": [-2, -1, 3, -3, 71], "path": ["0", "0", "1", "2", "3", "4", "5"], "rt": [75934, 88, 245, 165, 483], "actions": ["up", "up", "up", "right", "up"], "actionTimes": [80717, 81381, 82190, 82906, 83946], "queries": {"click": {"state": {"target": ["1", "4", "11", "9", "5", "6", "17", "20", "21", "32", "33", "29", "27", "26", "28", "25", "24", "31", "30", "14", "16", "18", "15", "22", "19", "13", "12", "23", "8", "2", "10", "7", "3"], "time": [5705, 9123, 11723, 13700, 15675, 17676, 20272, 24040, 26018, 28488, 30978, 33256, 35243, 38079, 40052, 41713, 43964, 46037, 47944, 49922, 52422, 54308, 56268, 58851, 60696, 62546, 64142, 66164, 67784, 69748, 71624, 73580, 75645]}, "edge": {"target": [], "time": []}}, "mouseover": {"state": {"target": ["1", "4", "3", "8", "11", "11", "9", "5", "5", "6", "15", "17", "14", "20", "19", "21", "32", "33", "29", "27", "8", "5", "3", "28", "26", "25", "25", "26", "28", "10", "25", "24", "23", "31", "30", "23", "12", "13", "14", "15", "16", "18", "18", "15", "13", "15", "13", "22", "19", "14", "13", "12", "0", "23", "2", "3", "8", "10", "10", "2", "10", "3", "7", "3"], "time": [4871, 8660, 11060, 11143, 11268, 11507, 13430, 14187, 14538, 16473, 19529, 19674, 23139, 23372, 24694, 25252, 27893, 29477, 32396, 34654, 35845, 36074, 36378, 36523, 36634, 36963, 37679, 37778, 38435, 41030, 41436, 42432, 44475, 45701, 46561, 48323, 49049, 49200, 49314, 51033, 51352, 53000, 53384, 54998, 55459, 55715, 56871, 58565, 59206, 61162, 61281, 63505, 64769, 64847, 67010, 67295, 67532, 68346, 68863, 69474, 70633, 72199, 72558, 74416]}, "edge": {"target": [], "time": []}}, "mouseout": {"state": {"target": ["4", "7", "0", "1", "4", "3", "8", "11", "11", "9", "5", "5", "6", "15", "17", "17", "14", "20", "19", "21", "32", "33", "29", "27", "27", "8", "5", "3", "28", "26", "25", "25", "26", "28", "28", "10", "28", "25", "25", "24", "23", "31", "30", "24", "23", "12", "13", "14", "15", "16", "18", "18", "15", "13", "15", "13", "22", "19", "14", "13", "12", "0", "23", "2", "3", "8", "10", "10", "2", "10", "3", "7", "3", "7"], "time": [2804, 2855, 4855, 8286, 11039, 11110, 11237, 11358, 13115, 14133, 14238, 16381, 19052, 19628, 20676, 22841, 23270, 24643, 24748, 27405, 29056, 31664, 34421, 35367, 35792, 35901, 36126, 36433, 36583, 36855, 37642, 37729, 38380, 40158, 40789, 41167, 41264, 41811, 42136, 44420, 45608, 46115, 48077, 48267, 48959, 49181, 49256, 50798, 51289, 52876, 53053, 54898, 55210, 55585, 56705, 58335, 59149, 60851, 61224, 63311, 64238, 64827, 66665, 67137, 67357, 68247, 68565, 69321, 70460, 71985, 72354, 73981, 76624, 76755]}, "edge": {"target": [], "time": []}}}, "displayed_time": "84.51", "trialTime": 87670, "trial_type": "mouselab-mdp", "trial_index": 18, "time_elapsed": 1600683, "internal_node_id": "0.0-4.0-1.0-9.0"}}, {"uniqueid": "w34076866:a59412631", "current_trial": 19, "dateTime": 1691144009925, "trialdata": {"revealed_states": [], "clicked_states": ["1", "2", "9", "11", "10", "8", "5", "6", "7", "4", "3", "27", "29", "32", "30", "33", "31", "21", "16", "17", "20", "14", "19", "15", "18", "13", "22", "26", "28", "25", "24", "23", "12"], "num_clicks_accrued": [0, 0, 0, 0, 0, 0, 0, 0, 0, 0, 0, 0, 0], "stateRewards": ["", 1, 2, -6, -13, -51, 22, -4, -12, -44, -12, 6, -2, -2, -2, -14, -46, -4, -77, -2, 36, -79, 41, 2, -4, 2, -6, -55, 59, 70, -5, 39, -19, 24], "withholdReward": false, "trial_id": "mdp_trial_11", "block": "test", "trialIndex": 12, "score": 17.800000000000026, "costs": -46.199999999999974, "simulationMode": [null, null, null, null, null], "rewards": [2, -4, 2, -6, 70], "path": ["0", "0", "23", "24", "25", "26", "29"], "rt": [75381, 180, 212, 122, 172], "actions": ["left", "left", "left", "up", "left"], "actionTimes": [79531, 80295, 81064, 81741, 82489], "queries": {"click": {"state": {"target": ["1", "2", "9", "11", "10", "8", "5", "6", "7", "4", "3", "27", "29", "32", "30", "33", "31", "21", "16", "17", "20", "14", "19", "15", "18", "13", "22", "26", "28", "25", "24", "23", "12"], "time": [5010, 7547, 9795, 11791, 13752, 15851, 18166, 20263, 22301, 24250, 26254, 28212, 30260, 32307, 34537, 36565, 39013, 41291, 43456, 45789, 47755, 50497, 52499, 54499, 56455, 58422, 60374, 62652, 64953, 67413, 69437, 71814, 74464]}, "edge": {"target": [], "time": []}}, "mouseover": {"state": {"target": ["1", "3", "2", "3", "9", "11", "11", "8", "10", "8", "3", "5", "6", "7", "7", "3", "4", "3", "10", "27", "29", "32", "30", "30", "33", "31", "31", "20", "21", "19", "17", "16", "15", "14", "19", "17", "20", "19", "0", "23", "0", "19", "19", "14", "19", "19", "15", "18", "18", "13", "22", "12", "23", "26", "25", "28", "25", "24", "23", "0", "12"], "time": [4797, 7075, 7192, 8338, 9378, 10786, 11217, 12178, 12631, 14235, 16313, 16803, 18928, 21298, 21650, 22794, 23382, 25693, 26755, 27333, 28786, 31058, 33486, 34230, 35054, 37072, 37296, 39708, 40661, 41946, 42313, 42740, 44128, 44324, 44603, 45109, 46330, 48433, 48590, 48891, 49554, 49670, 49901, 50227, 50850, 51134, 53098, 54967, 55206, 56826, 58800, 61200, 61355, 61856, 63184, 64676, 65328, 68825, 71406, 73445, 74057]}, "edge": {"target": [], "time": []}}, "mouseout": {"state": {"target": ["0", "1", "3", "2", "3", "9", "11", "11", "8", "10", "8", "3", "5", "6", "7", "7", "3", "4", "3", "10", "27", "29", "32", "30", "30", "33", "31", "31", "20", "31", "21", "19", "17", "16", "16", "15", "14", "19", "17", "20", "19", "0", "23", "0", "19", "19", "14", "19", "19", "14", "15", "18", "18", "13", "22", "12", "23", "26", "25", "28", "25", "24", "24", "23", "0"], "time": [2748, 6611, 7114, 8088, 9167, 10549, 10872, 12127, 12531, 14096, 16257, 16669, 18543, 21097, 21371, 22628, 23321, 24941, 26655, 26844, 28696, 30581, 33330, 33752, 34654, 36868, 37168, 39376, 39845, 40063, 41586, 42004, 42414, 43548, 44077, 44298, 44389, 44682, 46193, 48413, 48490, 48795, 49518, 49603, 49749, 50155, 50816, 50920, 52544, 53038, 54948, 55020, 56689, 58742, 61066, 61257, 61411, 63086, 64625, 65194, 68140, 69652, 71175, 73336, 73567]}, "edge": {"target": [], "time": []}}}, "displayed_time": "83.07", "trialTime": 86771, "trial_type": "mouselab-mdp", "trial_index": 19, "time_elapsed": 1689174, "internal_node_id": "0.0-4.0-1.0-10.0"}}, {"uniqueid": "w34076866:a59412631", "current_trial": 20, "dateTime": 1691144081156, "trialdata": {"revealed_states": [], "clicked_states": ["1", "3", "2", "7", "11", "9", "5", "6", "15", "17", "16", "18", "14", "13", "12", "21", "20", "22", "19", "32", "27", "33", "29", "28", "24"], "num_clicks_accrued": [0, 0, 0, 0, 0, 0, 0, 0, 0, 0, 0, 0, 0], "stateRewards": ["", 1, 3, 3, -10, 52, 68, 59, 12, 7, 49, 21, -2, -3, -4, -2, -2, 63, 63, -4, 44, 43, -76, -2, -3, -6, 13, 48, 36, 12, -5, -36, -33, -11], "withholdReward": false, "trial_id": "mdp_trial_12", "block": "test", "trialIndex": 13, "score": 17.000000000000014, "costs": -34.999999999999986, "simulationMode": [null, null, null, null, null], "rewards": [-2, -3, -4, -2, 63], "path": ["0", "0", "12", "13", "14", "15", "18"], "rt": [60418, 24, 222, 114, 175], "actions": ["right", "right", "right", "up", "left"], "actionTimes": [64386, 64990, 65791, 66476, 67197], "queries": {"click": {"state": {"target": ["1", "3", "2", "7", "11", "9", "5", "6", "15", "17", "16", "18", "14", "13", "12", "21", "20", "22", "19", "32", "27", "33", "29", "28", "24"], "time": [5543, 7959, 9961, 12391, 14220, 16586, 18485, 20486, 22873, 25635, 28381, 30659, 33653, 36016, 38142, 40063, 42063, 43864, 45622, 47741, 49610, 51771, 53810, 57173, 59124]}, "edge": {"target": [], "time": []}}, "mouseover": {"state": {"target": ["1", "2", "3", "2", "7", "11", "9", "8", "5", "6", "18", "15", "17", "16", "16", "6", "15", "18", "14", "13", "14", "13", "15", "13", "12", "22", "20", "21", "20", "19", "19", "22", "19", "32", "30", "25", "26", "27", "28", "29", "33", "29", "28", "23", "24", "28", "24"], "time": [5273, 7286, 7710, 8461, 11558, 13580, 16027, 16929, 17560, 19131, 21599, 21913, 23906, 26357, 26723, 28793, 29375, 29490, 31319, 32344, 32914, 34465, 34863, 35685, 37931, 38551, 38750, 39497, 40657, 42485, 42720, 43142, 44185, 46400, 48372, 48606, 48712, 49021, 49954, 50493, 51424, 53269, 55043, 56077, 56814, 57039, 58050]}, "edge": {"target": [], "time": []}}, "mouseout": {"state": {"target": ["12", "1", "2", "3", "2", "7", "11", "9", "8", "5", "6", "18", "15", "17", "16", "16", "6", "15", "18", "18", "14", "13", "14", "13", "15", "13", "12", "22", "20", "21", "20", "19", "19", "22", "19", "32", "30", "25", "26", "27", "28", "29", "33", "29", "28", "23", "24", "28", "28"], "time": [2426, 7126, 7497, 8211, 11540, 13287, 14864, 16874, 17094, 18961, 21379, 21656, 23769, 26189, 26452, 28616, 29022, 29433, 30894, 31143, 32247, 32842, 34074, 34605, 35618, 37713, 38453, 38649, 39085, 40402, 42459, 42554, 42960, 44123, 46054, 47867, 48525, 48681, 48927, 49899, 50016, 51257, 53055, 54484, 55627, 56775, 56854, 57224, 57676]}, "edge": {"target": [], "time": []}}}, "displayed_time": "67.75", "trialTime": 69485, "trial_type": "mouselab-mdp", "trial_index": 20, "time_elapsed": 1760405, "internal_node_id": "0.0-4.0-1.0-11.0"}}, {"uniqueid": "w34076866:a59412631", "current_trial": 21, "dateTime": 1691144176034, "trialdata": {"revealed_states": [], "clicked_states": ["14", "17", "20", "29", "25", "27", "21"], "num_clicks_accrued": [0, 0, 0, 0, 0, 0, 0, 0, 0, 0, 0, 0, 0], "stateRewards": ["", -1, -3, 4, -10, -5, 79, -87, -2, 53, 29, -20, -2, -1, -5, 10, 27, 86, 46, -16, -29, 40, 3, 2, 4, -1, -6, 37, 79, -29, 7, 86, -62, 29], "withholdReward": false, "trial_id": "mdp_trial_13", "block": "test", "trialIndex": 14, "score": 78.2, "costs": -9.8, "simulationMode": [null, null, null, null, null], "rewards": [-2, -1, -5, 10, 86], "path": ["0", "0", "12", "13", "14", "15", "17"], "rt": [22458, 837, 67, 256, 126], "actions": ["right", "right", "right", "up", "right"], "actionTimes": [24923, 26327, 26956, 27777, 28483], "queries": {"click": {"state": {"target": ["14", "17", "20", "29", "25", "27", "21"], "time": [3653, 5664, 7967, 10805, 13526, 16512, 19813]}, "edge": {"target": [], "time": []}}, "mouseover": {"state": {"target": ["14", "17", "20", "19", "22", "29", "25", "25", "26", "27", "12", "13", "13", "22", "21", "21"], "time": [3435, 4327, 6649, 9623, 9684, 10547, 11303, 12181, 15716, 16281, 18345, 18471, 19056, 19182, 19355, 19521]}, "edge": {"target": [], "time": []}}, "mouseout": {"state": {"target": ["24", "0", "12", "0", "14", "17", "20", "19", "22", "29", "25", "25", "26", "27", "12", "13", "13", "22", "21", "21"], "time": [739, 803, 987, 2528, 3791, 6493, 9585, 9665, 9833, 11125, 11481, 15033, 15755, 18051, 18430, 18658, 19140, 19244, 19438, 20265]}, "edge": {"target": [], "time": []}}}, "displayed_time": "29.04", "trialTime": 93094, "trial_type": "mouselab-mdp", "trial_index": 21, "time_elapsed": 1855283, "internal_node_id": "0.0-4.0-1.0-12.0"}}, {"uniqueid": "w34076866:a59412631", "current_trial": 22, "dateTime": 1691144221399, "trialdata": {"revealed_states": [], "clicked_states": ["17", "20", "21", "16", "14", "5", "9", "11", "29", "32", "12", "13", "2"], "num_clicks_accrued": [0, 0, 0, 0, 0, 0, 0, 0, 0, 0, 0, 0, 0], "stateRewards": ["", -1, 4, -6, -5, -22, -38, -38, -2, -56, 88, 14, -1, -1, -7, -6, 61, -60, 21, 11, 57, 31, -30, -2, -2, 6, -9, -44, -70, -44, -15, 34, 16, -78], "withholdReward": false, "trial_id": "mdp_trial_14", "block": "test", "trialIndex": 15, "score": 27.799999999999997, "costs": -18.2, "simulationMode": [null, null, null, null, null], "rewards": [-1, -1, -7, -6, 61], "path": ["0", "0", "12", "13", "14", "15", "16"], "rt": [34805, 10, 16, 10, 95], "actions": ["right", "right", "right", "up", "up"], "actionTimes": [37992, 38579, 39181, 39798, 40464], "queries": {"click": {"state": {"target": ["17", "20", "21", "16", "14", "5", "9", "11", "29", "32", "12", "13", "2"], "time": [4550, 7083, 9497, 11564, 14258, 16726, 19231, 21174, 23054, 25300, 27231, 29317, 32540]}, "edge": {"target": [], "time": []}}, "mouseover": {"state": {"target": ["17", "17", "20", "21", "14", "15", "16", "14", "13", "13", "14", "13", "5", "4", "12", "12", "2", "9", "8", "11", "27", "29", "33", "33", "30", "33", "32", "33", "30", "24", "23", "12", "13", "13", "15", "18", "2", "1", "3", "8", "3", "4"], "time": [3985, 4242, 6829, 8208, 10002, 10114, 10325, 12412, 12490, 12789, 13776, 15917, 16464, 17035, 17200, 18572, 18736, 18976, 19525, 19865, 21685, 21888, 23476, 23636, 23717, 24372, 24797, 25978, 26304, 26463, 26580, 26828, 27945, 28255, 29919, 30501, 32288, 33207, 34283, 34725, 35414, 36609]}, "edge": {"target": [], "time": []}}, "mouseout": {"state": {"target": ["32", "0", "17", "17", "17", "20", "20", "21", "14", "15", "16", "14", "13", "13", "14", "13", "5", "4", "12", "12", "2", "9", "8", "11", "27", "29", "33", "33", "30", "33", "32", "33", "30", "24", "23", "12", "13", "13", "15", "18", "2", "1", "13", "3", "8", "3", "4"], "time": [994, 3516, 4054, 4649, 5737, 7218, 8019, 9904, 10057, 10169, 12304, 12472, 12563, 13691, 14386, 16069, 16974, 17095, 17259, 18674, 18802, 19464, 19730, 21625, 21743, 23329, 23534, 23698, 23968, 24780, 25729, 26284, 26361, 26523, 26645, 27774, 28107, 29684, 30215, 31540, 32830, 33270, 34065, 34681, 35328, 35475, 36654]}, "edge": {"target": [], "time": []}}}, "displayed_time": "41.03", "trialTime": 43337, "trial_type": "mouselab-mdp", "trial_index": 22, "time_elapsed": 1900648, "internal_node_id": "0.0-4.0-1.0-13.0"}}, {"uniqueid": "w34076866:a59412631", "current_trial": 23, "dateTime": 1691144284426, "trialdata": {"revealed_states": [], "clicked_states": ["14", "16", "9", "18", "17", "5", "21", "20", "13", "19", "32", "27", "29", "33", "28", "7", "10", "11", "6", "12"], "num_clicks_accrued": [0, 0, 0, 0, 0, 0, 0, 0, 0, 0, 0, 0, 0], "stateRewards": ["", 2, -4, -4, 13, -80, 62, 13, -11, 57, -13, -44, 1, 4, 3, -4, -29, -88, 15, 16, -58, 68, -45, -1, -3, -1, -9, -44, -86, -19, -7, -36, 59, 66], "withholdReward": false, "trial_id": "mdp_trial_15", "block": "test", "trialIndex": 16, "score": 64.00000000000001, "costs": -27.99999999999999, "simulationMode": [null, null, null, null, null], "rewards": [1, 4, 3, 16, 68], "path": ["0", "0", "12", "13", "14", "19", "21"], "rt": [51274, 50, 848, 283, 91], "actions": ["right", "right", "right", "down", "down"], "actionTimes": [54800, 55396, 56838, 57678, 58328], "queries": {"click": {"state": {"target": ["14", "16", "9", "18", "17", "5", "21", "20", "13", "19", "32", "27", "29", "33", "28", "7", "10", "11", "6", "12"], "time": [5039, 7775, 9725, 11690, 14167, 16638, 18646, 21057, 23558, 25541, 27507, 30308, 32650, 36009, 39179, 41345, 43431, 45282, 47300, 49801]}, "edge": {"target": [], "time": []}}, "mouseover": {"state": {"target": ["13", "14", "15", "16", "16", "15", "16", "9", "13", "18", "15", "17", "17", "20", "20", "15", "5", "5", "22", "21", "20", "19", "19", "13", "22", "19", "12", "32", "27", "29", "25", "8", "11", "27", "26", "25", "33", "30", "25", "28", "24", "31", "23", "1", "7", "10", "2", "8", "11", "8", "4", "6", "12", "21"], "time": [4489, 4738, 6021, 6406, 6968, 7249, 7623, 8726, 10200, 10543, 13393, 13570, 13889, 14541, 14811, 16109, 16216, 16476, 17149, 17610, 20180, 21977, 22265, 23251, 23825, 24158, 26295, 26878, 30200, 32338, 34753, 34953, 35187, 35311, 35389, 35466, 35734, 38197, 38328, 38944, 39697, 39865, 40512, 40596, 40879, 42223, 43705, 43992, 44234, 45594, 45693, 45912, 48303, 50403]}, "edge": {"target": [], "time": []}}, "mouseout": {"state": {"target": ["23", "0", "0", "13", "14", "15", "16", "16", "15", "16", "9", "13", "18", "15", "17", "17", "20", "20", "15", "5", "5", "22", "21", "20", "19", "19", "13", "22", "19", "12", "32", "27", "27", "29", "25", "8", "11", "27", "26", "25", "33", "30", "25", "28", "24", "31", "23", "1", "7", "10", "2", "8", "11", "8", "4", "6", "12", "21"], "time": [1579, 1629, 3973, 4654, 5438, 6131, 6718, 7150, 7472, 8276, 10009, 10481, 13364, 13477, 13772, 14472, 14618, 16034, 16163, 16274, 16806, 17298, 19376, 21906, 22042, 23151, 23762, 23896, 25925, 26486, 27839, 31128, 31822, 33279, 34800, 35116, 35240, 35358, 35444, 35636, 37980, 38249, 38458, 39601, 39789, 40284, 40576, 40726, 41878, 43678, 43799, 44214, 45561, 45673, 45755, 47823, 50199, 50608]}, "edge": {"target": [], "time": []}}}, "displayed_time": "58.89", "trialTime": 61151, "trial_type": "mouselab-mdp", "trial_index": 23, "time_elapsed": 1963675, "internal_node_id": "0.0-4.0-1.0-14.0"}}, {"uniqueid": "w34076866:a59412631", "current_trial": 24, "dateTime": 1691144351213, "trialdata": {"revealed_states": [], "clicked_states": ["1", "17", "20", "21", "5", "9", "29", "32", "11", "6", "33", "28", "27", "18", "16", "10", "7", "31", "24", "30", "14", "12"], "num_clicks_accrued": [0, 0, 0, 0, 0, 0, 0, 0, 0, 0, 0, 0, 0], "stateRewards": ["", -1, 3, 8, 9, -53, 20, -84, 2, -28, -62, -31, -1, -2, -7, 2, 51, 58, 45, -4, -17, -41, 36, 2, -2, -7, -15, 29, -54, -37, -16, -43, 65, -17], "withholdReward": false, "trial_id": "mdp_trial_16", "block": "test", "trialIndex": 17, "score": 6.200000000000017, "costs": -30.799999999999986, "simulationMode": [null, null, null, null, null], "rewards": [-1, -2, -7, 2, 45], "path": ["0", "0", "12", "13", "14", "15", "18"], "rt": [54381, 153, 282, 343, 883], "actions": ["right", "right", "right", "up", "left"], "actionTimes": [57150, 57862, 58702, 59601, 61067], "queries": {"click": {"state": {"target": ["1", "17", "20", "21", "5", "9", "29", "32", "11", "6", "33", "28", "27", "18", "16", "10", "7", "31", "24", "30", "14", "12"], "time": [4704, 6673, 8734, 10717, 12621, 14557, 16428, 18387, 20741, 23604, 26008, 27906, 30206, 32392, 34816, 38954, 41936, 43814, 45707, 48375, 50585, 52370]}, "edge": {"target": [], "time": []}}, "mouseover": {"state": {"target": ["1", "17", "17", "20", "21", "4", "5", "9", "11", "27", "29", "33", "32", "30", "28", "11", "24", "23", "17", "6", "33", "33", "21", "22", "0", "23", "28", "23", "26", "27", "10", "2", "7", "16", "18", "16", "15", "14", "13", "12", "2", "10", "13", "15", "7", "18", "13", "31", "24", "23", "12", "13", "12", "25", "30", "23", "0", "12", "13", "14", "12", "13", "15", "18", "16", "15", "15", "16", "16"], "time": [4428, 5450, 6202, 7113, 10263, 11681, 11858, 13340, 15563, 15760, 15897, 17036, 17143, 18949, 19400, 20399, 21461, 21879, 22524, 23032, 25357, 25718, 26602, 26950, 27300, 27385, 27634, 28564, 29509, 29630, 30579, 30657, 30762, 31612, 31818, 34540, 36993, 37368, 37607, 38158, 38389, 38725, 39297, 39729, 41719, 42269, 42388, 43101, 44570, 46360, 46473, 46831, 47325, 47719, 48144, 48749, 48836, 48919, 48999, 49426, 51031, 52802, 53202, 53525, 53654, 53776, 54010, 54073, 54179]}, "edge": {"target": [], "time": []}}, "mouseout": {"state": {"target": ["1", "17", "17", "20", "21", "4", "5", "9", "11", "27", "29", "33", "32", "30", "28", "11", "24", "23", "17", "6", "33", "33", "21", "22", "0", "23", "28", "23", "26", "27", "10", "2", "7", "16", "18", "16", "15", "14", "13", "12", "2", "10", "13", "15", "7", "18", "13", "31", "24", "23", "12", "13", "12", "24", "25", "30", "23", "0", "12", "13", "14", "12", "13", "15", "18", "16", "15", "15", "16", "16"], "time": [5352, 5729, 6920, 10139, 11165, 11750, 12977, 15376, 15634, 15831, 16715, 17124, 18540, 19008, 19845, 21350, 21522, 21942, 22569, 23913, 25443, 26314, 26707, 27104, 27367, 27449, 28438, 29417, 29554, 30521, 30638, 30746, 31505, 31720, 34264, 36922, 37109, 37563, 38113, 38205, 38660, 39186, 39360, 40081, 42201, 42331, 42625, 44475, 46339, 46441, 46552, 47308, 47383, 47449, 48072, 48476, 48817, 48900, 48981, 49366, 50929, 52737, 53017, 53270, 53591, 53758, 53840, 54054, 54119, 54223]}, "edge": {"target": [], "time": []}}}, "displayed_time": "61.62", "trialTime": 64653, "trial_type": "mouselab-mdp", "trial_index": 24, "time_elapsed": 2030460, "internal_node_id": "0.0-4.0-1.0-15.0"}}, {"uniqueid": "w34076866:a59412631", "current_trial": 25, "dateTime": 1691144411479, "trialdata": {"revealed_states": [], "clicked_states": ["16", "18", "17", "20", "21", "22", "32", "5", "6", "9", "11", "27", "7", "29", "33", "28", "3", "24", "4", "19", "10"], "num_clicks_accrued": [0, 0, 0, 0, 0, 0, 0, 0, 0, 0, 0, 0, 0], "stateRewards": ["", 2, 3, -1, 6, 44, -4, -59, -14, -3, 64, 16, 1, -3, 3, 6, 3, 49, 19, 3, -49, -14, -86, 1, 2, -3, -8, -33, 14, 32, -13, -77, -47, -67], "withholdReward": false, "trial_id": "mdp_trial_17", "block": "test", "trialIndex": 18, "score": 26.600000000000012, "costs": -29.399999999999988, "simulationMode": [null, null, null, null, null], "rewards": [1, -3, 3, 6, 49], "path": ["0", "0", "12", "13", "14", "15", "17"], "rt": [48665, 503, 314, 328, 782], "actions": ["right", "right", "right", "up", "right"], "actionTimes": [51485, 52545, 53405, 54308, 55651], "queries": {"click": {"state": {"target": ["16", "18", "17", "20", "21", "22", "32", "5", "6", "9", "11", "27", "7", "29", "33", "28", "3", "24", "4", "19", "10"], "time": [4107, 6412, 8784, 11077, 13226, 15208, 17010, 19067, 20976, 23272, 25156, 26956, 28773, 30632, 32543, 34383, 37395, 40187, 43720, 45963, 49623]}, "edge": {"target": [], "time": []}}, "mouseover": {"state": {"target": ["18", "15", "16", "18", "15", "17", "20", "21", "22", "32", "24", "3", "4", "5", "6", "4", "9", "11", "27", "2", "7", "29", "29", "28", "33", "30", "31", "28", "1", "2", "3", "8", "3", "13", "14", "12", "23", "24", "0", "1", "2", "4", "12", "19", "14", "1", "10", "13"], "time": [3417, 3488, 3780, 6094, 8161, 8498, 10743, 12938, 14255, 16146, 18007, 18258, 18348, 18873, 19403, 22484, 23024, 23676, 25596, 27381, 27464, 29099, 29507, 31339, 32122, 32984, 33073, 33741, 35173, 36006, 36124, 36789, 37158, 38117, 38767, 39503, 39590, 39926, 41906, 42111, 43051, 43491, 44128, 45626, 46630, 48781, 49214, 50098]}, "edge": {"target": [], "time": []}}, "mouseout": {"state": {"target": ["15", "13", "12", "18", "15", "16", "18", "15", "17", "17", "20", "17", "21", "22", "32", "24", "3", "4", "5", "6", "4", "9", "11", "11", "27", "2", "7", "29", "29", "29", "28", "33", "30", "31", "28", "1", "2", "3", "8", "3", "3", "13", "14", "12", "23", "24", "0", "1", "2", "4", "12", "19", "14", "1", "10"], "time": [779, 846, 1072, 3469, 3530, 4671, 8082, 8328, 9475, 10241, 11506, 12273, 14022, 15556, 17184, 18085, 18325, 18417, 19319, 22377, 22605, 23564, 25282, 25536, 27319, 27446, 28986, 29162, 30740, 31020, 31839, 32907, 33054, 33141, 35019, 35955, 36054, 36747, 37034, 37520, 37696, 38204, 39462, 39548, 39710, 41345, 41949, 42313, 43193, 43874, 44311, 46521, 48728, 48825, 49950]}, "edge": {"target": [], "time": []}}}, "displayed_time": "56.21", "trialTime": 58386, "trial_type": "mouselab-mdp", "trial_index": 25, "time_elapsed": 2090728, "internal_node_id": "0.0-4.0-1.0-16.0"}}, {"uniqueid": "w34076866:a59412631", "current_trial": 26, "dateTime": 1691144442276, "trialdata": {"revealed_states": [], "clicked_states": ["17", "9", "7", "5", "3", "4", "2", "1"], "num_clicks_accrued": [0, 0, 0, 0, 0, 0, 0, 0, 0, 0, 0, 0, 0], "stateRewards": ["", -2, 4, -5, -12, 85, -24, -18, -15, -78, -22, 26, -1, -1, 2, 14, -45, 52, -23, 7, -33, 24, -6, -2, -4, 5, -7, -16, 36, -39, 5, 71, -87, -23], "withholdReward": false, "trial_id": "mdp_trial_18", "block": "test", "trialIndex": 19, "score": 58.8, "costs": -11.200000000000001, "simulationMode": [null, null, null, null, null], "rewards": [-2, 4, -5, -12, 85], "path": ["0", "0", "1", "2", "3", "4", "5"], "rt": [20409, 72, 51, 148, 16], "actions": ["up", "up", "up", "right", "up"], "actionTimes": [23875, 24530, 25139, 25883, 26470], "queries": {"click": {"state": {"target": ["17", "9", "7", "5", "3", "4", "2", "1"], "time": [4479, 6639, 8885, 11509, 15210, 17375, 19327, 21554]}, "edge": {"target": [], "time": []}}, "mouseover": {"state": {"target": ["12", "13", "17", "16", "3", "9", "6", "7", "18", "18", "6", "5", "18", "13", "22", "21", "10", "3", "3", "4", "2", "1"], "time": [3555, 3988, 4103, 5915, 6121, 6340, 7259, 7661, 9515, 9787, 10814, 11256, 11819, 11963, 12988, 13308, 14658, 14795, 15002, 16848, 18393, 19844]}, "edge": {"target": [], "time": []}}, "mouseout": {"state": {"target": ["13", "12", "0", "12", "13", "17", "16", "3", "9", "6", "7", "18", "18", "6", "5", "18", "13", "22", "21", "10", "3", "3", "4", "2", "2", "1"], "time": [1516, 1651, 3539, 3943, 4037, 5536, 5974, 6187, 6899, 7596, 9307, 9627, 10648, 10864, 11708, 11884, 12119, 13132, 14523, 14722, 14873, 16700, 17946, 19453, 19740, 21794]}, "edge": {"target": [], "time": []}}}, "displayed_time": "27.03", "trialTime": 28980, "trial_type": "mouselab-mdp", "trial_index": 26, "time_elapsed": 2121526, "internal_node_id": "0.0-4.0-1.0-17.0"}}, {"uniqueid": "w34076866:a59412631", "current_trial": 27, "dateTime": 1691144512411, "trialdata": {"revealed_states": [], "clicked_states": ["5", "21", "17", "29", "9", "11", "27", "33", "32", "18", "16", "20", "22", "7", "13", "10", "28", "31", "12"], "num_clicks_accrued": [0, 0, 0, 0, 0, 0, 0, 0, 0, 0, 0, 0, 0], "stateRewards": ["", -1, 3, -7, 16, -32, -74, -48, 2, 10, 15, -30, 1, 1, -2, 10, 12, -83, 67, 13, -66, 47, 65, -2, 4, 2, -14, -8, -57, 24, 9, 65, 12, 46], "withholdReward": false, "trial_id": "mdp_trial_19", "block": "test", "trialIndex": 20, "score": 50.400000000000006, "costs": -26.59999999999999, "simulationMode": [null, null, null, null, null], "rewards": [1, 1, -2, 10, 67], "path": ["0", "0", "12", "13", "14", "15", "18"], "rt": [47312, 469, 486, 447, 264], "actions": ["right", "right", "right", "up", "left"], "actionTimes": [50788, 51811, 52844, 53851, 54662], "queries": {"click": {"state": {"target": ["5", "21", "17", "29", "9", "11", "27", "33", "32", "18", "16", "20", "22", "7", "13", "10", "28", "31", "12"], "time": [4575, 6494, 8630, 11323, 13822, 16448, 18398, 20468, 22472, 25942, 28219, 30438, 32606, 34710, 37523, 40529, 42558, 44528, 48340]}, "edge": {"target": [], "time": []}}, "mouseover": {"state": {"target": ["7", "5", "7", "21", "19", "15", "17", "15", "29", "26", "11", "9", "8", "8", "11", "27", "26", "25", "33", "33", "32", "30", "31", "23", "13", "18", "16", "15", "20", "19", "22", "13", "22", "14", "2", "7", "18", "13", "14", "12", "1", "10", "25", "28", "24", "31", "0", "12"], "time": [3978, 4380, 4843, 5318, 6820, 6991, 7420, 9980, 11057, 13114, 13330, 13655, 14432, 15856, 16282, 17280, 18717, 18796, 18880, 19136, 21173, 24333, 24468, 24702, 25263, 25664, 27428, 28807, 29884, 30976, 31318, 31451, 32209, 33613, 34247, 34365, 36757, 36947, 37935, 39756, 40062, 40286, 41223, 41452, 43081, 43328, 46964, 47397]}, "edge": {"target": [], "time": []}}, "mouseout": {"state": {"target": ["7", "5", "7", "21", "19", "15", "17", "15", "29", "26", "11", "9", "8", "8", "11", "27", "27", "26", "25", "33", "33", "32", "33", "30", "31", "23", "13", "18", "16", "15", "20", "19", "22", "13", "22", "14", "2", "7", "18", "13", "14", "13", "12", "1", "10", "25", "28", "24", "31", "0", "12"], "time": [4027, 4743, 4996, 6657, 6886, 7154, 9601, 10193, 11811, 13207, 13370, 14077, 14503, 16041, 17009, 18544, 18700, 18777, 18861, 18938, 20983, 22927, 24255, 24423, 24513, 24895, 25559, 27227, 28744, 28871, 30957, 31040, 31385, 32103, 32709, 34087, 34303, 35226, 36883, 37830, 39581, 39683, 39874, 40114, 40657, 41292, 42967, 43248, 44875, 47033, 48962]}, "edge": {"target": [], "time": []}}}, "displayed_time": "55.23", "trialTime": 67890, "trial_type": "mouselab-mdp", "trial_index": 27, "time_elapsed": 2191658, "internal_node_id": "0.0-4.0-1.0-18.0"}}, {"uniqueid": "w34076866:a59412631", "current_trial": 28, "dateTime": 1691144546343, "trialdata": {"revealed_states": [], "clicked_states": ["13", "16", "5", "21", "9", "3", "2", "1", "8"], "num_clicks_accrued": [0, 0, 0, 0, 0, 0, 0, 0, 0, 0, 0, 0, 0], "stateRewards": ["", -2, -3, 8, -4, -30, 31, 69, 9, 66, 87, 64, -2, 2, 8, 5, 47, 16, -39, -8, -54, 51, -19, 1, -2, -2, -11, -25, -26, 43, -9, 19, -84, 86], "withholdReward": false, "trial_id": "mdp_trial_20", "block": "test", "trialIndex": 21, "score": 65.4, "costs": -12.600000000000001, "simulationMode": [null, null, null, null, null], "rewards": [-2, -3, 8, 9, 66], "path": ["0", "0", "1", "2", "3", "8", "9"], "rt": [23340, 44, 803, 106, 410], "actions": ["up", "up", "up", "left", "up"], "actionTimes": [25720, 26313, 27702, 28362, 29318], "queries": {"click": {"state": {"target": ["13", "16", "5", "21", "9", "3", "2", "1", "8"], "time": [4070, 6093, 8616, 10627, 13142, 16591, 18827, 20918, 22733]}, "edge": {"target": [], "time": []}}, "mouseover": {"state": {"target": ["0", "12", "13", "15", "16", "15", "2", "3", "5", "4", "18", "19", "21", "20", "17", "11", "9", "30", "33", "26", "11", "3", "2", "1", "3", "8", "2", "7"], "time": [3357, 3459, 3848, 5206, 5485, 6853, 6938, 7122, 8310, 8833, 8918, 9239, 9527, 10937, 11297, 11613, 12077, 15050, 15118, 15356, 15479, 16312, 18399, 19437, 21496, 22173, 24649, 24762]}, "edge": {"target": [], "time": []}}, "mouseout": {"state": {"target": ["0", "0", "12", "13", "15", "16", "15", "2", "3", "5", "5", "4", "18", "19", "21", "20", "17", "11", "9", "9", "21", "30", "33", "26", "11", "9", "3", "2", "2", "1", "3", "8", "2", "2", "7"], "time": [2812, 3402, 3558, 4194, 5281, 6310, 6918, 7007, 8181, 8720, 8813, 8900, 9030, 9352, 10866, 11235, 11360, 11678, 13269, 13564, 14937, 15099, 15167, 15418, 15556, 16081, 18257, 18934, 19230, 21343, 21856, 23061, 23268, 24697, 30781]}, "edge": {"target": [], "time": []}}}, "displayed_time": "29.92", "trialTime": 31545, "trial_type": "mouselab-mdp", "trial_index": 28, "time_elapsed": 2225592, "internal_node_id": "0.0-4.0-1.0-19.0"}}, {"uniqueid": "w34076866:a59412631", "current_trial": 29, "dateTime": 1691144601108, "trialdata": {"revealed_states": [], "clicked_states": ["32", "17", "9", "25", "24", "23", "5", "21", "29", "16", "7", "14"], "num_clicks_accrued": [0, 0, 0, 0, 0, 0, 0, 0, 0, 0, 0, 0, 0], "stateRewards": ["", -1, 4, -8, 12, 14, 69, -8, 5, -72, -14, 56, -1, -1, -1, 9, 67, 19, 11, -9, -88, -58, 3, 2, -4, -8, 4, 62, 77, -74, 5, -31, 65, 88], "withholdReward": false, "trial_id": "mdp_trial_21", "block": "test", "trialIndex": 22, "score": 43.2, "costs": -16.8, "simulationMode": [null, null, null, null, null], "rewards": [2, -4, -8, 5, 65], "path": ["0", "0", "23", "24", "25", "30", "32"], "rt": [31475, 441, 153, 200, 13], "actions": ["left", "left", "left", "down", "down"], "actionTimes": [33797, 34862, 35592, 36386, 36968], "queries": {"click": {"state": {"target": ["32", "17", "9", "25", "24", "23", "5", "21", "29", "16", "7", "14"], "time": [3335, 5305, 8201, 10448, 12344, 14257, 16510, 18704, 20447, 23958, 27365, 29375]}, "edge": {"target": [], "time": []}}, "mouseover": {"state": {"target": ["32", "21", "17", "14", "26", "27", "11", "9", "28", "25", "24", "24", "23", "1", "4", "5", "18", "21", "29", "33", "30", "25", "24", "18", "15", "16", "13", "13", "7", "13", "14", "15", "13", "12", "23", "23"], "time": [2876, 4437, 4863, 5908, 7494, 7565, 7679, 7859, 9101, 9377, 11055, 11352, 12615, 15994, 16065, 16164, 16706, 17223, 19477, 21193, 22671, 23033, 23117, 23296, 23421, 23702, 24374, 25784, 26124, 28196, 28609, 31506, 32447, 32512, 32577, 32823]}, "edge": {"target": [], "time": []}}, "mouseout": {"state": {"target": ["10", "2", "1", "32", "21", "17", "14", "32", "26", "27", "11", "9", "28", "25", "24", "24", "23", "1", "4", "5", "18", "21", "29", "33", "30", "25", "24", "18", "15", "16", "13", "13", "7", "13", "14", "15", "13", "12", "23", "23", "23"], "time": [87, 153, 490, 3906, 4701, 5891, 5973, 7378, 7546, 7629, 7728, 8848, 9170, 10760, 11212, 12551, 15944, 16044, 16114, 16620, 16804, 18852, 20860, 21709, 22842, 23091, 23198, 23380, 23471, 24163, 24444, 25832, 28030, 28491, 31408, 32399, 32495, 32559, 32626, 32887, 47715]}, "edge": {"target": [], "time": []}}}, "displayed_time": "37.55", "trialTime": 52390, "trial_type": "mouselab-mdp", "trial_index": 29, "time_elapsed": 2280357, "internal_node_id": "0.0-4.0-1.0-20.0"}}, {"uniqueid": "w34076866:a59412631", "current_trial": 30, "dateTime": 1691144629243, "trialdata": {"revealed_states": [], "clicked_states": ["5", "17", "21", "29", "32", "24"], "num_clicks_accrued": [0, 0, 0, 0, 0, 0, 0, 0, 0, 0, 0, 0, 0], "stateRewards": ["", -1, 2, -6, 6, 43, 78, 78, -2, 55, -29, -17, -2, -4, 1, -15, 13, 7, -79, 8, -28, -68, 36, -1, -3, 3, -16, 84, -18, 87, 10, 32, 13, -81], "withholdReward": false, "trial_id": "mdp_trial_22", "block": "test", "trialIndex": 23, "score": 61.6, "costs": -8.4, "simulationMode": [null, null, null, null, null], "rewards": [-1, -3, 3, -16, 87], "path": ["0", "0", "23", "24", "25", "26", "29"], "rt": [17761, 607, 161, 198, 90], "actions": ["left", "left", "left", "up", "left"], "actionTimes": [20535, 21728, 22469, 23227, 23910], "queries": {"click": {"state": {"target": ["5", "17", "21", "29", "32", "24"], "time": [4473, 7043, 9350, 11776, 13937, 16228]}, "edge": {"target": [], "time": []}}, "mouseover": {"state": {"target": ["1", "2", "3", "5", "4", "4", "16", "17", "17", "15", "9", "7", "13", "19", "21", "13", "4", "13", "12", "23", "25", "29", "25", "30", "32", "30", "25", "26", "25", "24"], "time": [3701, 3795, 3919, 4151, 5265, 6152, 6347, 6583, 6808, 7907, 8095, 8381, 8488, 8592, 9052, 9683, 10124, 10354, 10820, 11341, 11409, 11544, 11997, 12143, 12473, 14530, 14617, 14756, 15350, 15942]}, "edge": {"target": [], "time": []}}, "mouseout": {"state": {"target": ["0", "1", "2", "3", "5", "4", "4", "16", "17", "17", "15", "9", "7", "13", "19", "21", "13", "4", "13", "12", "23", "25", "29", "25", "30", "32", "30", "25", "26", "25", "24", "0"], "time": [3403, 3745, 3870, 4067, 4831, 5909, 6219, 6501, 6643, 7700, 8004, 8282, 8465, 8573, 8790, 9608, 9749, 10190, 10801, 10884, 11389, 11460, 11929, 12064, 12210, 14409, 14599, 14689, 15232, 15845, 16509, 24726]}, "edge": {"target": [], "time": []}}}, "displayed_time": "24.46", "trialTime": 25978, "trial_type": "mouselab-mdp", "trial_index": 30, "time_elapsed": 2308492, "internal_node_id": "0.0-4.0-1.0-21.0"}}, {"uniqueid": "w34076866:a59412631", "current_trial": 31, "dateTime": 1691144663861, "trialdata": {"revealed_states": [], "clicked_states": [], "num_clicks_accrued": [0, 0, 0, 0, 0, 0, 0, 0, 0, 0, 0, 0, 0], "stateRewards": ["", -1, 3, -5, -2, -13, -9, -34, -7, -81, 32, 35, -2, -2, 1, -14, -32, 81, 7, 4, 82, 56, -8, -1, 3, -8, 6, -24, -24, -53, 2, 38, 61, 54], "withholdReward": false, "trial_id": "mdp_trial_23", "block": "test", "trialIndex": 24, "score": 25, "costs": 0, "simulationMode": [null, null, null, null, null], "rewards": [-1, 3, -5, -7, 35], "path": ["0", "0", "1", "2", "3", "8", "11"], "rt": [10199, 2100, 345, 799, 163], "actions": ["up", "up", "up", "left", "left"], "actionTimes": [22921, 25580, 26484, 27854, 28561], "queries": {"click": {"state": {"target": [], "time": []}, "edge": {"target": [], "time": []}}, "mouseover": {"state": {"target": ["0", "1", "2", "7", "15", "15", "14", "19", "19"], "time": [13706, 13971, 14125, 14658, 15251, 16029, 16107, 16258, 18656]}, "edge": {"target": [], "time": []}}, "mouseout": {"state": {"target": ["23", "0", "1", "2", "7", "15", "15", "14", "19"], "time": [6905, 13788, 14067, 14322, 14706, 15413, 16092, 16150, 17481]}, "edge": {"target": [], "time": []}}}, "displayed_time": "29.12", "trialTime": 32694, "trial_type": "mouselab-mdp", "trial_index": 31, "time_elapsed": 2343110, "internal_node_id": "0.0-4.0-1.0-22.0"}}, {"uniqueid": "w34076866:a59412631", "current_trial": 32, "dateTime": 1691144727277, "trialdata": {"revealed_states": [], "clicked_states": ["17", "5", "21", "29", "32", "9", "33", "6"], "num_clicks_accrued": [0, 0, 0, 0, 0, 0, 0, 0, 0, 0, 0, 0, 0], "stateRewards": ["", 1, 4, 7, -16, -84, -6, -46, -12, -7, -49, -26, -1, 2, -4, 2, 22, 37, -64, 1, 88, -13, -10, 1, -4, -2, 5, 2, -10, -34, 9, 66, 55, 38], "withholdReward": false, "trial_id": "mdp_trial_24", "block": "test", "trialIndex": 25, "score": -45.2, "costs": -11.200000000000001, "simulationMode": [null, null, null, null, null], "rewards": [1, -4, -2, 5, -34], "path": ["0", "0", "23", "24", "25", "26", "29"], "rt": [30228, 71, 38, 492, 505], "actions": ["left", "left", "left", "up", "left"], "actionTimes": [33900, 34518, 35117, 36171, 37254], "queries": {"click": {"state": {"target": ["17", "5", "21", "29", "32", "9", "33", "6"], "time": [4909, 7527, 10143, 12877, 15609, 18202, 21696, 25518]}, "edge": {"target": [], "time": []}}, "mouseover": {"state": {"target": ["1", "17", "17", "16", "6", "5", "4", "18", "21", "29", "33", "32", "11", "9", "8", "10", "11", "11", "25", "33", "33", "13", "18", "6", "15", "28", "26", "28", "27", "26", "26", "23", "22", "19", "20", "14", "15", "16", "28", "10", "11"], "time": [4200, 4354, 4670, 6936, 7112, 7265, 7789, 9456, 9766, 12640, 13988, 15280, 17655, 17899, 18444, 18921, 20220, 20487, 21128, 21190, 21466, 23447, 24570, 25228, 27047, 27692, 27896, 27984, 28232, 29057, 29183, 29271, 29542, 29732, 29814, 30012, 30261, 30364, 31264, 31987, 32201]}, "edge": {"target": [], "time": []}}, "mouseout": {"state": {"target": ["19", "22", "0", "1", "17", "17", "16", "6", "5", "4", "18", "21", "29", "33", "32", "11", "9", "8", "10", "11", "11", "25", "33", "33", "13", "18", "6", "15", "28", "26", "28", "27", "26", "26", "23", "22", "19", "20", "14", "15", "16", "28", "10", "11"], "time": [1505, 1563, 2245, 4244, 4417, 6842, 6978, 7157, 7770, 7848, 9528, 12059, 13144, 14391, 16132, 17701, 18382, 18509, 19036, 20263, 21057, 21171, 21233, 23028, 23613, 24761, 25892, 27150, 27747, 27938, 28091, 28661, 29127, 29249, 29332, 29689, 29776, 29934, 30074, 30323, 30423, 31924, 32137, 42827]}, "edge": {"target": [], "time": []}}}, "displayed_time": "37.80", "trialTime": 61428, "trial_type": "mouselab-mdp", "trial_index": 32, "time_elapsed": 2406520, "internal_node_id": "0.0-4.0-1.0-23.0"}}, {"uniqueid": "w34076866:a59412631", "current_trial": 33, "dateTime": 1691144772922, "trialdata": {"revealed_states": [], "clicked_states": ["9"], "num_clicks_accrued": [0, 0, 0, 0, 0, 0, 0, 0, 0, 0, 0, 0, 0], "stateRewards": ["", 1, 4, -4, 14, 35, 51, 19, -13, 54, 78, -74, -2, -1, -3, 13, -11, -42, -73, -15, -24, -3, -69, 2, -1, 5, 16, -27, 73, 58, 9, -60, 5, -60], "withholdReward": false, "trial_id": "mdp_trial_25", "block": "test", "trialIndex": 26, "score": 40.6, "costs": -1.4, "simulationMode": [null, null, null, null, null], "rewards": [1, 4, -4, -13, 54], "path": ["0", "0", "1", "2", "3", "8", "9"], "rt": [9581, 98, 14, 580, 623], "actions": ["up", "up", "up", "left", "up"], "actionTimes": [13503, 14199, 14763, 15936, 17144], "queries": {"click": {"state": {"target": ["9"], "time": [6747]}, "edge": {"target": [], "time": []}}, "mouseover": {"state": {"target": ["2", "9", "16", "17", "15", "7", "3"], "time": [5193, 5906, 9289, 9377, 10538, 10635, 11316]}, "edge": {"target": [], "time": []}}, "mouseout": {"state": {"target": ["1", "2", "9", "16", "17", "15", "7"], "time": [1718, 5249, 8872, 9360, 10513, 10590, 11025]}, "edge": {"target": [], "time": []}}}, "displayed_time": "17.92", "trialTime": 43395, "trial_type": "mouselab-mdp", "trial_index": 33, "time_elapsed": 2452165, "internal_node_id": "0.0-4.0-1.0-24.0"}}, {"uniqueid": "w34076866:a59412631", "current_trial": 34, "dateTime": 1691144822191, "trialdata": {"revealed_states": [], "clicked_states": ["9", "29", "32", "17", "21", "6", "27", "3"], "num_clicks_accrued": [0, 0, 0, 0, 0, 0, 0, 0, 0, 0, 0, 0, 0], "stateRewards": ["", 2, 4, 7, 7, -79, -2, -21, -5, -53, 47, -21, 1, -3, -1, 7, 83, 7, 84, -7, 80, -37, 69, 2, -4, 5, 2, 4, -20, -30, 7, 71, 44, -81], "withholdReward": false, "trial_id": "mdp_trial_26", "block": "test", "trialIndex": 27, "score": -56.2, "costs": -11.200000000000001, "simulationMode": [null, null, null, null, null], "rewards": [2, 4, 7, -5, -53], "path": ["0", "0", "1", "2", "3", "8", "9"], "rt": [28028, 9, 235, 411, 917], "actions": ["up", "up", "up", "left", "up"], "actionTimes": [31089, 31680, 32492, 33457, 34936], "queries": {"click": {"state": {"target": ["9", "29", "32", "17", "21", "6", "27", "3"], "time": [5019, 7904, 11087, 14068, 17500, 20961, 24419, 27246]}, "edge": {"target": [], "time": []}}, "mouseover": {"state": {"target": ["8", "9", "11", "27", "29", "32", "31", "12", "15", "17", "19", "21", "7", "4", "6", "28", "26", "27", "3", "2"], "time": [3828, 3920, 6782, 6977, 7354, 10630, 12717, 12858, 13244, 13617, 15630, 16879, 19995, 20138, 20428, 23443, 23650, 23917, 26758, 28291]}, "edge": {"target": [], "time": []}}, "mouseout": {"state": {"target": ["3", "8", "9", "11", "27", "29", "32", "31", "12", "15", "17", "19", "21", "7", "4", "6", "28", "26", "27", "3"], "time": [737, 3874, 6580, 6899, 7188, 9951, 11221, 12761, 13172, 13326, 15358, 15773, 19807, 20063, 20274, 23346, 23551, 23748, 26394, 28136]}, "edge": {"target": [], "time": []}}}, "displayed_time": "35.51", "trialTime": 47114, "trial_type": "mouselab-mdp", "trial_index": 34, "time_elapsed": 2501437, "internal_node_id": "0.0-4.0-1.0-25.0"}}, {"uniqueid": "w34076866:a59412631", "current_trial": 35, "dateTime": 1691144858765, "trialdata": {"revealed_states": [], "clicked_states": ["5", "17", "21", "33", "27", "9", "11", "14", "16"], "num_clicks_accrued": [0, 0, 0, 0, 0, 0, 0, 0, 0, 0, 0, 0, 0], "stateRewards": ["", 2, 4, 4, -8, -36, -33, 38, 16, -51, 57, 57, 1, 3, 4, -6, 45, 68, 87, 1, 63, 24, -55, -2, 2, -6, -13, -63, -50, 8, 2, 80, 6, 60], "withholdReward": false, "trial_id": "mdp_trial_27", "block": "test", "trialIndex": 28, "score": 57.4, "costs": -12.600000000000001, "simulationMode": [null, null, null, null, null], "rewards": [1, 3, 4, -6, 68], "path": ["0", "0", "12", "13", "14", "15", "17"], "rt": [23694, 9, 921, 578, 36], "actions": ["right", "right", "right", "up", "right"], "actionTimes": [27172, 27739, 29240, 30388, 31003], "queries": {"click": {"state": {"target": ["5", "17", "21", "33", "27", "9", "11", "14", "16"], "time": [5124, 7593, 9941, 13566, 15686, 19218, 21300, 23134, 25008]}, "edge": {"target": [], "time": []}}, "mouseover": {"state": {"target": ["1", "2", "4", "5", "17", "19", "21", "19", "14", "30", "25", "33", "26", "27", "11", "9", "9", "11", "10", "18", "14", "15", "16"], "time": [4165, 4229, 4339, 4587, 7095, 8660, 8827, 10702, 11179, 12042, 12142, 13058, 14388, 14512, 17775, 17956, 18816, 20161, 21913, 22328, 22587, 24202, 24460]}, "edge": {"target": [], "time": []}}, "mouseout": {"state": {"target": ["2", "0", "1", "2", "4", "5", "17", "19", "21", "19", "14", "30", "25", "33", "26", "27", "11", "9", "9", "11", "10", "18", "14", "15", "16"], "time": [920, 4086, 4213, 4276, 4407, 6628, 8364, 8729, 10641, 10764, 11500, 12092, 12291, 14322, 14451, 17713, 17820, 18139, 19868, 21895, 21983, 22391, 24140, 24309, 32425]}, "edge": {"target": [], "time": []}}}, "displayed_time": "31.58", "trialTime": 34281, "trial_type": "mouselab-mdp", "trial_index": 35, "time_elapsed": 2538011, "internal_node_id": "0.0-4.0-1.0-26.0"}}, {"uniqueid": "w34076866:a59412631", "current_trial": 36, "dateTime": 1691144884428, "trialdata": {"revealed_states": [], "clicked_states": ["5", "9", "17", "21"], "num_clicks_accrued": [0, 0, 0, 0, 0, 0, 0, 0, 0, 0, 0, 0, 0], "stateRewards": ["", 1, -4, -4, 8, 1, -79, 68, -10, -79, 8, -74, -1, -3, -6, 14, 43, 23, 9, 5, -51, 63, 61, -2, 4, 6, -10, 69, -32, 57, 15, -80, -80, -77], "withholdReward": false, "trial_id": "mdp_trial_28", "block": "test", "trialIndex": 29, "score": 52.4, "costs": -5.6, "simulationMode": [null, null, null, null, null], "rewards": [-1, -3, -6, 5, 63], "path": ["0", "0", "12", "13", "14", "19", "21"], "rt": [14400, 717, 611, 123, 105], "actions": ["right", "right", "right", "down", "down"], "actionTimes": [17814, 19088, 20267, 20963, 21631], "queries": {"click": {"state": {"target": ["5", "9", "17", "21"], "time": [5118, 7183, 9323, 11892]}, "edge": {"target": [], "time": []}}, "mouseover": {"state": {"target": ["5", "9", "4", "16", "17", "20", "21", "32", "32", "32"], "time": [4543, 6688, 7808, 8179, 8570, 10457, 11300, 14195, 15564, 16210]}, "edge": {"target": [], "time": []}}, "mouseout": {"state": {"target": ["5", "9", "4", "16", "17", "20", "21", "32", "32", "32"], "time": [6352, 7743, 7870, 8246, 10247, 11220, 12725, 14603, 15757, 17290]}, "edge": {"target": [], "time": []}}}, "displayed_time": "22.20", "trialTime": 23614, "trial_type": "mouselab-mdp", "trial_index": 36, "time_elapsed": 2563674, "internal_node_id": "0.0-4.0-1.0-27.0"}}, {"uniqueid": "w34076866:a59412631", "current_trial": 37, "dateTime": 1691145082868, "trialdata": {"revealed_states": [], "clicked_states": ["5", "9", "17", "21", "32", "29", "11", "33", "28", "7", "10"], "num_clicks_accrued": [0, 0, 0, 0, 0, 0, 0, 0, 0, 0, 0, 0, 0], "stateRewards": ["", -2, 4, -7, -3, -76, 39, -28, 10, 14, 12, 60, 2, -3, 6, -10, 88, -34, -41, -3, 72, -13, -56, 1, 3, 2, 8, -51, 23, -57, 1, 14, -46, -16], "withholdReward": false, "trial_id": "mdp_trial_29", "block": "test", "trialIndex": 30, "score": 49.599999999999994, "costs": -15.400000000000002, "simulationMode": [null, null, null, null, null], "rewards": [-2, 4, -7, 10, 60], "path": ["0", "0", "1", "2", "3", "8", "11"], "rt": [27550, 218, 472, 252, 14], "actions": ["up", "up", "up", "left", "left"], "actionTimes": [32263, 33051, 34088, 34901, 35476], "queries": {"click": {"state": {"target": ["5", "9", "17", "21", "32", "29", "11", "33", "28", "7", "10"], "time": [6696, 8731, 11326, 13152, 15168, 16965, 19497, 21446, 24130, 26840, 28824]}, "edge": {"target": [], "time": []}}, "mouseover": {"state": {"target": ["7", "4", "5", "9", "16", "17", "21", "32", "33", "29", "27", "11", "26", "33", "25", "28", "10", "4", "6", "7", "2", "10", "3"], "time": [5455, 5589, 6202, 7927, 9301, 9737, 12322, 14574, 16023, 16569, 17889, 19009, 20144, 20417, 23392, 23635, 24919, 25150, 25382, 26325, 27857, 28070, 29635]}, "edge": {"target": [], "time": []}}, "mouseout": {"state": {"target": ["7", "4", "5", "9", "16", "17", "21", "32", "33", "29", "27", "11", "26", "33", "25", "28", "10", "4", "6", "7", "2", "10", "3", "4", "11", "9"], "time": [5504, 5767, 7753, 9185, 9367, 12016, 13884, 15799, 16443, 17713, 18771, 20081, 20214, 23271, 23478, 24292, 24986, 25270, 26097, 27794, 27919, 29570, 30158, 108711, 109235, 109300]}, "edge": {"target": [], "time": []}}}, "displayed_time": "36.06", "trialTime": 196156, "trial_type": "mouselab-mdp", "trial_index": 37, "time_elapsed": 2762113, "internal_node_id": "0.0-4.0-1.0-28.0"}}, {"uniqueid": "w34076866:a59412631", "current_trial": 38, "dateTime": 1691145139398, "trialdata": {"revealed_states": [], "clicked_states": ["5", "11", "17", "3", "29", "32"], "num_clicks_accrued": [0, 0, 0, 0, 0, 0, 0, 0, 0, 0, 0, 0, 0], "stateRewards": ["", -1, -3, 3, 5, 56, 39, 50, -1, -80, 33, -46, 1, -2, -6, -8, 87, 48, 54, -11, -20, -64, -54, -2, 3, -7, -3, 12, 88, 35, -16, -46, -70, -3], "withholdReward": false, "trial_id": "mdp_trial_30", "block": "test", "trialIndex": 31, "score": 51.6, "costs": -8.4, "simulationMode": [null, null, null, null, null], "rewards": [-1, -3, 3, 5, 56], "path": ["0", "0", "1", "2", "3", "4", "5"], "rt": [19151, 573, 162, 369, 300], "actions": ["up", "up", "up", "right", "up"], "actionTimes": [22419, 23552, 24293, 25211, 26067], "queries": {"click": {"state": {"target": ["5", "11", "17", "3", "29", "32"], "time": [4942, 7396, 10451, 12156, 15165, 17640]}, "edge": {"target": [], "time": []}}, "mouseover": {"state": {"target": ["7", "5", "9", "11", "8", "7", "17", "3", "2", "26", "29", "26", "32", "31", "23"], "time": [3960, 4523, 5945, 6822, 9165, 9251, 9999, 11679, 13128, 14391, 14767, 16728, 17180, 19808, 19881]}, "edge": {"target": [], "time": []}}, "mouseout": {"state": {"target": ["19", "13", "0", "7", "5", "9", "11", "8", "7", "17", "3", "2", "26", "29", "26", "32", "31", "23"], "time": [742, 820, 1532, 4026, 5089, 6574, 9143, 9232, 9297, 11188, 13031, 14343, 14553, 16626, 16813, 19788, 19858, 19934]}, "edge": {"target": [], "time": []}}}, "displayed_time": "26.62", "trialTime": 54244, "trial_type": "mouselab-mdp", "trial_index": 38, "time_elapsed": 2818645, "internal_node_id": "0.0-4.0-1.0-29.0"}}, {"uniqueid": "w34076866:a59412631", "current_trial": 39, "dateTime": 1691145193078, "trialdata": {"revealed_states": [], "clicked_states": ["5", "17", "21", "14", "13"], "num_clicks_accrued": [0, 0, 0, 0, 0, 0, 0, 0, 0, 0, 0, 0, 0], "stateRewards": ["", -1, -3, 1, -4, -48, -63, -49, -2, -84, -19, 65, 2, -2, -2, -12, -4, 59, 9, 6, 75, 69, -13, -1, -3, -3, -2, -37, -68, -36, 13, 32, 18, -14], "withholdReward": false, "trial_id": "mdp_trial_31", "block": "test", "trialIndex": 32, "score": 66, "costs": -7, "simulationMode": [null, null, null, null, null], "rewards": [2, -2, -2, 6, 69], "path": ["0", "0", "12", "13", "14", "19", "21"], "rt": [13526, 142, 59, 232, 785], "actions": ["right", "right", "right", "down", "down"], "actionTimes": [16448, 17167, 17796, 18594, 19975], "queries": {"click": {"state": {"target": ["5", "17", "21", "14", "13"], "time": [4441, 6873, 9058, 10950, 13396]}, "edge": {"target": [], "time": []}}, "mouseover": {"state": {"target": ["4", "5", "16", "17", "21", "19", "14", "13"], "time": [3632, 3743, 5233, 5686, 7812, 10225, 10466, 12554]}, "edge": {"target": [], "time": []}}, "mouseout": {"state": {"target": ["15", "4", "5", "16", "17", "21", "19", "14", "13"], "time": [573, 3695, 5126, 5622, 7359, 10158, 10339, 11114, 13552]}, "edge": {"target": [], "time": []}}}, "displayed_time": "20.53", "trialTime": 50477, "trial_type": "mouselab-mdp", "trial_index": 39, "time_elapsed": 2872324, "internal_node_id": "0.0-4.0-1.0-30.0"}}, {"uniqueid": "w34076866:a59412631", "current_trial": 40, "dateTime": 1691145232032, "trialdata": {"revealed_states": [], "clicked_states": ["17", "5", "29", "21", "20", "32", "33", "9", "16"], "num_clicks_accrued": [0, 0, 0, 0, 0, 0, 0, 0, 0, 0, 0, 0, 0], "stateRewards": ["", 1, 1, 1, 15, -76, 52, -32, 14, -57, 37, 49, 1, -4, -3, 6, 83, -76, 25, 9, 36, -1, -17, -1, 4, 4, -2, -22, -21, 58, -15, -57, 49, -24], "withholdReward": false, "trial_id": "mdp_trial_32", "block": "test", "trialIndex": 33, "score": 70.4, "costs": -12.600000000000001, "simulationMode": [null, null, null, null, null], "rewards": [1, -4, -3, 6, 83], "path": ["0", "0", "12", "13", "14", "15", "16"], "rt": [26823, 429, 137, 207, 55], "actions": ["right", "right", "right", "up", "up"], "actionTimes": [30252, 31290, 31991, 32747, 33359], "queries": {"click": {"state": {"target": ["17", "5", "29", "21", "20", "32", "33", "9", "16"], "time": [5234, 7461, 10455, 12959, 15709, 18389, 20733, 23143, 25621]}, "edge": {"target": [], "time": []}}, "mouseover": {"state": {"target": ["17", "5", "3", "29", "26", "12", "22", "21", "20", "19", "32", "33", "26", "9", "16", "4", "14"], "time": [4680, 6994, 9145, 10009, 11416, 11555, 11876, 12389, 15229, 17189, 18011, 20103, 21961, 22722, 25093, 27791, 28635]}, "edge": {"target": [], "time": []}}, "mouseout": {"state": {"target": ["13", "12", "17", "5", "3", "29", "26", "12", "22", "21", "20", "19", "32", "33", "26", "9", "16", "4"], "time": [701, 801, 6264, 9078, 9195, 11398, 11490, 11857, 11939, 14858, 17172, 17259, 19959, 20842, 22037, 24608, 27716, 27998]}, "edge": {"target": [], "time": []}}}, "displayed_time": "33.93", "trialTime": 36676, "trial_type": "mouselab-mdp", "trial_index": 40, "time_elapsed": 2911280, "internal_node_id": "0.0-4.0-1.0-31.0"}}, {"uniqueid": "w34076866:a59412631", "current_trial": 41, "dateTime": 1691145254979, "trialdata": {"revealed_states": [], "clicked_states": ["5", "9", "3"], "num_clicks_accrued": [0, 0, 0, 0, 0, 0, 0, 0, 0, 0, 0, 0, 0], "stateRewards": ["", 1, 1, 7, -11, 80, -20, -53, -14, 3, 31, 27, 2, -1, -8, -10, 33, 41, 86, 9, 78, -37, -13, -1, -2, -6, -8, -80, 75, 4, -16, -49, -74, 24], "withholdReward": false, "trial_id": "mdp_trial_33", "block": "test", "trialIndex": 34, "score": 73.8, "costs": -4.199999999999999, "simulationMode": [null, null, null, null, null], "rewards": [1, 1, 7, -11, 80], "path": ["0", "0", "1", "2", "3", "4", "5"], "rt": [9296, 394, 56, 490, 74], "actions": ["up", "up", "up", "right", "up"], "actionTimes": [12201, 13165, 13801, 14883, 15511], "queries": {"click": {"state": {"target": ["5", "9", "3"], "time": [4325, 6549, 8250]}, "edge": {"target": [], "time": []}}, "mouseover": {"state": {"target": ["4", "5", "9", "3", "4"], "time": [3033, 3884, 6044, 7340, 9103]}, "edge": {"target": [], "time": []}}, "mouseout": {"state": {"target": ["1", "0", "0", "4", "5", "9", "3"], "time": [624, 768, 1047, 3744, 5843, 7227, 8439]}, "edge": {"target": [], "time": []}}}, "displayed_time": "16.91", "trialTime": 20669, "trial_type": "mouselab-mdp", "trial_index": 41, "time_elapsed": 2934226, "internal_node_id": "0.0-4.0-1.0-32.0"}}, {"uniqueid": "w34076866:a59412631", "current_trial": 42, "dateTime": 1691145276314, "trialdata": {"revealed_states": [], "clicked_states": ["5", "17", "3"], "num_clicks_accrued": [0, 0, 0, 0, 0, 0, 0, 0, 0, 0, 0, 0, 0], "stateRewards": ["", -1, 2, 7, 8, 75, 67, -11, 6, 52, -17, 38, -1, 4, -8, 14, 74, -37, -17, -12, 52, 55, 71, -2, -1, -5, 2, 21, 6, -88, -14, 64, -61, -47], "withholdReward": false, "trial_id": "mdp_trial_34", "block": "test", "trialIndex": 35, "score": 86.8, "costs": -4.199999999999999, "simulationMode": [null, null, null, null, null], "rewards": [-1, 2, 7, 8, 75], "path": ["0", "0", "1", "2", "3", "4", "5"], "rt": [11167, 310, 110, 344, 137], "actions": ["up", "up", "up", "right", "up"], "actionTimes": [13705, 14561, 15218, 16109, 16810], "queries": {"click": {"state": {"target": ["5", "17", "3"], "time": [4032, 6123, 8405]}, "edge": {"target": [], "time": []}}, "mouseover": {"state": {"target": ["7", "4", "5", "15", "17", "15", "7", "3", "4", "4"], "time": [3256, 3327, 3597, 4775, 5188, 7273, 7408, 7875, 9123, 9766]}, "edge": {"target": [], "time": []}}, "mouseout": {"state": {"target": ["4", "1", "7", "4", "5", "15", "17", "15", "7", "3", "4"], "time": [514, 642, 3308, 3375, 4662, 5124, 7256, 7342, 7472, 8902, 9327]}, "edge": {"target": [], "time": []}}}, "displayed_time": "17.36", "trialTime": 18993, "trial_type": "mouselab-mdp", "trial_index": 42, "time_elapsed": 2955557, "internal_node_id": "0.0-4.0-1.0-33.0"}}, {"uniqueid": "w34076866:a59412631", "current_trial": 43, "dateTime": 1691145306420, "trialdata": {"revealed_states": [], "clicked_states": ["5", "17", "16", "29", "32", "11", "9", "3"], "num_clicks_accrued": [0, 0, 0, 0, 0, 0, 0, 0, 0, 0, 0, 0, 0], "stateRewards": ["", -1, 2, -7, -12, -62, 12, -13, 5, 77, -71, 83, 1, -4, 7, 15, -42, -87, -4, 5, -25, 44, 88, -1, 4, -5, -8, 14, 51, 8, -5, 83, -24, -19], "withholdReward": false, "trial_id": "mdp_trial_35", "block": "test", "trialIndex": 36, "score": 70.8, "costs": -11.200000000000001, "simulationMode": [null, null, null, null, null], "rewards": [-1, 2, -7, 5, 83], "path": ["0", "0", "1", "2", "3", "8", "11"], "rt": [19717, 357, 26, 402, 120], "actions": ["up", "up", "up", "left", "left"], "actionTimes": [22796, 23727, 24331, 25291, 25882], "queries": {"click": {"state": {"target": ["5", "17", "16", "29", "32", "11", "9", "3"], "time": [4783, 6613, 9854, 12154, 14265, 16797, 18800, 20682]}, "edge": {"target": [], "time": []}}, "mouseover": {"state": {"target": ["1", "4", "5", "6", "16", "17", "19", "21", "21", "15", "16", "18", "29", "33", "32", "33", "25", "26", "11", "9", "8", "3"], "time": [4001, 4148, 4272, 5583, 5894, 6029, 7822, 7953, 8610, 9240, 9442, 10573, 11593, 12847, 13268, 15137, 15278, 15367, 16197, 17890, 19485, 20237]}, "edge": {"target": [], "time": []}}, "mouseout": {"state": {"target": ["4", "1", "1", "4", "5", "5", "6", "16", "17", "19", "21", "21", "15", "16", "18", "29", "33", "32", "33", "25", "26", "11", "9", "8"], "time": [959, 1041, 4055, 4220, 4932, 5566, 5644, 5962, 7655, 7887, 8459, 8667, 9361, 10501, 10850, 12778, 12916, 14388, 15208, 15349, 15431, 17485, 19469, 19552]}, "edge": {"target": [], "time": []}}}, "displayed_time": "26.47", "trialTime": 27842, "trial_type": "mouselab-mdp", "trial_index": 43, "time_elapsed": 2985666, "internal_node_id": "0.0-4.0-1.0-34.0"}}, {"uniqueid": "w34076866:a59412631", "current_trial": 44, "dateTime": 1691145339996, "trialdata": {"revealed_states": [], "clicked_states": ["5", "17", "21", "32", "11", "25"], "num_clicks_accrued": [0, 0, 0, 0, 0, 0, 0, 0, 0, 0, 0, 0, 0], "stateRewards": ["", -1, -3, -7, -4, -85, -70, 79, 8, 84, -66, 42, 2, -2, -3, -16, -54, -66, 68, -3, 21, -14, 7, -2, -1, -3, -8, 75, 80, 86, -7, -84, 73, -16], "withholdReward": false, "trial_id": "mdp_trial_36", "block": "test", "trialIndex": 37, "score": 51.6, "costs": -8.4, "simulationMode": [null, null, null, null, null], "rewards": [-2, -1, -3, -7, 73], "path": ["0", "0", "23", "24", "25", "30", "32"], "rt": [14482, 73, 503, 247, 398], "actions": ["left", "left", "left", "down", "down"], "actionTimes": [21195, 21826, 22902, 23697, 24672], "queries": {"click": {"state": {"target": ["5", "17", "21", "32", "11", "25"], "time": [7980, 10009, 12070, 14295, 15908, 19269]}, "edge": {"target": [], "time": []}}, "mouseover": {"state": {"target": ["4", "5", "6", "17", "19", "21", "32", "11", "27", "26", "26", "25"], "time": [7017, 7584, 8673, 9433, 10669, 11057, 13466, 15491, 16849, 17629, 17861, 18662]}, "edge": {"target": [], "time": []}}, "mouseout": {"state": {"target": ["3", "2", "1", "4", "5", "6", "17", "19", "21", "32", "11", "27", "26", "26"], "time": [4553, 4598, 4898, 7507, 8655, 8739, 10600, 10732, 12708, 14909, 16135, 16959, 17802, 18581]}, "edge": {"target": [], "time": []}}}, "displayed_time": "25.25", "trialTime": 31548, "trial_type": "mouselab-mdp", "trial_index": 44, "time_elapsed": 3019238, "internal_node_id": "0.0-4.0-1.0-35.0"}}, {"uniqueid": "w34076866:a59412631", "current_trial": 45, "dateTime": 1691145366139, "trialdata": {"revealed_states": [], "clicked_states": ["5", "17"], "num_clicks_accrued": [0, 0, 0, 0, 0, 0, 0, 0, 0, 0, 0, 0, 0], "stateRewards": ["", 2, -2, -3, 10, -4, -1, -11, -8, -9, -36, -78, 2, 1, 7, -7, 44, -1, -31, -1, 26, 47, 83, 2, -4, -4, -6, -52, -76, -81, -1, -59, 45, 67], "withholdReward": false, "trial_id": "mdp_trial_37", "block": "test", "trialIndex": 38, "score": -22.8, "costs": -2.8, "simulationMode": [null, null, null, null, null], "rewards": [2, -2, -3, -8, -9], "path": ["0", "0", "1", "2", "3", "8", "9"], "rt": [12039, 380, 18, 721, 216], "actions": ["up", "up", "up", "left", "up"], "actionTimes": [16211, 17192, 17778, 19088, 19872], "queries": {"click": {"state": {"target": ["5", "17"], "time": [5828, 7805]}, "edge": {"target": [], "time": []}}, "mouseover": {"state": {"target": ["0", "4", "5", "6", "17", "21", "20", "21", "24", "29", "29"], "time": [4379, 4952, 5340, 6686, 7109, 11226, 12018, 12673, 13839, 14042, 14228]}, "edge": {"target": [], "time": []}}, "mouseout": {"state": {"target": ["25", "24", "0", "4", "5", "5", "6", "17", "17", "21", "20", "21", "24", "29", "29"], "time": [1511, 1586, 4871, 5271, 5992, 6668, 6750, 7981, 8857, 11858, 12289, 13350, 13902, 14164, 14291]}, "edge": {"target": [], "time": []}}}, "displayed_time": "20.46", "trialTime": 23835, "trial_type": "mouselab-mdp", "trial_index": 45, "time_elapsed": 3045385, "internal_node_id": "0.0-4.0-1.0-36.0"}}, {"uniqueid": "w34076866:a59412631", "current_trial": 46, "dateTime": 1691145391126, "trialdata": {"revealed_states": [], "clicked_states": ["9", "3"], "num_clicks_accrued": [0, 0, 0, 0, 0, 0, 0, 0, 0, 0, 0, 0, 0], "stateRewards": ["", -1, 1, -6, -1, 80, 23, 2, -11, 73, -81, 59, 1, 3, 5, -1, -26, 28, -3, 16, -59, -13, -50, -2, -2, 2, 15, -50, 86, 17, -4, 37, 35, 44], "withholdReward": false, "trial_id": "mdp_trial_38", "block": "test", "trialIndex": 39, "score": 53.2, "costs": -2.8, "simulationMode": [null, null, null, null, null], "rewards": [-1, 1, -6, -11, 73], "path": ["0", "0", "1", "2", "3", "8", "9"], "rt": [9303, 269, 12, 446, 867], "actions": ["up", "up", "up", "left", "up"], "actionTimes": [12986, 13816, 14391, 15393, 16848], "queries": {"click": {"state": {"target": ["9", "3"], "time": [5598, 9701]}, "edge": {"target": [], "time": []}}, "mouseover": {"state": {"target": ["2", "3", "9", "3", "3"], "time": [4651, 4760, 5204, 8018, 8545]}, "edge": {"target": [], "time": []}}, "mouseout": {"state": {"target": ["23", "2", "3", "9", "3"], "time": [1593, 4709, 5054, 6603, 8091]}, "edge": {"target": [], "time": []}}}, "displayed_time": "17.68", "trialTime": 22954, "trial_type": "mouselab-mdp", "trial_index": 46, "time_elapsed": 3070373, "internal_node_id": "0.0-4.0-1.0-37.0"}}, {"uniqueid": "w34076866:a59412631", "current_trial": 47, "dateTime": 1691145436271, "trialdata": {"revealed_states": [], "clicked_states": ["5", "17", "21", "9"], "num_clicks_accrued": [0, 0, 0, 0, 0, 0, 0, 0, 0, 0, 0, 0, 0], "stateRewards": ["", -2, -3, -7, 7, -54, -69, -4, -14, -77, 22, 40, -2, -1, 5, 6, -35, 50, -60, 10, -28, 75, 57, 1, -4, -2, 2, 68, 34, -18, 12, 3, -21, -43], "withholdReward": false, "trial_id": "mdp_trial_39", "block": "test", "trialIndex": 40, "score": 81.4, "costs": -5.6, "simulationMode": [null, null, null, null, null], "rewards": [-2, -1, 5, 10, 75], "path": ["0", "0", "12", "13", "14", "19", "21"], "rt": [10507, 189, 321, 620, 361], "actions": ["right", "right", "right", "down", "down"], "actionTimes": [35522, 36290, 37202, 38378, 39298], "queries": {"click": {"state": {"target": ["5", "17", "21", "9"], "time": [26916, 29391, 31574, 33607]}, "edge": {"target": [], "time": []}}, "mouseover": {"state": {"target": ["4", "5", "16", "17", "21", "18", "3", "9"], "time": [25854, 26477, 28266, 28955, 30327, 32377, 32807, 33236]}, "edge": {"target": [], "time": []}}, "mouseout": {"state": {"targe