{"condition": 1, "counterbalance": 0, "assignmentId": "a69388156", "workerId": "w60949977", "hitId": "h39456833", "currenttrial": 56, "bonus": 0, "data": [{"uniqueid": "w60949977:a69388156", "current_trial": 0, "dateTime": 1693835782575, "trialdata": {"success": true, "trial_type": "fullscreen", "trial_index": 0, "time_elapsed": 1156286, "internal_node_id": "0.0-0.0"}}, {"uniqueid": "w60949977:a69388156", "current_trial": 1, "dateTime": 1693835793071, "trialdata": {"view_history": [{"page_index": 0, "viewing_time": 10494}], "rt": 10495, "trial_id": "exp_instructions_misaligned", "trial_type": "instructions", "trial_index": 1, "time_elapsed": 1166782, "internal_node_id": "0.0-1.0"}}, {"uniqueid": "w60949977:a69388156", "current_trial": 2, "dateTime": 1693835960310, "trialdata": {"view_history": [{"page_index": 0, "viewing_time": 46872}, {"page_index": 1, "viewing_time": 38359}, {"page_index": 2, "viewing_time": 9683}, {"page_index": 1, "viewing_time": 34374}, {"page_index": 2, "viewing_time": 4595}, {"page_index": 3, "viewing_time": 33355}], "rt": 167238, "trial_id": "mouselab_instructions_1_misaligned", "trial_type": "instructions", "trial_index": 2, "time_elapsed": 1334021, "internal_node_id": "0.0-2.0-1.0"}}, {"uniqueid": "w60949977:a69388156", "current_trial": 3, "dateTime": 1693835984006, "trialdata": {"revealed_states": [], "clicked_states": ["27", "29", "17", "9", "5", "11"], "num_clicks_accrued": [0, 0, 0, 0, 0, 0, 0, 0, 0, 0, 0, 0, 0], "stateRewards": ["", 10, -10, 10, -10, 10, -10, 10, -10, -10, 10, 10, 10, 10, 10, 10, 10, -10, -10, 10, -10, -10, -10, -10, 10, 10, 10, -10, -10, 10, 10, 10, 10, -10], "withholdReward": false, "trial_id": "practice_1", "block": "test", "trialIndex": 0, "score": 10.5, "costs": -3, "simulationMode": [null, null, null, null, null], "rewards": [10, -10, 10, -10, 10], "path": ["0", "0", "1", "2", "3", "8", "11"], "rt": [12759, 264, 1824, 1, 122], "actions": ["up", "up", "up", "left", "left"], "actionTimes": [15300, 16060, 18384, 18884, 19512], "queries": {"click": {"state": {"target": ["27", "29", "17", "9", "5", "11"], "time": [4013, 5522, 6894, 8337, 9630, 10945]}, "edge": {"target": [], "time": []}}, "mouseover": {"state": {"target": ["23", "24", "26", "27", "29", "29", "26", "28", "17", "16", "6", "4", "9", "5", "3", "8", "11", "28", "24", "31", "31"], "time": [3366, 3414, 3595, 3915, 4422, 5027, 5903, 6125, 6793, 7265, 7766, 7800, 8162, 8773, 9976, 10004, 10199, 12270, 12319, 12528, 13541]}, "edge": {"target": [], "time": []}}, "mouseout": {"state": {"target": ["12", "0", "23", "24", "26", "27", "29", "29", "26", "28", "17", "16", "6", "4", "9", "5", "3", "8", "11", "28", "24", "31", "31"], "time": [440, 3324, 3400, 3435, 3831, 4214, 4860, 5805, 6077, 6459, 7168, 7731, 7773, 7807, 8641, 9928, 9983, 10039, 11569, 12298, 12472, 12569, 14502]}, "edge": {"target": [], "time": []}}}, "displayed_time": "20.01", "trialTime": 23443, "trial_type": "mouselab-mdp", "trial_index": 3, "time_elapsed": 1357717, "internal_node_id": "0.0-2.0-2.0-0.0"}}, {"uniqueid": "w60949977:a69388156", "current_trial": 4, "dateTime": 1693836003278, "trialdata": {"revealed_states": [], "clicked_states": ["23", "1", "12", "17", "20"], "num_clicks_accrued": [0, 0, 0, 0, 0, 0, 0, 0, 0, 0, 0, 0, 0], "stateRewards": ["", 10, -10, 10, 10, 10, -10, -10, -10, -10, -10, 10, 10, 10, 10, 10, -10, 10, -10, -10, 10, 10, -10, -10, -10, -10, -10, -10, -10, 10, 10, 10, 10, -10], "withholdReward": false, "trial_id": "practice_2", "block": "test", "trialIndex": 1, "score": 51, "costs": -2.5, "simulationMode": [null, null, null, null, null], "rewards": [10, 10, 10, 10, 10], "path": ["0", "0", "12", "13", "14", "15", "17"], "rt": [11322, 159, 15, 410, 35], "actions": ["right", "right", "right", "up", "right"], "actionTimes": [12994, 13654, 14170, 15085, 15621], "queries": {"click": {"state": {"target": ["23", "1", "12", "17", "20"], "time": [3288, 4742, 6308, 8960, 10707]}, "edge": {"target": [], "time": []}}, "mouseover": {"state": {"target": ["0", "1", "23", "1", "12", "13", "14", "17", "20"], "time": [1773, 2149, 3010, 3935, 5061, 8571, 8620, 8710, 9600]}, "edge": {"target": [], "time": []}}, "mouseout": {"state": {"target": ["0", "0", "1", "23", "1", "12", "13", "14", "17", "20", "20", "17", "14", "19"], "time": [1529, 2044, 2871, 3789, 4936, 8544, 8606, 8648, 9197, 11846, 12047, 16725, 16760, 16795]}, "edge": {"target": [], "time": []}}}, "displayed_time": "16.12", "trialTime": 19170, "trial_type": "mouselab-mdp", "trial_index": 4, "time_elapsed": 1376989, "internal_node_id": "0.0-2.0-2.0-1.0"}}, {"uniqueid": "w60949977:a69388156", "current_trial": 5, "dateTime": 1693836063833, "trialdata": {"view_history": [{"page_index": 0, "viewing_time": 43898}, {"page_index": 1, "viewing_time": 16655}], "rt": 60553, "trial_id": "mouselab_instructions_2_misaligned", "trial_type": "instructions", "trial_index": 5, "time_elapsed": 1437544, "internal_node_id": "0.0-2.0-3.0"}}, {"uniqueid": "w60949977:a69388156", "current_trial": 6, "dateTime": 1693836091212, "trialdata": {"rt": 27377, "response": {"Q0": "The cost for clicking on nodes may vary between nodes.", "Q1": "The better I perform the higher my bonus will be.", "Q2": "No, the amount of cash at each node of the web may be different each time.", "Q3": "To get the highest total score.", "Q4": "Only before moving the spider.", "Q5": "3 seconds"}, "question_order": [0, 1, 2, 3, 4, 5], "correct": {"Q0": "The cost for clicking on nodes may vary between nodes.", "Q1": "The better I perform the higher my bonus will be.", "Q2": "No, the amount of cash at each node of the web may be different each time.", "Q3": "To get the highest total score.", "Q4": "Only before moving the spider.", "Q5": "3 seconds"}, "trial_id": "mouselab_quiz_misaligned", "trial_type": "survey-multi-choice", "trial_index": 6, "time_elapsed": 1464923, "internal_node_id": "0.0-2.0-4.0"}}, {"uniqueid": "w60949977:a69388156", "current_trial": 7, "dateTime": 1693836111732, "trialdata": {"rt": 20517, "response": {"Q0": "No"}, "question_order": [0], "trial_id": "repeat_check", "trial_type": "survey-multi-choice", "trial_index": 7, "time_elapsed": 1485442, "internal_node_id": "0.0-4.0-0.0"}}, {"uniqueid": "w60949977:a69388156", "current_trial": 8, "dateTime": 1693836124286, "trialdata": {"rt": 12552, "stimulus": "\n<h1> Get ready to start the game! </h1>\n\nThank you for reading the instructions. Get ready start with the 40 rounds of this game.\n<br><br>\nIf you need to take a break, feel free to take one after the end of a round, before continuing to the next one.\n<br><br>\nRemember, the more money the spider gets, the bigger your bonus will be!\n<br><br>\n<div style='text-align: center;'>Press <code>space</code> to begin.</div>\n\n<br><br>\n(If, at any point, the <code>space</code> key does not take you to the next page, click once on the text and try again.)", "response": " ", "trial_id": "mdp_ready", "trial_type": "html-keyboard-response", "trial_index": 8, "time_elapsed": 1497997, "internal_node_id": "0.0-6.0-0.0"}}, {"uniqueid": "w60949977:a69388156", "current_trial": 9, "dateTime": 1693836155125, "trialdata": {"revealed_states": [], "clicked_states": ["29"], "num_clicks_accrued": [0, 0, 0, 0, 0, 0, 0, 0, 0, 0, 0, 0, 0], "stateRewards": ["", -1, 1, 6, -6, 70, 66, 67, -16, -75, -35, 37, -1, 4, 4, -6, 47, -9, 63, 15, 21, -63, 13, 1, 3, -6, 10, 79, -29, 18, -15, 9, -67, -19], "withholdReward": false, "trial_id": "mdp_trial_1", "block": "test", "trialIndex": 2, "score": 23.85, "costs": -2.15, "simulationMode": [null, null, null, null, null], "rewards": [1, 3, -6, 10, 18], "path": ["0", "0", "23", "24", "25", "26", "29"], "rt": [12206, 121, 63, 9, 1146], "actions": ["left", "left", "left", "up", "left"], "actionTimes": [24604, 25223, 25791, 26307, 27951], "queries": {"click": {"state": {"target": ["29"], "time": [14593]}, "edge": {"target": [], "time": []}}, "mouseover": {"state": {"target": ["0", "23", "24", "29", "25", "26", "26", "27", "26", "25", "24", "28", "26", "26", "25", "33", "32", "31"], "time": [13348, 13848, 14188, 14355, 16580, 16628, 16934, 18512, 19110, 19549, 19993, 20431, 20842, 21223, 21258, 21335, 21939, 23990]}, "edge": {"target": [], "time": []}}, "mouseout": {"state": {"target": ["2", "1", "0", "0", "23", "24", "29", "25", "26", "26", "27", "26", "25", "24", "28", "26", "26", "25", "33", "32", "31"], "time": [723, 800, 3967, 13807, 14154, 14209, 14786, 16586, 16823, 17344, 19083, 19451, 19590, 20348, 20786, 20994, 21230, 21286, 21891, 23955, 24011]}, "edge": {"target": [], "time": []}}}, "displayed_time": "28.45", "trialTime": 30744, "trial_type": "mouselab-mdp", "trial_index": 9, "time_elapsed": 1528836, "internal_node_id": "0.0-6.0-1.0-0.0"}}, {"uniqueid": "w60949977:a69388156", "current_trial": 10, "dateTime": 1693836176683, "trialdata": {"revealed_states": [], "clicked_states": ["29", "25", "33", "20", "17"], "num_clicks_accrued": [0, 0, 0, 0, 0, 0, 0, 0, 0, 0, 0, 0, 0], "stateRewards": ["", 2, 3, 3, 10, 19, -21, 6, 9, 54, 68, 16, 2, 2, -6, -8, 40, -2, -75, -2, -42, 55, 59, -1, 2, 4, -14, 11, -34, -30, -6, 61, -53, 13], "withholdReward": false, "trial_id": "mdp_trial_2", "block": "test", "trialIndex": 3, "score": 2.4499999999999993, "costs": -9.55, "simulationMode": [null, null, null, null, null, null], "rewards": [-1, 2, 4, -6, 13], "path": ["0", "0", "23", "24", "25", "30", "33"], "rt": [12626, 1282, 9, 562, 2, 22], "actions": ["left", "left", "left", "left", "down", "left"], "actionTimes": [13866, 15150, 15662, 16722, 17226, 17754], "queries": {"click": {"state": {"target": ["29", "25", "33", "20", "17"], "time": [1914, 4673, 6978, 9932, 12762]}, "edge": {"target": [], "time": []}}, "mouseover": {"state": {"target": ["23", "24", "26", "29", "27", "27", "11", "9", "8", "10", "24", "25", "30", "30", "30", "30", "26", "30", "32", "33", "32", "19", "20", "14", "15", "14", "17"], "time": [1458, 1492, 1555, 1645, 2111, 2424, 2723, 3182, 3564, 3620, 4078, 4607, 5003, 5545, 6059, 6199, 6414, 6546, 6595, 6887, 7311, 8298, 8764, 10973, 11008, 11411, 11815]}, "edge": {"target": [], "time": []}}, "mouseout": {"state": {"target": ["0", "23", "24", "26", "29", "27", "27", "11", "9", "8", "10", "24", "25", "30", "30", "30", "30", "25", "26", "25", "30", "32", "33", "33", "32", "19", "20", "14", "15", "14", "17", "19"], "time": [1444, 1478, 1499, 1576, 2048, 2160, 2667, 3105, 3536, 3592, 3981, 4537, 4878, 5295, 5914, 6116, 6338, 6393, 6504, 6532, 6568, 6685, 6981, 7220, 7818, 8541, 10883, 10987, 11133, 11745, 13233, 19941]}, "edge": {"target": [], "time": []}}}, "displayed_time": "18.25", "trialTime": 21470, "trial_type": "mouselab-mdp", "trial_index": 10, "time_elapsed": 1550394, "internal_node_id": "0.0-6.0-1.0-1.0"}}, {"uniqueid": "w60949977:a69388156", "current_trial": 11, "dateTime": 1693836200358, "trialdata": {"revealed_states": [], "clicked_states": ["29", "33", "32", "31", "23", "24", "25"], "num_clicks_accrued": [0, 0, 0, 0, 0, 0, 0, 0, 0, 0, 0, 0, 0], "stateRewards": ["", -1, 3, -5, -2, -13, -9, -34, -7, -81, 32, 35, -2, -2, 1, -14, -32, 81, 7, 4, 82, 56, -8, -1, 3, -8, 6, -24, -24, -53, 2, 38, 61, 54], "withholdReward": false, "trial_id": "mdp_trial_3", "block": "test", "trialIndex": 4, "score": 47.35, "costs": -9.649999999999999, "simulationMode": [null, null, null, null, null], "rewards": [-1, 3, -8, 2, 61], "path": ["0", "0", "23", "24", "25", "30", "32"], "rt": [16593, 28, 3, 416, 83], "actions": ["left", "left", "left", "down", "down"], "actionTimes": [18887, 19415, 19919, 20839, 21423], "queries": {"click": {"state": {"target": ["29", "33", "32", "31", "23", "24", "25"], "time": [3145, 6549, 9392, 12311, 15180, 15576, 16261]}, "edge": {"target": [], "time": []}}, "mouseover": {"state": {"target": ["23", "24", "26", "29", "29", "27", "33", "33", "32", "31", "23", "24", "25", "33", "32", "31", "24", "31", "24", "28", "23", "24", "25"], "time": [2598, 2640, 2835, 2883, 3022, 3614, 4225, 4343, 4830, 5365, 6199, 6227, 6352, 6449, 6992, 9897, 10321, 10523, 13408, 13818, 14673, 15493, 16195]}, "edge": {"target": [], "time": []}}, "mouseout": {"state": {"target": ["0", "23", "24", "26", "29", "29", "27", "33", "33", "32", "31", "23", "24", "25", "33", "32", "31", "24", "31", "24", "28", "23", "24", "25", "25", "31"], "time": [2584, 2626, 2682, 2855, 2897, 3384, 4127, 4281, 4746, 5302, 5726, 6220, 6248, 6387, 6901, 9800, 10210, 10328, 12629, 13762, 14631, 15466, 15980, 16265, 16640, 16689]}, "edge": {"target": [], "time": []}}}, "displayed_time": "21.92", "trialTime": 23583, "trial_type": "mouselab-mdp", "trial_index": 11, "time_elapsed": 1574069, "internal_node_id": "0.0-6.0-1.0-2.0"}}, {"uniqueid": "w60949977:a69388156", "current_trial": 12, "dateTime": 1693836261085, "trialdata": {"revealed_states": [], "clicked_states": ["5", "9", "11", "27", "29", "33", "32", "28"], "num_clicks_accrued": [0, 0, 0, 0, 0, 0, 0, 0, 0, 0, 0, 0, 0], "stateRewards": ["", -1, 4, 3, 12, -27, 34, -33, 3, -63, 1, 6, 2, 2, -6, -11, -77, -85, 68, -6, 51, 81, -60, -2, -2, 1, 15, 20, 15, 68, -10, -14, 6, -4], "withholdReward": false, "trial_id": "mdp_trial_4", "block": "test", "trialIndex": 5, "score": 62.8, "costs": -17.2, "simulationMode": [null, null, null, null, null, null], "rewards": [-2, -2, 1, 15, 68], "path": ["0", "0", "23", "24", "25", "26", "29"], "rt": [22706, 214, 80, 204, 420, 415], "actions": ["left", "left", "left", "left", "up", "left"], "actionTimes": [25814, 26030, 26618, 27326, 28250, 29162], "queries": {"click": {"state": {"target": ["5", "9", "11", "27", "29", "33", "32", "28"], "time": [4214, 7059, 9870, 12825, 15786, 18599, 21436, 24383]}, "edge": {"target": [], "time": []}}, "mouseover": {"state": {"target": ["1", "2", "5", "9", "11", "27", "29", "29", "33", "33", "32", "31", "32", "31", "24", "28", "28"], "time": [3714, 3742, 4055, 4437, 7454, 10290, 13328, 13745, 16115, 16372, 18958, 21071, 21363, 21746, 22239, 22281, 22497]}, "edge": {"target": [], "time": []}}, "mouseout": {"state": {"target": ["12", "12", "0", "0", "1", "2", "5", "9", "11", "27", "29", "29", "33", "33", "32", "31", "32", "31", "24", "28", "28", "1", "28", "25", "30"], "time": [405, 613, 1997, 2212, 3728, 3755, 4381, 7355, 10193, 13098, 13731, 15942, 16164, 18910, 20877, 21315, 21676, 22219, 22267, 22316, 24791, 59027, 59138, 59673, 59694]}, "edge": {"target": [], "time": []}}}, "displayed_time": "29.66", "trialTime": 60629, "trial_type": "mouselab-mdp", "trial_index": 12, "time_elapsed": 1634796, "internal_node_id": "0.0-6.0-1.0-3.0"}}, {"uniqueid": "w60949977:a69388156", "current_trial": 13, "dateTime": 1693836294100, "trialdata": {"revealed_states": [], "clicked_states": ["9", "11", "27", "29", "33", "32"], "num_clicks_accrued": [0, 0, 0, 0, 0, 0, 0, 0, 0, 0, 0, 0, 0], "stateRewards": ["", -1, 1, 3, -8, -23, -15, -14, -11, -23, 58, 68, 1, 3, 5, 12, -17, -41, -7, -10, -4, 82, 10, 1, 4, -4, 11, 73, 55, -55, -1, -86, -86, 54], "withholdReward": false, "trial_id": "mdp_trial_5", "block": "test", "trialIndex": 6, "score": 72.1, "costs": -12.9, "simulationMode": [null, null, null, null, null], "rewards": [1, 4, -4, 11, 73], "path": ["0", "0", "23", "24", "25", "26", "27"], "rt": [18618, 267, 115, 31, 58], "actions": ["left", "left", "left", "up", "up"], "actionTimes": [27387, 28150, 28762, 29290, 29846], "queries": {"click": {"state": {"target": ["9", "11", "27", "29", "33", "32"], "time": [9954, 12801, 15633, 18567, 21479, 24237]}, "edge": {"target": [], "time": []}}, "mouseover": {"state": {"target": ["0", "11", "9", "11", "27", "27", "29", "33", "32", "32", "21", "22", "12"], "time": [9370, 9732, 9843, 10441, 13186, 13555, 16002, 19223, 21745, 21959, 25963, 25984, 26012]}, "edge": {"target": [], "time": []}}, "mouseout": {"state": {"target": ["0", "0", "0", "11", "9", "11", "27", "27", "29", "33", "32", "32", "21", "22", "12"], "time": [7827, 9030, 9377, 9774, 10170, 13145, 13221, 15877, 18775, 21681, 21785, 24601, 25970, 25998, 26019]}, "edge": {"target": [], "time": []}}}, "displayed_time": "30.34", "trialTime": 32915, "trial_type": "mouselab-mdp", "trial_index": 13, "time_elapsed": 1667811, "internal_node_id": "0.0-6.0-1.0-4.0"}}, {"uniqueid": "w60949977:a69388156", "current_trial": 14, "dateTime": 1693836331802, "trialdata": {"revealed_states": [], "clicked_states": ["9", "11", "10", "27", "29", "33", "32", "31", "22", "21"], "num_clicks_accrued": [0, 0, 0, 0, 0, 0, 0, 0, 0, 0, 0, 0, 0], "stateRewards": ["", 1, 1, -3, 7, 49, 78, 26, -5, 26, 48, -43, -1, -3, 2, -5, 4, -1, -60, 10, -35, 51, 81, -2, 1, -7, -5, -39, -86, -54, 4, -3, 74, 77], "withholdReward": false, "trial_id": "mdp_trial_6", "block": "test", "trialIndex": 7, "score": 67.5, "costs": -21.499999999999996, "simulationMode": [null, null, null, null, null], "rewards": [-1, -3, 2, 10, 81], "path": ["0", "0", "12", "13", "14", "19", "22"], "rt": [32598, 46, 68, 18, 41], "actions": ["right", "right", "right", "down", "left"], "actionTimes": [33511, 34058, 34622, 35142, 35686], "queries": {"click": {"state": {"target": ["9", "11", "10", "27", "29", "33", "32", "31", "22", "21"], "time": [2037, 4939, 7914, 10706, 13587, 16547, 19479, 22432, 25705, 28534]}, "edge": {"target": [], "time": []}}, "mouseover": {"state": {"target": ["23", "11", "9", "9", "11", "10", "27", "29", "25", "33", "30", "25", "33", "32", "31", "31", "21", "21", "22", "21", "20", "20"], "time": [1382, 1458, 1667, 1959, 2348, 5448, 8277, 11169, 14186, 14568, 14784, 14867, 15187, 17127, 19865, 20136, 23299, 23494, 25517, 26052, 29062, 29410]}, "edge": {"target": [], "time": []}}, "mouseout": {"state": {"target": ["0", "1", "23", "11", "9", "9", "11", "10", "27", "29", "25", "33", "30", "25", "33", "32", "31", "31", "21", "21", "22", "21", "20", "20", "19"], "time": [394, 589, 1388, 1472, 1750, 2271, 5184, 8222, 11065, 13873, 14429, 14749, 14812, 15090, 16751, 19816, 19921, 22750, 23320, 23591, 25962, 28999, 29076, 36723, 36834]}, "edge": {"target": [], "time": []}}}, "displayed_time": "36.19", "trialTime": 37602, "trial_type": "mouselab-mdp", "trial_index": 14, "time_elapsed": 1705513, "internal_node_id": "0.0-6.0-1.0-5.0"}}, {"uniqueid": "w60949977:a69388156", "current_trial": 15, "dateTime": 1693836357217, "trialdata": {"revealed_states": [], "clicked_states": ["9", "11", "10", "27", "29", "28"], "num_clicks_accrued": [0, 0, 0, 0, 0, 0, 0, 0, 0, 0, 0, 0, 0], "stateRewards": ["", 2, 3, 8, 11, 25, -80, 6, -4, -56, 84, -23, -2, -4, -3, 4, -51, -9, -61, -15, -64, 67, -35, 1, -1, -7, -6, 83, 59, -15, 12, -79, 56, 41], "withholdReward": false, "trial_id": "mdp_trial_7", "block": "test", "trialIndex": 8, "score": 80.1, "costs": -12.9, "simulationMode": [null, null, null, null, null], "rewards": [2, 3, 8, -4, 84], "path": ["0", "0", "1", "2", "3", "8", "10"], "rt": [18574, 30, 2, 487, 12], "actions": ["up", "up", "up", "left", "down"], "actionTimes": [19762, 20293, 20793, 21785, 22297], "queries": {"click": {"state": {"target": ["9", "11", "10", "27", "29", "28"], "time": [2100, 4913, 7865, 10655, 13651, 16552]}, "edge": {"target": [], "time": []}}, "mouseover": {"state": {"target": ["10", "9", "9", "11", "10", "27", "27", "27", "29", "26", "28", "25", "30", "31"], "time": [1542, 1632, 1931, 2383, 5163, 8486, 8716, 8973, 11044, 13908, 14117, 17127, 17606, 17864]}, "edge": {"target": [], "time": []}}, "mouseout": {"state": {"target": ["0", "0", "10", "9", "9", "11", "10", "27", "27", "27", "29", "26", "28", "25", "30", "31"], "time": [812, 1452, 1570, 1681, 2334, 5101, 8139, 8702, 8730, 10996, 13880, 13929, 16856, 17155, 17787, 23633]}, "edge": {"target": [], "time": []}}}, "displayed_time": "22.80", "trialTime": 25313, "trial_type": "mouselab-mdp", "trial_index": 15, "time_elapsed": 1730928, "internal_node_id": "0.0-6.0-1.0-6.0"}}, {"uniqueid": "w60949977:a69388156", "current_trial": 16, "dateTime": 1693836395932, "trialdata": {"revealed_states": [], "clicked_states": ["9", "11", "10", "28", "27", "29", "33", "32", "31"], "num_clicks_accrued": [0, 0, 0, 0, 0, 0, 0, 0, 0, 0, 0, 0, 0], "stateRewards": ["", -2, 1, -7, -8, -37, -76, -87, 11, 30, -63, 80, -1, 4, 2, -1, 42, 17, 52, -3, -75, -80, -68, 2, -3, -5, -15, -48, 82, 24, -7, 5, -22, -71], "withholdReward": false, "trial_id": "mdp_trial_8", "block": "test", "trialIndex": 9, "score": -79.35, "costs": -19.349999999999998, "simulationMode": [null, null, null, null, null], "rewards": [-2, 1, -7, 11, -63], "path": ["0", "0", "1", "2", "3", "8", "10"], "rt": [27544, 175, 32, 430, 47], "actions": ["up", "up", "up", "left", "down"], "actionTimes": [28592, 29267, 29799, 30739, 31287], "queries": {"click": {"state": {"target": ["9", "11", "10", "28", "27", "29", "33", "32", "31"], "time": [2183, 5164, 8168, 11094, 13995, 17024, 19965, 22801, 25568]}, "edge": {"target": [], "time": []}}, "mouseover": {"state": {"target": ["0", "10", "8", "9", "9", "11", "11", "10", "10", "28", "28", "27", "29", "29", "33", "32", "32", "31"], "time": [1126, 1488, 1508, 1529, 2012, 2467, 2746, 5630, 6423, 8619, 8870, 11476, 14417, 14723, 18046, 20347, 20507, 23579]}, "edge": {"target": [], "time": []}}, "mouseout": {"state": {"target": ["0", "0", "10", "8", "9", "9", "9", "11", "11", "10", "10", "28", "28", "27", "29", "29", "33", "32", "32", "31", "23", "11", "10", "10", "23"], "time": [764, 1154, 1494, 1515, 1543, 2247, 2391, 2711, 5463, 6145, 8585, 8647, 11428, 14355, 14493, 17420, 20291, 20360, 23211, 25810, 33332, 33603, 35014, 35369, 35473]}, "edge": {"target": [], "time": []}}}, "displayed_time": "31.79", "trialTime": 38615, "trial_type": "mouselab-mdp", "trial_index": 16, "time_elapsed": 1769643, "internal_node_id": "0.0-6.0-1.0-7.0"}}, {"uniqueid": "w60949977:a69388156", "current_trial": 17, "dateTime": 1693836428806, "trialdata": {"revealed_states": [], "clicked_states": ["10", "11", "9", "28", "27", "29", "33", "32", "31"], "num_clicks_accrued": [0, 0, 0, 0, 0, 0, 0, 0, 0, 0, 0, 0, 0], "stateRewards": ["", 2, 4, 4, -8, -36, -33, 38, 16, -51, 57, 57, 1, 3, 4, -6, 45, 68, 87, 1, 63, 24, -55, -2, 2, -6, -13, -63, -50, 8, 2, 80, 6, 60], "withholdReward": false, "trial_id": "mdp_trial_9", "block": "test", "trialIndex": 10, "score": 56.650000000000006, "costs": -19.349999999999998, "simulationMode": [null, null, null, null, null], "rewards": [-2, 2, -6, 2, 80], "path": ["0", "0", "23", "24", "25", "30", "31"], "rt": [27068, 37, 158, 21, 72], "actions": ["left", "left", "left", "down", "right"], "actionTimes": [28087, 28626, 29282, 29806, 30378], "queries": {"click": {"state": {"target": ["10", "11", "9", "28", "27", "29", "33", "32", "31"], "time": [1887, 4738, 7667, 10424, 13308, 16228, 19073, 21946, 24770]}, "edge": {"target": [], "time": []}}, "mouseover": {"state": {"target": ["1", "10", "8", "10", "11", "9", "28", "27", "27", "29", "29", "33", "33", "32", "31"], "time": [1360, 1394, 1429, 1770, 2173, 5169, 8471, 10869, 11061, 13580, 13712, 16708, 17021, 19628, 23138]}, "edge": {"target": [], "time": []}}, "mouseout": {"state": {"target": ["7", "1", "0", "1", "10", "8", "10", "11", "9", "11", "28", "27", "27", "29", "29", "33", "33", "32", "31"], "time": [511, 713, 1318, 1373, 1415, 1450, 2055, 5072, 7971, 8047, 10800, 10897, 13545, 13629, 16528, 16917, 19343, 22478, 25252]}, "edge": {"target": [], "time": []}}}, "displayed_time": "30.88", "trialTime": 32774, "trial_type": "mouselab-mdp", "trial_index": 17, "time_elapsed": 1802517, "internal_node_id": "0.0-6.0-1.0-8.0"}}, {"uniqueid": "w60949977:a69388156", "current_trial": 18, "dateTime": 1693836466617, "trialdata": {"revealed_states": [], "clicked_states": ["9", "11", "10", "28", "27", "29", "33", "32", "31", "22", "21"], "num_clicks_accrued": [0, 0, 0, 0, 0, 0, 0, 0, 0, 0, 0, 0, 0], "stateRewards": ["", -1, 2, -2, 5, 80, -61, -27, 12, 44, -26, -75, -2, -4, 1, -16, 42, -49, -50, 4, -44, 2, 80, -2, -2, 5, -2, 59, 10, 24, 7, -48, -86, -44], "withholdReward": false, "trial_id": "mdp_trial_10", "block": "test", "trialIndex": 11, "score": 55.35000000000001, "costs": -23.649999999999995, "simulationMode": [null, null, null, null, null, null], "rewards": [-2, -4, 1, 4, 80], "path": ["0", "0", "12", "13", "14", "19", "22"], "rt": [31933, 402, 137, 54, 1, 49], "actions": ["right", "right", "right", "right", "down", "left"], "actionTimes": [32992, 33396, 34036, 34592, 35088, 35644], "queries": {"click": {"state": {"target": ["9", "11", "10", "28", "27", "29", "33", "32", "31", "22", "21"], "time": [2091, 4862, 7857, 10646, 13441, 16591, 19545, 22446, 25339, 28173, 31057]}, "edge": {"target": [], "time": []}}, "mouseover": {"state": {"target": ["0", "9", "11", "10", "10", "28", "27", "29", "33", "32", "32", "31", "22", "21", "20", "20"], "time": [1071, 1901, 2373, 5376, 5613, 8296, 11341, 13906, 16971, 19981, 20086, 22970, 26523, 28720, 31417, 31771]}, "edge": {"target": [], "time": []}}, "mouseout": {"state": {"target": ["12", "12", "0", "9", "11", "10", "10", "28", "27", "29", "33", "32", "32", "31", "22", "22", "21", "20", "20"], "time": [476, 601, 1311, 2332, 5265, 5453, 8220, 11028, 13851, 16867, 19815, 20009, 22706, 25730, 28315, 28664, 31354, 31486, 37144]}, "edge": {"target": [], "time": []}}}, "displayed_time": "36.15", "trialTime": 37704, "trial_type": "mouselab-mdp", "trial_index": 18, "time_elapsed": 1840327, "internal_node_id": "0.0-6.0-1.0-9.0"}}, {"uniqueid": "w60949977:a69388156", "current_trial": 19, "dateTime": 1693836491148, "trialdata": {"revealed_states": [], "clicked_states": ["9", "11", "10", "28", "27", "29"], "num_clicks_accrued": [0, 0, 0, 0, 0, 0, 0, 0, 0, 0, 0, 0, 0], "stateRewards": ["", 1, -3, -6, -5, 47, 80, -29, 11, -71, 10, -29, -2, 3, -6, 12, 2, -78, -6, 8, 34, -16, -5, -1, 3, 3, -13, 84, -36, -62, -3, -27, 66, 15], "withholdReward": false, "trial_id": "mdp_trial_11", "block": "test", "trialIndex": 12, "score": 63.1, "costs": -12.9, "simulationMode": [null, null, null, null, null, null], "rewards": [-1, 3, 3, -13, 84], "path": ["0", "0", "23", "24", "25", "26", "27"], "rt": [17480, 391, 23, 27, 487, 47], "actions": ["left", "left", "left", "left", "up", "up"], "actionTimes": [18231, 18624, 19155, 19687, 20675, 21223], "queries": {"click": {"state": {"target": ["9", "11", "10", "28", "27", "29"], "time": [1691, 4513, 7386, 10356, 13127, 15957]}, "edge": {"target": [], "time": []}}, "mouseover": {"state": {"target": ["1", "2", "3", "9", "11", "11", "10", "10", "28", "27", "29", "25", "25"], "time": [1078, 1280, 1321, 1586, 1954, 2302, 4874, 5756, 7863, 10713, 13521, 17345, 17372]}, "edge": {"target": [], "time": []}}, "mouseout": {"state": {"target": ["20", "19", "0", "0", "1", "2", "3", "9", "11", "11", "10", "10", "28", "27", "29", "25", "25", "25", "30"], "time": [265, 299, 432, 626, 1266, 1307, 1342, 1912, 2114, 4783, 5485, 7786, 10622, 13410, 16726, 17359, 17386, 22517, 22565]}, "edge": {"target": [], "time": []}}}, "displayed_time": "21.73", "trialTime": 24432, "trial_type": "mouselab-mdp", "trial_index": 19, "time_elapsed": 1864859, "internal_node_id": "0.0-6.0-1.0-10.0"}}, {"uniqueid": "w60949977:a69388156", "current_trial": 20, "dateTime": 1693836510691, "trialdata": {"revealed_states": [], "clicked_states": ["9", "11", "10", "28"], "num_clicks_accrued": [0, 0, 0, 0, 0, 0, 0, 0, 0, 0, 0, 0, 0], "stateRewards": ["", 2, 3, -1, 6, 44, -4, -59, -14, -3, 64, 16, 1, -3, 3, 6, 3, 49, 19, 3, -49, -14, -86, 1, 2, -3, -8, -33, 14, 32, -13, -77, -47, -67], "withholdReward": false, "trial_id": "mdp_trial_12", "block": "test", "trialIndex": 13, "score": 45.4, "costs": -8.6, "simulationMode": [null, null, null, null, null, null], "rewards": [2, 3, -1, -14, 64], "path": ["0", "0", "1", "2", "3", "8", "10"], "rt": [12433, 241, 145, 44, 9, 395], "actions": ["up", "up", "up", "up", "left", "down"], "actionTimes": [13496, 13739, 14391, 14943, 15452, 16351], "queries": {"click": {"state": {"target": ["9", "11", "10", "28"], "time": [2258, 5219, 8183, 11045]}, "edge": {"target": [], "time": []}}, "mouseover": {"state": {"target": ["0", "8", "9", "8", "11", "8", "8", "10", "28", "28", "28", "27", "29", "27"], "time": [1559, 2073, 2129, 2511, 3379, 5458, 6911, 7286, 8691, 10686, 10964, 11468, 12597, 12889]}, "edge": {"target": [], "time": []}}, "mouseout": {"state": {"target": ["23", "10", "1", "0", "0", "8", "9", "9", "8", "11", "8", "8", "10", "10", "28", "28", "28", "27", "29", "27", "1", "7", "0"], "time": [390, 446, 662, 1260, 1572, 2101, 2349, 2476, 3067, 5444, 5486, 7147, 8317, 8572, 10206, 10706, 11050, 11999, 12632, 13334, 17283, 17541, 17630]}, "edge": {"target": [], "time": []}}}, "displayed_time": "16.85", "trialTime": 19443, "trial_type": "mouselab-mdp", "trial_index": 20, "time_elapsed": 1884401, "internal_node_id": "0.0-6.0-1.0-11.0"}}, {"uniqueid": "w60949977:a69388156", "current_trial": 21, "dateTime": 1693836526663, "trialdata": {"revealed_states": [], "clicked_states": ["9", "11"], "num_clicks_accrued": [0, 0, 0, 0, 0, 0, 0, 0, 0, 0, 0, 0, 0], "stateRewards": ["", -2, 4, -3, -13, 63, -36, 62, 11, 78, 34, -51, 2, -2, 8, -6, -40, -18, 31, 9, 64, 39, 79, 1, 4, -4, 15, -12, 76, 73, -10, -77, 86, -4], "withholdReward": false, "trial_id": "mdp_trial_13", "block": "test", "trialIndex": 14, "score": 83.7, "costs": -4.3, "simulationMode": [null, null, null, null, null, null], "rewards": [-2, 4, -3, 11, 78], "path": ["0", "0", "1", "2", "3", "8", "9"], "rt": [4707, 282, 66, 64, 458, 12], "actions": ["up", "up", "up", "up", "left", "up"], "actionTimes": [5538, 5822, 6394, 6962, 7926, 8446], "queries": {"click": {"state": {"target": ["9", "11"], "time": [1568, 4444]}, "edge": {"target": [], "time": []}}, "mouseover": {"state": {"target": ["1", "2", "3", "9", "11", "10", "2"], "time": [1030, 1057, 1078, 1454, 2135, 4867, 5709]}, "edge": {"target": [], "time": []}}, "mouseout": {"state": {"target": ["12", "0", "1", "2", "3", "9", "11", "10", "2", "0"], "time": [452, 883, 1050, 1071, 1085, 1808, 4783, 5680, 5770, 9302]}, "edge": {"target": [], "time": []}}}, "displayed_time": "14.83", "trialTime": 15874, "trial_type": "mouselab-mdp", "trial_index": 21, "time_elapsed": 1900374, "internal_node_id": "0.0-6.0-1.0-12.0"}}, {"uniqueid": "w60949977:a69388156", "current_trial": 22, "dateTime": 1693836542866, "trialdata": {"revealed_states": [], "clicked_states": ["9", "11"], "num_clicks_accrued": [0, 0, 0, 0, 0, 0, 0, 0, 0, 0, 0, 0, 0], "stateRewards": ["", -1, -2, -1, -10, -57, 73, -72, -16, 75, -14, -46, -2, -3, -7, -1, -61, -60, 76, -4, 50, 4, 14, 2, 2, -7, 12, -65, -32, 15, -8, -76, -25, -61], "withholdReward": false, "trial_id": "mdp_trial_14", "block": "test", "trialIndex": 15, "score": 50.7, "costs": -4.3, "simulationMode": [null, null, null, null, null, null], "rewards": [-1, -2, -1, -16, 75], "path": ["0", "0", "1", "2", "3", "8", "9"], "rt": [4809, 251, 42, 303, 487, 12], "actions": ["up", "up", "up", "up", "left", "up"], "actionTimes": [5573, 5825, 6376, 7184, 8180, 8692], "queries": {"click": {"state": {"target": ["9", "11"], "time": [1415, 4281]}, "edge": {"target": [], "time": []}}, "mouseover": {"state": {"target": ["0", "1", "2", "8", "9", "11", "11", "10"], "time": [880, 1130, 1158, 1192, 1276, 1804, 2145, 4738]}, "edge": {"target": [], "time": []}}, "mouseout": {"state": {"target": ["0", "0", "1", "2", "8", "9", "11", "11", "10", "2", "12", "18"], "time": [373, 1102, 1151, 1172, 1206, 1728, 2006, 4619, 5836, 5892, 11773, 15631]}, "edge": {"target": [], "time": []}}}, "displayed_time": "14.76", "trialTime": 16092, "trial_type": "mouselab-mdp", "trial_index": 22, "time_elapsed": 1916577, "internal_node_id": "0.0-6.0-1.0-13.0"}}, {"uniqueid": "w60949977:a69388156", "current_trial": 23, "dateTime": 1693836585329, "trialdata": {"revealed_states": [], "clicked_states": ["9", "11", "10", "28", "27", "29", "33", "32", "31", "22", "21", "20", "18"], "num_clicks_accrued": [0, 0, 0, 0, 0, 0, 0, 0, 0, 0, 0, 0, 0], "stateRewards": ["", 1, -1, 8, 4, 76, -33, -17, -3, -1, -54, -74, -2, 2, -5, 13, -51, 63, 83, 1, 84, 29, -36, 2, -1, 7, -12, -10, -44, -43, -14, 8, -69, 19], "withholdReward": false, "trial_id": "mdp_trial_15", "block": "test", "trialIndex": 16, "score": 52.05000000000001, "costs": -27.949999999999992, "simulationMode": [null, null, null, null, null, null], "rewards": [-2, 2, -5, 1, 84], "path": ["0", "0", "12", "13", "14", "19", "20"], "rt": [35826, 343, 199, 177, 424, 99], "actions": ["right", "right", "right", "right", "down", "right"], "actionTimes": [36753, 37098, 37805, 38493, 39425, 40025], "queries": {"click": {"state": {"target": ["9", "11", "10", "28", "27", "29", "33", "32", "31", "22", "21", "20", "18"], "time": [1614, 4604, 7410, 10199, 12992, 15875, 18667, 21442, 24321, 27289, 30198, 33144, 36028]}, "edge": {"target": [], "time": []}}, "mouseover": {"state": {"target": ["1", "2", "9", "11", "11", "10", "28", "28", "27", "29", "29", "33", "32", "31", "22", "21", "20", "14", "18", "14"], "time": [1282, 1316, 1414, 1872, 2143, 4987, 8149, 8379, 10868, 13370, 13558, 16717, 19105, 21927, 26600, 27926, 30631, 34071, 34315, 36393]}, "edge": {"target": [], "time": []}}, "mouseout": {"state": {"target": ["12", "5", "4", "1", "0", "1", "2", "9", "11", "11", "10", "28", "28", "27", "27", "29", "29", "29", "33", "32", "31", "31", "22", "21", "20", "20", "14", "18", "18", "14", "17", "15", "13"], "time": [197, 510, 558, 642, 1247, 1302, 1338, 1824, 1900, 4897, 8108, 8191, 10562, 13061, 13342, 13412, 16317, 16609, 19022, 21844, 24708, 26189, 27683, 30512, 33501, 34002, 34099, 36172, 36358, 36984, 41065, 41573, 41614]}, "edge": {"target": [], "time": []}}}, "displayed_time": "40.52", "trialTime": 42350, "trial_type": "mouselab-mdp", "trial_index": 23, "time_elapsed": 1959040, "internal_node_id": "0.0-6.0-1.0-14.0"}}, {"uniqueid": "w60949977:a69388156", "current_trial": 24, "dateTime": 1693836618675, "trialdata": {"revealed_states": [], "clicked_states": ["9", "11", "10", "28", "27", "29", "33", "32", "31"], "num_clicks_accrued": [0, 0, 0, 0, 0, 0, 0, 0, 0, 0, 0, 0, 0], "stateRewards": ["", -2, -3, 1, -14, 48, -49, 67, -1, -35, -48, 3, -2, 1, -4, -5, 86, -84, 39, 1, 48, 41, -42, -1, -4, 2, -7, 18, -86, 17, 7, -9, 57, -69], "withholdReward": false, "trial_id": "mdp_trial_16", "block": "test", "trialIndex": 17, "score": 41.650000000000006, "costs": -19.349999999999998, "simulationMode": [null, null, null, null, null], "rewards": [-1, -4, 2, 7, 57], "path": ["0", "0", "23", "24", "25", "30", "32"], "rt": [27728, 81, 57, 10, 98], "actions": ["left", "left", "left", "down", "down"], "actionTimes": [28586, 29166, 29726, 30242, 30837], "queries": {"click": {"state": {"target": ["9", "11", "10", "28", "27", "29", "33", "32", "31"], "time": [1769, 4748, 7687, 10540, 13383, 16161, 19116, 21973, 24810]}, "edge": {"target": [], "time": []}}, "mouseover": {"state": {"target": ["0", "1", "2", "9", "11", "10", "28", "27", "27", "29", "33", "32", "31"], "time": [1014, 1237, 1271, 1396, 2098, 5164, 8056, 10913, 11144, 13777, 16961, 19957, 22445]}, "edge": {"target": [], "time": []}}, "mouseout": {"state": {"target": ["0", "0", "1", "2", "9", "11", "10", "28", "27", "27", "29", "33", "32", "31"], "time": [743, 1021, 1257, 1285, 2008, 4900, 8007, 10843, 10954, 13722, 16550, 19699, 22355, 25289]}, "edge": {"target": [], "time": []}}}, "displayed_time": "31.34", "trialTime": 33233, "trial_type": "mouselab-mdp", "trial_index": 24, "time_elapsed": 1992386, "internal_node_id": "0.0-6.0-1.0-15.0"}}, {"uniqueid": "w60949977:a69388156", "current_trial": 25, "dateTime": 1693836654926, "trialdata": {"revealed_states": [], "clicked_states": ["9", "11", "10", "28", "27", "29", "33", "32", "31", "22", "21"], "num_clicks_accrued": [0, 0, 0, 0, 0, 0, 0, 0, 0, 0, 0, 0, 0], "stateRewards": ["", -2, -4, -6, 12, -58, -70, -80, 2, 16, -88, -62, 1, 2, -5, 11, 77, -35, -44, -5, 18, -83, 87, 1, -3, -5, 13, -44, -21, -86, 10, -52, 8, 29], "withholdReward": false, "trial_id": "mdp_trial_17", "block": "test", "trialIndex": 18, "score": 56.35000000000001, "costs": -23.649999999999995, "simulationMode": [null, null, null, null, null, null], "rewards": [1, 2, -5, -5, 87], "path": ["0", "0", "12", "13", "14", "19", "22"], "rt": [30477, 266, 55, 62, 439, 313], "actions": ["right", "right", "right", "right", "down", "left"], "actionTimes": [31566, 31834, 32398, 32967, 33914, 34726], "queries": {"click": {"state": {"target": ["9", "11", "10", "28", "27", "29", "33", "32", "31", "22", "21"], "time": [2369, 5257, 8144, 11117, 13928, 16688, 19529, 22382, 25169, 28043, 30841]}, "edge": {"target": [], "time": []}}, "mouseover": {"state": {"target": ["1", "2", "3", "9", "9", "11", "11", "10", "26", "28", "27", "27", "29", "29", "33", "32", "31", "22", "21", "21"], "time": [1790, 1817, 1866, 2054, 2255, 2707, 3062, 5759, 8672, 9234, 11494, 11779, 14281, 14490, 17757, 20475, 22859, 26272, 28663, 28899]}, "edge": {"target": [], "time": []}}, "mouseout": {"state": {"target": ["0", "1", "2", "3", "9", "9", "11", "11", "10", "26", "28", "27", "27", "29", "29", "33", "32", "31", "22", "22", "21", "21", "21"], "time": [1769, 1811, 1838, 1887, 2124, 2644, 2763, 5522, 8567, 9012, 11417, 11577, 14232, 14309, 17291, 19891, 22748, 25710, 28232, 28524, 28747, 31965, 35531]}, "edge": {"target": [], "time": []}}}, "displayed_time": "35.23", "trialTime": 36142, "trial_type": "mouselab-mdp", "trial_index": 25, "time_elapsed": 2028637, "internal_node_id": "0.0-6.0-1.0-16.0"}}, {"uniqueid": "w60949977:a69388156", "current_trial": 26, "dateTime": 1693836679376, "trialdata": {"revealed_states": [], "clicked_states": ["9", "11", "10", "28", "27", "29", "33"], "num_clicks_accrued": [0, 0, 0, 0, 0, 0, 0, 0, 0, 0, 0, 0, 0], "stateRewards": ["", -2, 2, -2, -7, -50, -62, -45, 7, 36, -24, -72, -1, -1, 8, -1, -67, 20, -52, 2, 35, -50, 80, -1, 1, 6, -6, -70, 6, 88, 8, -47, 74, -19], "withholdReward": false, "trial_id": "mdp_trial_18", "block": "test", "trialIndex": 19, "score": 72.95, "costs": -15.05, "simulationMode": [null, null, null, null, null, null], "rewards": [-1, 1, 6, -6, 88], "path": ["0", "0", "23", "24", "25", "26", "29"], "rt": [18792, 358, 44, 75, 36, 361], "actions": ["left", "left", "left", "left", "up", "left"], "actionTimes": [19623, 19983, 20535, 21115, 21659, 22519], "queries": {"click": {"state": {"target": ["9", "11", "10", "28", "27", "29", "33"], "time": [1789, 4545, 7339, 10163, 13008, 15900, 18734]}, "edge": {"target": [], "time": []}}, "mouseover": {"state": {"target": ["0", "0", "1", "2", "8", "9", "8", "10", "11", "10", "10", "10", "26", "28", "27", "27", "29", "33"], "time": [1032, 1178, 1240, 1289, 1477, 1623, 2109, 2214, 2366, 4966, 5502, 6078, 7962, 8192, 10747, 11132, 13780, 16777]}, "edge": {"target": [], "time": []}}, "mouseout": {"state": {"target": ["0", "0", "0", "1", "2", "8", "9", "8", "10", "11", "10", "10", "10", "26", "28", "27", "27", "29", "33", "32"], "time": [705, 1053, 1206, 1265, 1317, 1532, 2067, 2158, 2255, 4890, 5050, 5821, 7754, 8122, 10486, 10882, 13718, 16450, 22943, 23221]}, "edge": {"target": [], "time": []}}}, "displayed_time": "23.02", "trialTime": 24335, "trial_type": "mouselab-mdp", "trial_index": 26, "time_elapsed": 2053087, "internal_node_id": "0.0-6.0-1.0-17.0"}}, {"uniqueid": "w60949977:a69388156", "current_trial": 27, "dateTime": 1693836697087, "trialdata": {"revealed_states": [], "clicked_states": ["9", "11", "10", "28"], "num_clicks_accrued": [0, 0, 0, 0, 0, 0, 0, 0, 0, 0, 0, 0, 0], "stateRewards": ["", 1, 1, -6, -2, 7, 77, 3, 16, -16, 66, 31, -1, 3, -8, -6, 33, -50, -48, 7, -60, -66, 36, 2, -3, 3, -7, -12, -61, -79, -4, 8, 74, -70], "withholdReward": false, "trial_id": "mdp_trial_19", "block": "test", "trialIndex": 20, "score": 69.4, "costs": -8.6, "simulationMode": [null, null, null, null, null, null], "rewards": [1, 1, -6, 16, 66], "path": ["0", "0", "1", "2", "3", "8", "10"], "rt": [11454, 332, 6, 461, 381, 30], "actions": ["up", "up", "up", "up", "left", "down"], "actionTimes": [12485, 12818, 13333, 14301, 15181, 15713], "queries": {"click": {"state": {"target": ["9", "11", "10", "28"], "time": [2267, 5119, 8105, 10886]}, "edge": {"target": [], "time": []}}, "mouseover": {"state": {"target": ["0", "1", "2", "3", "9", "11", "10", "28", "27"], "time": [1195, 1779, 1806, 1827, 2050, 3023, 5546, 8744, 11295]}, "edge": {"target": [], "time": []}}, "mouseout": {"state": {"target": ["0", "1", "2", "3", "9", "9", "11", "10", "28", "27", "28"], "time": [1744, 1792, 1820, 1855, 2393, 2536, 5456, 8368, 11204, 12254, 16648]}, "edge": {"target": [], "time": []}}}, "displayed_time": "16.21", "trialTime": 17601, "trial_type": "mouselab-mdp", "trial_index": 27, "time_elapsed": 2070798, "internal_node_id": "0.0-6.0-1.0-18.0"}}, {"uniqueid": "w60949977:a69388156", "current_trial": 28, "dateTime": 1693836716760, "trialdata": {"revealed_states": [], "clicked_states": ["9", "11", "10", "28", "27"], "num_clicks_accrued": [0, 0, 0, 0, 0, 0, 0, 0, 0, 0, 0, 0, 0], "stateRewards": ["", 1, 4, 5, -5, 58, -80, 75, 6, 25, -39, 46, 2, -2, 4, 2, 59, 31, -22, -12, -61, 15, 72, 1, -2, -7, 8, 77, 76, -23, -7, 71, -15, -3], "withholdReward": false, "trial_id": "mdp_trial_20", "block": "test", "trialIndex": 21, "score": 65.25, "costs": -10.75, "simulationMode": [null, null, null, null, null, null], "rewards": [1, -2, -7, 8, 76], "path": ["0", "0", "23", "24", "25", "26", "28"], "rt": [13651, 711, 110, 51, 14, 460], "actions": ["up", "left", "left", "left", "up", "right"], "actionTimes": [14331, 15042, 15656, 16214, 16726, 17694], "queries": {"click": {"state": {"target": ["9", "11", "10", "28", "27"], "time": [1877, 4670, 7570, 10373, 13342]}, "edge": {"target": [], "time": []}}, "mouseover": {"state": {"target": ["1", "2", "3", "9", "11", "11", "10", "28", "28", "26", "27", "27"], "time": [1391, 1516, 1592, 1873, 2169, 2544, 5075, 7995, 8308, 10796, 10998, 11498]}, "edge": {"target": [], "time": []}}, "mouseout": {"state": {"target": ["0", "1", "2", "3", "9", "11", "11", "10", "28", "28", "26", "27", "27", "26", "24", "31"], "time": [1321, 1474, 1564, 1628, 2065, 2294, 5012, 7877, 8155, 10761, 10810, 11074, 18526, 18589, 18624, 18666]}, "edge": {"target": [], "time": []}}}, "displayed_time": "18.19", "trialTime": 19555, "trial_type": "mouselab-mdp", "trial_index": 28, "time_elapsed": 2090471, "internal_node_id": "0.0-6.0-1.0-19.0"}}, {"uniqueid": "w60949977:a69388156", "current_trial": 29, "dateTime": 1693836733018, "trialdata": {"revealed_states": [], "clicked_states": ["9", "11", "10", "28"], "num_clicks_accrued": [0, 0, 0, 0, 0, 0, 0, 0, 0, 0, 0, 0, 0], "stateRewards": ["", -1, -4, -6, -15, 21, -67, -63, 9, 51, 69, -14, -1, 3, 8, -8, 39, 72, 63, 15, 19, 47, 15, 1, 4, 5, 16, -18, 34, 35, -14, -80, 40, 1], "withholdReward": false, "trial_id": "mdp_trial_21", "block": "test", "trialIndex": 22, "score": 58.4, "costs": -8.6, "simulationMode": [null, null, null, null, null, null], "rewards": [-1, -4, -6, 9, 69], "path": ["0", "0", "1", "2", "3", "8", "10"], "rt": [10412, 302, 110, 77, 411, 372], "actions": ["up", "up", "up", "up", "left", "down"], "actionTimes": [11077, 11380, 11994, 12579, 13496, 14368], "queries": {"click": {"state": {"target": ["9", "11", "10", "28"], "time": [1582, 4343, 7116, 9999]}, "edge": {"target": [], "time": []}}, "mouseover": {"state": {"target": ["0", "1", "2", "3", "9", "11", "11", "10", "28", "26", "27", "27"], "time": [1031, 1101, 1121, 1212, 1497, 1872, 3117, 4868, 8010, 10381, 10436, 10673]}, "edge": {"target": [], "time": []}}, "mouseout": {"state": {"target": ["0", "0", "1", "2", "3", "9", "11", "11", "10", "28", "26", "27", "27", "26", "24"], "time": [802, 1052, 1107, 1156, 1260, 1817, 2804, 4743, 7496, 10360, 10387, 10478, 14830, 14927, 14983]}, "edge": {"target": [], "time": []}}}, "displayed_time": "14.87", "trialTime": 16136, "trial_type": "mouselab-mdp", "trial_index": 29, "time_elapsed": 2106729, "internal_node_id": "0.0-6.0-1.0-20.0"}}, {"uniqueid": "w60949977:a69388156", "current_trial": 30, "dateTime": 1693836756302, "trialdata": {"revealed_states": [], "clicked_states": ["9", "11", "10", "28", "27", "29"], "num_clicks_accrued": [0, 0, 0, 0, 0, 0, 0, 0, 0, 0, 0, 0, 0], "stateRewards": ["", 1, 1, 4, 11, 83, -66, 18, -16, -23, 5, 25, 1, -3, 1, -12, 18, 24, -86, -11, -64, 36, 40, 2, 1, -6, 13, 55, 29, 72, -2, 81, -72, -41], "withholdReward": false, "trial_id": "mdp_trial_22", "block": "test", "trialIndex": 23, "score": 69.1, "costs": -12.9, "simulationMode": [null, null, null, null, null, null], "rewards": [2, 1, -6, 13, 72], "path": ["0", "0", "23", "24", "25", "26", "29"], "rt": [16832, 324, 252, 167, 23, 390], "actions": ["left", "left", "left", "left", "up", "left"], "actionTimes": [18246, 18571, 19331, 19996, 20519, 21407], "queries": {"click": {"state": {"target": ["9", "11", "10", "28", "27", "29"], "time": [2128, 5074, 7903, 10799, 13568, 16395]}, "edge": {"target": [], "time": []}}, "mouseover": {"state": {"target": ["0", "8", "9", "9", "11", "10", "28", "26", "27", "29", "29"], "time": [1653, 1782, 1810, 2053, 2422, 5341, 8650, 11305, 11458, 14055, 14267]}, "edge": {"target": [], "time": []}}, "mouseout": {"state": {"target": ["0", "0", "0", "8", "9", "9", "11", "10", "28", "26", "27", "29", "29", "32"], "time": [1011, 1553, 1685, 1796, 1859, 2338, 5237, 8268, 11257, 11389, 13996, 14065, 21969, 22213]}, "edge": {"target": [], "time": []}}}, "displayed_time": "21.91", "trialTime": 23167, "trial_type": "mouselab-mdp", "trial_index": 30, "time_elapsed": 2130013, "internal_node_id": "0.0-6.0-1.0-21.0"}}, {"uniqueid": "w60949977:a69388156", "current_trial": 31, "dateTime": 1693836792344, "trialdata": {"revealed_states": [], "clicked_states": ["9", "11", "10", "28", "27", "29", "33", "32", "31", "22", "21"], "num_clicks_accrued": [0, 0, 0, 0, 0, 0, 0, 0, 0, 0, 0, 0, 0], "stateRewards": ["", -2, -4, -2, 10, -8, -15, -47, 7, -84, 53, 5, -1, 2, -7, 3, 83, 31, 47, -1, 30, -8, 69, 2, -4, -1, 8, -7, 12, -8, -8, -13, 30, -84], "withholdReward": false, "trial_id": "mdp_trial_23", "block": "test", "trialIndex": 24, "score": 38.35000000000001, "costs": -23.649999999999995, "simulationMode": [null, null, null, null, null, null], "rewards": [-1, 2, -7, -1, 69], "path": ["0", "0", "12", "13", "14", "19", "22"], "rt": [30890, 279, 6, 153, 388, 6], "actions": ["right", "right", "right", "right", "down", "left"], "actionTimes": [31632, 31912, 32427, 33088, 33983, 34491], "queries": {"click": {"state": {"target": ["9", "11", "10", "28", "27", "29", "33", "32", "31", "22", "21"], "time": [1553, 4407, 7222, 10108, 13018, 15908, 18851, 21780, 25045, 27915, 30834]}, "edge": {"target": [], "time": []}}, "mouseover": {"state": {"target": ["0", "0", "1", "9", "11", "10", "10", "28", "28", "27", "29", "29", "33", "32", "31", "21", "21", "22", "21"], "time": [748, 1187, 1256, 1353, 1847, 4829, 5185, 7686, 7904, 10793, 13580, 13754, 16952, 19489, 22520, 25996, 26190, 26524, 29562]}, "edge": {"target": [], "time": []}}, "mouseout": {"state": {"target": ["0", "0", "1", "9", "9", "11", "10", "10", "28", "28", "27", "27", "29", "29", "33", "32", "31", "21", "21", "22", "21"], "time": [916, 1222, 1277, 1651, 1791, 4767, 5017, 7637, 7700, 10432, 13207, 13546, 13602, 16396, 19232, 22201, 25933, 26010, 26239, 28373, 34936]}, "edge": {"target": [], "time": []}}}, "displayed_time": "34.99", "trialTime": 35931, "trial_type": "mouselab-mdp", "trial_index": 31, "time_elapsed": 2166055, "internal_node_id": "0.0-6.0-1.0-22.0"}}, {"uniqueid": "w60949977:a69388156", "current_trial": 32, "dateTime": 1693836807824, "trialdata": {"revealed_states": [], "clicked_states": ["9", "11", "10"], "num_clicks_accrued": [0, 0, 0, 0, 0, 0, 0, 0, 0, 0, 0, 0, 0], "stateRewards": ["", 1, -1, 8, -3, 38, 85, -20, -4, 8, 23, 73, 2, -4, 6, -13, 44, 7, -28, -11, -77, 45, -69, 1, -1, -7, -11, 75, -51, -87, 7, 36, -53, -26], "withholdReward": false, "trial_id": "mdp_trial_24", "block": "test", "trialIndex": 25, "score": 70.55, "costs": -6.449999999999999, "simulationMode": [null, null, null, null, null, null], "rewards": [1, -1, 8, -4, 73], "path": ["0", "0", "1", "2", "3", "8", "11"], "rt": [8015, 463, 98, 140, 184, 47], "actions": ["up", "up", "up", "up", "left", "left"], "actionTimes": [8584, 9048, 9655, 10303, 10991, 11535], "queries": {"click": {"state": {"target": ["9", "11", "10"], "time": [1717, 4667, 7630]}, "edge": {"target": [], "time": []}}, "mouseover": {"state": {"target": ["0", "0", "1", "2", "8", "9", "9", "11", "10"], "time": [622, 914, 1005, 1046, 1192, 1317, 1589, 2131, 5210]}, "edge": {"target": [], "time": []}}, "mouseout": {"state": {"target": ["0", "0", "0", "1", "2", "8", "9", "9", "11", "10", "0", "0", "0", "0", "23"], "time": [365, 692, 956, 1026, 1074, 1262, 1359, 2020, 5050, 9902, 12412, 13093, 13407, 14129, 14796]}, "edge": {"target": [], "time": []}}}, "displayed_time": "14.57", "trialTime": 15367, "trial_type": "mouselab-mdp", "trial_index": 32, "time_elapsed": 2181535, "internal_node_id": "0.0-6.0-1.0-23.0"}}, {"uniqueid": "w60949977:a69388156", "current_trial": 33, "dateTime": 1693836827411, "trialdata": {"revealed_states": [], "clicked_states": ["9", "11", "10", "28", "27"], "num_clicks_accrued": [0, 0, 0, 0, 0, 0, 0, 0, 0, 0, 0, 0, 0], "stateRewards": ["", 1, 4, -8, -13, -13, -87, -77, -10, -44, 54, 42, 2, -3, -4, 12, -9, -80, 52, 9, 84, -2, -65, 1, -4, -5, -6, 8, 80, 32, 13, -59, -5, -13], "withholdReward": false, "trial_id": "mdp_trial_25", "block": "test", "trialIndex": 26, "score": 55.25, "costs": -10.75, "simulationMode": [null, null, null, null, null, null], "rewards": [1, -4, -5, -6, 80], "path": ["0", "0", "23", "24", "25", "26", "28"], "rt": [13261, 374, 216, 141, 19, 243], "actions": ["left", "left", "left", "left", "up", "right"], "actionTimes": [14436, 14811, 15531, 16179, 16703, 17455], "queries": {"click": {"state": {"target": ["9", "11", "10", "28", "27"], "time": [2058, 4847, 7679, 10620, 13456]}, "edge": {"target": [], "time": []}}, "mouseover": {"state": {"target": ["0", "1", "2", "3", "9", "11", "10", "28", "27"], "time": [1271, 1550, 1681, 1723, 1960, 2370, 5317, 8466, 11052]}, "edge": {"target": [], "time": []}}, "mouseout": {"state": {"target": ["0", "0", "1", "2", "3", "9", "9", "11", "10", "28", "27", "28"], "time": [500, 1467, 1640, 1709, 1744, 2163, 2321, 5199, 8369, 10748, 13992, 18268]}, "edge": {"target": [], "time": []}}}, "displayed_time": "17.96", "trialTime": 19455, "trial_type": "mouselab-mdp", "trial_index": 33, "time_elapsed": 2201122, "internal_node_id": "0.0-6.0-1.0-24.0"}}, {"uniqueid": "w60949977:a69388156", "current_trial": 34, "dateTime": 1693836842894, "trialdata": {"revealed_states": [], "clicked_states": ["9", "11", "10", "28"], "num_clicks_accrued": [0, 0, 0, 0, 0, 0, 0, 0, 0, 0, 0, 0, 0], "stateRewards": ["", 2, 3, -1, 16, -78, -11, 46, 2, -20, 79, -67, 2, 3, 2, 11, -83, -42, -58, -11, -67, -22, 55, 2, -1, -1, -16, -83, -82, 23, -11, -29, 13, 13], "withholdReward": false, "trial_id": "mdp_trial_26", "block": "test", "trialIndex": 27, "score": 76.4, "costs": -8.6, "simulationMode": [null, null, null, null, null, null], "rewards": [2, 3, -1, 2, 79], "path": ["0", "0", "1", "2", "3", "8", "10"], "rt": [9758, 312, 187, 194, 43, 56], "actions": ["up", "up", "up", "up", "left", "down"], "actionTimes": [10345, 10659, 11353, 12055, 12607, 13167], "queries": {"click": {"state": {"target": ["9", "11", "10", "28"], "time": [1165, 3944, 6786, 9588]}, "edge": {"target": [], "time": []}}, "mouseover": {"state": {"target": ["1", "2", "9", "11", "10", "28"], "time": [772, 800, 1015, 1488, 4567, 7160]}, "edge": {"target": [], "time": []}}, "mouseout": {"state": {"target": ["0", "1", "2", "9", "9", "11", "10", "28", "28", "23"], "time": [397, 786, 814, 1258, 1411, 4387, 7035, 10191, 12471, 14022]}, "edge": {"target": [], "time": []}}}, "displayed_time": "14.59", "trialTime": 15371, "trial_type": "mouselab-mdp", "trial_index": 34, "time_elapsed": 2216605, "internal_node_id": "0.0-6.0-1.0-25.0"}}, {"uniqueid": "w60949977:a69388156", "current_trial": 35, "dateTime": 1693836872709, "trialdata": {"revealed_states": [], "clicked_states": ["9", "11", "10", "28", "27", "29", "33", "32", "31"], "num_clicks_accrued": [0, 0, 0, 0, 0, 0, 0, 0, 0, 0, 0, 0, 0], "stateRewards": ["", 1, 1, -2, 7, -31, -6, 76, 1, -36, -16, -53, 2, 1, 7, 13, -47, -10, 47, -7, 72, 46, -56, -2, -2, -2, 11, -80, 44, 38, 16, 67, 85, -78], "withholdReward": false, "trial_id": "mdp_trial_27", "block": "test", "trialIndex": 28, "score": 75.65, "costs": -19.349999999999998, "simulationMode": [null, null, null, null, null, null], "rewards": [-2, -2, -2, 16, 85], "path": ["0", "0", "23", "24", "25", "30", "32"], "rt": [24068, 398, 80, 444, 64, 106], "actions": ["left", "left", "left", "left", "down", "down"], "actionTimes": [24711, 25110, 25698, 26646, 27218, 27822], "queries": {"click": {"state": {"target": ["9", "11", "10", "28", "27", "29", "33", "32", "31"], "time": [1219, 4154, 6926, 9731, 12637, 15477, 18354, 21156, 23970]}, "edge": {"target": [], "time": []}}, "mouseover": {"state": {"target": ["9", "11", "27", "27", "11", "10", "28", "27", "29", "33", "32", "32", "31"], "time": [1133, 1425, 1481, 1606, 2002, 4713, 7473, 10128, 13173, 16468, 18957, 19186, 21584]}, "edge": {"target": [], "time": []}}, "mouseout": {"state": {"target": ["0", "9", "11", "27", "27", "11", "10", "28", "27", "29", "33", "32", "32", "31"], "time": [723, 1384, 1446, 1496, 1627, 4470, 7334, 10045, 13041, 15884, 18748, 18998, 21459, 24469]}, "edge": {"target": [], "time": []}}}, "displayed_time": "28.32", "trialTime": 29698, "trial_type": "mouselab-mdp", "trial_index": 35, "time_elapsed": 2246420, "internal_node_id": "0.0-6.0-1.0-26.0"}}, {"uniqueid": "w60949977:a69388156", "current_trial": 36, "dateTime": 1693836887858, "trialdata": {"revealed_states": [], "clicked_states": ["9", "11", "10"], "num_clicks_accrued": [0, 0, 0, 0, 0, 0, 0, 0, 0, 0, 0, 0, 0], "stateRewards": ["", -1, 1, -2, 5, 73, 15, 61, 8, 7, 38, 76, 2, 2, -4, -6, -6, -26, 43, -5, -45, -85, -35, -2, 1, -4, 15, -10, 69, 72, -11, 84, -49, -38], "withholdReward": false, "trial_id": "mdp_trial_28", "block": "test", "trialIndex": 29, "score": 75.55, "costs": -6.449999999999999, "simulationMode": [null, null, null, null, null, null], "rewards": [-1, 1, -2, 8, 76], "path": ["0", "0", "1", "2", "3", "8", "11"], "rt": [7550, 564, 71, 106, 107, 50], "actions": ["up", "up", "up", "up", "left", "left"], "actionTimes": [8271, 8837, 9413, 10025, 10637, 11185], "queries": {"click": {"state": {"target": ["9", "11", "10"], "time": [1851, 4768, 7631]}, "edge": {"target": [], "time": []}}, "mouseover": {"state": {"target": ["0", "1", "2", "3", "9", "11", "11", "10", "10"], "time": [1187, 1256, 1291, 1311, 1722, 2577, 4398, 5316, 5601]}, "edge": {"target": [], "time": []}}, "mouseout": {"state": {"target": ["23", "0", "0", "1", "2", "3", "9", "11", "11", "10", "10", "10"], "time": [318, 832, 1228, 1277, 1304, 1319, 2069, 3960, 5108, 5434, 8201, 8944]}, "edge": {"target": [], "time": []}}}, "displayed_time": "14.72", "trialTime": 15030, "trial_type": "mouselab-mdp", "trial_index": 36, "time_elapsed": 2261568, "internal_node_id": "0.0-6.0-1.0-27.0"}}, {"uniqueid": "w60949977:a69388156", "current_trial": 37, "dateTime": 1693836928636, "trialdata": {"revealed_states": [], "clicked_states": ["9", "11", "10", "28", "27", "29", "33", "32", "31", "22", "21", "20", "17"], "num_clicks_accrued": [0, 0, 0, 0, 0, 0, 0, 0, 0, 0, 0, 0, 0], "stateRewards": ["", -2, 1, -3, -16, -39, -52, 30, -7, -41, -59, 11, 2, 1, 8, 2, -11, -26, -42, -13, 87, -59, -48, -1, -1, -1, 16, -79, 31, 50, -1, -84, 34, -82], "withholdReward": false, "trial_id": "mdp_trial_29", "block": "test", "trialIndex": 30, "score": 57.05000000000001, "costs": -27.949999999999992, "simulationMode": [null, null, null, null, null, null], "rewards": [2, 1, 8, -13, 87], "path": ["0", "0", "12", "13", "14", "19", "20"], "rt": [35352, 233, 86, 64, 462, 71], "actions": ["right", "right", "right", "right", "down", "right"], "actionTimes": [36306, 36541, 37132, 37700, 38668, 39236], "queries": {"click": {"state": {"target": ["9", "11", "10", "28", "27", "29", "33", "32", "31", "22", "21", "20", "17"], "time": [1630, 4403, 7246, 10084, 12946, 15814, 18611, 21547, 24333, 27244, 30070, 32901, 35683]}, "edge": {"target": [], "time": []}}, "mouseover": {"state": {"target": ["1", "2", "9", "11", "11", "10", "10", "28", "28", "27", "29", "33", "32", "31", "22", "21", "20", "20", "17"], "time": [1063, 1132, 1529, 1848, 2050, 4865, 5053, 7618, 7986, 10475, 13228, 16502, 19296, 22070, 25407, 27812, 30718, 30843, 33575]}, "edge": {"target": [], "time": []}}, "mouseout": {"state": {"target": ["1", "0", "1", "2", "9", "11", "11", "10", "10", "28", "28", "27", "29", "33", "32", "31", "22", "21", "20", "20", "17", "17", "21"], "time": [326, 353, 1105, 1139, 1807, 1869, 4775, 4872, 7576, 7653, 10392, 13179, 16439, 19102, 21980, 24969, 27708, 30460, 30732, 33037, 35836, 36181, 40401]}, "edge": {"target": [], "time": []}}}, "displayed_time": "39.73", "trialTime": 40648, "trial_type": "mouselab-mdp", "trial_index": 37, "time_elapsed": 2302346, "internal_node_id": "0.0-6.0-1.0-28.0"}}, {"uniqueid": "w60949977:a69388156", "current_trial": 38, "dateTime": 1693836950570, "trialdata": {"revealed_states": [], "clicked_states": ["9", "11", "10", "28", "27", "29"], "num_clicks_accrued": [0, 0, 0, 0, 0, 0, 0, 0, 0, 0, 0, 0, 0], "stateRewards": ["", -1, 2, -2, 13, -56, -28, 10, 14, 53, -80, -29, 1, -3, -3, -14, 14, 9, -40, -9, 18, 18, 48, 1, 1, 1, -9, 64, -39, -9, 7, -52, -78, 7], "withholdReward": false, "trial_id": "mdp_trial_30", "block": "test", "trialIndex": 31, "score": 45.1, "costs": -12.9, "simulationMode": [null, null, null, null, null, null], "rewards": [1, 1, 1, -9, 64], "path": ["0", "0", "23", "24", "25", "26", "27"], "rt": [16967, 358, 90, 84, 12, 92], "actions": ["left", "left", "left", "left", "up", "up"], "actionTimes": [17854, 18213, 18806, 19397, 19909, 20497], "queries": {"click": {"state": {"target": ["9", "11", "10", "28", "27", "29"], "time": [1727, 4701, 7502, 10396, 13342, 16160]}, "edge": {"target": [], "time": []}}, "mouseover": {"state": {"target": ["0", "0", "1", "10", "8", "9", "9", "11", "10", "28", "27", "29", "29", "33"], "time": [934, 1191, 1260, 1295, 1309, 1344, 1670, 2025, 5049, 8344, 10756, 13669, 13801, 17012]}, "edge": {"target": [], "time": []}}, "mouseout": {"state": {"target": ["0", "0", "0", "1", "10", "8", "9", "9", "9", "11", "10", "10", "28", "27", "29", "29", "33"], "time": [565, 948, 1233, 1274, 1302, 1330, 1393, 1834, 1985, 4952, 7913, 8219, 10645, 13641, 13703, 16762, 21572]}, "edge": {"target": [], "time": []}}}, "displayed_time": "21.00", "trialTime": 21801, "trial_type": "mouselab-mdp", "trial_index": 38, "time_elapsed": 2324281, "internal_node_id": "0.0-6.0-1.0-29.0"}}, {"uniqueid": "w60949977:a69388156", "current_trial": 39, "dateTime": 1693836966137, "trialdata": {"revealed_states": [], "clicked_states": ["9", "11", "10"], "num_clicks_accrued": [0, 0, 0, 0, 0, 0, 0, 0, 0, 0, 0, 0, 0], "stateRewards": ["", -2, -3, -5, 8, 27, 11, 43, -6, -24, -87, 69, -2, 1, 1, 9, 19, 48, -37, 9, -14, 45, 62, 1, 2, 1, 16, -81, -41, 22, 4, -6, -63, 47], "withholdReward": false, "trial_id": "mdp_trial_31", "block": "test", "trialIndex": 32, "score": 46.55, "costs": -6.449999999999999, "simulationMode": [null, null, null, null, null, null], "rewards": [-2, -3, -5, -6, 69], "path": ["0", "0", "1", "2", "3", "8", "11"], "rt": [8024, 201, 141, 100, 286, 84], "actions": ["up", "up", "up", "up", "left", "left"], "actionTimes": [8766, 8968, 9616, 10220, 11004, 11588], "queries": {"click": {"state": {"target": ["9", "11", "10"], "time": [1521, 4304, 7204]}, "edge": {"target": [], "time": []}}, "mouseover": {"state": {"target": ["0", "0", "1", "2", "3", "9", "8", "11", "10", "10", "28"], "time": [837, 1153, 1187, 1215, 1236, 1375, 1785, 1855, 4579, 5129, 7553]}, "edge": {"target": [], "time": []}}, "mouseout": {"state": {"target": ["0", "0", "0", "1", "2", "3", "9", "9", "8", "11", "10", "10", "28", "23", "23", "23"], "time": [589, 881, 1159, 1201, 1229, 1264, 1615, 1743, 1792, 4517, 4830, 7499, 12407, 12553, 12755, 13457]}, "edge": {"target": [], "time": []}}}, "displayed_time": "14.74", "trialTime": 15447, "trial_type": "mouselab-mdp", "trial_index": 39, "time_elapsed": 2339848, "internal_node_id": "0.0-6.0-1.0-30.0"}}, {"uniqueid": "w60949977:a69388156", "current_trial": 40, "dateTime": 1693836981213, "trialdata": {"revealed_states": [], "clicked_states": ["9", "11", "10"], "num_clicks_accrued": [0, 0, 0, 0, 0, 0, 0, 0, 0, 0, 0, 0, 0], "stateRewards": ["", -2, -3, 1, -7, 39, -67, 16, 5, -20, 73, 66, -1, 4, 5, -3, 23, -68, -87, -8, 3, -3, 17, 1, -4, -2, -13, -32, 34, 61, -5, -11, -18, 12], "withholdReward": false, "trial_id": "mdp_trial_32", "block": "test", "trialIndex": 33, "score": 67.55, "costs": -6.449999999999999, "simulationMode": [null, null, null, null, null, null], "rewards": [-2, -3, 1, 5, 73], "path": ["0", "0", "1", "2", "3", "8", "10"], "rt": [7511, 206, 160, 156, 45, 371], "actions": ["up", "up", "up", "up", "left", "down"], "actionTimes": [8191, 8398, 9066, 9730, 10278, 11146], "queries": {"click": {"state": {"target": ["9", "11", "10"], "time": [1305, 4181, 7128]}, "edge": {"target": [], "time": []}}, "mouseover": {"state": {"target": ["1", "2", "3", "9", "11", "10"], "time": [827, 883, 938, 1203, 1605, 4532]}, "edge": {"target": [], "time": []}}, "mouseout": {"state": {"target": ["0", "1", "2", "3", "9", "11", "10", "23"], "time": [785, 862, 917, 973, 1529, 4464, 8063, 13409]}, "edge": {"target": [], "time": []}}}, "displayed_time": "14.68", "trialTime": 14946, "trial_type": "mouselab-mdp", "trial_index": 40, "time_elapsed": 2354924, "internal_node_id": "0.0-6.0-1.0-31.0"}}, {"uniqueid": "w60949977:a69388156", "current_trial": 41, "dateTime": 1693836996448, "trialdata": {"revealed_states": [], "clicked_states": ["9", "11", "10", "28"], "num_clicks_accrued": [0, 0, 0, 0, 0, 0, 0, 0, 0, 0, 0, 0, 0], "stateRewards": ["", -2, -3, 8, -4, -30, 31, 69, 9, 66, 87, 64, -2, 2, 8, 5, 47, 16, -39, -8, -54, 51, -19, 1, -2, -2, -11, -25, -26, 43, -9, 19, -84, 86], "withholdReward": false, "trial_id": "mdp_trial_33", "block": "test", "trialIndex": 34, "score": 90.4, "costs": -8.6, "simulationMode": [null, null, null, null, null, null], "rewards": [-2, -3, 8, 9, 87], "path": ["0", "0", "1", "2", "3", "8", "10"], "rt": [9949, 259, 118, 131, 2, 391], "actions": ["up", "up", "up", "up", "left", "down"], "actionTimes": [10559, 10819, 11444, 12084, 12594, 13490], "queries": {"click": {"state": {"target": ["9", "11", "10", "28"], "time": [1478, 4376, 7150, 10131]}, "edge": {"target": [], "time": []}}, "mouseover": {"state": {"target": ["0", "1", "2", "3", "9", "11", "11", "10", "28", "28"], "time": [717, 919, 967, 1016, 1412, 1767, 2177, 4763, 8642, 8829]}, "edge": {"target": [], "time": []}}, "mouseout": {"state": {"target": ["0", "1", "2", "3", "9", "11", "11", "10", "28", "28", "28"], "time": [877, 947, 995, 1044, 1697, 1829, 4638, 7682, 8663, 10292, 14363]}, "edge": {"target": [], "time": []}}}, "displayed_time": "14.61", "trialTime": 15098, "trial_type": "mouselab-mdp", "trial_index": 41, "time_elapsed": 2370159, "internal_node_id": "0.0-6.0-1.0-32.0"}}, {"uniqueid": "w60949977:a69388156", "current_trial": 42, "dateTime": 1693837027206, "trialdata": {"revealed_states": [], "clicked_states": ["9", "11", "10", "28", "27", "29", "33", "32", "31"], "num_clicks_accrued": [0, 0, 0, 0, 0, 0, 0, 0, 0, 0, 0, 0, 0], "stateRewards": ["", -1, 3, 8, 9, -53, 20, -84, 2, -28, -62, -31, -1, -2, -7, 2, 51, 58, 45, -4, -17, -41, 36, 2, -2, -7, -15, 29, -54, -37, -16, -43, 65, -17], "withholdReward": false, "trial_id": "mdp_trial_34", "block": "test", "trialIndex": 35, "score": 22.650000000000006, "costs": -19.349999999999998, "simulationMode": [null, null, null, null, null, null], "rewards": [2, -2, -7, -16, 65], "path": ["0", "0", "23", "24", "25", "30", "32"], "rt": [25722, 298, 92, 97, 47, 78], "actions": ["left", "left", "left", "left", "down", "down"], "actionTimes": [26400, 26700, 27296, 27892, 28440, 29020], "queries": {"click": {"state": {"target": ["9", "11", "10", "28", "27", "29", "33", "32", "31"], "time": [1312, 4251, 7189, 9984, 12796, 15582, 18365, 21316, 24242]}, "edge": {"target": [], "time": []}}, "mouseover": {"state": {"target": ["1", "2", "9", "11", "11", "10", "28", "27", "29", "29", "33", "32", "31", "31"], "time": [934, 976, 1122, 1594, 1963, 4570, 7761, 10519, 13154, 13272, 16352, 18917, 21704, 22137]}, "edge": {"target": [], "time": []}}, "mouseout": {"state": {"target": ["23", "0", "1", "2", "9", "11", "11", "10", "28", "27", "29", "29", "33", "32", "31", "31"], "time": [447, 496, 962, 1004, 1553, 1664, 4507, 7552, 10332, 13113, 13197, 16123, 18842, 21544, 22095, 25472]}, "edge": {"target": [], "time": []}}}, "displayed_time": "29.53", "trialTime": 30627, "trial_type": "mouselab-mdp", "trial_index": 42, "time_elapsed": 2400917, "internal_node_id": "0.0-6.0-1.0-33.0"}}, {"uniqueid": "w60949977:a69388156", "current_trial": 43, "dateTime": 1693837043866, "trialdata": {"revealed_states": [], "clicked_states": ["9", "11", "10"], "num_clicks_accrued": [0, 0, 0, 0, 0, 0, 0, 0, 0, 0, 0, 0, 0], "stateRewards": ["", 2, 1, -3, 7, 46, 11, -36, 16, 71, 5, 1, 2, -2, -8, -3, -4, 6, 55, 7, 68, -54, 2, 1, 1, 6, -6, 42, -4, -84, -11, -65, 63, 25], "withholdReward": false, "trial_id": "mdp_trial_35", "block": "test", "trialIndex": 36, "score": 80.55, "costs": -6.449999999999999, "simulationMode": [null, null, null, null, null, null], "rewards": [2, 1, -3, 16, 71], "path": ["0", "0", "1", "2", "3", "8", "9"], "rt": [7224, 237, 187, 103, 127, 302], "actions": ["up", "up", "up", "up", "left", "up"], "actionTimes": [8932, 9171, 9864, 10475, 11111, 11911], "queries": {"click": {"state": {"target": ["9", "11", "10"], "time": [2434, 5345, 8181]}, "edge": {"target": [], "time": []}}, "mouseover": {"state": {"target": ["0", "11", "9", "11", "11", "11", "10"], "time": [1827, 2014, 2341, 2662, 2932, 5142, 5949]}, "edge": {"target": [], "time": []}}, "mouseout": {"state": {"target": ["23", "0", "0", "0", "11", "9", "11", "11", "11", "10", "24", "31", "24", "2", "3", "7", "18", "14", "21"], "time": [419, 1333, 1576, 1855, 2028, 2619, 2716, 4366, 5761, 10954, 12845, 15552, 15576, 15625, 15903, 15945, 15966, 15987, 16209]}, "edge": {"target": [], "time": []}}}, "displayed_time": "15.71", "trialTime": 16530, "trial_type": "mouselab-mdp", "trial_index": 43, "time_elapsed": 2417576, "internal_node_id": "0.0-6.0-1.0-34.0"}}, {"uniqueid": "w60949977:a69388156", "current_trial": 44, "dateTime": 1693837071575, "trialdata": {"revealed_states": [], "clicked_states": ["9", "11", "10", "28", "27", "29", "33", "31"], "num_clicks_accrued": [0, 0, 0, 0, 0, 0, 0, 0, 0, 0, 0, 0, 0], "stateRewards": ["", -2, 1, 6, -2, -10, -78, -69, 14, -15, 7, -1, 1, -1, -2, 13, 77, 32, 87, 5, -74, 30, -26, 1, 3, 4, 12, 39, 54, -43, 2, 10, 23, 13], "withholdReward": false, "trial_id": "mdp_trial_36", "block": "test", "trialIndex": 37, "score": 56.8, "costs": -17.2, "simulationMode": [null, null, null, null, null, null], "rewards": [1, 3, 4, 12, 54], "path": ["0", "0", "23", "24", "25", "26", "28"], "rt": [22512, 440, 114, 57, 357, 175], "actions": ["left", "left", "left", "left", "up", "right"], "actionTimes": [23145, 23586, 24208, 24768, 25631, 26311], "queries": {"click": {"state": {"target": ["9", "11", "10", "28", "27", "29", "33", "31"], "time": [1416, 4343, 7139, 10013, 12784, 15688, 18583, 21352]}, "edge": {"target": [], "time": []}}, "mouseover": {"state": {"target": ["0", "1", "8", "9", "9", "11", "10", "10", "28", "28", "27", "27", "29", "29", "33", "33", "30", "31"], "time": [929, 964, 1006, 1033, 1381, 1687, 4641, 4822, 7547, 7728, 10334, 10529, 13136, 13504, 16493, 16806, 19420, 19538]}, "edge": {"target": [], "time": []}}, "mouseout": {"state": {"target": ["12", "7", "0", "0", "1", "8", "9", "9", "9", "11", "10", "10", "28", "28", "27", "27", "29", "29", "33", "33", "30", "31"], "time": [144, 303, 721, 943, 978, 1019, 1068, 1438, 1631, 4613, 4683, 7493, 7561, 10272, 10376, 13087, 13330, 16278, 16507, 19392, 19517, 23779]}, "edge": {"target": [], "time": []}}}, "displayed_time": "26.82", "trialTime": 27569, "trial_type": "mouselab-mdp", "trial_index": 44, "time_elapsed": 2445285, "internal_node_id": "0.0-6.0-1.0-35.0"}}, {"uniqueid": "w60949977:a69388156", "current_trial": 45, "dateTime": 1693837095660, "trialdata": {"revealed_states": [], "clicked_states": ["9", "11", "10", "28", "27", "29", "33"], "num_clicks_accrued": [0, 0, 0, 0, 0, 0, 0, 0, 0, 0, 0, 0, 0], "stateRewards": ["", 1, -1, 1, 13, 31, -56, 72, 2, 41, 5, 63, -2, -3, -2, 3, -71, -26, 52, 13, -31, 24, -67, 2, -2, 5, 4, 66, 43, 72, 9, 86, -26, 44], "withholdReward": false, "trial_id": "mdp_trial_37", "block": "test", "trialIndex": 38, "score": 65.95, "costs": -15.05, "simulationMode": [null, null, null, null, null, null], "rewards": [2, -2, 5, 4, 72], "path": ["0", "0", "23", "24", "25", "26", "29"], "rt": [18678, 270, 222, 27, 489, 151], "actions": ["left", "left", "left", "left", "up", "left"], "actionTimes": [19473, 19744, 20472, 21009, 22004, 22652], "queries": {"click": {"state": {"target": ["9", "11", "10", "28", "27", "29", "33"], "time": [1544, 4543, 7373, 10183, 13158, 15942, 18831]}, "edge": {"target": [], "time": []}}, "mouseover": {"state": {"target": ["1", "2", "9", "8", "11", "11", "10", "28", "27", "26", "29", "33"], "time": [1160, 1195, 1453, 1757, 1820, 1904, 4950, 8271, 10607, 13575, 13797, 17996]}, "edge": {"target": [], "time": []}}, "mouseout": {"state": {"target": ["0", "1", "2", "9", "8", "11", "11", "10", "28", "27", "26", "29", "33", "25", "30"], "time": [1106, 1181, 1209, 1723, 1764, 1841, 4795, 7812, 10558, 13547, 13603, 17746, 19546, 23523, 23648]}, "edge": {"target": [], "time": []}}}, "displayed_time": "23.16", "trialTime": 23967, "trial_type": "mouselab-mdp", "trial_index": 45, "time_elapsed": 2469371, "internal_node_id": "0.0-6.0-1.0-36.0"}}, {"uniqueid": "w60949977:a69388156", "current_trial": 46, "dateTime": 1693837153558, "trialdata": {"revealed_states": [], "clicked_states": ["9", "11", "10", "28", "27", "29", "33", "32", "31", "22", "21", "20", "17", "18", "16", "7", "6", "5"], "num_clicks_accrued": [0, 0, 0, 0, 0, 0, 0, 0, 0, 0, 0, 0, 0], "stateRewards": ["", -1, 1, 8, -3, -24, 11, -65, -6, -77, 48, 44, -2, 1, -2, -7, -55, -35, 33, 8, -28, 19, -53, -1, -1, -5, -5, -70, 10, 44, 8, -58, -70, 51], "withholdReward": false, "trial_id": "mdp_trial_38", "block": "test", "trialIndex": 39, "score": 13.300000000000011, "costs": -38.69999999999999, "simulationMode": [null, null, null, null, null, null], "rewards": [-1, -1, -5, 8, 51], "path": ["0", "0", "23", "24", "25", "30", "33"], "rt": [51585, 1866, 16, 22, 26, 406], "actions": ["left", "left", "left", "left", "down", "left"], "actionTimes": [52164, 54032, 54548, 55068, 55600, 56508], "queries": {"click": {"state": {"target": ["9", "11", "10", "28", "27", "29", "33", "32", "31", "22", "21", "20", "17", "18", "16", "7", "6", "5"], "time": [1123, 3977, 6745, 9570, 12440, 15355, 18147, 21125, 23914, 27701, 30708, 33811, 36750, 39749, 42582, 45380, 48161, 50925]}, "edge": {"target": [], "time": []}}, "mouseover": {"state": {"target": ["1", "2", "9", "11", "10", "28", "27", "27", "29", "33", "32", "31", "31", "33", "33", "30", "22", "21", "20", "20", "17", "17", "15", "18", "18", "16", "16", "7", "7", "6", "4", "5", "4"], "time": [727, 769, 971, 1415, 4816, 7268, 10070, 10320, 12899, 16729, 18884, 21449, 21693, 25287, 27108, 27128, 27553, 27970, 31062, 31243, 34420, 34747, 37069, 37096, 37458, 40051, 40405, 43053, 43561, 45820, 48642, 48934, 51429]}, "edge": {"target": [], "time": []}}, "mouseout": {"state": {"target": ["24", "23", "1", "2", "9", "9", "11", "10", "28", "27", "27", "29", "29", "33", "32", "31", "31", "33", "33", "30", "22", "21", "20", "20", "17", "17", "15", "18", "18", "16", "16", "7", "7", "6", "4", "5", "5", "4", "12"], "time": [282, 379, 755, 783, 1204, 1325, 4476, 7220, 10014, 10119, 12698, 15902, 16055, 18717, 21241, 21519, 24647, 25363, 27115, 27142, 27935, 30986, 31090, 34128, 34496, 37054, 37082, 37124, 39995, 40120, 42963, 43373, 45746, 48621, 48649, 51033, 51395, 51441, 57144]}, "edge": {"target": [], "time": []}}}, "displayed_time": "57.01", "trialTime": 57756, "trial_type": "mouselab-mdp", "trial_index": 46, "time_elapsed": 2527268, "internal_node_id": "0.0-6.0-1.0-37.0"}}, {"uniqueid": "w60949977:a69388156", "current_trial": 47, "dateTime": 1693837179764, "trialdata": {"revealed_states": [], "clicked_states": ["9", "11", "10", "28", "27", "29", "33", "32"], "num_clicks_accrued": [0, 0, 0, 0, 0, 0, 0, 0, 0, 0, 0, 0, 0], "stateRewards": ["", 2, -4, 7, 3, 23, -42, 4, 7, -81, -33, 7, -2, -4, 5, -1, 50, -57, -14, -13, -14, 44, 55, -2, -2, 5, -2, 33, 1, 57, -13, -7, 58, 87], "withholdReward": false, "trial_id": "mdp_trial_39", "block": "test", "trialIndex": 40, "score": 57.8, "costs": -17.2, "simulationMode": [null, null, null, null, null, null], "rewards": [-2, -2, 5, -13, 87], "path": ["0", "0", "23", "24", "25", "30", "33"], "rt": [21473, 241, 210, 55, 15, 22], "actions": ["left", "left", "left", "left", "down", "left"], "actionTimes": [22102, 22345, 23054, 23615, 24138, 24666], "queries": {"click": {"state": {"target": ["9", "11", "10", "28", "27", "29", "33", "32"], "time": [1232, 4182, 6959, 9917, 12877, 15772, 18682, 21490]}, "edge": {"target": [], "time": []}}, "mouseover": {"state": {"target": ["1", "9", "11", "11", "10", "10", "28", "27", "27", "29", "33", "32"], "time": [771, 1154, 1550, 1765, 4470, 4581, 7709, 10247, 10462, 13527, 16829, 19770]}, "edge": {"target": [], "time": []}}, "mouseout": {"state": {"target": ["1", "9", "11", "11", "10", "10", "10", "28", "27", "27", "27", "29", "33", "32"], "time": [792, 1484, 1571, 4400, 4504, 7362, 7594, 10198, 10281, 13110, 13360, 16016, 19714, 25521]}, "edge": {"target": [], "time": []}}}, "displayed_time": "25.17", "trialTime": 26082, "trial_type": "mouselab-mdp", "trial_index": 47, "time_elapsed": 2553475, "internal_node_id": "0.0-6.0-1.0-38.0"}}, {"uniqueid": "w60949977:a69388156", "current_trial": 48, "dateTime": 1693837206885, "trialdata": {"revealed_states": [], "clicked_states": ["9", "11", "10", "27", "29", "33", "32", "31"], "num_clicks_accrued": [0, 0, 0, 0, 0, 0, 0, 0, 0, 0, 0, 0, 0], "stateRewards": ["", -2, 1, -8, 12, -65, -79, 16, 7, -80, -17, -45, -2, 2, -5, -2, -85, 23, -4, -7, 48, 27, -76, 2, 3, 5, 2, 43, 71, -13, 7, -49, 59, -31], "withholdReward": false, "trial_id": "mdp_trial_40", "block": "test", "trialIndex": 41, "score": 58.8, "costs": -17.2, "simulationMode": [null, null, null, null, null, null], "rewards": [2, 3, 5, 7, 59], "path": ["0", "0", "23", "24", "25", "30", "32"], "rt": [21810, 247, 13, 181, 369, 159], "actions": ["left", "left", "left", "left", "down", "down"], "actionTimes": [22715, 22964, 23487, 24173, 25051, 25715], "queries": {"click": {"state": {"target": ["9", "11", "10", "27", "29", "33", "32", "31"], "time": [1545, 4437, 7277, 10152, 13039, 16032, 19021, 22008]}, "edge": {"target": [], "time": []}}, "mouseover": {"state": {"target": ["1", "2", "9", "11", "11", "10", "27", "29", "33", "32", "31"], "time": [1128, 1170, 1441, 1927, 3769, 4944, 8274, 11124, 15594, 16706, 19473]}, "edge": {"target": [], "time": []}}, "mouseout": {"state": {"target": ["0", "1", "2", "9", "9", "11", "11", "10", "27", "29", "29", "33", "32", "31"], "time": [349, 1155, 1190, 1642, 1809, 3463, 4819, 7746, 10617, 14340, 15038, 16394, 19348, 23672]}, "edge": {"target": [], "time": []}}}, "displayed_time": "26.22", "trialTime": 26977, "trial_type": "mouselab-mdp", "trial_index": 48, "time_elapsed": 2580596, "internal_node_id": "0.0-6.0-1.0-39.0"}}, {"uniqueid": "w60949977:a69388156", "current_trial": 49, "dateTime": 1693837243696, "trialdata": {"rt": 36808, "response": {"Q0": "$-2 to $2", "Q1": "$-16 to $16", "Q2": "$-88 to $88", "Q3": "The cost for clicking on nodes varied between nodes.", "Q4": "Slightly motivated"}, "question_order": [0, 1, 2, 3, 4], "trial_id": "final_quiz_control", "trial_type": "survey-multi-choice", "trial_index": 49, "time_elapsed": 2617407, "internal_node_id": "0.0-6.0-2.0"}}, {"uniqueid": "w60949977:a69388156", "current_trial": 50, "dateTime": 1693837284285, "trialdata": {"rt": 40586, "response": {"Q0": "I just tartgeted the final nodes and looked for a high number and headed to it", "Q1": "not once I realised 88 seemed the highest number", "Q2": "no"}, "trial_id": "self_report_control", "trial_type": "survey-text", "trial_index": 50, "time_elapsed": 2657996, "internal_node_id": "0.0-6.0-3.0"}}, {"uniqueid": "w60949977:a69388156", "current_trial": 51, "dateTime": 1693837315085, "trialdata": {"rt": 30797, "response": {"Q0": "Strongly disagree", "Q1": "Neither disagree nor agree", "Q2": "Neither disagree nor agree", "Q3": "Neither disagree nor agree", "Q4": "Neither disagree nor agree", "Q5": "Neither disagree nor agree", "Q6": "Neither disagree nor agree"}, "question_order": [0, 1, 2, 3, 4, 5, 6], "trial_id": "self_report_2", "trial_type": "survey-multi-choice", "trial_index": 51, "time_elapsed": 2688796, "internal_node_id": "0.0-6.0-4.0"}}, {"uniqueid": "w60949977:a69388156", "current_trial": 52, "dateTime": 1693837323946, "trialdata": {"rt": 8858, "response": {"gender": "male", "age": "37", "colorblind": "0", "effort": "0"}, "trial_type": "survey-html-form", "trial_index": 52, "time_elapsed": 2697656, "internal_node_id": "0.0-6.0-5.0"}}, {"uniqueid": "w60949977:a69388156", "current_trial": 53, "dateTime": 1693837332110, "trialdata": {"rt": 8162, "response": {"Q0": "", "Q1": "no", "Q2": ""}, "trial_type": "survey-text", "trial_index": 53, "time_elapsed": 2705821, "internal_node_id": "0.0-6.0-6.0"}}, {"uniqueid": "w60949977:a69388156", "current_trial": 54, "dateTime": 1693837356379, "trialdata": {"rt": 24266, "stimulus": "<h1>Completion Code Instructions (1/2)</h1>\n<br><br><br><br>\nYou have reached the end of the experiment! The completion code consists of two parts: (1) a code with 2 characters (2) a code with 6 characters. On this page, you will receive the second part of the code. The first part of the completion code will be on the next page.\n<br><br>\nThe second part of your completion code is: <b>EWEK22</b>\n<br><br>\nPlease note this down. Then, press 'Next' in order to find the first part of your completion code. Once the data has been saved, you will receive this code either in this window or in the original browser window where you started the experiment.\n <br><br>\n<h2 style='color: red;'>Note: this is <strong>NOT</strong> the full completion code. Copy this down and click 'Next' to get the full completion code on the next page.</h2>", "response": 0, "trial_type": "html-button-response", "trial_index": 54, "time_elapsed": 2730090, "internal_node_id": "0.0-6.0-7.0"}}, {"uniqueid": "w60949977:a69388156", "current_trial": 55, "dateTime": 1693837357381, "trialdata": {"success": true, "trial_type": "fullscreen", "trial_index": 55, "time_elapsed": 2731092, "internal_node_id": "0.0-7.0"}}], "questiondata": {"params": {"CODE": "C6DMOQA6", "MIN_TIME": 14, "inspectCost": 1, "startTime": "Mon Sep 04 2023 14:37:05 GMT+0100 (British Summer Time)", "bonusRate": 0.002, "variance": "1_2_4_8_44", "branching": "31123"}, "final_score": 2171.1}, "eventdata": [{"eventtype": "initialized", "value": null, "timestamp": 1693834625135, "interval": 0}, {"eventtype": "window_resize", "value": [1278, 1325], "timestamp": 1693834625135, "interval": 0}, {"eventtype": "window_resize", "value": [1278, 1325], "timestamp": 1693834625462, "interval": 327}, {"eventtype": "focus", "value": "off", "timestamp": 1693834628214, "interval": 2752}, {"eventtype": "focus", "value": "on", "timestamp": 1693834636287, "interval": 8073}, {"eventtype": "window_resize", "value": [1024, 767], "timestamp": 1693834636755, "interval": 468}, {"eventtype": "focus", "value": "off", "timestamp": 1693834637739, "interval": 984}, {"eventtype": "focus", "value": "on", "timestamp": 1693834639219, "interval": 1480}, {"eventtype": "window_resize", "value": [1278, 1325], "timestamp": 1693834640466, "interval": 1247}, {"eventtype": "focus", "value": "off", "timestamp": 1693834910845, "interval": 270379}, {"eventtype": "focus", "value": "on", "timestamp": 1693835781529, "interval": 870684}, {"eventtype": "window_resize", "value": [2560, 1440], "timestamp": 1693835781784, "interval": 255}, {"eventtype": "focus", "value": "off", "timestamp": 1693835846377, "interval": 64593}, {"eventtype": "window_resize", "value": [2560, 1439], "timestamp": 1693835846581, "interval": 204}, {"eventtype": "focus", "value": "on", "timestamp": 1693835847737, "interval": 1156}, {"eventtype": "window_resize", "value": [2560, 1440], "timestamp": 1693835847943, "interval": 206}, {"eventtype": "window_resize", "value": [1278, 1325], "timestamp": 1693835849748, "interval": 1805}, {"eventtype": "window_resize", "value": [2560, 1334], "timestamp": 1693835857202, "interval": 7454}, {"eventtype": "focus", "value": "off", "timestamp": 1693835862117, "interval": 4915}, {"eventtype": "focus", "value": "on", "timestamp": 1693835862120, "interval": 3}], "useragent": "Mozilla/5.0 (Windows NT 10.0; Win64; x64) AppleWebKit/537.36 (KHTML, like Gecko) Chrome/116.0.0.0 Safari/537.36", "mode": "live", "id": "w60949977:a69388156", "status": "user data saved", "Beginhit": "2023-09-04 13:37:04.106934", "Beginexp": "2023-09-04 13:56:22.890158", "Endhit": "2023-09-04 14:22:38.083438", "psiturkStatus": 3, "browser": "<redacted>", "platform": "windows", "language": "en-US"}