{"condition": 1, "counterbalance": 0, "assignmentId": "a35565455", "workerId": "w21696427", "hitId": "h19945019", "currenttrial": 56, "bonus": 0, "data": [{"uniqueid": "w21696427:a35565455", "current_trial": 0, "dateTime": 1693663075561, "trialdata": {"success": true, "trial_type": "fullscreen", "trial_index": 0, "time_elapsed": 9231, "internal_node_id": "0.0-0.0"}}, {"uniqueid": "w21696427:a35565455", "current_trial": 1, "dateTime": 1693663124136, "trialdata": {"view_history": [{"page_index": 0, "viewing_time": 48536}], "rt": 48540, "trial_id": "exp_instructions_misaligned", "trial_type": "instructions", "trial_index": 1, "time_elapsed": 57807, "internal_node_id": "0.0-1.0"}}, {"uniqueid": "w21696427:a35565455", "current_trial": 2, "dateTime": 1693663533120, "trialdata": {"view_history": [{"page_index": 0, "viewing_time": 103270}, {"page_index": 1, "viewing_time": 188953}, {"page_index": 2, "viewing_time": 37153}, {"page_index": 3, "viewing_time": 79589}], "rt": 408966, "trial_id": "mouselab_instructions_1_misaligned", "trial_type": "instructions", "trial_index": 2, "time_elapsed": 466791, "internal_node_id": "0.0-2.0-1.0"}}, {"uniqueid": "w21696427:a35565455", "current_trial": 3, "dateTime": 1693663568309, "trialdata": {"revealed_states": [], "clicked_states": ["1", "2", "10", "8", "23", "12", "24", "25", "26", "29"], "num_clicks_accrued": [0, 0, 0, 0, 0, 0, 0, 0, 0, 0, 0, 0, 0], "stateRewards": ["", 10, -10, -10, 10, -10, -10, 10, 10, 10, -10, -10, -10, -10, 10, 10, 10, 10, -10, -10, -10, 10, 10, 10, 10, -10, 10, -10, -10, -10, -10, 10, -10, 10], "withholdReward": false, "trial_id": "practice_1", "block": "test", "trialIndex": 0, "score": 8.5, "costs": -5, "simulationMode": [null, null, null, null, null], "rewards": [10, 10, -10, 10, -10], "path": ["0", "0", "23", "24", "25", "26", "29"], "rt": [23072, 276, 418, 94, 148], "actions": ["left", "left", "left", "up", "left"], "actionTimes": [25993, 26802, 27739, 28408, 29089], "queries": {"click": {"state": {"target": ["1", "2", "10", "8", "23", "12", "24", "25", "26", "29"], "time": [5277, 6860, 8654, 10896, 12762, 14449, 16546, 18367, 20446, 22331]}, "edge": {"target": [], "time": []}}, "mouseover": {"state": {"target": ["1", "1", "1", "2", "10", "8", "24", "23", "12", "24", "24", "25", "26", "29"], "time": [3981, 4176, 4479, 6088, 8056, 10324, 12129, 12413, 13990, 15579, 16156, 17776, 19934, 21922]}, "edge": {"target": [], "time": []}}, "mouseout": {"state": {"target": ["0", "1", "1", "1", "2", "10", "8", "24", "23", "23", "12", "24", "24", "25", "26", "29", "26", "12", "14", "20"], "time": [3882, 4043, 4225, 5416, 7848, 10213, 11597, 12223, 13405, 13704, 15496, 15615, 17510, 19683, 21857, 24024, 24079, 31079, 31142, 31191]}, "edge": {"target": [], "time": []}}}, "displayed_time": "29.64", "trialTime": 32914, "trial_type": "mouselab-mdp", "trial_index": 3, "time_elapsed": 501974, "internal_node_id": "0.0-2.0-2.0-0.0"}}, {"uniqueid": "w21696427:a35565455", "current_trial": 4, "dateTime": 1693663621378, "trialdata": {"revealed_states": [], "clicked_states": ["12", "23", "24", "25", "30", "33", "26", "13", "14", "15", "19", "1", "2", "7", "3", "4"], "num_clicks_accrued": [0, 0, 0, 0, 0, 0, 0, 0, 0, 0, 0, 0, 0], "stateRewards": ["", -10, -10, 10, -10, -10, 10, 10, -10, -10, -10, 10, -10, 10, -10, -10, 10, -10, 10, -10, 10, -10, -10, 10, -10, 10, -10, -10, 10, 10, -10, 10, -10, -10], "withholdReward": false, "trial_id": "practice_2", "block": "test", "trialIndex": 1, "score": -34.5, "costs": -8, "simulationMode": [null, null, null, null, null], "rewards": [-10, -10, 10, -10, -10], "path": ["0", "0", "1", "2", "3", "4", "5"], "rt": [38330, 100, 117, 40, 29], "actions": ["up", "up", "up", "right", "up"], "actionTimes": [41305, 41942, 42610, 43181, 43768], "queries": {"click": {"state": {"target": ["12", "23", "24", "25", "30", "33", "26", "13", "14", "15", "19", "1", "2", "7", "3", "4"], "time": [4295, 7018, 9293, 11097, 12952, 14871, 16881, 20478, 22649, 24574, 26741, 29530, 31171, 33343, 35365, 37341]}, "edge": {"target": [], "time": []}}, "mouseover": {"state": {"target": ["12", "13", "23", "24", "25", "30", "33", "24", "26", "29", "28", "12", "13", "13", "14", "15", "19", "20", "13", "1", "2", "7", "3", "4", "2", "1", "1"], "time": [3779, 5533, 6653, 8917, 10228, 12518, 14518, 15771, 16241, 18528, 19133, 19482, 19818, 20033, 22269, 24042, 26239, 28070, 28768, 29108, 30125, 32932, 34933, 37040, 39975, 40122, 40502]}, "edge": {"target": [], "time": []}}, "mouseout": {"state": {"target": ["20", "13", "12", "0", "12", "13", "12", "23", "24", "25", "25", "30", "33", "24", "26", "29", "28", "12", "13", "13", "14", "15", "14", "19", "20", "13", "1", "2", "7", "3", "4", "4", "2", "1", "1"], "time": [1061, 1100, 1138, 3699, 5318, 6307, 6385, 7838, 10004, 11675, 12418, 14116, 15422, 15825, 18435, 19086, 19164, 19529, 19964, 21785, 23407, 25533, 26205, 27733, 28431, 28803, 29875, 32604, 34801, 36740, 37883, 39553, 40022, 40178, 40540]}, "edge": {"target": [], "time": []}}}, "displayed_time": "44.33", "trialTime": 51467, "trial_type": "mouselab-mdp", "trial_index": 4, "time_elapsed": 555047, "internal_node_id": "0.0-2.0-2.0-1.0"}}, {"uniqueid": "w21696427:a35565455", "current_trial": 5, "dateTime": 1693663700604, "trialdata": {"view_history": [{"page_index": 0, "viewing_time": 53401}, {"page_index": 1, "viewing_time": 25806}], "rt": 79209, "trial_id": "mouselab_instructions_2_misaligned", "trial_type": "instructions", "trial_index": 5, "time_elapsed": 634274, "internal_node_id": "0.0-2.0-3.0"}}, {"uniqueid": "w21696427:a35565455", "current_trial": 6, "dateTime": 1693663747343, "trialdata": {"rt": 46711, "response": {"Q0": "The cost for clicking on nodes may vary between nodes.", "Q1": "The better I perform the higher my bonus will be.", "Q2": "No, the amount of cash at each node of the web may be different each time.", "Q3": "To get the highest total score.", "Q4": "Only before moving the spider.", "Q5": "3 seconds"}, "question_order": [0, 1, 2, 3, 4, 5], "correct": {"Q0": "The cost for clicking on nodes may vary between nodes.", "Q1": "The better I perform the higher my bonus will be.", "Q2": "No, the amount of cash at each node of the web may be different each time.", "Q3": "To get the highest total score.", "Q4": "Only before moving the spider.", "Q5": "3 seconds"}, "trial_id": "mouselab_quiz_misaligned", "trial_type": "survey-multi-choice", "trial_index": 6, "time_elapsed": 681013, "internal_node_id": "0.0-2.0-4.0"}}, {"uniqueid": "w21696427:a35565455", "current_trial": 7, "dateTime": 1693663779425, "trialdata": {"rt": 32051, "response": {"Q0": "No"}, "question_order": [0], "trial_id": "repeat_check", "trial_type": "survey-multi-choice", "trial_index": 7, "time_elapsed": 713094, "internal_node_id": "0.0-4.0-0.0"}}, {"uniqueid": "w21696427:a35565455", "current_trial": 8, "dateTime": 1693663796524, "trialdata": {"rt": 17069, "stimulus": "\n<h1> Get ready to start the game! </h1>\n\nThank you for reading the instructions. Get ready start with the 40 rounds of this game.\n<br><br>\nIf you need to take a break, feel free to take one after the end of a round, before continuing to the next one.\n<br><br>\nRemember, the more money the spider gets, the bigger your bonus will be!\n<br><br>\n<div style='text-align: center;'>Press <code>space</code> to begin.</div>\n\n<br><br>\n(If, at any point, the <code>space</code> key does not take you to the next page, click once on the text and try again.)", "response": " ", "trial_id": "mdp_ready", "trial_type": "html-keyboard-response", "trial_index": 8, "time_elapsed": 730195, "internal_node_id": "0.0-6.0-0.0"}}, {"uniqueid": "w21696427:a35565455", "current_trial": 9, "dateTime": 1693663820904, "trialdata": {"revealed_states": [], "clicked_states": ["23", "24", "25", "26", "29"], "num_clicks_accrued": [0, 0, 0, 0, 0, 0, 0, 0, 0, 0, 0, 0, 0], "stateRewards": ["", -1, 2, -6, 6, 43, 78, 78, -2, 55, -29, -17, -2, -4, 1, -15, 13, 7, -79, 8, -28, -68, 36, -1, -3, 3, -16, 84, -18, 87, 10, 32, 13, -81], "withholdReward": false, "trial_id": "mdp_trial_1", "block": "test", "trialIndex": 2, "score": 65.25, "costs": -4.75, "simulationMode": [null, null, null, null, null], "rewards": [-1, -3, 3, -16, 87], "path": ["0", "0", "23", "24", "25", "26", "29"], "rt": [13220, 31, 71, 12, 7], "actions": ["left", "left", "left", "up", "left"], "actionTimes": [16740, 17315, 17923, 18504, 19073], "queries": {"click": {"state": {"target": ["23", "24", "25", "26", "29"], "time": [4955, 6453, 8088, 9674, 11160]}, "edge": {"target": [], "time": []}}, "mouseover": {"state": {"target": ["0", "23", "24", "25", "26", "29", "30", "30", "23"], "time": [4254, 4360, 5770, 6943, 8688, 10553, 12982, 14494, 15980]}, "edge": {"target": [], "time": []}}, "mouseout": {"state": {"target": ["1", "0", "23", "0", "0", "23", "24", "25", "26", "29", "26", "30", "30", "23"], "time": [1275, 1403, 1726, 1776, 4302, 5420, 6874, 8525, 9808, 11799, 12297, 14137, 15317, 16033]}, "edge": {"target": [], "time": []}}}, "displayed_time": "19.62", "trialTime": 22309, "trial_type": "mouselab-mdp", "trial_index": 9, "time_elapsed": 754574, "internal_node_id": "0.0-6.0-1.0-0.0"}}, {"uniqueid": "w21696427:a35565455", "current_trial": 10, "dateTime": 1693663855800, "trialdata": {"revealed_states": [], "clicked_states": ["12", "13", "14", "15", "17", "19", "20"], "num_clicks_accrued": [0, 0, 0, 0, 0, 0, 0, 0, 0, 0, 0, 0, 0], "stateRewards": ["", -2, 2, -1, -6, 22, 6, 6, -5, 70, -42, 65, 1, 3, 5, -6, -67, -9, 3, 14, 7, -62, -13, -2, 4, 1, 16, 42, -21, -52, -8, 32, 53, 81], "withholdReward": false, "trial_id": "mdp_trial_2", "block": "test", "trialIndex": 3, "score": 21.55, "costs": -8.45, "simulationMode": [null, null, null, null, null, null], "rewards": [1, 3, 5, 14, 7], "path": ["0", "0", "12", "13", "14", "19", "20"], "rt": [13610, 700, 217, 93, 64, 126], "actions": ["right", "right", "right", "right", "down", "right"], "actionTimes": [16251, 16967, 17721, 18339, 18955, 19612], "queries": {"click": {"state": {"target": ["12", "13", "14", "15", "17", "19", "20"], "time": [4296, 5460, 6838, 8111, 9383, 12669, 14048]}, "edge": {"target": [], "time": []}}, "mouseover": {"state": {"target": ["12", "13", "14", "14", "15", "17", "17", "19", "20", "20"], "time": [3777, 4952, 5919, 6317, 7646, 8716, 8929, 11463, 13278, 13580]}, "edge": {"target": [], "time": []}}, "mouseout": {"state": {"target": ["0", "12", "12", "13", "14", "14", "15", "15", "17", "17", "19", "20", "20"], "time": [3562, 4411, 4624, 5864, 5983, 7487, 8237, 8647, 8769, 10152, 13261, 13334, 14771]}, "edge": {"target": [], "time": []}}}, "displayed_time": "20.14", "trialTime": 32927, "trial_type": "mouselab-mdp", "trial_index": 10, "time_elapsed": 789465, "internal_node_id": "0.0-6.0-1.0-1.0"}}, {"uniqueid": "w21696427:a35565455", "current_trial": 11, "dateTime": 1693663888229, "trialdata": {"revealed_states": [], "clicked_states": ["1", "2", "7", "4", "12", "13", "14", "15", "17"], "num_clicks_accrued": [0, 0, 0, 0, 0, 0, 0, 0, 0, 0, 0, 0, 0], "stateRewards": ["", 2, -1, 8, -2, -16, 69, -39, -7, -13, -27, -86, 2, -2, 2, 13, -34, -16, -20, -5, 19, 81, 32, -2, -1, 2, -14, 20, 80, 58, 4, 70, 12, 73], "withholdReward": false, "trial_id": "mdp_trial_3", "block": "test", "trialIndex": 4, "score": -27.549999999999997, "costs": -8.549999999999999, "simulationMode": [null, null, null, null, null], "rewards": [2, -2, 2, 13, -34], "path": ["0", "0", "12", "13", "14", "15", "16"], "rt": [17261, 275, 66, 619, 54], "actions": ["right", "right", "right", "up", "up"], "actionTimes": [20286, 21126, 21747, 22928, 23518], "queries": {"click": {"state": {"target": ["1", "2", "7", "4", "12", "13", "14", "15", "17"], "time": [4442, 5693, 7305, 10897, 12549, 13765, 15018, 16282, 17496]}, "edge": {"target": [], "time": []}}, "mouseover": {"state": {"target": ["1", "2", "7", "4", "12", "12", "13", "14", "15", "17"], "time": [3975, 5158, 6839, 8551, 11533, 11913, 13167, 14308, 15807, 17061]}, "edge": {"target": [], "time": []}}, "mouseout": {"state": {"target": ["13", "12", "0", "1", "2", "7", "4", "12", "12", "13", "14", "15", "17"], "time": [706, 746, 3730, 4830, 6701, 7932, 11478, 11641, 12647, 14248, 15746, 16415, 18122]}, "edge": {"target": [], "time": []}}}, "displayed_time": "24.10", "trialTime": 30366, "trial_type": "mouselab-mdp", "trial_index": 11, "time_elapsed": 821893, "internal_node_id": "0.0-6.0-1.0-2.0"}}, {"uniqueid": "w21696427:a35565455", "current_trial": 12, "dateTime": 1693663931037, "trialdata": {"revealed_states": [], "clicked_states": ["12", "13", "14", "19", "15", "23", "24", "25", "30", "31", "32", "33"], "num_clicks_accrued": [0, 0, 0, 0, 0, 0, 0, 0, 0, 0, 0, 0, 0], "stateRewards": ["", 1, 4, -8, -5, -15, -7, 21, 13, -30, 40, -65, 1, 1, 5, -14, 35, 27, -38, -11, 36, -58, -47, -2, 4, -3, 13, -16, -49, 22, 15, -56, -44, -10], "withholdReward": false, "trial_id": "mdp_trial_4", "block": "test", "trialIndex": 5, "score": -50.2, "costs": -13.2, "simulationMode": [null, null, null, null, null], "rewards": [-2, 4, -3, 13, -49], "path": ["0", "0", "23", "24", "25", "26", "28"], "rt": [27089, 46, 6, 11, 31], "actions": ["left", "left", "left", "up", "right"], "actionTimes": [30798, 31390, 31948, 32527, 33116], "queries": {"click": {"state": {"target": ["12", "13", "14", "19", "15", "23", "24", "25", "30", "31", "32", "33"], "time": [5649, 6677, 7751, 8856, 11229, 13245, 15375, 16559, 17633, 19559, 23402, 27615]}, "edge": {"target": [], "time": []}}, "mouseover": {"state": {"target": ["12", "13", "14", "19", "15", "23", "24", "24", "25", "30", "31", "32", "30", "30", "33", "31"], "time": [4725, 6330, 7341, 8366, 10805, 12858, 13941, 15009, 15921, 17206, 19165, 21132, 24812, 26540, 27138, 28238]}, "edge": {"target": [], "time": []}}, "mouseout": {"state": {"target": ["14", "13", "0", "12", "13", "14", "19", "19", "19", "14", "15", "23", "24", "24", "25", "30", "30", "25", "30", "31", "30", "32", "30", "32", "30", "33", "31"], "time": [1709, 1743, 4655, 6071, 7216, 8291, 9598, 9948, 10445, 10742, 12174, 13378, 14330, 15815, 16894, 17727, 18295, 18542, 19007, 20454, 20713, 24074, 24931, 26455, 27039, 28219, 28291]}, "edge": {"target": [], "time": []}}}, "displayed_time": "33.63", "trialTime": 40793, "trial_type": "mouselab-mdp", "trial_index": 12, "time_elapsed": 864703, "internal_node_id": "0.0-6.0-1.0-3.0"}}, {"uniqueid": "w21696427:a35565455", "current_trial": 13, "dateTime": 1693663965812, "trialdata": {"revealed_states": [], "clicked_states": ["12", "13", "14", "15", "17"], "num_clicks_accrued": [0, 0, 0, 0, 0, 0, 0, 0, 0, 0, 0, 0, 0], "stateRewards": ["", -1, -1, 7, -15, -43, -21, -84, -9, -45, -66, 2, 1, -2, 2, 8, -27, 44, -52, -5, -84, 11, 53, 1, 4, -4, 16, 83, -82, -15, -16, 68, -43, 81], "withholdReward": false, "trial_id": "mdp_trial_5", "block": "test", "trialIndex": 6, "score": 48.25, "costs": -4.75, "simulationMode": [null, null, null, null, null], "rewards": [1, -2, 2, 8, 44], "path": ["0", "0", "12", "13", "14", "15", "17"], "rt": [10960, 523, 170, 27, 40], "actions": ["right", "right", "right", "up", "right"], "actionTimes": [14142, 15203, 15921, 16547, 17142], "queries": {"click": {"state": {"target": ["12", "13", "14", "15", "17"], "time": [4950, 6060, 7417, 8812, 10047]}, "edge": {"target": [], "time": []}}, "mouseover": {"state": {"target": ["12", "13", "14", "15", "17", "16"], "time": [4322, 5555, 6785, 8383, 9601, 11975]}, "edge": {"target": [], "time": []}}, "mouseout": {"state": {"target": ["0", "12", "13", "14", "15", "17"], "time": [4225, 5347, 6683, 7972, 9540, 11570]}, "edge": {"target": [], "time": []}}}, "displayed_time": "17.71", "trialTime": 32452, "trial_type": "mouselab-mdp", "trial_index": 13, "time_elapsed": 899477, "internal_node_id": "0.0-6.0-1.0-4.0"}}, {"uniqueid": "w21696427:a35565455", "current_trial": 14, "dateTime": 1693664001025, "trialdata": {"revealed_states": [], "clicked_states": ["12", "13", "14", "19", "15", "16"], "num_clicks_accrued": [0, 0, 0, 0, 0, 0, 0, 0, 0, 0, 0, 0, 0], "stateRewards": ["", -1, 3, 8, 10, -86, 61, -36, 10, 17, -60, 24, -1, -3, 3, 11, 50, 60, 33, -3, -20, 58, -6, 1, -4, -4, 13, -70, -71, 43, 14, 52, 82, -11], "withholdReward": false, "trial_id": "mdp_trial_6", "block": "test", "trialIndex": 7, "score": 53.7, "costs": -6.299999999999999, "simulationMode": [null, null, null, null, null], "rewards": [-1, -3, 3, 11, 50], "path": ["0", "0", "12", "13", "14", "15", "16"], "rt": [11888, 13, 7, 394, 54], "actions": ["right", "right", "right", "up", "up"], "actionTimes": [14705, 15264, 15875, 16855, 17440], "queries": {"click": {"state": {"target": ["12", "13", "14", "19", "15", "16"], "time": [4264, 5248, 6420, 7527, 9262, 10597]}, "edge": {"target": [], "time": []}}, "mouseover": {"state": {"target": ["12", "13", "14", "19", "15", "16", "17"], "time": [3768, 4820, 5944, 7077, 8786, 10104, 12279]}, "edge": {"target": [], "time": []}}, "mouseout": {"state": {"target": ["16", "0", "0", "12", "13", "14", "19", "14", "15", "16", "17"], "time": [554, 700, 3712, 4658, 5839, 6935, 8440, 8515, 10008, 11993, 32365]}, "edge": {"target": [], "time": []}}}, "displayed_time": "18.05", "trialTime": 33050, "trial_type": "mouselab-mdp", "trial_index": 14, "time_elapsed": 934692, "internal_node_id": "0.0-6.0-1.0-5.0"}}, {"uniqueid": "w21696427:a35565455", "current_trial": 15, "dateTime": 1693664047214, "trialdata": {"revealed_states": [], "clicked_states": ["1", "23", "24", "25", "26", "29", "28", "27"], "num_clicks_accrued": [0, 0, 0, 0, 0, 0, 0, 0, 0, 0, 0, 0, 0], "stateRewards": ["", -2, 1, -5, 2, -68, 80, 33, 10, 67, -59, 20, -1, -3, 3, 14, 74, -2, 24, -16, 63, 80, 46, -1, 4, 6, 12, 83, -38, -43, -4, 43, 14, -79], "withholdReward": false, "trial_id": "mdp_trial_7", "block": "test", "trialIndex": 8, "score": 95.2, "costs": -8.8, "simulationMode": [null, null, null, null, null], "rewards": [-1, 4, 6, 12, 83], "path": ["0", "0", "23", "24", "25", "26", "27"], "rt": [19119, 191, 235, 468, 102], "actions": ["left", "left", "left", "up", "up"], "actionTimes": [22118, 22858, 23654, 24668, 25307], "queries": {"click": {"state": {"target": ["1", "23", "24", "25", "26", "29", "28", "27"], "time": [4708, 6402, 7647, 8844, 10169, 11570, 15063, 18513]}, "edge": {"target": [], "time": []}}, "mouseover": {"state": {"target": ["23", "1", "23", "24", "25", "26", "29", "28", "27", "23"], "time": [3958, 4235, 5769, 7126, 8216, 9584, 11214, 13056, 15903, 19222]}, "edge": {"target": [], "time": []}}, "mouseout": {"state": {"target": ["12", "0", "23", "1", "23", "24", "25", "26", "29", "26", "28", "27"], "time": [1016, 3815, 4008, 5418, 6502, 7754, 9520, 11143, 12121, 12755, 15799, 19005]}, "edge": {"target": [], "time": []}}}, "displayed_time": "25.84", "trialTime": 43807, "trial_type": "mouselab-mdp", "trial_index": 15, "time_elapsed": 980882, "internal_node_id": "0.0-6.0-1.0-6.0"}}, {"uniqueid": "w21696427:a35565455", "current_trial": 16, "dateTime": 1693664072846, "trialdata": {"revealed_states": [], "clicked_states": ["12", "13", "14", "19", "20"], "num_clicks_accrued": [0, 0, 0, 0, 0, 0, 0, 0, 0, 0, 0, 0, 0], "stateRewards": ["", -1, 2, 5, -6, 13, -64, -47, 8, -79, -80, -33, 1, 2, -2, -16, 56, -71, -10, 3, 29, 44, 85, -1, 4, 5, 4, -36, -56, 19, 8, 52, -13, -2], "withholdReward": false, "trial_id": "mdp_trial_8", "block": "test", "trialIndex": 9, "score": 28.25, "costs": -4.75, "simulationMode": [null, null, null, null, null], "rewards": [1, 2, -2, 3, 29], "path": ["0", "0", "12", "13", "14", "19", "20"], "rt": [11386, 97, 195, 125, 129], "actions": ["right", "right", "right", "down", "right"], "actionTimes": [16848, 17506, 18238, 18887, 19561], "queries": {"click": {"state": {"target": ["12", "13", "14", "19", "20"], "time": [7336, 8379, 9616, 10900, 12582]}, "edge": {"target": [], "time": []}}, "mouseover": {"state": {"target": ["12", "13", "14", "14", "19", "20", "19", "22"], "time": [6799, 8017, 8859, 9213, 10533, 12123, 14342, 14959]}, "edge": {"target": [], "time": []}}, "mouseout": {"state": {"target": ["23", "15", "18", "12", "0", "12", "13", "14", "14", "19", "19", "20", "20", "19"], "time": [2336, 2713, 3344, 3410, 6416, 7470, 8498, 9042, 10335, 11007, 12075, 12691, 13652, 14573]}, "edge": {"target": [], "time": []}}}, "displayed_time": "20.09", "trialTime": 22983, "trial_type": "mouselab-mdp", "trial_index": 16, "time_elapsed": 1006510, "internal_node_id": "0.0-6.0-1.0-7.0"}}, {"uniqueid": "w21696427:a35565455", "current_trial": 17, "dateTime": 1693664115505, "trialdata": {"revealed_states": [], "clicked_states": ["23", "24", "25", "30", "26", "27", "28"], "num_clicks_accrued": [0, 0, 0, 0, 0, 0, 0, 0, 0, 0, 0, 0, 0], "stateRewards": ["", -2, 4, -3, -13, 63, -36, 62, 11, 78, 34, -51, 2, -2, 8, -6, -40, -18, 31, 9, 64, 39, 79, 1, 4, -4, 15, -12, 76, 73, -10, -77, 86, -4], "withholdReward": false, "trial_id": "mdp_trial_9", "block": "test", "trialIndex": 10, "score": 83.55, "costs": -8.45, "simulationMode": [null, null, null, null, null], "rewards": [1, 4, -4, 15, 76], "path": ["0", "0", "23", "24", "25", "26", "28"], "rt": [16856, 9, 100, 5, 51], "actions": ["left", "left", "left", "up", "right"], "actionTimes": [20243, 20804, 21457, 22035, 22666], "queries": {"click": {"state": {"target": ["23", "24", "25", "30", "26", "27", "28"], "time": [5703, 6789, 7871, 8984, 10968, 12558, 16202]}, "edge": {"target": [], "time": []}}, "mouseover": {"state": {"target": ["12", "12", "24", "23", "24", "25", "30", "31", "26", "27", "28", "26", "29"], "time": [4389, 4729, 4812, 5290, 6429, 7454, 8533, 9983, 10521, 12149, 14268, 16785, 17442]}, "edge": {"target": [], "time": []}}, "mouseout": {"state": {"target": ["22", "0", "12", "12", "24", "23", "24", "25", "30", "31", "25", "26", "26", "26", "27", "28", "26"], "time": [1212, 4221, 4461, 4782, 5134, 6320, 7387, 8361, 9471, 10170, 10451, 11066, 11646, 11806, 13445, 16768, 17129]}, "edge": {"target": [], "time": []}}}, "displayed_time": "23.22", "trialTime": 40495, "trial_type": "mouselab-mdp", "trial_index": 17, "time_elapsed": 1049171, "internal_node_id": "0.0-6.0-1.0-8.0"}}, {"uniqueid": "w21696427:a35565455", "current_trial": 18, "dateTime": 1693664146605, "trialdata": {"revealed_states": [], "clicked_states": ["12", "13", "14", "15", "17", "18", "16"], "num_clicks_accrued": [0, 0, 0, 0, 0, 0, 0, 0, 0, 0, 0, 0, 0], "stateRewards": ["", 1, 2, -3, 6, -88, 74, -45, 7, -46, 40, -77, 1, -4, 4, 3, 22, -25, -59, 8, -83, 19, -60, -1, -1, -1, -8, 26, -29, 64, -7, -88, -51, -55], "withholdReward": false, "trial_id": "mdp_trial_10", "block": "test", "trialIndex": 11, "score": 16.95, "costs": -9.05, "simulationMode": [null, null, null, null, null], "rewards": [1, -4, 4, 3, 22], "path": ["0", "0", "12", "13", "14", "15", "16"], "rt": [19320, 309, 188, 352, 92], "actions": ["right", "right", "right", "up", "up"], "actionTimes": [22736, 23600, 24316, 25209, 25837], "queries": {"click": {"state": {"target": ["12", "13", "14", "15", "17", "18", "16"], "time": [5136, 6261, 8500, 9744, 11108, 14687, 18437]}, "edge": {"target": [], "time": []}}, "mouseover": {"state": {"target": ["12", "13", "14", "14", "15", "17", "18", "16", "14", "19"], "time": [4486, 5748, 6955, 7727, 9295, 10684, 13925, 17878, 19258, 19565]}, "edge": {"target": [], "time": []}}, "mouseout": {"state": {"target": ["29", "28", "12", "13", "14", "14", "15", "15", "17", "15", "18", "16", "14"], "time": [646, 719, 5648, 6835, 7198, 9225, 9860, 10315, 11608, 12044, 17778, 19194, 19314]}, "edge": {"target": [], "time": []}}}, "displayed_time": "26.41", "trialTime": 28788, "trial_type": "mouselab-mdp", "trial_index": 18, "time_elapsed": 1080270, "internal_node_id": "0.0-6.0-1.0-9.0"}}, {"uniqueid": "w21696427:a35565455", "current_trial": 19, "dateTime": 1693664175295, "trialdata": {"revealed_states": [], "clicked_states": ["23", "24", "25", "30", "33", "31"], "num_clicks_accrued": [0, 0, 0, 0, 0, 0, 0, 0, 0, 0, 0, 0, 0], "stateRewards": ["", -1, 3, 2, 9, 41, 4, -46, -12, -54, -87, -25, 2, 3, -1, 11, -77, 12, -33, -9, -32, 35, 72, 1, 3, -7, 4, 37, 65, -73, 6, 77, -43, 8], "withholdReward": false, "trial_id": "mdp_trial_11", "block": "test", "trialIndex": 12, "score": 59.1, "costs": -6.9, "simulationMode": [null, null, null, null, null], "rewards": [1, 3, -7, 4, 65], "path": ["0", "0", "23", "24", "25", "26", "28"], "rt": [15765, 8, 18, 155, 1697], "actions": ["left", "left", "left", "up", "right"], "actionTimes": [19299, 19866, 20449, 21144, 23371], "queries": {"click": {"state": {"target": ["23", "24", "25", "30", "33", "31"], "time": [5864, 7035, 8216, 9591, 10869, 15016]}, "edge": {"target": [], "time": []}}, "mouseover": {"state": {"target": ["23", "24", "25", "30", "33", "30", "31"], "time": [5479, 6482, 7837, 9111, 10533, 14378, 14594]}, "edge": {"target": [], "time": []}}, "mouseout": {"state": {"target": ["19", "22", "0", "0", "23", "24", "25", "30", "33", "30", "31"], "time": [960, 998, 1031, 4845, 6344, 7636, 9003, 10437, 11543, 14463, 15900]}, "edge": {"target": [], "time": []}}}, "displayed_time": "23.89", "trialTime": 26435, "trial_type": "mouselab-mdp", "trial_index": 19, "time_elapsed": 1108963, "internal_node_id": "0.0-6.0-1.0-10.0"}}, {"uniqueid": "w21696427:a35565455", "current_trial": 20, "dateTime": 1693664196306, "trialdata": {"revealed_states": [], "clicked_states": [], "num_clicks_accrued": [0, 0, 0, 0, 0, 0, 0, 0, 0, 0, 0, 0, 0], "stateRewards": ["", 2, -1, -1, -9, -81, -30, 55, -6, 78, 25, 62, 2, 4, -1, 9, -85, 1, -19, 1, -60, 12, -34, 1, 4, -1, -13, -24, -16, -83, -8, 16, 43, 9], "withholdReward": false, "trial_id": "mdp_trial_12", "block": "test", "trialIndex": 13, "score": 18, "costs": 0, "simulationMode": [null, null, null, null, null], "rewards": [2, 4, -1, 1, 12], "path": ["0", "0", "12", "13", "14", "19", "21"], "rt": [8508, 160, 163, 9, 9], "actions": ["right", "right", "right", "down", "down"], "actionTimes": [11449, 12161, 12871, 13422, 13980], "queries": {"click": {"state": {"target": [], "time": []}, "edge": {"target": [], "time": []}}, "mouseover": {"state": {"target": ["1", "12", "0", "12", "12"], "time": [4245, 4805, 5714, 6006, 10462]}, "edge": {"target": [], "time": []}}, "mouseout": {"state": {"target": ["0", "1", "12", "0", "12"], "time": [1252, 4730, 5246, 5751, 6767]}, "edge": {"target": [], "time": []}}}, "displayed_time": "16.94", "trialTime": 18539, "trial_type": "mouselab-mdp", "trial_index": 20, "time_elapsed": 1129972, "internal_node_id": "0.0-6.0-1.0-11.0"}}, {"uniqueid": "w21696427:a35565455", "current_trial": 21, "dateTime": 1693664234726, "trialdata": {"revealed_states": [], "clicked_states": ["12", "13", "14", "19", "20", "21", "22", "15", "17", "18"], "num_clicks_accrued": [0, 0, 0, 0, 0, 0, 0, 0, 0, 0, 0, 0, 0], "stateRewards": ["", 1, 2, -3, -5, 66, -50, -47, -5, 1, 28, -27, 1, 1, -1, -6, 37, -25, 56, 1, -82, -66, -40, -1, -4, -7, 15, -61, -23, 26, 10, 14, -56, 29], "withholdReward": false, "trial_id": "mdp_trial_13", "block": "test", "trialIndex": 14, "score": 36.099999999999994, "costs": -14.900000000000002, "simulationMode": [null, null, null, null, null], "rewards": [1, 1, -1, -6, 56], "path": ["0", "0", "12", "13", "14", "15", "18"], "rt": [26095, 87, 135, 522, 172], "actions": ["right", "right", "right", "up", "left"], "actionTimes": [29216, 29861, 30530, 31605, 32315], "queries": {"click": {"state": {"target": ["12", "13", "14", "19", "20", "21", "22", "15", "17", "18"], "time": [4412, 5872, 7108, 8428, 9601, 13050, 16498, 19900, 21613, 25163]}, "edge": {"target": [], "time": []}}, "mouseover": {"state": {"target": ["12", "13", "14", "19", "20", "21", "22", "14", "15", "17", "18", "16"], "time": [3942, 5448, 6693, 8082, 8993, 10291, 14163, 17282, 17643, 21045, 23078, 26492]}, "edge": {"target": [], "time": []}}, "mouseout": {"state": {"target": ["12", "12", "13", "14", "19", "20", "21", "22", "14", "15", "17", "18"], "time": [1045, 5165, 6556, 7769, 8560, 10224, 13154, 16599, 17342, 20009, 22516, 26112]}, "edge": {"target": [], "time": []}}}, "displayed_time": "32.84", "trialTime": 35788, "trial_type": "mouselab-mdp", "trial_index": 21, "time_elapsed": 1168396, "internal_node_id": "0.0-6.0-1.0-12.0"}}, {"uniqueid": "w21696427:a35565455", "current_trial": 22, "dateTime": 1693664256378, "trialdata": {"revealed_states": [], "clicked_states": ["12", "13", "14", "19", "22", "15"], "num_clicks_accrued": [0, 0, 0, 0, 0, 0, 0, 0, 0, 0, 0, 0, 0], "stateRewards": ["", 2, -4, 7, 3, 23, -42, 4, 7, -81, -33, 7, -2, -4, 5, -1, 50, -57, -14, -13, -14, 44, 55, -2, -2, 5, -2, 33, 1, 57, -13, -7, 58, 87], "withholdReward": false, "trial_id": "mdp_trial_14", "block": "test", "trialIndex": 15, "score": 34.7, "costs": -6.3, "simulationMode": [null, null, null, null, null], "rewards": [-2, -4, 5, -13, 55], "path": ["0", "0", "12", "13", "14", "19", "22"], "rt": [11386, 324, 124, 38, 37], "actions": ["right", "right", "right", "down", "left"], "actionTimes": [14372, 15234, 15922, 16510, 17063], "queries": {"click": {"state": {"target": ["12", "13", "14", "19", "22", "15"], "time": [5066, 6429, 7425, 8699, 9792, 12976]}, "edge": {"target": [], "time": []}}, "mouseover": {"state": {"target": ["12", "13", "14", "19", "22", "15"], "time": [4499, 6086, 6900, 8271, 9421, 10393]}, "edge": {"target": [], "time": []}}, "mouseout": {"state": {"target": ["16", "12", "13", "14", "19", "22"], "time": [775, 6032, 6883, 8077, 9349, 10322]}, "edge": {"target": [], "time": []}}}, "displayed_time": "17.62", "trialTime": 19234, "trial_type": "mouselab-mdp", "trial_index": 22, "time_elapsed": 1190044, "internal_node_id": "0.0-6.0-1.0-13.0"}}, {"uniqueid": "w21696427:a35565455", "current_trial": 23, "dateTime": 1693664289545, "trialdata": {"revealed_states": [], "clicked_states": ["12", "13", "14", "19", "20", "21", "22", "15", "17"], "num_clicks_accrued": [0, 0, 0, 0, 0, 0, 0, 0, 0, 0, 0, 0, 0], "stateRewards": ["", -2, 1, -7, 9, 8, 25, 61, -7, -17, 69, -81, 1, 4, -4, -11, 16, 67, 44, 3, 6, -45, -54, -2, 3, 6, -11, -15, 32, -47, 3, -39, -6, -88], "withholdReward": false, "trial_id": "mdp_trial_15", "block": "test", "trialIndex": 16, "score": 44.25, "costs": -12.750000000000002, "simulationMode": [null, null, null, null, null], "rewards": [1, 4, -4, -11, 67], "path": ["0", "0", "12", "13", "14", "15", "17"], "rt": [22273, 92, 107, 591, 69], "actions": ["right", "right", "right", "up", "right"], "actionTimes": [25946, 26579, 27243, 28377, 28989], "queries": {"click": {"state": {"target": ["12", "13", "14", "19", "20", "21", "22", "15", "17"], "time": [4875, 5991, 6974, 8059, 9182, 12698, 16224, 19685, 21586]}, "edge": {"target": [], "time": []}}, "mouseover": {"state": {"target": ["12", "13", "14", "19", "20", "21", "22", "14", "15", "17", "18"], "time": [4462, 5546, 6478, 7771, 8805, 9828, 13230, 17161, 17338, 20646, 22313]}, "edge": {"target": [], "time": []}}, "mouseout": {"state": {"target": ["15", "0", "23", "23", "0", "12", "13", "14", "19", "19", "20", "21", "22", "14", "15", "17", "15", "18"], "time": [808, 860, 1213, 1452, 4442, 5331, 6343, 7528, 8165, 8786, 9693, 13104, 16761, 17254, 20365, 22114, 22232, 25155]}, "edge": {"target": [], "time": []}}}, "displayed_time": "29.54", "trialTime": 30560, "trial_type": "mouselab-mdp", "trial_index": 23, "time_elapsed": 1223213, "internal_node_id": "0.0-6.0-1.0-14.0"}}, {"uniqueid": "w21696427:a35565455", "current_trial": 24, "dateTime": 1693664328191, "trialdata": {"revealed_states": [], "clicked_states": ["23", "24", "25", "30", "31", "33", "32", "26", "28", "29", "27"], "num_clicks_accrued": [0, 0, 0, 0, 0, 0, 0, 0, 0, 0, 0, 0, 0], "stateRewards": ["", -1, 2, -2, 5, 80, -61, -27, 12, 44, -26, -75, -2, -4, 1, -16, 42, -49, -50, 4, -44, 2, 80, -2, -2, 5, -2, 59, 10, 24, 7, -48, -86, -44], "withholdReward": false, "trial_id": "mdp_trial_16", "block": "test", "trialIndex": 17, "score": 40.95, "costs": -17.05, "simulationMode": [null, null, null, null, null], "rewards": [-2, -2, 5, -2, 59], "path": ["0", "0", "23", "24", "25", "26", "27"], "rt": [28400, 265, 155, 512, 152], "actions": ["left", "left", "left", "up", "up"], "actionTimes": [31545, 32349, 33052, 34116, 34813], "queries": {"click": {"state": {"target": ["23", "24", "25", "30", "31", "33", "32", "26", "28", "29", "27"], "time": [4107, 5453, 6411, 7621, 8614, 12116, 15722, 19808, 21483, 24868, 28411]}, "edge": {"target": [], "time": []}}, "mouseover": {"state": {"target": ["0", "23", "24", "25", "30", "31", "33", "32", "30", "25", "26", "28", "29", "27"], "time": [3665, 3773, 5095, 6001, 7270, 8137, 9313, 12753, 16196, 16755, 17298, 21114, 22633, 25306]}, "edge": {"target": [], "time": []}}, "mouseout": {"state": {"target": ["14", "13", "12", "0", "23", "24", "25", "30", "31", "30", "33", "32", "30", "25", "26", "28", "26", "29", "27"], "time": [930, 992, 1287, 3722, 4681, 5904, 7086, 8063, 9169, 9291, 12601, 15765, 16261, 16885, 20707, 22181, 22294, 25243, 29021]}, "edge": {"target": [], "time": []}}}, "displayed_time": "35.36", "trialTime": 36361, "trial_type": "mouselab-mdp", "trial_index": 24, "time_elapsed": 1261857, "internal_node_id": "0.0-6.0-1.0-15.0"}}, {"uniqueid": "w21696427:a35565455", "current_trial": 25, "dateTime": 1693664349833, "trialdata": {"revealed_states": [], "clicked_states": ["1", "2", "3", "4", "6", "7"], "num_clicks_accrued": [0, 0, 0, 0, 0, 0, 0, 0, 0, 0, 0, 0, 0], "stateRewards": ["", -1, 2, 7, 8, 75, 67, -11, 6, 52, -17, 38, -1, 4, -8, 14, 74, -37, -17, -12, 52, 55, 71, -2, -1, -5, 2, 21, 6, -88, -14, 64, -61, -47], "withholdReward": false, "trial_id": "mdp_trial_17", "block": "test", "trialIndex": 18, "score": 76.1, "costs": -6.9, "simulationMode": [null, null, null, null, null, null], "rewards": [-1, 2, 7, 8, 67], "path": ["0", "0", "1", "2", "3", "4", "6"], "rt": [11710, 207, 556, 162, 37, 136], "actions": ["up", "up", "up", "up", "right", "right"], "actionTimes": [14414, 14637, 15746, 16464, 17062, 17753], "queries": {"click": {"state": {"target": ["1", "2", "3", "4", "6", "7"], "time": [4623, 5553, 7179, 8393, 9518, 13026]}, "edge": {"target": [], "time": []}}, "mouseover": {"state": {"target": ["12", "1", "2", "3", "3", "4", "6", "7"], "time": [4015, 4205, 5159, 6306, 6731, 7878, 9174, 10266]}, "edge": {"target": [], "time": []}}, "mouseout": {"state": {"target": ["23", "12", "0", "12", "1", "2", "3", "3", "4", "6", "7"], "time": [759, 1042, 3501, 4151, 4736, 5693, 6519, 7681, 9019, 10134, 13748]}, "edge": {"target": [], "time": []}}}, "displayed_time": "18.29", "trialTime": 19424, "trial_type": "mouselab-mdp", "trial_index": 25, "time_elapsed": 1283500, "internal_node_id": "0.0-6.0-1.0-16.0"}}, {"uniqueid": "w21696427:a35565455", "current_trial": 26, "dateTime": 1693664375434, "trialdata": {"revealed_states": [], "clicked_states": ["12", "13", "14", "15", "18", "16", "17"], "num_clicks_accrued": [0, 0, 0, 0, 0, 0, 0, 0, 0, 0, 0, 0, 0], "stateRewards": ["", 1, 2, 2, -15, -84, 28, -26, 13, 31, 86, 30, -2, 1, -1, -8, 66, -40, -1, -10, -32, 57, -17, 1, 2, -2, 9, -23, 77, 85, 12, -32, -62, -35], "withholdReward": false, "trial_id": "mdp_trial_18", "block": "test", "trialIndex": 19, "score": 46.95, "costs": -9.05, "simulationMode": [null, null, null, null, null], "rewards": [-2, 1, -1, -8, 66], "path": ["0", "0", "12", "13", "14", "15", "16"], "rt": [14853, 32, 127, 365, 53], "actions": ["right", "right", "right", "up", "up"], "actionTimes": [17893, 18464, 19162, 20058, 20662], "queries": {"click": {"state": {"target": ["12", "13", "14", "15", "18", "16", "17"], "time": [4389, 5186, 6132, 7130, 8012, 11373, 14763]}, "edge": {"target": [], "time": []}}, "mouseover": {"state": {"target": ["12", "13", "14", "15", "18", "16", "17"], "time": [3997, 4780, 5539, 6650, 7641, 8856, 12144]}, "edge": {"target": [], "time": []}}, "mouseout": {"state": {"target": ["0", "0", "12", "13", "14", "15", "18", "16", "17", "17"], "time": [956, 3881, 4538, 5478, 6573, 7254, 8116, 11776, 14884, 15418]}, "edge": {"target": [], "time": []}}}, "displayed_time": "21.24", "trialTime": 22052, "trial_type": "mouselab-mdp", "trial_index": 26, "time_elapsed": 1309103, "internal_node_id": "0.0-6.0-1.0-17.0"}}, {"uniqueid": "w21696427:a35565455", "current_trial": 27, "dateTime": 1693664404245, "trialdata": {"revealed_states": [], "clicked_states": ["12", "13", "14", "19", "20", "22", "21"], "num_clicks_accrued": [0, 0, 0, 0, 0, 0, 0, 0, 0, 0, 0, 0, 0], "stateRewards": ["", 1, 1, 4, 11, 83, -66, 18, -16, -23, 5, 25, 1, -3, 1, -12, 18, 24, -86, -11, -64, 36, 40, 2, 1, -6, 13, 55, 29, 72, -2, 81, -72, -41], "withholdReward": false, "trial_id": "mdp_trial_19", "block": "test", "trialIndex": 20, "score": 18.95, "costs": -9.05, "simulationMode": [null, null, null, null, null], "rewards": [1, -3, 1, -11, 40], "path": ["0", "0", "12", "13", "14", "19", "22"], "rt": [17472, 1155, 240, 208, 85], "actions": ["right", "right", "right", "down", "left"], "actionTimes": [20651, 22337, 23109, 23872, 24509], "queries": {"click": {"state": {"target": ["12", "13", "14", "19", "20", "22", "21"], "time": [4864, 5683, 7080, 8113, 9329, 12659, 16285]}, "edge": {"target": [], "time": []}}, "mouseover": {"state": {"target": ["12", "13", "14", "19", "20", "22", "21", "19"], "time": [4094, 5230, 6139, 7662, 8932, 10053, 13825, 19870]}, "edge": {"target": [], "time": []}}, "mouseout": {"state": {"target": ["0", "12", "13", "14", "19", "19", "20", "19", "22", "21", "19"], "time": [4011, 5164, 6018, 7467, 8550, 8866, 9793, 9980, 13330, 16343, 20124]}, "edge": {"target": [], "time": []}}}, "displayed_time": "25.06", "trialTime": 26394, "trial_type": "mouselab-mdp", "trial_index": 27, "time_elapsed": 1337915, "internal_node_id": "0.0-6.0-1.0-18.0"}}, {"uniqueid": "w21696427:a35565455", "current_trial": 28, "dateTime": 1693664436012, "trialdata": {"revealed_states": [], "clicked_states": ["12", "13", "14", "15", "18", "19", "22", "21", "20"], "num_clicks_accrued": [0, 0, 0, 0, 0, 0, 0, 0, 0, 0, 0, 0, 0], "stateRewards": ["", 2, 3, -3, 4, 72, -28, 34, -12, 57, -64, -15, 2, 1, -4, -15, 2, 49, 31, -1, -42, -58, 31, -2, 1, -2, -13, -75, -19, -22, -6, 61, 10, -56], "withholdReward": false, "trial_id": "mdp_trial_20", "block": "test", "trialIndex": 21, "score": 16.25, "costs": -12.75, "simulationMode": [null, null, null, null, null], "rewards": [2, 1, -4, -1, 31], "path": ["0", "0", "12", "13", "14", "19", "22"], "rt": [21075, 12, 589, 108, 97], "actions": ["right", "right", "right", "down", "left"], "actionTimes": [24458, 25007, 26187, 26835, 27466], "queries": {"click": {"state": {"target": ["12", "13", "14", "15", "18", "19", "22", "21", "20"], "time": [4692, 5685, 6529, 7569, 8561, 12083, 13742, 17695, 21239]}, "edge": {"target": [], "time": []}}, "mouseover": {"state": {"target": ["12", "13", "14", "15", "18", "19", "22", "21", "20"], "time": [4390, 5044, 5980, 7119, 8259, 9485, 13301, 15168, 19452]}, "edge": {"target": [], "time": []}}, "mouseout": {"state": {"target": ["14", "13", "12", "0", "12", "13", "14", "15", "18", "14", "19", "22", "19", "21"], "time": [696, 756, 813, 4322, 5025, 5964, 7001, 8138, 9013, 9190, 13131, 14585, 14944, 17808]}, "edge": {"target": [], "time": []}}}, "displayed_time": "28.02", "trialTime": 29283, "trial_type": "mouselab-mdp", "trial_index": 28, "time_elapsed": 1369680, "internal_node_id": "0.0-6.0-1.0-19.0"}}, {"uniqueid": "w21696427:a35565455", "current_trial": 29, "dateTime": 1693664460682, "trialdata": {"revealed_states": [], "clicked_states": ["12", "13", "14", "15", "18"], "num_clicks_accrued": [0, 0, 0, 0, 0, 0, 0, 0, 0, 0, 0, 0, 0], "stateRewards": ["", -2, -3, -3, 9, 79, 67, 22, -15, -56, 27, -85, -2, 4, -4, -15, -20, -32, 60, 15, 71, 57, 17, 1, 2, -8, 15, -37, -81, 82, 15, 21, -3, 2], "withholdReward": false, "trial_id": "mdp_trial_21", "block": "test", "trialIndex": 22, "score": 38.25, "costs": -4.75, "simulationMode": [null, null, null, null, null], "rewards": [-2, 4, -4, -15, 60], "path": ["0", "0", "12", "13", "14", "15", "18"], "rt": [9901, 95, 238, 375, 107], "actions": ["right", "right", "right", "up", "left"], "actionTimes": [13305, 13936, 14706, 15632, 16281], "queries": {"click": {"state": {"target": ["12", "13", "14", "15", "18"], "time": [5073, 5879, 6849, 8018, 9090]}, "edge": {"target": [], "time": []}}, "mouseover": {"state": {"target": ["12", "13", "14", "15", "18", "19"], "time": [4555, 5420, 6274, 7532, 8725, 10122]}, "edge": {"target": [], "time": []}}, "mouseout": {"state": {"target": ["20", "0", "12", "13", "14", "15", "18", "19"], "time": [993, 1323, 5358, 6213, 7375, 8654, 9821, 18787]}, "edge": {"target": [], "time": []}}}, "displayed_time": "17.41", "trialTime": 22278, "trial_type": "mouselab-mdp", "trial_index": 29, "time_elapsed": 1394350, "internal_node_id": "0.0-6.0-1.0-20.0"}}, {"uniqueid": "w21696427:a35565455", "current_trial": 30, "dateTime": 1693664485311, "trialdata": {"revealed_states": [], "clicked_states": ["12", "13", "14", "15", "18", "17"], "num_clicks_accrued": [0, 0, 0, 0, 0, 0, 0, 0, 0, 0, 0, 0, 0], "stateRewards": ["", 2, -3, -8, 14, -7, -51, 73, 2, 36, 36, -43, -1, 3, -4, 1, 6, 87, -65, 15, 61, -42, -83, -1, 3, -2, -7, 30, -48, 35, 13, 26, 60, 78], "withholdReward": false, "trial_id": "mdp_trial_22", "block": "test", "trialIndex": 23, "score": 79.1, "costs": -6.9, "simulationMode": [null, null, null, null, null], "rewards": [-1, 3, -4, 1, 87], "path": ["0", "0", "12", "13", "14", "15", "17"], "rt": [13848, 117, 198, 448, 103], "actions": ["right", "right", "right", "up", "right"], "actionTimes": [17109, 17754, 18502, 19476, 20119], "queries": {"click": {"state": {"target": ["12", "13", "14", "15", "18", "17"], "time": [4952, 6021, 7099, 8108, 9367, 12871]}, "edge": {"target": [], "time": []}}, "mouseover": {"state": {"target": ["12", "13", "14", "15", "18", "17", "16"], "time": [4618, 5552, 6581, 7735, 9025, 10286, 13597]}, "edge": {"target": [], "time": []}}, "mouseout": {"state": {"target": ["0", "12", "13", "14", "15", "18", "17", "16", "0"], "time": [4042, 5330, 6520, 7460, 9004, 9816, 12995, 21329, 21426]}, "edge": {"target": [], "time": []}}}, "displayed_time": "20.65", "trialTime": 21698, "trial_type": "mouselab-mdp", "trial_index": 30, "time_elapsed": 1418978, "internal_node_id": "0.0-6.0-1.0-21.0"}}, {"uniqueid": "w21696427:a35565455", "current_trial": 31, "dateTime": 1693664517095, "trialdata": {"revealed_states": [], "clicked_states": ["1", "2", "10", "8", "3", "4", "5", "6"], "num_clicks_accrued": [0, 0, 0, 0, 0, 0, 0, 0, 0, 0, 0, 0, 0], "stateRewards": ["", 2, 3, -3, 12, -43, 81, -82, -15, 58, -7, -75, -1, -1, 3, -5, 50, -25, -8, 4, 66, 65, -66, 2, -4, 2, -1, -10, 10, 37, 11, 88, -37, 8], "withholdReward": false, "trial_id": "mdp_trial_23", "block": "test", "trialIndex": 24, "score": 84.4, "costs": -10.6, "simulationMode": [null, null, null, null, null], "rewards": [2, 3, -3, 12, 81], "path": ["0", "0", "1", "2", "3", "4", "6"], "rt": [20913, 297, 138, 67, 66], "actions": ["up", "up", "up", "right", "right"], "actionTimes": [24749, 25579, 26263, 26874, 27510], "queries": {"click": {"state": {"target": ["1", "2", "10", "8", "3", "4", "5", "6"], "time": [5919, 7020, 9033, 13034, 14353, 16157, 17469, 21059]}, "edge": {"target": [], "time": []}}, "mouseover": {"state": {"target": ["12", "1", "2", "10", "8", "3", "4", "5", "6"], "time": [4732, 5327, 6634, 8611, 10054, 13924, 15819, 17105, 18587]}, "edge": {"target": [], "time": []}}, "mouseout": {"state": {"target": ["0", "12", "1", "2", "10", "8", "3", "3", "4", "5"], "time": [4679, 5162, 6330, 7982, 9863, 13864, 15164, 15442, 16281, 18437]}, "edge": {"target": [], "time": []}}}, "displayed_time": "28.05", "trialTime": 29015, "trial_type": "mouselab-mdp", "trial_index": 31, "time_elapsed": 1450760, "internal_node_id": "0.0-6.0-1.0-22.0"}}, {"uniqueid": "w21696427:a35565455", "current_trial": 32, "dateTime": 1693664545564, "trialdata": {"revealed_states": [], "clicked_states": ["23", "24", "25", "30", "26", "28", "27"], "num_clicks_accrued": [0, 0, 0, 0, 0, 0, 0, 0, 0, 0, 0, 0, 0], "stateRewards": ["", 1, -4, -6, 11, -20, 8, -30, 1, -38, 88, 42, 2, 3, 5, -12, -8, -74, 30, -8, 67, -19, 42, 2, -1, 4, 13, 50, -68, 2, -8, -15, 87, -46], "withholdReward": false, "trial_id": "mdp_trial_24", "block": "test", "trialIndex": 25, "score": 59.55, "costs": -8.45, "simulationMode": [null, null, null, null, null], "rewards": [2, -1, 4, 13, 50], "path": ["0", "0", "23", "24", "25", "26", "27"], "rt": [16126, 13, 236, 12, 52], "actions": ["left", "left", "left", "up", "up"], "actionTimes": [21523, 22071, 22854, 23402, 24035], "queries": {"click": {"state": {"target": ["23", "24", "25", "30", "26", "28", "27"], "time": [6707, 8020, 9323, 10685, 12431, 13769, 17354]}, "edge": {"target": [], "time": []}}, "mouseover": {"state": {"target": ["0", "23", "24", "25", "30", "26", "28", "27", "29"], "time": [6239, 6350, 7683, 8699, 10194, 12050, 13217, 14265, 18374]}, "edge": {"target": [], "time": []}}, "mouseout": {"state": {"target": ["6", "0", "0", "23", "24", "25", "30", "25", "26", "28", "27"], "time": [564, 944, 6301, 7156, 8630, 10125, 11485, 11765, 13200, 13883, 18233]}, "edge": {"target": [], "time": []}}}, "displayed_time": "24.57", "trialTime": 25415, "trial_type": "mouselab-mdp", "trial_index": 32, "time_elapsed": 1479232, "internal_node_id": "0.0-6.0-1.0-23.0"}}, {"uniqueid": "w21696427:a35565455", "current_trial": 33, "dateTime": 1693664571112, "trialdata": {"revealed_states": [], "clicked_states": ["12", "13", "14", "15", "17"], "num_clicks_accrued": [0, 0, 0, 0, 0, 0, 0, 0, 0, 0, 0, 0, 0], "stateRewards": ["", 1, 4, 5, -5, 58, -80, 75, 6, 25, -39, 46, 2, -2, 4, 2, 59, 31, -22, -12, -61, 15, 72, 1, -2, -7, 8, 77, 76, -23, -7, 71, -15, -3], "withholdReward": false, "trial_id": "mdp_trial_25", "block": "test", "trialIndex": 26, "score": 32.25, "costs": -4.75, "simulationMode": [null, null, null, null, null], "rewards": [2, -2, 4, 2, 31], "path": ["0", "0", "12", "13", "14", "15", "17"], "rt": [10794, 106, 199, 472, 150], "actions": ["right", "right", "right", "up", "right"], "actionTimes": [15677, 16321, 17097, 18097, 18779], "queries": {"click": {"state": {"target": ["12", "13", "14", "15", "17"], "time": [6625, 7612, 8898, 10157, 11417]}, "edge": {"target": [], "time": []}}, "mouseover": {"state": {"target": ["0", "13", "12", "13", "14", "15", "17", "15"], "time": [5309, 5854, 6158, 7168, 8208, 9684, 10960, 15019]}, "edge": {"target": [], "time": []}}, "mouseout": {"state": {"target": ["29", "0", "13", "12", "13", "14", "15", "17", "15"], "time": [2562, 5743, 6077, 6941, 8111, 9422, 10839, 14951, 15076]}, "edge": {"target": [], "time": []}}}, "displayed_time": "19.31", "trialTime": 22638, "trial_type": "mouselab-mdp", "trial_index": 33, "time_elapsed": 1504782, "internal_node_id": "0.0-6.0-1.0-24.0"}}, {"uniqueid": "w21696427:a35565455", "current_trial": 34, "dateTime": 1693664599606, "trialdata": {"revealed_states": [], "clicked_states": ["12", "13", "14", "19", "15", "17", "18", "16"], "num_clicks_accrued": [0, 0, 0, 0, 0, 0, 0, 0, 0, 0, 0, 0, 0], "stateRewards": ["", 2, -1, 4, -9, -43, 7, 54, -13, 38, -40, -83, -1, 2, -8, -10, 34, -33, 11, -14, -79, 65, 26, 1, 2, 4, 10, 21, 1, 86, 4, -53, 28, -29], "withholdReward": false, "trial_id": "mdp_trial_26", "block": "test", "trialIndex": 27, "score": 6.399999999999999, "costs": -10.6, "simulationMode": [null, null, null, null, null], "rewards": [-1, 2, -8, -10, 34], "path": ["0", "0", "12", "13", "14", "15", "16"], "rt": [19128, 90, 450, 92, 68], "actions": ["right", "right", "right", "up", "up"], "actionTimes": [21921, 22558, 23541, 24168, 24782], "queries": {"click": {"state": {"target": ["12", "13", "14", "19", "15", "17", "18", "16"], "time": [4156, 4948, 5695, 6693, 8227, 11219, 14687, 18554]}, "edge": {"target": [], "time": []}}, "mouseover": {"state": {"target": ["12", "13", "14", "19", "20", "15", "17", "14", "14", "16", "17", "15", "18", "16"], "time": [3718, 4521, 5273, 6310, 7353, 7599, 9159, 9635, 10120, 10223, 10601, 12243, 12685, 15677]}, "edge": {"target": [], "time": []}}, "mouseout": {"state": {"target": ["12", "0", "12", "13", "14", "19", "20", "14", "15", "17", "14", "14", "16", "17", "15", "18"], "time": [866, 3620, 4403, 5257, 6185, 7277, 7522, 7583, 9088, 9456, 9956, 10178, 10409, 12115, 12554, 15354]}, "edge": {"target": [], "time": []}}}, "displayed_time": "25.33", "trialTime": 25940, "trial_type": "mouselab-mdp", "trial_index": 34, "time_elapsed": 1533274, "internal_node_id": "0.0-6.0-1.0-25.0"}}, {"uniqueid": "w21696427:a35565455", "current_trial": 35, "dateTime": 1693664624665, "trialdata": {"revealed_states": [], "clicked_states": ["12", "13", "14", "15", "16", "17"], "num_clicks_accrued": [0, 0, 0, 0, 0, 0, 0, 0, 0, 0, 0, 0, 0], "stateRewards": ["", 2, -2, 7, -11, -76, -65, -23, 16, -58, 30, 81, 1, 2, 7, 14, 9, 55, -2, 6, 11, -15, 31, -1, -1, -3, 2, 15, 2, 46, 15, 18, 45, -34], "withholdReward": false, "trial_id": "mdp_trial_27", "block": "test", "trialIndex": 28, "score": 72.1, "costs": -6.9, "simulationMode": [null, null, null, null, null], "rewards": [1, 2, 7, 14, 55], "path": ["0", "0", "12", "13", "14", "15", "17"], "rt": [14817, 150, 96, 32, 71], "actions": ["right", "right", "right", "up", "right"], "actionTimes": [17976, 18673, 19328, 19887, 20523], "queries": {"click": {"state": {"target": ["12", "13", "14", "15", "16", "17"], "time": [4687, 6034, 7045, 8262, 9893, 13770]}, "edge": {"target": [], "time": []}}, "mouseover": {"state": {"target": ["0", "12", "13", "14", "15", "16", "17", "15", "18", "14"], "time": [3513, 4009, 5721, 6499, 7850, 9470, 13025, 14564, 15284, 17394]}, "edge": {"target": [], "time": []}}, "mouseout": {"state": {"target": ["16", "12", "0", "12", "13", "14", "15", "16", "17", "15", "18", "14"], "time": [731, 831, 3751, 5025, 6429, 7583, 9010, 11006, 14546, 14747, 17321, 17427]}, "edge": {"target": [], "time": []}}}, "displayed_time": "21.07", "trialTime": 22650, "trial_type": "mouselab-mdp", "trial_index": 35, "time_elapsed": 1558330, "internal_node_id": "0.0-6.0-1.0-26.0"}}, {"uniqueid": "w21696427:a35565455", "current_trial": 36, "dateTime": 1693664677917, "trialdata": {"revealed_states": [], "clicked_states": ["12", "13", "14", "19", "20", "21", "22", "15", "18", "16", "17", "1", "2", "3", "4", "6", "5"], "num_clicks_accrued": [0, 0, 0, 0, 0, 0, 0, 0, 0, 0, 0, 0, 0], "stateRewards": ["", -2, -1, 3, -3, 71, -58, -21, 7, -10, -75, -37, 2, 4, -1, -12, -79, -29, -48, 3, -41, -10, -30, -1, -2, 1, -15, 13, 66, 22, -1, -42, -86, -55], "withholdReward": false, "trial_id": "mdp_trial_28", "block": "test", "trialIndex": 29, "score": 44.05, "costs": -23.95, "simulationMode": [null, null, null, null, null], "rewards": [-2, -1, 3, -3, 71], "path": ["0", "0", "1", "2", "3", "4", "5"], "rt": [42589, 248, 13, 492, 13], "actions": ["up", "up", "up", "right", "up"], "actionTimes": [45459, 46250, 46805, 47888, 48454], "queries": {"click": {"state": {"target": ["12", "13", "14", "19", "20", "21", "22", "15", "18", "16", "17", "1", "2", "3", "4", "6", "5"], "time": [4258, 5344, 6327, 7648, 8918, 12534, 15989, 19438, 20895, 24361, 27915, 31450, 32684, 34411, 35942, 37287, 41532]}, "edge": {"target": [], "time": []}}, "mouseover": {"state": {"target": ["12", "13", "14", "19", "20", "21", "21", "22", "15", "18", "16", "17", "1", "2", "7", "3", "3", "4", "6", "5"], "time": [3747, 4630, 5761, 6806, 8488, 9676, 10216, 13422, 17118, 20340, 21765, 25115, 29884, 32070, 33411, 33674, 33935, 35332, 36832, 40853]}, "edge": {"target": [], "time": []}}, "mouseout": {"state": {"target": ["0", "12", "13", "14", "19", "20", "21", "21", "22", "15", "18", "16", "17", "1", "2", "7", "3", "3", "4", "6", "5", "4"], "time": [3693, 4471, 5698, 6736, 8388, 9657, 9737, 13095, 16675, 20261, 21311, 24792, 29105, 31914, 33143, 33491, 33832, 35193, 36743, 40777, 42510, 50394]}, "edge": {"target": [], "time": []}}}, "displayed_time": "49.04", "trialTime": 50791, "trial_type": "mouselab-mdp", "trial_index": 36, "time_elapsed": 1611586, "internal_node_id": "0.0-6.0-1.0-27.0"}}, {"uniqueid": "w21696427:a35565455", "current_trial": 37, "dateTime": 1693664700762, "trialdata": {"revealed_states": [], "clicked_states": ["12", "13", "14", "19", "20"], "num_clicks_accrued": [0, 0, 0, 0, 0, 0, 0, 0, 0, 0, 0, 0, 0], "stateRewards": ["", -2, -1, -1, 5, -54, -87, 35, 2, -8, 20, -22, 1, 3, 6, 13, -75, -32, -55, -3, 56, 62, -22, -1, -4, -1, -7, -51, 84, 70, 7, -15, 5, 55], "withholdReward": false, "trial_id": "mdp_trial_29", "block": "test", "trialIndex": 30, "score": 58.25, "costs": -4.75, "simulationMode": [null, null, null, null, null], "rewards": [1, 3, 6, -3, 56], "path": ["0", "0", "12", "13", "14", "19", "20"], "rt": [10247, 114, 37, 102, 146], "actions": ["right", "right", "right", "down", "right"], "actionTimes": [13271, 13923, 14636, 15306, 15986], "queries": {"click": {"state": {"target": ["12", "13", "14", "19", "20"], "time": [4314, 5173, 6152, 7143, 8874]}, "edge": {"target": [], "time": []}}, "mouseover": {"state": {"target": ["12", "13", "14", "19", "21", "20", "22"], "time": [3943, 4742, 5713, 6612, 8014, 8327, 10045]}, "edge": {"target": [], "time": []}}, "mouseout": {"state": {"target": ["1", "0", "0", "12", "13", "14", "19", "21", "20", "19", "22"], "time": [728, 874, 3877, 4614, 5503, 6594, 7756, 8244, 9630, 9700, 12499]}, "edge": {"target": [], "time": []}}}, "displayed_time": "17.02", "trialTime": 20154, "trial_type": "mouselab-mdp", "trial_index": 37, "time_elapsed": 1634430, "internal_node_id": "0.0-6.0-1.0-28.0"}}, {"uniqueid": "w21696427:a35565455", "current_trial": 38, "dateTime": 1693664722305, "trialdata": {"revealed_states": [], "clicked_states": [], "num_clicks_accrued": [0, 0, 0, 0, 0, 0, 0, 0, 0, 0, 0, 0, 0], "stateRewards": ["", -1, -3, 1, -4, -48, -63, -49, -2, -84, -19, 65, 2, -2, -2, -12, -4, 59, 9, 6, 75, 69, -13, -1, -3, -3, -2, -37, -68, -36, 13, 32, 18, -14], "withholdReward": false, "trial_id": "mdp_trial_30", "block": "test", "trialIndex": 31, "score": -18, "costs": 0, "simulationMode": [null, null, null, null, null], "rewards": [2, -2, -2, -12, -4], "path": ["0", "0", "12", "13", "14", "15", "16"], "rt": [7685, 337, 169, 31, 13], "actions": ["right", "right", "right", "up", "up"], "actionTimes": [11979, 12842, 13555, 14147, 14734], "queries": {"click": {"state": {"target": [], "time": []}, "edge": {"target": [], "time": []}}, "mouseover": {"state": {"target": ["12", "13", "12"], "time": [8279, 9004, 10059]}, "edge": {"target": [], "time": []}}, "mouseout": {"state": {"target": ["0", "12", "13"], "time": [8211, 8983, 10045]}, "edge": {"target": [], "time": []}}}, "displayed_time": "18.27", "trialTime": 18932, "trial_type": "mouselab-mdp", "trial_index": 38, "time_elapsed": 1655975, "internal_node_id": "0.0-6.0-1.0-29.0"}}, {"uniqueid": "w21696427:a35565455", "current_trial": 39, "dateTime": 1693664754174, "trialdata": {"revealed_states": [], "clicked_states": ["12", "13", "14", "19", "23", "24", "25", "30", "31", "32"], "num_clicks_accrued": [0, 0, 0, 0, 0, 0, 0, 0, 0, 0, 0, 0, 0], "stateRewards": ["", 2, 3, 8, 11, 25, -80, 6, -4, -56, 84, -23, -2, -4, -3, 4, -51, -9, -61, -15, -64, 67, -35, 1, -1, -7, -6, 83, 59, -15, 12, -79, 56, 41], "withholdReward": false, "trial_id": "mdp_trial_31", "block": "test", "trialIndex": 32, "score": 51.5, "costs": -9.5, "simulationMode": [null, null, null, null, null], "rewards": [1, -1, -7, 12, 56], "path": ["0", "0", "23", "24", "25", "30", "32"], "rt": [20020, 400, 117, 322, 102], "actions": ["left", "left", "left", "down", "down"], "actionTimes": [23490, 24471, 25119, 26010, 26681], "queries": {"click": {"state": {"target": ["12", "13", "14", "19", "23", "24", "25", "30", "31", "32"], "time": [5220, 6561, 7525, 8491, 10063, 11166, 12561, 14629, 15787, 19293]}, "edge": {"target": [], "time": []}}, "mouseover": {"state": {"target": ["12", "13", "14", "19", "12", "23", "24", "25", "30", "26", "30", "31", "32", "33"], "time": [4442, 5865, 7085, 8059, 9154, 9680, 10743, 11780, 13467, 13748, 14236, 15298, 17559, 19913]}, "edge": {"target": [], "time": []}}, "mouseout": {"state": {"target": ["12", "0", "12", "13", "14", "19", "12", "23", "24", "25", "30", "26", "30", "30", "31", "32", "33", "0", "12"], "time": [1158, 4377, 5586, 6862, 7985, 9083, 9446, 10185, 11761, 13294, 13642, 14014, 14761, 15120, 17207, 19719, 28419, 28497, 28565]}, "edge": {"target": [], "time": []}}}, "displayed_time": "27.21", "trialTime": 28913, "trial_type": "mouselab-mdp", "trial_index": 39, "time_elapsed": 1687840, "internal_node_id": "0.0-6.0-1.0-30.0"}}, {"uniqueid": "w21696427:a35565455", "current_trial": 40, "dateTime": 1693664782559, "trialdata": {"revealed_states": [], "clicked_states": ["12", "13", "23", "24", "1", "2", "7"], "num_clicks_accrued": [0, 0, 0, 0, 0, 0, 0, 0, 0, 0, 0, 0, 0], "stateRewards": ["", 1, 3, 3, -10, 52, 68, 59, 12, 7, 49, 21, -2, -3, -4, -2, -2, 63, 63, -4, 44, 43, -76, -2, -3, -6, 13, 48, 36, 12, -5, -36, -33, -11], "withholdReward": false, "trial_id": "mdp_trial_32", "block": "test", "trialIndex": 33, "score": 53.55, "costs": -2.4499999999999997, "simulationMode": [null, null, null, null, null], "rewards": [1, 3, 3, -10, 59], "path": ["0", "0", "1", "2", "3", "4", "7"], "rt": [14444, 106, 2665, 17, 543], "actions": ["up", "up", "up", "right", "down"], "actionTimes": [17838, 18494, 21705, 22340, 23461], "queries": {"click": {"state": {"target": ["12", "13", "23", "24", "1", "2", "7"], "time": [5011, 5905, 7507, 8479, 10406, 11506, 13796]}, "edge": {"target": [], "time": []}}, "mouseover": {"state": {"target": ["12", "13", "0", "23", "24", "1", "2", "3", "4", "3", "4", "7"], "time": [4578, 5461, 6829, 6929, 8178, 9870, 11120, 12387, 12778, 12996, 13147, 13427]}, "edge": {"target": [], "time": []}}, "mouseout": {"state": {"target": ["12", "0", "12", "13", "0", "23", "24", "1", "2", "3", "4", "3", "4"], "time": [849, 4495, 5264, 6605, 6913, 7899, 9170, 10966, 12229, 12705, 12940, 13090, 13356]}, "edge": {"target": [], "time": []}}}, "displayed_time": "23.99", "trialTime": 25320, "trial_type": "mouselab-mdp", "trial_index": 40, "time_elapsed": 1716227, "internal_node_id": "0.0-6.0-1.0-31.0"}}, {"uniqueid": "w21696427:a35565455", "current_trial": 41, "dateTime": 1693664804019, "trialdata": {"revealed_states": [], "clicked_states": [], "num_clicks_accrued": [0, 0, 0, 0, 0, 0, 0, 0, 0, 0, 0, 0, 0], "stateRewards": ["", -1, 2, -6, 6, -82, -19, -39, -16, -83, 11, -33, -2, -2, 4, -6, -82, -1, -19, -6, -10, -67, -41, -2, 1, -7, 16, -23, -78, -52, 14, 31, -71, 74], "withholdReward": false, "trial_id": "mdp_trial_33", "block": "test", "trialIndex": 34, "score": -73, "costs": 0, "simulationMode": [null, null, null, null, null], "rewards": [-2, -2, 4, -6, -67], "path": ["0", "0", "12", "13", "14", "19", "21"], "rt": [1771, 156, 119, 454, 142], "actions": ["right", "right", "right", "down", "down"], "actionTimes": [5131, 5826, 6467, 7458, 8132], "queries": {"click": {"state": {"target": [], "time": []}, "edge": {"target": [], "time": []}}, "mouseover": {"state": {"target": ["12"], "time": [4264]}, "edge": {"target": [], "time": []}}, "mouseout": {"state": {"target": ["7", "12", "15", "17"], "time": [620, 14055, 14669, 14787]}, "edge": {"target": [], "time": []}}}, "displayed_time": "17.37", "trialTime": 18193, "trial_type": "mouselab-mdp", "trial_index": 41, "time_elapsed": 1737688, "internal_node_id": "0.0-6.0-1.0-32.0"}}, {"uniqueid": "w21696427:a35565455", "current_trial": 42, "dateTime": 1693664845535, "trialdata": {"revealed_states": [], "clicked_states": ["12", "13", "14", "23", "24", "1", "2", "3", "4", "8", "9", "11", "10"], "num_clicks_accrued": [0, 0, 0, 0, 0, 0, 0, 0, 0, 0, 0, 0, 0], "stateRewards": ["", 2, -1, 3, -12, -83, 6, -33, 9, 28, 24, -50, -2, -1, -2, -5, -87, 37, 82, 12, 80, -5, 10, -2, -3, -6, 9, 22, -1, 16, 9, 77, -62, 58], "withholdReward": false, "trial_id": "mdp_trial_34", "block": "test", "trialIndex": 35, "score": 29.25, "costs": -11.75, "simulationMode": [null, null, null, null, null, null], "rewards": [2, -1, 3, 9, 28], "path": ["0", "0", "1", "2", "3", "8", "9"], "rt": [25491, 316, 558, 151, 105, 66], "actions": ["up", "up", "up", "up", "left", "up"], "actionTimes": [31774, 32105, 33255, 33964, 34588, 35229], "queries": {"click": {"state": {"target": ["12", "13", "14", "23", "24", "1", "2", "3", "4", "8", "9", "11", "10"], "time": [7583, 8827, 9696, 11797, 12794, 14677, 15898, 17231, 18535, 20222, 21953, 26895, 30611]}, "edge": {"target": [], "time": []}}, "mouseover": {"state": {"target": ["12", "13", "14", "15", "12", "0", "23", "24", "25", "1", "2", "3", "4", "8", "9", "11", "10"], "time": [7541, 8771, 8927, 10523, 10948, 11022, 11738, 12445, 13426, 14019, 15503, 16812, 17903, 19890, 21139, 25806, 27826]}, "edge": {"target": [], "time": []}}, "mouseout": {"state": {"target": ["13", "13", "0", "12", "13", "14", "15", "12", "0", "23", "24", "25", "23", "1", "2", "3", "4", "3", "8", "9", "8", "11", "10", "25", "1"], "time": [3537, 3680, 7528, 7991, 8914, 10140, 10889, 11004, 11233, 12364, 13263, 13562, 13891, 15232, 16590, 17771, 19144, 19603, 20927, 22676, 25709, 27809, 30736, 37875, 37980]}, "edge": {"target": [], "time": []}}}, "displayed_time": "35.81", "trialTime": 38198, "trial_type": "mouselab-mdp", "trial_index": 42, "time_elapsed": 1779205, "internal_node_id": "0.0-6.0-1.0-33.0"}}, {"uniqueid": "w21696427:a35565455", "current_trial": 43, "dateTime": 1693664878279, "trialdata": {"revealed_states": [], "clicked_states": ["12", "13", "14", "19", "15", "17", "18", "16"], "num_clicks_accrued": [0, 0, 0, 0, 0, 0, 0, 0, 0, 0, 0, 0, 0], "stateRewards": ["", 1, 1, -5, 10, -31, 73, 14, -8, -23, 63, -70, -1, 2, 8, 7, 25, -59, 27, -10, -40, -71, -15, -2, 3, -8, -5, -19, 77, -34, 7, 67, 63, 19], "withholdReward": false, "trial_id": "mdp_trial_35", "block": "test", "trialIndex": 36, "score": 32.4, "costs": -10.6, "simulationMode": [null, null, null, null, null], "rewards": [-1, 2, 8, 7, 27], "path": ["0", "0", "12", "13", "14", "15", "18"], "rt": [21969, 44, 50, 451, 97], "actions": ["right", "right", "right", "up", "left"], "actionTimes": [25385, 26028, 26657, 27660, 28315], "queries": {"click": {"state": {"target": ["12", "13", "14", "19", "15", "17", "18", "16"], "time": [5316, 6210, 7871, 9414, 11622, 13595, 17109, 22104]}, "edge": {"target": [], "time": []}}, "mouseover": {"state": {"target": ["1", "12", "13", "14", "19", "15", "16", "17", "18", "16"], "time": [4330, 4872, 5703, 6720, 9380, 10578, 12879, 13174, 14737, 17727]}, "edge": {"target": [], "time": []}}, "mouseout": {"state": {"target": ["1", "0", "0", "1", "12", "13", "14", "19", "15", "16", "17", "18", "16"], "time": [820, 984, 3463, 4463, 5679, 6555, 9367, 10199, 12795, 12954, 14718, 17714, 23679]}, "edge": {"target": [], "time": []}}}, "displayed_time": "28.85", "trialTime": 29816, "trial_type": "mouselab-mdp", "trial_index": 43, "time_elapsed": 1811948, "internal_node_id": "0.0-6.0-1.0-34.0"}}, {"uniqueid": "w21696427:a35565455", "current_trial": 44, "dateTime": 1693664904537, "trialdata": {"revealed_states": [], "clicked_states": ["12", "13", "14", "15", "17"], "num_clicks_accrued": [0, 0, 0, 0, 0, 0, 0, 0, 0, 0, 0, 0, 0], "stateRewards": ["", -2, -1, -5, 10, -36, -70, 68, -9, 86, 71, -10, 2, -4, 7, -7, 66, 44, -66, -13, -69, 43, 15, -2, 2, 6, -13, 62, 57, 50, -10, -69, 42, -72], "withholdReward": false, "trial_id": "mdp_trial_36", "block": "test", "trialIndex": 37, "score": 37.25, "costs": -4.75, "simulationMode": [null, null, null, null, null], "rewards": [2, -4, 7, -7, 44], "path": ["0", "0", "12", "13", "14", "15", "17"], "rt": [11773, 306, 120, 19, 31], "actions": ["right", "right", "right", "up", "right"], "actionTimes": [15404, 16265, 16999, 17589, 18173], "queries": {"click": {"state": {"target": ["12", "13", "14", "15", "17"], "time": [4959, 6248, 7218, 9316, 11208]}, "edge": {"target": [], "time": []}}, "mouseover": {"state": {"target": ["12", "13", "14", "15", "16", "17", "18"], "time": [4531, 5981, 6758, 8735, 10451, 10840, 12075]}, "edge": {"target": [], "time": []}}, "mouseout": {"state": {"target": ["12", "13", "14", "15", "16", "17", "15"], "time": [5314, 6671, 8412, 10110, 10686, 11970, 12059]}, "edge": {"target": [], "time": []}}}, "displayed_time": "18.73", "trialTime": 22524, "trial_type": "mouselab-mdp", "trial_index": 44, "time_elapsed": 1838205, "internal_node_id": "0.0-6.0-1.0-35.0"}}, {"uniqueid": "w21696427:a35565455", "current_trial": 45, "dateTime": 1693664946128, "trialdata": {"revealed_states": [], "clicked_states": ["12", "13", "14", "15", "18", "17", "16", "19", "22", "21", "20"], "num_clicks_accrued": [0, 0, 0, 0, 0, 0, 0, 0, 0, 0, 0, 0, 0], "stateRewards": ["", -1, -4, -1, -5, -28, -23, -15, -15, -38, 59, -87, 2, 2, -5, 9, -55, -39, -71, -6, 85, -85, -11, -1, -2, 5, -10, 1, 25, 41, -4, 69, -35, 86], "withholdReward": false, "trial_id": "mdp_trial_37", "block": "test", "trialIndex": 38, "score": 60.95, "costs": -17.05, "simulationMode": [null, null, null, null, null], "rewards": [2, 2, -5, -6, 85], "path": ["0", "0", "12", "13", "14", "19", "20"], "rt": [31210, 118, 96, 16, 108], "actions": ["right", "right", "right", "down", "right"], "actionTimes": [33966, 34671, 35334, 35915, 36582], "queries": {"click": {"state": {"target": ["12", "13", "14", "15", "18", "17", "16", "19", "22", "21", "20"], "time": [4105, 5071, 6063, 7256, 8480, 12674, 16146, 19672, 20877, 24364, 29812]}, "edge": {"target": [], "time": []}}, "mouseover": {"state": {"target": ["12", "13", "14", "15", "18", "15", "17", "16", "14", "19", "22", "21", "20", "1"], "time": [3844, 4679, 5637, 6940, 8034, 12049, 12191, 13498, 17041, 17159, 20325, 22113, 24965, 31239]}, "edge": {"target": [], "time": []}}, "mouseout": {"state": {"target": ["0", "0", "12", "13", "14", "15", "18", "15", "17", "16", "16", "14", "19", "22", "21", "20"], "time": [624, 3640, 4639, 5517, 6911, 7935, 9433, 12113, 12860, 16273, 16740, 17139, 20309, 21491, 24423, 30713]}, "edge": {"target": [], "time": []}}}, "displayed_time": "37.15", "trialTime": 38236, "trial_type": "mouselab-mdp", "trial_index": 45, "time_elapsed": 1879794, "internal_node_id": "0.0-6.0-1.0-36.0"}}, {"uniqueid": "w21696427:a35565455", "current_trial": 46, "dateTime": 1693664972833, "trialdata": {"revealed_states": [], "clicked_states": ["12", "13", "14", "19", "20", "21"], "num_clicks_accrued": [0, 0, 0, 0, 0, 0, 0, 0, 0, 0, 0, 0, 0], "stateRewards": ["", 2, 3, 3, 10, 19, -21, 6, 9, 54, 68, 16, 2, 2, -6, -8, 40, -2, -75, -2, -42, 55, 59, -1, 2, 4, -14, 11, -34, -30, -6, 61, -53, 13], "withholdReward": false, "trial_id": "mdp_trial_38", "block": "test", "trialIndex": 39, "score": 44.1, "costs": -6.9, "simulationMode": [null, null, null, null, null], "rewards": [2, 2, -6, -2, 55], "path": ["0", "0", "12", "13", "14", "19", "21"], "rt": [15239, 101, 78, 421, 107], "actions": ["right", "right", "right", "down", "down"], "actionTimes": [18791, 19428, 20054, 20998, 21656], "queries": {"click": {"state": {"target": ["12", "13", "14", "19", "20", "21"], "time": [5436, 6443, 7609, 8931, 10866, 14618]}, "edge": {"target": [], "time": []}}, "mouseover": {"state": {"target": ["12", "13", "14", "19", "15", "20", "21", "22"], "time": [5354, 5977, 7020, 8425, 9678, 10468, 13958, 15640]}, "edge": {"target": [], "time": []}}, "mouseout": {"state": {"target": ["1", "12", "13", "14", "14", "19", "15", "20", "21"], "time": [1316, 5844, 6943, 7732, 8311, 9414, 9991, 13872, 15360]}, "edge": {"target": [], "time": []}}}, "displayed_time": "22.22", "trialTime": 23667, "trial_type": "mouselab-mdp", "trial_index": 46, "time_elapsed": 1906498, "internal_node_id": "0.0-6.0-1.0-37.0"}}, {"uniqueid": "w21696427:a35565455", "current_trial": 47, "dateTime": 1693665005041, "trialdata": {"revealed_states": [], "clicked_states": ["12", "13", "14", "15", "19", "20", "21"], "num_clicks_accrued": [0, 0, 0, 0, 0, 0, 0, 0, 0, 0, 0, 0, 0], "stateRewards": ["", -1, 1, 8, -3, -24, 11, -65, -6, -77, 48, 44, -2, 1, -2, -7, -55, -35, 33, 8, -28, 19, -53, -1, -1, -5, -5, -70, 10, 44, 8, -58, -70, 51], "withholdReward": false, "trial_id": "mdp_trial_39", "block": "test", "trialIndex": 40, "score": 15.55, "costs": -8.45, "simulationMode": [null, null, null, null, null], "rewards": [-2, 1, -2, 8, 19], "path": ["0", "0", "12", "13", "14", "19", "21"], "rt": [18320, 90, 964, 35, 138], "actions": ["right", "right", "right", "down", "down"], "actionTimes": [23835, 24449, 25964, 26536, 27195], "queries": {"click": {"state": {"target": ["12", "13", "14", "15", "19", "20", "21"], "time": [7105, 7984, 8935, 10081, 12011, 13234, 16778]}, "edge": {"target": [], "time": []}}, "mouseover": {"state": {"target": ["12", "13", "14", "15", "19", "20", "21", "22"], "time": [6533, 7615, 8349, 9613, 11539, 12859, 14546, 17386]}, "edge": {"target": [], "time": []}}, "mouseout": {"state": {"target": ["22", "0", "12", "13", "14", "15", "14", "19", "19", "20", "21"], "time": [3067, 6471, 7192, 8267, 9416, 10779, 10917, 12112, 12543, 13804, 17243]}, "edge": {"target": [], "time": []}}}, "displayed_time": "27.74", "trialTime": 29348, "trial_type": "mouselab-mdp", "trial_index": 47, "time_elapsed": 1938707, "internal_node_id": "0.0-6.0-1.0-38.0"}}, {"uniqueid": "w21696427:a35565455", "current_trial": 48, "dateTime": 1693665025827, "trialdata": {"revealed_states": [], "clicked_states": ["12", "13", "14", "19", "20"], "num_clicks_accrued": [0, 0, 0, 0, 0, 0, 0, 0, 0, 0, 0, 0, 0], "stateRewards": ["", 2, 4, 4, -8, -36, -33, 38, 16, -51, 57, 57, 1, 3, 4, -6, 45, 68, 87, 1, 63, 24, -55, -2, 2, -6, -13, -63, -50, 8, 2, 80, 6, 60], "withholdReward": false, "trial_id": "mdp_trial_40", "block": "test", "trialIndex": 41, "score": 67.25, "costs": -4.75, "simulationMode": [null, null, null, null, null], "rewards": [1, 3, 4, 1, 63], "path": ["0", "0", "12", "13", "14", "19", "20"], "rt": [9930, 30, 56, 18, 90], "actions": ["right", "right", "right", "down", "right"], "actionTimes": [12890, 13575, 14190, 14779, 15430], "queries": {"click": {"state": {"target": ["12", "13", "14", "19", "20"], "time": [4366, 5246, 6198, 7285, 8797]}, "edge": {"target": [], "time": []}}, "mouseover": {"state": {"target": ["12", "13", "14", "19", "20", "21"], "time": [4011, 4809, 5668, 6881, 8248, 9805]}, "edge": {"target": [], "time": []}}, "mouseout": {"state": {"target": ["22", "0", "12", "13", "14", "19", "20", "21"], "time": [729, 3947, 4722, 5406, 6805, 8122, 9742, 16934]}, "edge": {"target": [], "time": []}}}, "displayed_time": "16.95", "trialTime": 18131, "trial_type": "mouselab-mdp", "trial_index": 48, "time_elapsed": 1959496, "internal_node_id": "0.0-6.0-1.0-39.0"}}, {"uniqueid": "w21696427:a35565455", "current_trial": 49, "dateTime": 1693665075497, "trialdata": {"rt": 48972, "response": {"Q0": "$-2 to $2", "Q1": "$-16 to $16", "Q2": "$-88 to $88", "Q3": "The cost for clicking on nodes varied between nodes.", "Q4": "Very motivated"}, "question_order": [0, 1, 2, 3, 4], "trial_id": "final_quiz_control", "trial_type": "survey-multi-choice", "trial_index": 49, "time_elapsed": 2009167, "internal_node_id": "0.0-6.0-2.0"}}, {"uniqueid": "w21696427:a35565455", "current_trial": 50, "dateTime": 1693665227087, "trialdata": {"rt": 151113, "response": {"Q0": "I tried my best to select the path that was going to generate a large total reward at the end of each round.", "Q1": "No", "Q2": "The performance remained constant because my strategy also remained constant"}, "trial_id": "self_report_control", "trial_type": "survey-text", "trial_index": 50, "time_elapsed": 2160758, "internal_node_id": "0.0-6.0-3.0"}}, {"uniqueid": "w21696427:a35565455", "current_trial": 51, "dateTime": 1693665283213, "trialdata": {"rt": 56097, "response": {"Q0": "Strongly agree", "Q1": "Strongly disagree", "Q2": "Strongly agree", "Q3": "Strongly agree", "Q4": "Strongly disagree", "Q5": "Strongly agree", "Q6": "Strongly disagree"}, "question_order": [0, 1, 2, 3, 4, 5, 6], "trial_id": "self_report_2", "trial_type": "survey-multi-choice", "trial_index": 51, "time_elapsed": 2216884, "internal_node_id": "0.0-6.0-4.0"}}, {"uniqueid": "w21696427:a35565455", "current_trial": 52, "dateTime": 1693665313894, "trialdata": {"rt": 30565, "response": {"gender": "male", "age": "24", "colorblind": "0", "effort": "0"}, "trial_type": "survey-html-form", "trial_index": 52, "time_elapsed": 2247565, "internal_node_id": "0.0-6.0-5.0"}}, {"uniqueid": "w21696427:a35565455", "current_trial": 53, "dateTime": 1693665357190, "trialdata": {"rt": 43182, "response": {"Q0": "No", "Q1": "I think so, but I am not sure.", "Q2": ""}, "trial_type": "survey-text", "trial_index": 53, "time_elapsed": 2290860, "internal_node_id": "0.0-6.0-6.0"}}, {"uniqueid": "w21696427:a35565455", "current_trial": 54, "dateTime": 1693665413097, "trialdata": {"rt": 55797, "stimulus": "<h1>Completion Code Instructions (1/2)</h1>\n<br><br><br><br>\nYou have reached the end of the experiment! The completion code consists of two parts: (1) a code with 2 characters (2) a code with 6 characters. On this page, you will receive the second part of the code. The first part of the completion code will be on the next page.\n<br><br>\nThe second part of your completion code is: <b>EWEK22</b>\n<br><br>\nPlease note this down. Then, press 'Next' in order to find the first part of your completion code. Once the data has been saved, you will receive this code either in this window or in the original browser window where you started the experiment.\n <br><br>\n<h2 style='color: red;'>Note: this is <strong>NOT</strong> the full completion code. Copy this down and click 'Next' to get the full completion code on the next page.</h2>", "response": 0, "trial_type": "html-button-response", "trial_index": 54, "time_elapsed": 2346767, "internal_node_id": "0.0-6.0-7.0"}}, {"uniqueid": "w21696427:a35565455", "current_trial": 55, "dateTime": 1693665415295, "trialdata": {"success": true, "trial_type": "fullscreen", "trial_index": 55, "time_elapsed": 2348966, "internal_node_id": "0.0-7.0"}}], "questiondata": {"params": {"CODE": "C6DMOQA6", "MIN_TIME": 14, "inspectCost": 1, "startTime": "Sat Sep 02 2023 15:57:42 GMT+0200 (South Africa Standard Time)", "bonusRate": 0.002, "variance": "1_2_4_8_44", "branching": "31123"}, "final_score": 1501.45}, "eventdata": [{"eventtype": "initialized", "value": null, "timestamp": 1693663061466, "interval": 0}, {"eventtype": "window_resize", "value": [1024, 694], "timestamp": 1693663061466, "interval": 0}, {"eventtype": "window_resize", "value": [1024, 694], "timestamp": 1693663062127, "interval": 661}, {"eventtype": "window_resize", "value": [1366, 708], "timestamp": 1693663066160, "interval": 4033}, {"eventtype": "window_resize", "value": [1366, 768], "timestamp": 1693663074895, "interval": 8735}], "useragent": "Mozilla/5.0 (Windows NT 10.0; Win64; x64) AppleWebKit/537.36 (KHTML, like Gecko) Chrome/116.0.0.0 Safari/537.36", "mode": "live", "id": "w21696427:a35565455", "status": "user data saved", "Beginhit": "2023-09-02 13:57:37.145367", "Beginexp": "2023-09-02 13:57:56.588185", "Endhit": "2023-09-02 14:36:58.61761", "psiturkStatus": 3, "browser": "<redacted>", "platform": "windows", "language": "en-US"}