{"condition": 1, "counterbalance": 0, "assignmentId": "a40214211", "workerId": "w25488418", "hitId": "h25811040", "currenttrial": 74, "bonus": 0, "data": [{"uniqueid": "w25488418:a40214211", "current_trial": 0, "dateTime": 1693567052815, "trialdata": {"success": true, "trial_type": "fullscreen", "trial_index": 0, "time_elapsed": 4549, "internal_node_id": "0.0-0.0"}}, {"uniqueid": "w25488418:a40214211", "current_trial": 1, "dateTime": 1693567067353, "trialdata": {"view_history": [{"page_index": 0, "viewing_time": 14522}], "rt": 14522, "trial_id": "exp_instructions_misaligned", "trial_type": "instructions", "trial_index": 1, "time_elapsed": 19088, "internal_node_id": "0.0-1.0"}}, {"uniqueid": "w25488418:a40214211", "current_trial": 2, "dateTime": 1693567305109, "trialdata": {"view_history": [{"page_index": 0, "viewing_time": 84548}, {"page_index": 1, "viewing_time": 74663}, {"page_index": 2, "viewing_time": 35327}, {"page_index": 3, "viewing_time": 43215}], "rt": 237754, "trial_id": "mouselab_instructions_1_misaligned", "trial_type": "instructions", "trial_index": 2, "time_elapsed": 256844, "internal_node_id": "0.0-2.0-1.0"}}, {"uniqueid": "w25488418:a40214211", "current_trial": 3, "dateTime": 1693567332584, "trialdata": {"revealed_states": [], "clicked_states": ["14"], "num_clicks_accrued": [0, 0, 0, 0, 0, 0, 0, 0, 0, 0, 0, 0, 0], "stateRewards": ["", 10, 10, -10, -10, -10, 10, -10, -10, 10, 10, -10, -10, 10, -10, 10, 10, 10, 10, 10, 10, 10, 10, -10, -10, -10, -10, -10, -10, -10, -10, 10, 10, 10], "withholdReward": false, "trial_id": "practice_1", "block": "test", "trialIndex": 0, "score": 13, "costs": -0.5, "simulationMode": [null, null, null, null, null], "rewards": [-10, 10, -10, 10, 10], "path": ["0", "0", "12", "13", "14", "15", "16"], "rt": [14283, 677, 245, 2082, 426], "actions": ["right", "right", "right", "up", "up"], "actionTimes": [17805, 18982, 19734, 22323, 23253], "queries": {"click": {"state": {"target": ["14"], "time": [9690]}, "edge": {"target": [], "time": []}}, "mouseover": {"state": {"target": ["1", "2", "3", "2", "13", "14", "13", "13", "22", "19", "14"], "time": [6425, 6692, 6825, 7826, 8226, 9127, 11780, 13351, 13447, 16382, 16583]}, "edge": {"target": [], "time": []}}, "mouseout": {"state": {"target": ["0", "1", "2", "3", "2", "13", "14", "13", "13", "22", "19"], "time": [6309, 6492, 6710, 7743, 7876, 8838, 11312, 12423, 13397, 13531, 16483]}, "edge": {"target": [], "time": []}}}, "displayed_time": "23.76", "trialTime": 26934, "trial_type": "mouselab-mdp", "trial_index": 3, "time_elapsed": 284319, "internal_node_id": "0.0-2.0-2.0-0.0"}}, {"uniqueid": "w25488418:a40214211", "current_trial": 4, "dateTime": 1693567348392, "trialdata": {"revealed_states": [], "clicked_states": [], "num_clicks_accrued": [0, 0, 0, 0, 0, 0, 0, 0, 0, 0, 0, 0, 0], "stateRewards": ["", 10, 10, -10, -10, 10, 10, 10, 10, 10, 10, -10, 10, 10, 10, -10, 10, 10, 10, 10, 10, 10, -10, 10, 10, -10, 10, -10, -10, 10, -10, 10, 10, 10], "withholdReward": false, "trial_id": "practice_2", "block": "test", "trialIndex": 1, "score": 13.5, "costs": 0, "simulationMode": [null, null, null, null, null], "rewards": [10, 10, -10, -10, 10], "path": ["0", "0", "23", "24", "25", "30", "32"], "rt": [2264, 532, 567, 989, 616], "actions": ["left", "left", "left", "down", "down"], "actionTimes": [7452, 8487, 9557, 11047, 12157], "queries": {"click": {"state": {"target": [], "time": []}, "edge": {"target": [], "time": []}}, "mouseover": {"state": {"target": [], "time": []}, "edge": {"target": [], "time": []}}, "mouseout": {"state": {"target": ["14", "13", "12"], "time": [3497, 3614, 4397]}, "edge": {"target": [], "time": []}}}, "displayed_time": "12.66", "trialTime": 15496, "trial_type": "mouselab-mdp", "trial_index": 4, "time_elapsed": 300126, "internal_node_id": "0.0-2.0-2.0-1.0"}}, {"uniqueid": "w25488418:a40214211", "current_trial": 5, "dateTime": 1693567399107, "trialdata": {"view_history": [{"page_index": 0, "viewing_time": 37969}, {"page_index": 1, "viewing_time": 12744}], "rt": 50713, "trial_id": "mouselab_instructions_2_misaligned", "trial_type": "instructions", "trial_index": 5, "time_elapsed": 350842, "internal_node_id": "0.0-2.0-3.0"}}, {"uniqueid": "w25488418:a40214211", "current_trial": 6, "dateTime": 1693567485301, "trialdata": {"rt": 86186, "response": {"Q0": "The cost for clicking on nodes may vary between nodes.", "Q1": "The better I perform the higher my bonus will be.", "Q2": "No, the amount of cash at each node of the web may be different each time.", "Q3": "To get the highest total score.", "Q4": "Only after moving the spider.", "Q5": "3 seconds"}, "question_order": [0, 1, 2, 3, 4, 5], "correct": {"Q0": "The cost for clicking on nodes may vary between nodes.", "Q1": "The better I perform the higher my bonus will be.", "Q2": "No, the amount of cash at each node of the web may be different each time.", "Q3": "To get the highest total score.", "Q4": "Only before moving the spider.", "Q5": "3 seconds"}, "trial_id": "mouselab_quiz_misaligned", "trial_type": "survey-multi-choice", "trial_index": 6, "time_elapsed": 437036, "internal_node_id": "0.0-2.0-4.0"}}, {"uniqueid": "w25488418:a40214211", "current_trial": 7, "dateTime": 1693567497052, "trialdata": {"success": true, "trial_type": "fullscreen", "trial_index": 7, "time_elapsed": 448786, "internal_node_id": "0.0-2.1-0.1-0.1"}}, {"uniqueid": "w25488418:a40214211", "current_trial": 8, "dateTime": 1693567511928, "trialdata": {"view_history": [{"page_index": 0, "viewing_time": 5627}, {"page_index": 1, "viewing_time": 3617}, {"page_index": 2, "viewing_time": 3257}, {"page_index": 3, "viewing_time": 2369}], "rt": 14871, "trial_id": "mouselab_instructions_1_misaligned", "trial_type": "instructions", "trial_index": 8, "time_elapsed": 463663, "internal_node_id": "0.0-2.1-1.1"}}, {"uniqueid": "w25488418:a40214211", "current_trial": 9, "dateTime": 1693567529021, "trialdata": {"revealed_states": [], "clicked_states": ["14"], "num_clicks_accrued": [0, 0, 0, 0, 0, 0, 0, 0, 0, 0, 0, 0, 0], "stateRewards": ["", 10, 10, -10, -10, -10, 10, -10, -10, 10, 10, -10, -10, 10, -10, 10, 10, 10, 10, 10, 10, 10, 10, -10, -10, -10, -10, -10, -10, -10, -10, 10, 10, 10], "withholdReward": false, "trial_id": "practice_1", "block": "test", "trialIndex": 2, "score": 13, "costs": -0.5, "simulationMode": [null, null, null, null, null], "rewards": [-10, 10, -10, 10, 10], "path": ["0", "0", "12", "13", "14", "15", "16"], "rt": [4800, 763, 336, 1222, 493], "actions": ["right", "right", "right", "up", "up"], "actionTimes": [9640, 10900, 11740, 13460, 14451], "queries": {"click": {"state": {"target": ["14"], "time": [6576]}, "edge": {"target": [], "time": []}}, "mouseover": {"state": {"target": ["13", "14", "14"], "time": [5563, 5617, 5979]}, "edge": {"target": [], "time": []}}, "mouseout": {"state": {"target": ["0", "13", "14", "14", "13", "12", "13", "14"], "time": [2393, 2426, 2460, 3727, 3828, 4028, 5580, 5646]}, "edge": {"target": [], "time": []}}}, "displayed_time": "14.96", "trialTime": 16771, "trial_type": "mouselab-mdp", "trial_index": 9, "time_elapsed": 480754, "internal_node_id": "0.0-2.1-2.1-0.1"}}, {"uniqueid": "w25488418:a40214211", "current_trial": 10, "dateTime": 1693567542260, "trialdata": {"revealed_states": [], "clicked_states": [], "num_clicks_accrued": [0, 0, 0, 0, 0, 0, 0, 0, 0, 0, 0, 0, 0], "stateRewards": ["", 10, 10, -10, -10, 10, 10, 10, 10, 10, 10, -10, 10, 10, 10, -10, 10, 10, 10, 10, 10, 10, -10, 10, 10, -10, 10, -10, -10, 10, -10, 10, 10, 10], "withholdReward": false, "trial_id": "practice_2", "block": "test", "trialIndex": 3, "score": 13.5, "costs": 0, "simulationMode": [null, null, null, null, null], "rewards": [10, 10, -10, 10, -10], "path": ["0", "0", "23", "24", "25", "26", "27"], "rt": [1113, 558, 196, 2836, 611], "actions": ["left", "left", "left", "up", "up"], "actionTimes": [4557, 5617, 6307, 9647, 10758], "queries": {"click": {"state": {"target": [], "time": []}, "edge": {"target": [], "time": []}}, "mouseover": {"state": {"target": [], "time": []}, "edge": {"target": [], "time": []}}, "mouseout": {"state": {"target": ["14", "13", "12"], "time": [2276, 2303, 2353]}, "edge": {"target": [], "time": []}}}, "displayed_time": "11.26", "trialTime": 12907, "trial_type": "mouselab-mdp", "trial_index": 10, "time_elapsed": 493994, "internal_node_id": "0.0-2.1-2.1-1.1"}}, {"uniqueid": "w25488418:a40214211", "current_trial": 11, "dateTime": 1693567556062, "trialdata": {"view_history": [{"page_index": 0, "viewing_time": 10166}, {"page_index": 1, "viewing_time": 3628}], "rt": 13795, "trial_id": "mouselab_instructions_2_misaligned", "trial_type": "instructions", "trial_index": 11, "time_elapsed": 507797, "internal_node_id": "0.0-2.1-3.1"}}, {"uniqueid": "w25488418:a40214211", "current_trial": 12, "dateTime": 1693567960115, "trialdata": {"rt": 404042, "response": {"Q0": "The cost for clicking on nodes may vary between nodes.", "Q1": "The better I perform the higher my bonus will be.", "Q2": "Yes.", "Q3": "To get the highest total score.", "Q4": "Only after moving the spider.", "Q5": "3 seconds"}, "question_order": [0, 1, 2, 3, 4, 5], "correct": {"Q0": "The cost for clicking on nodes may vary between nodes.", "Q1": "The better I perform the higher my bonus will be.", "Q2": "No, the amount of cash at each node of the web may be different each time.", "Q3": "To get the highest total score.", "Q4": "Only before moving the spider.", "Q5": "3 seconds"}, "trial_id": "mouselab_quiz_misaligned", "trial_type": "survey-multi-choice", "trial_index": 12, "time_elapsed": 911850, "internal_node_id": "0.0-2.1-4.1"}}, {"uniqueid": "w25488418:a40214211", "current_trial": 13, "dateTime": 1693567965178, "trialdata": {"success": true, "trial_type": "fullscreen", "trial_index": 13, "time_elapsed": 916913, "internal_node_id": "0.0-2.2-0.2-0.2"}}, {"uniqueid": "w25488418:a40214211", "current_trial": 14, "dateTime": 1693568099847, "trialdata": {"view_history": [{"page_index": 0, "viewing_time": 34541}, {"page_index": 1, "viewing_time": 54255}, {"page_index": 2, "viewing_time": 14680}, {"page_index": 3, "viewing_time": 31191}], "rt": 134667, "trial_id": "mouselab_instructions_1_misaligned", "trial_type": "instructions", "trial_index": 14, "time_elapsed": 1051582, "internal_node_id": "0.0-2.2-1.2"}}, {"uniqueid": "w25488418:a40214211", "current_trial": 15, "dateTime": 1693568111438, "trialdata": {"revealed_states": [], "clicked_states": ["14"], "num_clicks_accrued": [0, 0, 0, 0, 0, 0, 0, 0, 0, 0, 0, 0, 0], "stateRewards": ["", 10, 10, -10, -10, -10, 10, -10, -10, 10, 10, -10, -10, 10, -10, 10, 10, 10, 10, 10, 10, 10, 10, -10, -10, -10, -10, -10, -10, -10, -10, 10, 10, 10], "withholdReward": false, "trial_id": "practice_1", "block": "test", "trialIndex": 4, "score": 13, "costs": -0.5, "simulationMode": [null, null, null, null, null], "rewards": [-10, 10, -10, 10, 10], "path": ["0", "0", "12", "13", "14", "15", "16"], "rt": [2952, 951, 131, 747, 147], "actions": ["right", "right", "right", "up", "up"], "actionTimes": [4809, 6257, 6886, 8137, 8787], "queries": {"click": {"state": {"target": ["14"], "time": [3054]}, "edge": {"target": [], "time": []}}, "mouseover": {"state": {"target": ["12", "13", "14"], "time": [2599, 2666, 2732]}, "edge": {"target": [], "time": []}}, "mouseout": {"state": {"target": ["0", "12", "13", "14", "21"], "time": [2566, 2632, 2699, 4417, 10188]}, "edge": {"target": [], "time": []}}}, "displayed_time": "9.29", "trialTime": 11227, "trial_type": "mouselab-mdp", "trial_index": 15, "time_elapsed": 1063172, "internal_node_id": "0.0-2.2-2.2-0.2"}}, {"uniqueid": "w25488418:a40214211", "current_trial": 16, "dateTime": 1693568123238, "trialdata": {"revealed_states": [], "clicked_states": [], "num_clicks_accrued": [0, 0, 0, 0, 0, 0, 0, 0, 0, 0, 0, 0, 0], "stateRewards": ["", 10, 10, -10, -10, 10, 10, 10, 10, 10, 10, -10, 10, 10, 10, -10, 10, 10, 10, 10, 10, 10, -10, 10, 10, -10, 10, -10, -10, 10, -10, 10, 10, 10], "withholdReward": false, "trial_id": "practice_2", "block": "test", "trialIndex": 5, "score": 53.5, "costs": 0, "simulationMode": [null, null, null, null, null], "rewards": [10, 10, 10, 10, 10], "path": ["0", "0", "12", "13", "14", "19", "21"], "rt": [3004, 180, 226, 758, 507], "actions": ["right", "right", "right", "down", "down"], "actionTimes": [5469, 6167, 6889, 8139, 9139], "queries": {"click": {"state": {"target": [], "time": []}, "edge": {"target": [], "time": []}}, "mouseover": {"state": {"target": [], "time": []}, "edge": {"target": [], "time": []}}, "mouseout": {"state": {"target": [], "time": []}, "edge": {"target": [], "time": []}}}, "displayed_time": "9.63", "trialTime": 11459, "trial_type": "mouselab-mdp", "trial_index": 16, "time_elapsed": 1074971, "internal_node_id": "0.0-2.2-2.2-1.2"}}, {"uniqueid": "w25488418:a40214211", "current_trial": 17, "dateTime": 1693568148503, "trialdata": {"view_history": [{"page_index": 0, "viewing_time": 23921}, {"page_index": 1, "viewing_time": 1336}], "rt": 25258, "trial_id": "mouselab_instructions_2_misaligned", "trial_type": "instructions", "trial_index": 17, "time_elapsed": 1100238, "internal_node_id": "0.0-2.2-3.2"}}, {"uniqueid": "w25488418:a40214211", "current_trial": 18, "dateTime": 1693568313372, "trialdata": {"rt": 164867, "response": {"Q0": "The cost for clicking on nodes may vary between nodes.", "Q1": "The better I perform the higher my bonus will be.", "Q2": "No, the amount of cash at each node of the web may be different each time.", "Q3": "To get the highest total score.", "Q4": "Any time during the round.", "Q5": "3 seconds"}, "question_order": [0, 1, 2, 3, 4, 5], "correct": {"Q0": "The cost for clicking on nodes may vary between nodes.", "Q1": "The better I perform the higher my bonus will be.", "Q2": "No, the amount of cash at each node of the web may be different each time.", "Q3": "To get the highest total score.", "Q4": "Only before moving the spider.", "Q5": "3 seconds"}, "trial_id": "mouselab_quiz_misaligned", "trial_type": "survey-multi-choice", "trial_index": 18, "time_elapsed": 1265107, "internal_node_id": "0.0-2.2-4.2"}}, {"uniqueid": "w25488418:a40214211", "current_trial": 19, "dateTime": 1693568320757, "trialdata": {"success": true, "trial_type": "fullscreen", "trial_index": 19, "time_elapsed": 1272492, "internal_node_id": "0.0-2.3-0.3-0.3"}}, {"uniqueid": "w25488418:a40214211", "current_trial": 20, "dateTime": 1693568356003, "trialdata": {"view_history": [{"page_index": 0, "viewing_time": 3817}, {"page_index": 1, "viewing_time": 28521}, {"page_index": 2, "viewing_time": 1743}, {"page_index": 3, "viewing_time": 1160}], "rt": 35241, "trial_id": "mouselab_instructions_1_misaligned", "trial_type": "instructions", "trial_index": 20, "time_elapsed": 1307737, "internal_node_id": "0.0-2.3-1.3"}}, {"uniqueid": "w25488418:a40214211", "current_trial": 21, "dateTime": 1693568372440, "trialdata": {"revealed_states": [], "clicked_states": ["14"], "num_clicks_accrued": [0, 0, 0, 0, 0, 0, 0, 0, 0, 0, 0, 0, 0], "stateRewards": ["", 10, 10, -10, -10, -10, 10, -10, -10, 10, 10, -10, -10, 10, -10, 10, 10, 10, 10, 10, 10, 10, 10, -10, -10, -10, -10, -10, -10, -10, -10, 10, 10, 10], "withholdReward": false, "trial_id": "practice_1", "block": "test", "trialIndex": 6, "score": 13, "costs": -0.5, "simulationMode": [null, null, null, null, null], "rewards": [-10, 10, -10, 10, 10], "path": ["0", "0", "12", "13", "14", "15", "16"], "rt": [3364, 379, 107, 806, 16], "actions": ["right", "right", "right", "up", "up"], "actionTimes": [10470, 11356, 11965, 13265, 13774], "queries": {"click": {"state": {"target": ["14"], "time": [8743]}, "edge": {"target": [], "time": []}}, "mouseover": {"state": {"target": ["14"], "time": [8417]}, "edge": {"target": [], "time": []}}, "mouseout": {"state": {"target": ["12", "13", "14", "14", "13", "12", "0"], "time": [2546, 2629, 3029, 4247, 4314, 4364, 7839]}, "edge": {"target": [], "time": []}}}, "displayed_time": "14.29", "trialTime": 16055, "trial_type": "mouselab-mdp", "trial_index": 21, "time_elapsed": 1324173, "internal_node_id": "0.0-2.3-2.3-0.3"}}, {"uniqueid": "w25488418:a40214211", "current_trial": 22, "dateTime": 1693568381860, "trialdata": {"revealed_states": [], "clicked_states": [], "num_clicks_accrued": [0, 0, 0, 0, 0, 0, 0, 0, 0, 0, 0, 0, 0], "stateRewards": ["", 10, 10, -10, -10, 10, 10, 10, 10, 10, 10, -10, 10, 10, 10, -10, 10, 10, 10, 10, 10, 10, -10, 10, 10, -10, 10, -10, -10, 10, -10, 10, 10, 10], "withholdReward": false, "trial_id": "practice_2", "block": "test", "trialIndex": 7, "score": 53.5, "costs": 0, "simulationMode": [null, null, null, null, null], "rewards": [10, 10, 10, 10, 10], "path": ["0", "0", "12", "13", "14", "19", "21"], "rt": [1106, 124, 16, 914, 2], "actions": ["right", "right", "right", "down", "down"], "actionTimes": [4050, 4680, 5189, 6620, 7127], "queries": {"click": {"state": {"target": [], "time": []}, "edge": {"target": [], "time": []}}, "mouseover": {"state": {"target": ["12", "13"], "time": [3351, 3417]}, "edge": {"target": [], "time": []}}, "mouseout": {"state": {"target": ["14", "13", "14", "14", "13", "12", "0", "12"], "time": [948, 1582, 1715, 2066, 2132, 2199, 3334, 3400]}, "edge": {"target": [], "time": []}}}, "displayed_time": "7.64", "trialTime": 9050, "trial_type": "mouselab-mdp", "trial_index": 22, "time_elapsed": 1333593, "internal_node_id": "0.0-2.3-2.3-1.3"}}, {"uniqueid": "w25488418:a40214211", "current_trial": 23, "dateTime": 1693568389274, "trialdata": {"view_history": [{"page_index": 0, "viewing_time": 5958}, {"page_index": 1, "viewing_time": 1448}], "rt": 7407, "trial_id": "mouselab_instructions_2_misaligned", "trial_type": "instructions", "trial_index": 23, "time_elapsed": 1341009, "internal_node_id": "0.0-2.3-3.3"}}, {"uniqueid": "w25488418:a40214211", "current_trial": 24, "dateTime": 1693568455426, "trialdata": {"rt": 66149, "response": {"Q0": "The cost for clicking on nodes may vary between nodes.", "Q1": "The better I perform the higher my bonus will be.", "Q2": "No, the amount of cash at each node of the web may be different each time.", "Q3": "To get the highest total score.", "Q4": "Only before moving the spider.", "Q5": "3 seconds"}, "question_order": [0, 1, 2, 3, 4, 5], "correct": {"Q0": "The cost for clicking on nodes may vary between nodes.", "Q1": "The better I perform the higher my bonus will be.", "Q2": "No, the amount of cash at each node of the web may be different each time.", "Q3": "To get the highest total score.", "Q4": "Only before moving the spider.", "Q5": "3 seconds"}, "trial_id": "mouselab_quiz_misaligned", "trial_type": "survey-multi-choice", "trial_index": 24, "time_elapsed": 1407161, "internal_node_id": "0.0-2.3-4.3"}}, {"uniqueid": "w25488418:a40214211", "current_trial": 25, "dateTime": 1693568463194, "trialdata": {"rt": 7759, "response": {"Q0": "No"}, "question_order": [0], "trial_id": "repeat_check", "trial_type": "survey-multi-choice", "trial_index": 25, "time_elapsed": 1414928, "internal_node_id": "0.0-4.0-0.0"}}, {"uniqueid": "w25488418:a40214211", "current_trial": 26, "dateTime": 1693568468112, "trialdata": {"rt": 4913, "stimulus": "\n<h1> Get ready to start the game! </h1>\n\nThank you for reading the instructions. Get ready start with the 40 rounds of this game.\n<br><br>\nIf you need to take a break, feel free to take one after the end of a round, before continuing to the next one.\n<br><br>\nRemember, the more money the spider gets, the bigger your bonus will be!\n<br><br>\n<div style='text-align: center;'>Press <code>space</code> to begin.</div>\n\n<br><br>\n(If, at any point, the <code>space</code> key does not take you to the next page, click once on the text and try again.)", "response": " ", "trial_id": "mdp_ready", "trial_type": "html-keyboard-response", "trial_index": 26, "time_elapsed": 1419846, "internal_node_id": "0.0-6.0-0.0"}}, {"uniqueid": "w25488418:a40214211", "current_trial": 27, "dateTime": 1693568489638, "trialdata": {"revealed_states": [], "clicked_states": [], "num_clicks_accrued": [0, 0, 0, 0, 0, 0, 0, 0, 0, 0, 0, 0, 0], "stateRewards": ["", 1, -4, -6, -1, -21, 17, -72, 10, 77, 67, -46, -1, 4, -2, 14, -66, -49, -45, -15, -52, 23, -67, 2, -2, -2, 15, -3, 45, -64, 5, -44, 83, 61], "withholdReward": false, "trial_id": "mdp_trial_1", "block": "test", "trialIndex": 8, "score": 10, "costs": 0, "simulationMode": [null, null, null, null, null], "rewards": [2, -2, -2, 15, -3], "path": ["0", "0", "23", "24", "25", "26", "27"], "rt": [2218, 478, 255, 885, 150], "actions": ["left", "left", "left", "up", "up"], "actionTimes": [7220, 8208, 8968, 10348, 10998], "queries": {"click": {"state": {"target": [], "time": []}, "edge": {"target": [], "time": []}}, "mouseover": {"state": {"target": [], "time": []}, "edge": {"target": [], "time": []}}, "mouseout": {"state": {"target": ["2", "15", "17", "14", "13", "12", "0", "0"], "time": [1286, 1453, 1553, 3638, 3755, 3888, 4055, 5924]}, "edge": {"target": [], "time": []}}}, "displayed_time": "19.00", "trialTime": 21148, "trial_type": "mouselab-mdp", "trial_index": 27, "time_elapsed": 1441373, "internal_node_id": "0.0-6.0-1.0-0.0"}}, {"uniqueid": "w25488418:a40214211", "current_trial": 28, "dateTime": 1693568510142, "trialdata": {"revealed_states": [], "clicked_states": ["19"], "num_clicks_accrued": [0, 0, 0, 0, 0, 0, 0, 0, 0, 0, 0, 0, 0], "stateRewards": ["", 1, 1, -3, 2, 22, -25, -11, -5, 50, 49, 3, 1, -1, 8, 14, -85, -30, 57, -6, -39, -16, 59, -2, -1, 5, 5, 59, -16, 8, 4, 67, 56, -9], "withholdReward": false, "trial_id": "mdp_trial_2", "block": "test", "trialIndex": 9, "score": -64.55, "costs": -1.55, "simulationMode": [null, null, null, null, null], "rewards": [1, -1, 8, 14, -85], "path": ["0", "0", "12", "13", "14", "15", "16"], "rt": [3479, 436, 205, 557, 155], "actions": ["right", "right", "right", "up", "up"], "actionTimes": [6245, 7193, 7903, 8953, 9603], "queries": {"click": {"state": {"target": ["19"], "time": [4527]}, "edge": {"target": [], "time": []}}, "mouseover": {"state": {"target": ["12", "22", "21", "19"], "time": [3204, 3388, 3838, 4271]}, "edge": {"target": [], "time": []}}, "mouseout": {"state": {"target": ["0", "0", "0", "12", "22", "21", "19"], "time": [1065, 1219, 3154, 3221, 3454, 4205, 14464]}, "edge": {"target": [], "time": []}}}, "displayed_time": "16.77", "trialTime": 20114, "trial_type": "mouselab-mdp", "trial_index": 28, "time_elapsed": 1461876, "internal_node_id": "0.0-6.0-1.0-1.0"}}, {"uniqueid": "w25488418:a40214211", "current_trial": 29, "dateTime": 1693568531631, "trialdata": {"revealed_states": [], "clicked_states": [], "num_clicks_accrued": [0, 0, 0, 0, 0, 0, 0, 0, 0, 0, 0, 0, 0], "stateRewards": ["", 1, 4, 5, -5, 58, -80, 75, 6, 25, -39, 46, 2, -2, 4, 2, 59, 31, -22, -12, -61, 15, 72, 1, -2, -7, 8, 77, 76, -23, -7, 71, -15, -3], "withholdReward": false, "trial_id": "mdp_trial_3", "block": "test", "trialIndex": 10, "score": 63, "costs": 0, "simulationMode": [null, null, null, null, null], "rewards": [1, 4, 5, -5, 58], "path": ["0", "0", "1", "2", "3", "4", "5"], "rt": [1800, 266, 160, 704, 601], "actions": ["up", "up", "up", "right", "up"], "actionTimes": [5607, 6392, 7052, 8262, 9361], "queries": {"click": {"state": {"target": [], "time": []}, "edge": {"target": [], "time": []}}, "mouseover": {"state": {"target": [], "time": []}, "edge": {"target": [], "time": []}}, "mouseout": {"state": {"target": ["19", "22", "30", "33", "30", "31", "0"], "time": [2177, 2217, 2284, 2500, 2700, 2751, 3351]}, "edge": {"target": [], "time": []}}}, "displayed_time": "17.81", "trialTime": 21052, "trial_type": "mouselab-mdp", "trial_index": 29, "time_elapsed": 1483365, "internal_node_id": "0.0-6.0-1.0-2.0"}}, {"uniqueid": "w25488418:a40214211", "current_trial": 30, "dateTime": 1693568550440, "trialdata": {"revealed_states": [], "clicked_states": [], "num_clicks_accrued": [0, 0, 0, 0, 0, 0, 0, 0, 0, 0, 0, 0, 0], "stateRewards": ["", -1, 3, 1, -7, 56, 76, 57, 3, 11, -9, 14, 1, -2, 2, 8, -77, -3, 79, -5, 88, 24, -66, -2, -1, 7, -7, -30, 14, -76, 11, -36, 28, -6], "withholdReward": false, "trial_id": "mdp_trial_4", "block": "test", "trialIndex": 11, "score": 43, "costs": 0, "simulationMode": [null, null, null, null, null], "rewards": [-2, -1, 7, 11, 28], "path": ["0", "0", "23", "24", "25", "30", "32"], "rt": [4141, 400, 260, 623, 325], "actions": ["left", "left", "left", "down", "down"], "actionTimes": [6457, 7366, 8126, 9256, 10076], "queries": {"click": {"state": {"target": [], "time": []}, "edge": {"target": [], "time": []}}, "mouseover": {"state": {"target": ["24", "25"], "time": [5226, 5360]}, "edge": {"target": [], "time": []}}, "mouseout": {"state": {"target": ["0", "0", "24", "25"], "time": [1273, 4876, 5276, 5943]}, "edge": {"target": [], "time": []}}}, "displayed_time": "16.32", "trialTime": 18386, "trial_type": "mouselab-mdp", "trial_index": 30, "time_elapsed": 1502174, "internal_node_id": "0.0-6.0-1.0-3.0"}}, {"uniqueid": "w25488418:a40214211", "current_trial": 31, "dateTime": 1693568570910, "trialdata": {"revealed_states": [], "clicked_states": [], "num_clicks_accrued": [0, 0, 0, 0, 0, 0, 0, 0, 0, 0, 0, 0, 0], "stateRewards": ["", 2, -4, 7, 3, 23, -42, 4, 7, -81, -33, 7, -2, -4, 5, -1, 50, -57, -14, -13, -14, 44, 55, -2, -2, 5, -2, 33, 1, 57, -13, -7, 58, 87], "withholdReward": false, "trial_id": "mdp_trial_5", "block": "test", "trialIndex": 12, "score": 19, "costs": 0, "simulationMode": [null, null, null, null, null], "rewards": [2, -4, 7, 7, 7], "path": ["0", "0", "1", "2", "3", "8", "11"], "rt": [1525, 435, 640, 716, 119], "actions": ["up", "up", "up", "left", "left"], "actionTimes": [4702, 5633, 6774, 7984, 8603], "queries": {"click": {"state": {"target": [], "time": []}, "edge": {"target": [], "time": []}}, "mouseover": {"state": {"target": [], "time": []}, "edge": {"target": [], "time": []}}, "mouseout": {"state": {"target": ["24", "13", "12", "0"], "time": [1492, 1658, 2225, 10014]}, "edge": {"target": [], "time": []}}}, "displayed_time": "17.18", "trialTime": 20043, "trial_type": "mouselab-mdp", "trial_index": 31, "time_elapsed": 1522643, "internal_node_id": "0.0-6.0-1.0-4.0"}}, {"uniqueid": "w25488418:a40214211", "current_trial": 32, "dateTime": 1693568590465, "trialdata": {"revealed_states": [], "clicked_states": [], "num_clicks_accrued": [0, 0, 0, 0, 0, 0, 0, 0, 0, 0, 0, 0, 0], "stateRewards": ["", -2, 4, -7, -3, -76, 39, -28, 10, 14, 12, 60, 2, -3, 6, -10, 88, -34, -41, -3, 72, -13, -56, 1, 3, 2, 8, -51, 23, -57, 1, 14, -46, -16], "withholdReward": false, "trial_id": "mdp_trial_6", "block": "test", "trialIndex": 13, "score": 74, "costs": 0, "simulationMode": [null, null, null, null, null], "rewards": [2, -3, 6, -3, 72], "path": ["0", "0", "12", "13", "14", "19", "20"], "rt": [1819, 355, 354, 674, 756], "actions": ["right", "right", "right", "down", "right"], "actionTimes": [4033, 4886, 5733, 6904, 8154], "queries": {"click": {"state": {"target": [], "time": []}, "edge": {"target": [], "time": []}}, "mouseover": {"state": {"target": ["0"], "time": [2227]}, "edge": {"target": [], "time": []}}, "mouseout": {"state": {"target": ["12"], "time": [1288]}, "edge": {"target": [], "time": []}}}, "displayed_time": "16.22", "trialTime": 19133, "trial_type": "mouselab-mdp", "trial_index": 32, "time_elapsed": 1542199, "internal_node_id": "0.0-6.0-1.0-5.0"}}, {"uniqueid": "w25488418:a40214211", "current_trial": 33, "dateTime": 1693568611913, "trialdata": {"revealed_states": [], "clicked_states": [], "num_clicks_accrued": [0, 0, 0, 0, 0, 0, 0, 0, 0, 0, 0, 0, 0], "stateRewards": ["", -2, -1, -2, -15, 87, 57, 29, -10, 77, -80, -7, 1, -3, 6, 14, -11, 87, -59, 4, -71, 16, -11, 2, 2, -7, 2, -47, 61, 50, 14, -20, 17, 81], "withholdReward": false, "trial_id": "mdp_trial_7", "block": "test", "trialIndex": 14, "score": 60, "costs": 0, "simulationMode": [null, null, null, null, null], "rewards": [2, 2, -7, 2, 61], "path": ["0", "0", "23", "24", "25", "26", "28"], "rt": [1299, 509, 368, 769, 664], "actions": ["left", "left", "left", "up", "right"], "actionTimes": [5457, 6477, 7347, 8617, 9777], "queries": {"click": {"state": {"target": [], "time": []}, "edge": {"target": [], "time": []}}, "mouseover": {"state": {"target": [], "time": []}, "edge": {"target": [], "time": []}}, "mouseout": {"state": {"target": ["0", "6", "13"], "time": [1781, 1836, 3070]}, "edge": {"target": [], "time": []}}}, "displayed_time": "18.16", "trialTime": 21014, "trial_type": "mouselab-mdp", "trial_index": 33, "time_elapsed": 1563647, "internal_node_id": "0.0-6.0-1.0-6.0"}}, {"uniqueid": "w25488418:a40214211", "current_trial": 34, "dateTime": 1693568633238, "trialdata": {"revealed_states": [], "clicked_states": [], "num_clicks_accrued": [0, 0, 0, 0, 0, 0, 0, 0, 0, 0, 0, 0, 0], "stateRewards": ["", -1, 2, 7, 8, 75, 67, -11, 6, 52, -17, 38, -1, 4, -8, 14, 74, -37, -17, -12, 52, 55, 71, -2, -1, -5, 2, 21, 6, -88, -14, 64, -61, -47], "withholdReward": false, "trial_id": "mdp_trial_8", "block": "test", "trialIndex": 15, "score": 54, "costs": 0, "simulationMode": [null, null, null, null, null], "rewards": [-1, 4, -8, -12, 71], "path": ["0", "0", "12", "13", "14", "19", "22"], "rt": [2960, 475, 368, 740, 827], "actions": ["right", "right", "right", "down", "left"], "actionTimes": [6060, 7039, 7899, 9141, 10461], "queries": {"click": {"state": {"target": [], "time": []}, "edge": {"target": [], "time": []}}, "mouseover": {"state": {"target": [], "time": []}, "edge": {"target": [], "time": []}}, "mouseout": {"state": {"target": ["0", "23"], "time": [1872, 2206]}, "edge": {"target": [], "time": []}}}, "displayed_time": "17.10", "trialTime": 20890, "trial_type": "mouselab-mdp", "trial_index": 34, "time_elapsed": 1584972, "internal_node_id": "0.0-6.0-1.0-7.0"}}, {"uniqueid": "w25488418:a40214211", "current_trial": 35, "dateTime": 1693568652027, "trialdata": {"revealed_states": [], "clicked_states": [], "num_clicks_accrued": [0, 0, 0, 0, 0, 0, 0, 0, 0, 0, 0, 0, 0], "stateRewards": ["", -2, 3, -1, 2, -72, 63, 20, -1, 62, -66, 39, -2, 3, -6, 14, 22, 47, 1, 8, -49, -1, -41, 2, 2, -6, -16, -64, -60, -34, 16, 54, 22, -7], "withholdReward": false, "trial_id": "mdp_trial_9", "block": "test", "trialIndex": 16, "score": 22, "costs": 0, "simulationMode": [null, null, null, null, null], "rewards": [-2, 3, -1, 2, 20], "path": ["0", "0", "1", "2", "3", "4", "7"], "rt": [1499, 734, 498, 479, 314], "actions": ["up", "up", "up", "right", "down"], "actionTimes": [4072, 5312, 6311, 7292, 8112], "queries": {"click": {"state": {"target": [], "time": []}, "edge": {"target": [], "time": []}}, "mouseover": {"state": {"target": [], "time": []}, "edge": {"target": [], "time": []}}, "mouseout": {"state": {"target": [], "time": []}, "edge": {"target": [], "time": []}}}, "displayed_time": "16.58", "trialTime": 18312, "trial_type": "mouselab-mdp", "trial_index": 35, "time_elapsed": 1603761, "internal_node_id": "0.0-6.0-1.0-8.0"}}, {"uniqueid": "w25488418:a40214211", "current_trial": 36, "dateTime": 1693568672757, "trialdata": {"revealed_states": [], "clicked_states": [], "num_clicks_accrued": [0, 0, 0, 0, 0, 0, 0, 0, 0, 0, 0, 0, 0], "stateRewards": ["", 1, -2, 4, 7, -43, -83, -60, -5, -86, -80, 83, -1, -2, 6, 11, -15, 21, 13, 9, 29, -49, 11, -1, 4, -6, -11, 87, 40, 63, -8, -39, -11, 62], "withholdReward": false, "trial_id": "mdp_trial_10", "block": "test", "trialIndex": 17, "score": 26, "costs": 0, "simulationMode": [null, null, null, null, null], "rewards": [-1, 4, -6, -11, 40], "path": ["0", "0", "23", "24", "25", "26", "28"], "rt": [1945, 642, 407, 813, 1298], "actions": ["left", "left", "left", "up", "right"], "actionTimes": [4926, 6075, 6975, 8285, 10085], "queries": {"click": {"state": {"target": [], "time": []}, "edge": {"target": [], "time": []}}, "mouseover": {"state": {"target": [], "time": []}, "edge": {"target": [], "time": []}}, "mouseout": {"state": {"target": [], "time": []}, "edge": {"target": [], "time": []}}}, "displayed_time": "16.98", "trialTime": 20266, "trial_type": "mouselab-mdp", "trial_index": 36, "time_elapsed": 1624490, "internal_node_id": "0.0-6.0-1.0-9.0"}}, {"uniqueid": "w25488418:a40214211", "current_trial": 37, "dateTime": 1693568691157, "trialdata": {"revealed_states": [], "clicked_states": [], "num_clicks_accrued": [0, 0, 0, 0, 0, 0, 0, 0, 0, 0, 0, 0, 0], "stateRewards": ["", 2, -1, 4, -9, -43, 7, 54, -13, 38, -40, -83, -1, 2, -8, -10, 34, -33, 11, -14, -79, 65, 26, 1, 2, 4, 10, 21, 1, 86, 4, -53, 28, -29], "withholdReward": false, "trial_id": "mdp_trial_11", "block": "test", "trialIndex": 18, "score": -18, "costs": 0, "simulationMode": [null, null, null, null, null], "rewards": [1, 2, 4, 4, -29], "path": ["0", "0", "23", "24", "25", "30", "33"], "rt": [1825, 590, 386, 771, 434], "actions": ["left", "left", "left", "down", "left"], "actionTimes": [3378, 4468, 5348, 6617, 7548], "queries": {"click": {"state": {"target": [], "time": []}, "edge": {"target": [], "time": []}}, "mouseover": {"state": {"target": [], "time": []}, "edge": {"target": [], "time": []}}, "mouseout": {"state": {"target": [], "time": []}, "edge": {"target": [], "time": []}}}, "displayed_time": "15.55", "trialTime": 17929, "trial_type": "mouselab-mdp", "trial_index": 37, "time_elapsed": 1642891, "internal_node_id": "0.0-6.0-1.0-10.0"}}, {"uniqueid": "w25488418:a40214211", "current_trial": 38, "dateTime": 1693568709765, "trialdata": {"revealed_states": [], "clicked_states": [], "num_clicks_accrued": [0, 0, 0, 0, 0, 0, 0, 0, 0, 0, 0, 0, 0], "stateRewards": ["", -1, 3, 1, -11, -22, -36, 19, -5, -70, -52, 50, -2, -4, 4, -2, -41, -83, 29, -2, 22, 10, -6, -2, 3, -2, 14, 54, 44, 77, -9, -65, -37, -40], "withholdReward": false, "trial_id": "mdp_trial_12", "block": "test", "trialIndex": 19, "score": -10, "costs": 0, "simulationMode": [null, null, null, null, null], "rewards": [-2, -4, 4, -2, -6], "path": ["0", "0", "12", "13", "14", "19", "22"], "rt": [1596, 443, 394, 831, 826], "actions": ["right", "right", "right", "down", "left"], "actionTimes": [3357, 4297, 5199, 6537, 7867], "queries": {"click": {"state": {"target": [], "time": []}, "edge": {"target": [], "time": []}}, "mouseover": {"state": {"target": [], "time": []}, "edge": {"target": [], "time": []}}, "mouseout": {"state": {"target": [], "time": []}, "edge": {"target": [], "time": []}}}, "displayed_time": "15.76", "trialTime": 18117, "trial_type": "mouselab-mdp", "trial_index": 38, "time_elapsed": 1661499, "internal_node_id": "0.0-6.0-1.0-11.0"}}, {"uniqueid": "w25488418:a40214211", "current_trial": 39, "dateTime": 1693568728422, "trialdata": {"revealed_states": [], "clicked_states": [], "num_clicks_accrued": [0, 0, 0, 0, 0, 0, 0, 0, 0, 0, 0, 0, 0], "stateRewards": ["", 2, 3, -2, -8, -8, -41, 74, 15, -23, -80, 1, 1, 3, 3, -15, -63, -78, 67, 13, 75, -41, 86, 2, -2, 6, -3, -8, -49, 50, -6, 83, 74, 80], "withholdReward": false, "trial_id": "mdp_trial_13", "block": "test", "trialIndex": 20, "score": 19, "costs": 0, "simulationMode": [null, null, null, null, null], "rewards": [2, 3, -2, 15, 1], "path": ["0", "0", "1", "2", "3", "8", "11"], "rt": [722, 355, 325, 2117, 559], "actions": ["up", "up", "up", "left", "left"], "actionTimes": [2824, 3686, 4506, 7116, 8176], "queries": {"click": {"state": {"target": [], "time": []}, "edge": {"target": [], "time": []}}, "mouseover": {"state": {"target": [], "time": []}, "edge": {"target": [], "time": []}}, "mouseout": {"state": {"target": [], "time": []}, "edge": {"target": [], "time": []}}}, "displayed_time": "16.11", "trialTime": 18156, "trial_type": "mouselab-mdp", "trial_index": 39, "time_elapsed": 1680156, "internal_node_id": "0.0-6.0-1.0-12.0"}}, {"uniqueid": "w25488418:a40214211", "current_trial": 40, "dateTime": 1693568747179, "trialdata": {"revealed_states": [], "clicked_states": [], "num_clicks_accrued": [0, 0, 0, 0, 0, 0, 0, 0, 0, 0, 0, 0, 0], "stateRewards": ["", 2, 1, -3, 7, 46, 11, -36, 16, 71, 5, 1, 2, -2, -8, -3, -4, 6, 55, 7, 68, -54, 2, 1, 1, 6, -6, 42, -4, -84, -11, -65, 63, 25], "withholdReward": false, "trial_id": "mdp_trial_14", "block": "test", "trialIndex": 21, "score": 44, "costs": 0, "simulationMode": [null, null, null, null, null], "rewards": [2, -2, -8, -3, 55], "path": ["0", "0", "12", "13", "14", "15", "18"], "rt": [1713, 324, 297, 886, 371], "actions": ["right", "right", "right", "up", "left"], "actionTimes": [3528, 4358, 5148, 6538, 7408], "queries": {"click": {"state": {"target": [], "time": []}, "edge": {"target": [], "time": []}}, "mouseover": {"state": {"target": [], "time": []}, "edge": {"target": [], "time": []}}, "mouseout": {"state": {"target": ["0", "23", "28", "8", "4"], "time": [12369, 12402, 12485, 12586, 18196]}, "edge": {"target": [], "time": []}}}, "displayed_time": "15.82", "trialTime": 18286, "trial_type": "mouselab-mdp", "trial_index": 40, "time_elapsed": 1698914, "internal_node_id": "0.0-6.0-1.0-13.0"}}, {"uniqueid": "w25488418:a40214211", "current_trial": 41, "dateTime": 1693568768252, "trialdata": {"revealed_states": [], "clicked_states": ["8"], "num_clicks_accrued": [0, 0, 0, 0, 0, 0, 0, 0, 0, 0, 0, 0, 0], "stateRewards": ["", -2, 1, -7, 9, 8, 25, 61, -7, -17, 69, -81, 1, 4, -4, -11, 16, 67, 44, 3, 6, -45, -54, -2, 3, 6, -11, -15, 32, -47, 3, -39, -6, -88], "withholdReward": false, "trial_id": "mdp_trial_15", "block": "test", "trialIndex": 22, "score": 60.45, "costs": -1.55, "simulationMode": [null, null, null, null, null], "rewards": [-2, 1, -7, 9, 61], "path": ["0", "0", "1", "2", "3", "4", "7"], "rt": [3669, 407, 377, 623, 664], "actions": ["up", "up", "up", "right", "down"], "actionTimes": [7239, 8140, 9011, 10141, 11299], "queries": {"click": {"state": {"target": ["8"], "time": [5230]}, "edge": {"target": [], "time": []}}, "mouseover": {"state": {"target": ["10", "8", "3"], "time": [4360, 4977, 5998]}, "edge": {"target": [], "time": []}}, "mouseout": {"state": {"target": ["7", "18", "12", "0", "10", "8", "3", "7"], "time": [123, 873, 1274, 3893, 4810, 5896, 6746, 12599]}, "edge": {"target": [], "time": []}}}, "displayed_time": "17.57", "trialTime": 20590, "trial_type": "mouselab-mdp", "trial_index": 41, "time_elapsed": 1719986, "internal_node_id": "0.0-6.0-1.0-14.0"}}, {"uniqueid": "w25488418:a40214211", "current_trial": 42, "dateTime": 1693568787862, "trialdata": {"revealed_states": [], "clicked_states": ["25"], "num_clicks_accrued": [0, 0, 0, 0, 0, 0, 0, 0, 0, 0, 0, 0, 0], "stateRewards": ["", 2, -4, -4, 13, -80, 62, 13, -11, 57, -13, -44, 1, 4, 3, -4, -29, -88, 15, 16, -58, 68, -45, -1, -3, -1, -9, -44, -86, -19, -7, -36, 59, 66], "withholdReward": false, "trial_id": "mdp_trial_16", "block": "test", "trialIndex": 23, "score": -34.95, "costs": -0.95, "simulationMode": [null, null, null, null, null], "rewards": [1, 4, 3, 16, -58], "path": ["0", "0", "12", "13", "14", "19", "20"], "rt": [3792, 237, 279, 343, 291], "actions": ["right", "right", "right", "down", "right"], "actionTimes": [6825, 7604, 8384, 9228, 10025], "queries": {"click": {"state": {"target": ["25"], "time": [4948]}, "edge": {"target": [], "time": []}}, "mouseover": {"state": {"target": ["23", "24", "25"], "time": [3426, 3627, 4611]}, "edge": {"target": [], "time": []}}, "mouseout": {"state": {"target": ["23", "24", "25"], "time": [3593, 4395, 5414]}, "edge": {"target": [], "time": []}}}, "displayed_time": "17.03", "trialTime": 19134, "trial_type": "mouselab-mdp", "trial_index": 42, "time_elapsed": 1739595, "internal_node_id": "0.0-6.0-1.0-15.0"}}, {"uniqueid": "w25488418:a40214211", "current_trial": 43, "dateTime": 1693568807471, "trialdata": {"revealed_states": [], "clicked_states": [], "num_clicks_accrued": [0, 0, 0, 0, 0, 0, 0, 0, 0, 0, 0, 0, 0], "stateRewards": ["", 2, 4, -3, 16, -58, 30, -35, 11, -60, 47, 27, -2, -1, -7, -16, 23, -70, 68, -10, -65, -43, -34, -2, 1, 7, 9, -63, 34, -31, -8, -12, -86, 59], "withholdReward": false, "trial_id": "mdp_trial_17", "block": "test", "trialIndex": 24, "score": 61, "costs": 0, "simulationMode": [null, null, null, null, null], "rewards": [2, 4, -3, 11, 47], "path": ["0", "0", "1", "2", "3", "8", "10"], "rt": [683, 226, 244, 755, 504], "actions": ["up", "up", "up", "left", "down"], "actionTimes": [2607, 3337, 4107, 5367, 6367], "queries": {"click": {"state": {"target": [], "time": []}, "edge": {"target": [], "time": []}}, "mouseover": {"state": {"target": [], "time": []}, "edge": {"target": [], "time": []}}, "mouseout": {"state": {"target": ["24", "23"], "time": [971, 1088]}, "edge": {"target": [], "time": []}}}, "displayed_time": "15.93", "trialTime": 19127, "trial_type": "mouselab-mdp", "trial_index": 43, "time_elapsed": 1759205, "internal_node_id": "0.0-6.0-1.0-16.0"}}, {"uniqueid": "w25488418:a40214211", "current_trial": 44, "dateTime": 1693568826692, "trialdata": {"revealed_states": [], "clicked_states": [], "num_clicks_accrued": [0, 0, 0, 0, 0, 0, 0, 0, 0, 0, 0, 0, 0], "stateRewards": ["", -1, 4, -3, 3, 57, -61, 5, -11, 23, -1, 34, -2, -4, -1, -13, 27, 38, -36, 4, -45, 21, 88, 1, -2, -1, 1, -69, -5, -78, -12, -9, 38, -54], "withholdReward": false, "trial_id": "mdp_trial_18", "block": "test", "trialIndex": 25, "score": -48, "costs": 0, "simulationMode": [null, null, null, null, null], "rewards": [-2, -4, -1, 4, -45], "path": ["0", "0", "12", "13", "14", "19", "20"], "rt": [2327, 251, 301, 530, 266], "actions": ["right", "right", "right", "down", "right"], "actionTimes": [4818, 5567, 6367, 7397, 8167], "queries": {"click": {"state": {"target": [], "time": []}, "edge": {"target": [], "time": []}}, "mouseover": {"state": {"target": [], "time": []}, "edge": {"target": [], "time": []}}, "mouseout": {"state": {"target": ["0", "23"], "time": [1304, 1675]}, "edge": {"target": [], "time": []}}}, "displayed_time": "16.49", "trialTime": 18718, "trial_type": "mouselab-mdp", "trial_index": 44, "time_elapsed": 1778425, "internal_node_id": "0.0-6.0-1.0-17.0"}}, {"uniqueid": "w25488418:a40214211", "current_trial": 45, "dateTime": 1693568845878, "trialdata": {"revealed_states": [], "clicked_states": [], "num_clicks_accrued": [0, 0, 0, 0, 0, 0, 0, 0, 0, 0, 0, 0, 0], "stateRewards": ["", 1, -3, 4, 13, -72, 52, 5, 5, -58, 5, 14, 2, 1, 3, -14, -86, -4, 73, 6, -58, -50, 49, 2, -3, -4, 2, 33, -41, 42, -11, 81, 45, 53], "withholdReward": false, "trial_id": "mdp_trial_19", "block": "test", "trialIndex": 26, "score": 65, "costs": 0, "simulationMode": [null, null, null, null, null], "rewards": [2, -3, -4, -11, 81], "path": ["0", "0", "23", "24", "25", "30", "31"], "rt": [915, 425, 278, 563, 556], "actions": ["left", "left", "left", "down", "right"], "actionTimes": [3137, 4057, 4827, 5897, 6957], "queries": {"click": {"state": {"target": [], "time": []}, "edge": {"target": [], "time": []}}, "mouseover": {"state": {"target": [], "time": []}, "edge": {"target": [], "time": []}}, "mouseout": {"state": {"target": ["0", "0"], "time": [351, 1526]}, "edge": {"target": [], "time": []}}}, "displayed_time": "16.22", "trialTime": 18676, "trial_type": "mouselab-mdp", "trial_index": 45, "time_elapsed": 1797612, "internal_node_id": "0.0-6.0-1.0-18.0"}}, {"uniqueid": "w25488418:a40214211", "current_trial": 46, "dateTime": 1693568865819, "trialdata": {"revealed_states": [], "clicked_states": [], "num_clicks_accrued": [0, 0, 0, 0, 0, 0, 0, 0, 0, 0, 0, 0, 0], "stateRewards": ["", 1, 2, -3, -6, 50, -7, 7, -7, -80, 21, -1, 2, 2, 4, -1, 33, 84, 1, 14, -53, 81, 6, -2, -2, -3, -9, -87, -38, -59, -5, -74, -3, -71], "withholdReward": false, "trial_id": "mdp_trial_20", "block": "test", "trialIndex": 27, "score": -87, "costs": 0, "simulationMode": [null, null, null, null, null], "rewards": [1, 2, -3, -7, -80], "path": ["0", "0", "1", "2", "3", "8", "9"], "rt": [962, 50, 24, 1347, 1514], "actions": ["up", "up", "up", "left", "up"], "actionTimes": [2380, 2929, 3469, 5310, 7330], "queries": {"click": {"state": {"target": [], "time": []}, "edge": {"target": [], "time": []}}, "mouseover": {"state": {"target": [], "time": []}, "edge": {"target": [], "time": []}}, "mouseout": {"state": {"target": ["0", "23", "0"], "time": [453, 640, 957]}, "edge": {"target": [], "time": []}}}, "displayed_time": "15.42", "trialTime": 19349, "trial_type": "mouselab-mdp", "trial_index": 46, "time_elapsed": 1817553, "internal_node_id": "0.0-6.0-1.0-19.0"}}, {"uniqueid": "w25488418:a40214211", "current_trial": 47, "dateTime": 1693568884419, "trialdata": {"revealed_states": [], "clicked_states": [], "num_clicks_accrued": [0, 0, 0, 0, 0, 0, 0, 0, 0, 0, 0, 0, 0], "stateRewards": ["", -2, 1, -8, 12, -65, -79, 16, 7, -80, -17, -45, -2, 2, -5, -2, -85, 23, -4, -7, 48, 27, -76, 2, 3, 5, 2, 43, 71, -13, 7, -49, 59, -31], "withholdReward": false, "trial_id": "mdp_trial_21", "block": "test", "trialIndex": 28, "score": -88, "costs": 0, "simulationMode": [null, null, null, null, null], "rewards": [-2, 2, -5, -7, -76], "path": ["0", "0", "12", "13", "14", "19", "22"], "rt": [1889, 514, 387, 1553, 390], "actions": ["right", "right", "right", "down", "left"], "actionTimes": [3327, 4347, 5237, 7287, 8177], "queries": {"click": {"state": {"target": [], "time": []}, "edge": {"target": [], "time": []}}, "mouseover": {"state": {"target": [], "time": []}, "edge": {"target": [], "time": []}}, "mouseout": {"state": {"target": ["0"], "time": [1126]}, "edge": {"target": [], "time": []}}}, "displayed_time": "15.44", "trialTime": 18087, "trial_type": "mouselab-mdp", "trial_index": 47, "time_elapsed": 1836153, "internal_node_id": "0.0-6.0-1.0-20.0"}}, {"uniqueid": "w25488418:a40214211", "current_trial": 48, "dateTime": 1693568903039, "trialdata": {"revealed_states": [], "clicked_states": [], "num_clicks_accrued": [0, 0, 0, 0, 0, 0, 0, 0, 0, 0, 0, 0, 0], "stateRewards": ["", -1, 4, 3, 12, -27, 34, -33, 3, -63, 1, 6, 2, 2, -6, -11, -77, -85, 68, -6, 51, 81, -60, -2, -2, 1, 15, 20, 15, 68, -10, -14, 6, -4], "withholdReward": false, "trial_id": "mdp_trial_22", "block": "test", "trialIndex": 29, "score": 27, "costs": 0, "simulationMode": [null, null, null, null, null], "rewards": [-2, -2, 1, 15, 15], "path": ["0", "0", "23", "24", "25", "26", "28"], "rt": [1067, 365, 650, 744, 655], "actions": ["left", "left", "left", "up", "right"], "actionTimes": [3026, 3900, 5056, 6296, 7458], "queries": {"click": {"state": {"target": [], "time": []}, "edge": {"target": [], "time": []}}, "mouseover": {"state": {"target": ["0"], "time": [1982]}, "edge": {"target": [], "time": []}}, "mouseout": {"state": {"target": ["0"], "time": [1283]}, "edge": {"target": [], "time": []}}}, "displayed_time": "15.96", "trialTime": 18078, "trial_type": "mouselab-mdp", "trial_index": 48, "time_elapsed": 1854772, "internal_node_id": "0.0-6.0-1.0-21.0"}}, {"uniqueid": "w25488418:a40214211", "current_trial": 49, "dateTime": 1693568921188, "trialdata": {"revealed_states": [], "clicked_states": [], "num_clicks_accrued": [0, 0, 0, 0, 0, 0, 0, 0, 0, 0, 0, 0, 0], "stateRewards": ["", 1, 2, -3, 6, -88, 74, -45, 7, -46, 40, -77, 1, -4, 4, 3, 22, -25, -59, 8, -83, 19, -60, -1, -1, -1, -8, 26, -29, 64, -7, -88, -51, -55], "withholdReward": false, "trial_id": "mdp_trial_23", "block": "test", "trialIndex": 30, "score": -40, "costs": 0, "simulationMode": [null, null, null, null, null], "rewards": [-1, -1, -1, -8, -29], "path": ["0", "0", "23", "24", "25", "26", "28"], "rt": [1671, 124, 268, 1088, 314], "actions": ["left", "left", "left", "up", "right"], "actionTimes": [3153, 3771, 4530, 6121, 6933], "queries": {"click": {"state": {"target": [], "time": []}, "edge": {"target": [], "time": []}}, "mouseover": {"state": {"target": [], "time": []}, "edge": {"target": [], "time": []}}, "mouseout": {"state": {"target": ["0"], "time": [39]}, "edge": {"target": [], "time": []}}}, "displayed_time": "15.48", "trialTime": 17592, "trial_type": "mouselab-mdp", "trial_index": 49, "time_elapsed": 1872921, "internal_node_id": "0.0-6.0-1.0-22.0"}}, {"uniqueid": "w25488418:a40214211", "current_trial": 50, "dateTime": 1693568946249, "trialdata": {"revealed_states": [], "clicked_states": [], "num_clicks_accrued": [0, 0, 0, 0, 0, 0, 0, 0, 0, 0, 0, 0, 0], "stateRewards": ["", -1, -3, -5, -14, -13, -47, 79, 8, -60, -64, 41, -1, 2, 3, 13, -46, 61, -79, -11, -64, -65, 23, 1, -2, 6, -14, 46, 32, 21, 7, 75, -66, 15], "withholdReward": false, "trial_id": "mdp_trial_24", "block": "test", "trialIndex": 31, "score": 56, "costs": 0, "simulationMode": [null, null, null, null, null], "rewards": [-1, -3, -5, -14, 79], "path": ["0", "0", "1", "2", "3", "4", "7"], "rt": [3148, 651, 210, 564, 846], "actions": ["up", "up", "up", "right", "down"], "actionTimes": [4486, 5633, 6344, 7413, 8763], "queries": {"click": {"state": {"target": [], "time": []}, "edge": {"target": [], "time": []}}, "mouseover": {"state": {"target": [], "time": []}, "edge": {"target": [], "time": []}}, "mouseout": {"state": {"target": ["0"], "time": [23498]}, "edge": {"target": [], "time": []}}}, "displayed_time": "15.34", "trialTime": 24524, "trial_type": "mouselab-mdp", "trial_index": 50, "time_elapsed": 1897983, "internal_node_id": "0.0-6.0-1.0-23.0"}}, {"uniqueid": "w25488418:a40214211", "current_trial": 51, "dateTime": 1693568968169, "trialdata": {"revealed_states": [], "clicked_states": [], "num_clicks_accrued": [0, 0, 0, 0, 0, 0, 0, 0, 0, 0, 0, 0, 0], "stateRewards": ["", 2, -3, -2, 14, -4, 85, 46, 15, -28, 41, 31, -1, -1, -1, 5, 62, 79, 57, 12, -73, -64, 86, -1, 1, -3, -5, 68, 11, -32, 8, -80, -21, -56], "withholdReward": false, "trial_id": "mdp_trial_25", "block": "test", "trialIndex": 32, "score": 95, "costs": 0, "simulationMode": [null, null, null, null, null], "rewards": [-1, -1, -1, 12, 86], "path": ["0", "0", "12", "13", "14", "19", "22"], "rt": [3706, 305, 324, 781, 869], "actions": ["right", "right", "right", "down", "left"], "actionTimes": [5038, 5845, 6667, 7957, 9327], "queries": {"click": {"state": {"target": [], "time": []}, "edge": {"target": [], "time": []}}, "mouseover": {"state": {"target": ["12", "13", "13", "12", "13"], "time": [2232, 2404, 3216, 3433, 4000]}, "edge": {"target": [], "time": []}}, "mouseout": {"state": {"target": ["0", "12", "13", "13", "12", "13"], "time": [2198, 2332, 2933, 3333, 3983, 4133]}, "edge": {"target": [], "time": []}}}, "displayed_time": "15.33", "trialTime": 21298, "trial_type": "mouselab-mdp", "trial_index": 51, "time_elapsed": 1919903, "internal_node_id": "0.0-6.0-1.0-24.0"}}, {"uniqueid": "w25488418:a40214211", "current_trial": 52, "dateTime": 1693568987796, "trialdata": {"revealed_states": [], "clicked_states": [], "num_clicks_accrued": [0, 0, 0, 0, 0, 0, 0, 0, 0, 0, 0, 0, 0], "stateRewards": ["", 1, 1, 6, -14, -40, 37, 16, -13, 33, -68, 49, 2, 4, 3, 6, 55, 27, 32, 10, -65, 20, -87, 2, 1, -6, -5, -42, 12, 29, -8, 16, 76, -33], "withholdReward": false, "trial_id": "mdp_trial_26", "block": "test", "trialIndex": 33, "score": 5, "costs": 0, "simulationMode": [null, null, null, null, null], "rewards": [2, 1, -6, -8, 16], "path": ["0", "0", "23", "24", "25", "30", "31"], "rt": [4118, 306, 355, 645, 534], "actions": ["left", "left", "left", "down", "right"], "actionTimes": [6045, 6854, 7705, 8844, 9885], "queries": {"click": {"state": {"target": [], "time": []}, "edge": {"target": [], "time": []}}, "mouseover": {"state": {"target": ["23", "24", "23", "12", "0", "23", "25", "24", "25"], "time": [2541, 2725, 3391, 4026, 4242, 4359, 4726, 5076, 5443]}, "edge": {"target": [], "time": []}}, "mouseout": {"state": {"target": ["13", "12", "0", "23", "24", "23", "12", "0", "23", "25", "24"], "time": [923, 1022, 2491, 2641, 3376, 3417, 4225, 4309, 4409, 5043, 5143]}, "edge": {"target": [], "time": []}}}, "displayed_time": "15.93", "trialTime": 19085, "trial_type": "mouselab-mdp", "trial_index": 52, "time_elapsed": 1939530, "internal_node_id": "0.0-6.0-1.0-25.0"}}, {"uniqueid": "w25488418:a40214211", "current_trial": 53, "dateTime": 1693569011563, "trialdata": {"revealed_states": [], "clicked_states": [], "num_clicks_accrued": [0, 0, 0, 0, 0, 0, 0, 0, 0, 0, 0, 0, 0], "stateRewards": ["", 1, 4, -8, -13, -13, -87, -77, -10, -44, 54, 42, 2, -3, -4, 12, -9, -80, 52, 9, 84, -2, -65, 1, -4, -5, -6, 8, 80, 32, 13, -59, -5, -13], "withholdReward": false, "trial_id": "mdp_trial_27", "block": "test", "trialIndex": 34, "score": 66, "costs": 0, "simulationMode": [null, null, null, null, null], "rewards": [1, -4, -5, -6, 80], "path": ["0", "0", "23", "24", "25", "26", "28"], "rt": [1770, 406, 367, 1058, 628], "actions": ["left", "left", "left", "up", "right"], "actionTimes": [4437, 5337, 6198, 7757, 8877], "queries": {"click": {"state": {"target": [], "time": []}, "edge": {"target": [], "time": []}}, "mouseover": {"state": {"target": [], "time": []}, "edge": {"target": [], "time": []}}, "mouseout": {"state": {"target": ["25", "18", "17", "17", "15", "13", "12", "0"], "time": [890, 956, 973, 1507, 1573, 1707, 1874, 9546]}, "edge": {"target": [], "time": []}}}, "displayed_time": "16.67", "trialTime": 23257, "trial_type": "mouselab-mdp", "trial_index": 53, "time_elapsed": 1963297, "internal_node_id": "0.0-6.0-1.0-26.0"}}, {"uniqueid": "w25488418:a40214211", "current_trial": 54, "dateTime": 1693569029425, "trialdata": {"revealed_states": [], "clicked_states": [], "num_clicks_accrued": [0, 0, 0, 0, 0, 0, 0, 0, 0, 0, 0, 0, 0], "stateRewards": ["", 2, -1, -3, 16, -3, -16, -62, -1, 13, -26, 43, -1, 4, 3, -9, -54, -37, -3, -12, -71, -68, -57, 1, -3, 2, -9, 2, -2, -9, -11, 84, -52, 55], "withholdReward": false, "trial_id": "mdp_trial_28", "block": "test", "trialIndex": 35, "score": 44, "costs": 0, "simulationMode": [null, null, null, null, null], "rewards": [1, -3, 2, -11, 55], "path": ["0", "0", "23", "24", "25", "30", "33"], "rt": [2600, 334, 330, 476, 232], "actions": ["left", "left", "left", "down", "left"], "actionTimes": [4314, 5154, 5984, 6964, 7704], "queries": {"click": {"state": {"target": [], "time": []}, "edge": {"target": [], "time": []}}, "mouseover": {"state": {"target": [], "time": []}, "edge": {"target": [], "time": []}}, "mouseout": {"state": {"target": [], "time": []}, "edge": {"target": [], "time": []}}}, "displayed_time": "15.72", "trialTime": 17304, "trial_type": "mouselab-mdp", "trial_index": 54, "time_elapsed": 1981158, "internal_node_id": "0.0-6.0-1.0-27.0"}}, {"uniqueid": "w25488418:a40214211", "current_trial": 55, "dateTime": 1693569047465, "trialdata": {"revealed_states": [], "clicked_states": [], "num_clicks_accrued": [0, 0, 0, 0, 0, 0, 0, 0, 0, 0, 0, 0, 0], "stateRewards": ["", 2, 4, 4, 9, -88, -10, 44, 16, -54, 64, 78, 1, 2, 5, 16, 80, 36, 7, -4, 9, -47, -70, -1, -3, 6, -16, 11, 80, 28, 8, -1, 34, -17], "withholdReward": false, "trial_id": "mdp_trial_29", "block": "test", "trialIndex": 36, "score": -66, "costs": 0, "simulationMode": [null, null, null, null, null], "rewards": [1, 2, 5, -4, -70], "path": ["0", "0", "12", "13", "14", "19", "22"], "rt": [2825, 120, 124, 506, 726], "actions": ["right", "right", "right", "down", "left"], "actionTimes": [4247, 4866, 5486, 6487, 7706], "queries": {"click": {"state": {"target": [], "time": []}, "edge": {"target": [], "time": []}}, "mouseover": {"state": {"target": [], "time": []}, "edge": {"target": [], "time": []}}, "mouseout": {"state": {"target": [], "time": []}, "edge": {"target": [], "time": []}}}, "displayed_time": "15.42", "trialTime": 17508, "trial_type": "mouselab-mdp", "trial_index": 55, "time_elapsed": 1999199, "internal_node_id": "0.0-6.0-1.0-28.0"}}, {"uniqueid": "w25488418:a40214211", "current_trial": 56, "dateTime": 1693569066432, "trialdata": {"revealed_states": [], "clicked_states": [], "num_clicks_accrued": [0, 0, 0, 0, 0, 0, 0, 0, 0, 0, 0, 0, 0], "stateRewards": ["", 1, -3, -2, 14, 49, -40, -39, 2, 26, -61, 73, 1, -4, -8, 12, 79, 29, -65, -13, 55, -26, 27, -1, 3, 3, 9, -17, -60, -18, -8, 35, -88, 69], "withholdReward": false, "trial_id": "mdp_trial_30", "block": "test", "trialIndex": 37, "score": -46, "costs": 0, "simulationMode": [null, null, null, null, null], "rewards": [-1, 3, 3, 9, -60], "path": ["0", "0", "23", "24", "25", "26", "28"], "rt": [538, 262, 185, 601, 679], "actions": ["left", "left", "left", "up", "right"], "actionTimes": [2664, 3424, 4114, 5215, 6394], "queries": {"click": {"state": {"target": [], "time": []}, "edge": {"target": [], "time": []}}, "mouseover": {"state": {"target": [], "time": []}, "edge": {"target": [], "time": []}}, "mouseout": {"state": {"target": ["0", "0"], "time": [1274, 7429]}, "edge": {"target": [], "time": []}}}, "displayed_time": "16.14", "trialTime": 18363, "trial_type": "mouselab-mdp", "trial_index": 56, "time_elapsed": 2018166, "internal_node_id": "0.0-6.0-1.0-29.0"}}, {"uniqueid": "w25488418:a40214211", "current_trial": 57, "dateTime": 1693569084311, "trialdata": {"revealed_states": [], "clicked_states": [], "num_clicks_accrued": [0, 0, 0, 0, 0, 0, 0, 0, 0, 0, 0, 0, 0], "stateRewards": ["", 2, 4, -6, -13, -75, -81, 30, 7, 5, 59, -65, -1, -1, 7, 14, -38, 36, -41, 1, -54, -5, 64, 2, -1, 5, 6, -19, 79, 11, 16, -33, -50, 58], "withholdReward": false, "trial_id": "mdp_trial_31", "block": "test", "trialIndex": 38, "score": -58, "costs": 0, "simulationMode": [null, null, null, null, null], "rewards": [2, 4, -6, 7, -65], "path": ["0", "0", "1", "2", "3", "8", "11"], "rt": [1597, 293, 225, 907, 1277], "actions": ["up", "up", "up", "left", "left"], "actionTimes": [3324, 4124, 4854, 6253, 8024], "queries": {"click": {"state": {"target": [], "time": []}, "edge": {"target": [], "time": []}}, "mouseover": {"state": {"target": [], "time": []}, "edge": {"target": [], "time": []}}, "mouseout": {"state": {"target": ["0", "12"], "time": [821, 1005]}, "edge": {"target": [], "time": []}}}, "displayed_time": "15.73", "trialTime": 17344, "trial_type": "mouselab-mdp", "trial_index": 57, "time_elapsed": 2036046, "internal_node_id": "0.0-6.0-1.0-30.0"}}, {"uniqueid": "w25488418:a40214211", "current_trial": 58, "dateTime": 1693569102521, "trialdata": {"revealed_states": [], "clicked_states": [], "num_clicks_accrued": [0, 0, 0, 0, 0, 0, 0, 0, 0, 0, 0, 0, 0], "stateRewards": ["", -2, -3, 1, -14, 48, -49, 67, -1, -35, -48, 3, -2, 1, -4, -5, 86, -84, 39, 1, 48, 41, -42, -1, -4, 2, -7, 18, -86, 17, 7, -9, 57, -69], "withholdReward": false, "trial_id": "mdp_trial_32", "block": "test", "trialIndex": 39, "score": 29, "costs": 0, "simulationMode": [null, null, null, null, null], "rewards": [-2, 1, -4, -5, 39], "path": ["0", "0", "12", "13", "14", "15", "18"], "rt": [1656, 302, 102, 547, 59], "actions": ["right", "right", "right", "up", "left"], "actionTimes": [3203, 4003, 4603, 5653, 6211], "queries": {"click": {"state": {"target": [], "time": []}, "edge": {"target": [], "time": []}}, "mouseover": {"state": {"target": [], "time": []}, "edge": {"target": [], "time": []}}, "mouseout": {"state": {"target": [], "time": []}, "edge": {"target": [], "time": []}}}, "displayed_time": "15.55", "trialTime": 17663, "trial_type": "mouselab-mdp", "trial_index": 58, "time_elapsed": 2054255, "internal_node_id": "0.0-6.0-1.0-31.0"}}, {"uniqueid": "w25488418:a40214211", "current_trial": 59, "dateTime": 1693569120422, "trialdata": {"revealed_states": [], "clicked_states": [], "num_clicks_accrued": [0, 0, 0, 0, 0, 0, 0, 0, 0, 0, 0, 0, 0], "stateRewards": ["", -2, -1, -1, 5, -54, -87, 35, 2, -8, 20, -22, 1, 3, 6, 13, -75, -32, -55, -3, 56, 62, -22, -1, -4, -1, -7, -51, 84, 70, 7, -15, 5, 55], "withholdReward": false, "trial_id": "mdp_trial_33", "block": "test", "trialIndex": 40, "score": 57, "costs": 0, "simulationMode": [null, null, null, null, null], "rewards": [-1, -4, -1, -7, 70], "path": ["0", "0", "23", "24", "25", "26", "29"], "rt": [1001, 152, 151, 1472, 1592], "actions": ["left", "left", "left", "up", "left"], "actionTimes": [2244, 2893, 3544, 5515, 7603], "queries": {"click": {"state": {"target": [], "time": []}, "edge": {"target": [], "time": []}}, "mouseover": {"state": {"target": [], "time": []}, "edge": {"target": [], "time": []}}, "mouseout": {"state": {"target": [], "time": []}, "edge": {"target": [], "time": []}}}, "displayed_time": "15.24", "trialTime": 17324, "trial_type": "mouselab-mdp", "trial_index": 59, "time_elapsed": 2072156, "internal_node_id": "0.0-6.0-1.0-32.0"}}, {"uniqueid": "w25488418:a40214211", "current_trial": 60, "dateTime": 1693569138121, "trialdata": {"revealed_states": [], "clicked_states": [], "num_clicks_accrued": [0, 0, 0, 0, 0, 0, 0, 0, 0, 0, 0, 0, 0], "stateRewards": ["", 1, 2, -8, 9, 18, -83, -11, 6, -64, -48, 17, -2, -2, -5, -3, -24, -3, -86, -2, 48, -41, -22, -2, 4, 7, 8, 81, 13, -48, 10, 61, 19, 57], "withholdReward": false, "trial_id": "mdp_trial_34", "block": "test", "trialIndex": 41, "score": 38, "costs": 0, "simulationMode": [null, null, null, null, null], "rewards": [-2, 4, 7, 10, 19], "path": ["0", "0", "23", "24", "25", "30", "32"], "rt": [1777, 154, 204, 933, 459], "actions": ["left", "left", "left", "down", "down"], "actionTimes": [2939, 3589, 4289, 5719, 6679], "queries": {"click": {"state": {"target": [], "time": []}, "edge": {"target": [], "time": []}}, "mouseover": {"state": {"target": [], "time": []}, "edge": {"target": [], "time": []}}, "mouseout": {"state": {"target": [], "time": []}, "edge": {"target": [], "time": []}}}, "displayed_time": "15.16", "trialTime": 17119, "trial_type": "mouselab-mdp", "trial_index": 60, "time_elapsed": 2089855, "internal_node_id": "0.0-6.0-1.0-33.0"}}, {"uniqueid": "w25488418:a40214211", "current_trial": 61, "dateTime": 1693569157400, "trialdata": {"revealed_states": [], "clicked_states": [], "num_clicks_accrued": [0, 0, 0, 0, 0, 0, 0, 0, 0, 0, 0, 0, 0], "stateRewards": ["", -2, -3, 8, -4, -30, 31, 69, 9, 66, 87, 64, -2, 2, 8, 5, 47, 16, -39, -8, -54, 51, -19, 1, -2, -2, -11, -25, -26, 43, -9, 19, -84, 86], "withholdReward": false, "trial_id": "mdp_trial_35", "block": "test", "trialIndex": 42, "score": -40, "costs": 0, "simulationMode": [null, null, null, null, null], "rewards": [1, -2, -2, -11, -26], "path": ["0", "0", "23", "24", "25", "26", "28"], "rt": [645, 180, 309, 867, 279], "actions": ["left", "left", "left", "up", "right"], "actionTimes": [1785, 2474, 3285, 4645, 5425], "queries": {"click": {"state": {"target": [], "time": []}, "edge": {"target": [], "time": []}}, "mouseover": {"state": {"target": [], "time": []}, "edge": {"target": [], "time": []}}, "mouseout": {"state": {"target": [], "time": []}, "edge": {"target": [], "time": []}}}, "displayed_time": "15.14", "trialTime": 18594, "trial_type": "mouselab-mdp", "trial_index": 61, "time_elapsed": 2109134, "internal_node_id": "0.0-6.0-1.0-34.0"}}, {"uniqueid": "w25488418:a40214211", "current_trial": 62, "dateTime": 1693569174950, "trialdata": {"revealed_states": [], "clicked_states": [], "num_clicks_accrued": [0, 0, 0, 0, 0, 0, 0, 0, 0, 0, 0, 0, 0], "stateRewards": ["", -1, 2, -2, 5, 80, -61, -27, 12, 44, -26, -75, -2, -4, 1, -16, 42, -49, -50, 4, -44, 2, 80, -2, -2, 5, -2, 59, 10, 24, 7, -48, -86, -44], "withholdReward": false, "trial_id": "mdp_trial_36", "block": "test", "trialIndex": 43, "score": -23, "costs": 0, "simulationMode": [null, null, null, null, null], "rewards": [-1, 2, -2, 5, -27], "path": ["0", "0", "1", "2", "3", "4", "7"], "rt": [1634, 592, 648, 666, 1569], "actions": ["up", "up", "up", "right", "down"], "actionTimes": [2705, 3805, 4945, 6113, 8185], "queries": {"click": {"state": {"target": [], "time": []}, "edge": {"target": [], "time": []}}, "mouseover": {"state": {"target": [], "time": []}, "edge": {"target": [], "time": []}}, "mouseout": {"state": {"target": [], "time": []}, "edge": {"target": [], "time": []}}}, "displayed_time": "15.07", "trialTime": 16915, "trial_type": "mouselab-mdp", "trial_index": 62, "time_elapsed": 2126683, "internal_node_id": "0.0-6.0-1.0-35.0"}}, {"uniqueid": "w25488418:a40214211", "current_trial": 63, "dateTime": 1693569192760, "trialdata": {"revealed_states": [], "clicked_states": [], "num_clicks_accrued": [0, 0, 0, 0, 0, 0, 0, 0, 0, 0, 0, 0, 0], "stateRewards": ["", -2, -3, -7, 7, -54, -69, -4, -14, -77, 22, 40, -2, -1, 5, 6, -35, 50, -60, 10, -28, 75, 57, 1, -4, -2, 2, 68, 34, -18, 12, 3, -21, -43], "withholdReward": false, "trial_id": "mdp_trial_37", "block": "test", "trialIndex": 44, "score": -21, "costs": 0, "simulationMode": [null, null, null, null, null], "rewards": [1, -4, -2, 2, -18], "path": ["0", "0", "23", "24", "25", "26", "29"], "rt": [923, 229, 105, 665, 1138], "actions": ["left", "left", "left", "up", "left"], "actionTimes": [1961, 2693, 3302, 4462, 6102], "queries": {"click": {"state": {"target": [], "time": []}, "edge": {"target": [], "time": []}}, "mouseover": {"state": {"target": [], "time": []}, "edge": {"target": [], "time": []}}, "mouseout": {"state": {"target": [], "time": []}, "edge": {"target": [], "time": []}}}, "displayed_time": "15.04", "trialTime": 17213, "trial_type": "mouselab-mdp", "trial_index": 63, "time_elapsed": 2144493, "internal_node_id": "0.0-6.0-1.0-36.0"}}, {"uniqueid": "w25488418:a40214211", "current_trial": 64, "dateTime": 1693569210538, "trialdata": {"revealed_states": [], "clicked_states": [], "num_clicks_accrued": [0, 0, 0, 0, 0, 0, 0, 0, 0, 0, 0, 0, 0], "stateRewards": ["", -2, -4, -2, -13, -15, 87, -19, -6, -80, 30, 12, 1, 1, -8, 2, 55, 56, 15, 11, -68, -7, 55, -2, 3, -3, -3, 48, 62, 4, 1, -3, 69, -33], "withholdReward": false, "trial_id": "mdp_trial_38", "block": "test", "trialIndex": 45, "score": -34, "costs": 0, "simulationMode": [null, null, null, null, null], "rewards": [-2, 3, -3, 1, -33], "path": ["0", "0", "23", "24", "25", "30", "33"], "rt": [2159, 211, 404, 714, 536], "actions": ["left", "left", "left", "down", "left"], "actionTimes": [3689, 4400, 5310, 6520, 7560], "queries": {"click": {"state": {"target": [], "time": []}, "edge": {"target": [], "time": []}}, "mouseover": {"state": {"target": [], "time": []}, "edge": {"target": [], "time": []}}, "mouseout": {"state": {"target": [], "time": []}, "edge": {"target": [], "time": []}}}, "displayed_time": "15.53", "trialTime": 17119, "trial_type": "mouselab-mdp", "trial_index": 64, "time_elapsed": 2162272, "internal_node_id": "0.0-6.0-1.0-37.0"}}, {"uniqueid": "w25488418:a40214211", "current_trial": 65, "dateTime": 1693569228974, "trialdata": {"revealed_states": [], "clicked_states": [], "num_clicks_accrued": [0, 0, 0, 0, 0, 0, 0, 0, 0, 0, 0, 0, 0], "stateRewards": ["", 1, 3, -2, 15, 51, 15, -19, 11, 67, -45, -73, 2, 4, -2, -13, 36, 9, -28, 10, -30, 31, 16, 1, 2, -1, -16, 14, -22, 36, -1, 88, -5, 45], "withholdReward": false, "trial_id": "mdp_trial_39", "block": "test", "trialIndex": 46, "score": 30, "costs": 0, "simulationMode": [null, null, null, null, null], "rewards": [2, 4, -2, 10, 16], "path": ["0", "0", "12", "13", "14", "19", "22"], "rt": [1091, 204, 263, 520, 283], "actions": ["right", "right", "right", "down", "left"], "actionTimes": [2706, 3415, 4177, 5197, 5977], "queries": {"click": {"state": {"target": [], "time": []}, "edge": {"target": [], "time": []}}, "mouseover": {"state": {"target": [], "time": []}, "edge": {"target": [], "time": []}}, "mouseout": {"state": {"target": [], "time": []}, "edge": {"target": [], "time": []}}}, "displayed_time": "15.62", "trialTime": 17815, "trial_type": "mouselab-mdp", "trial_index": 65, "time_elapsed": 2180708, "internal_node_id": "0.0-6.0-1.0-38.0"}}, {"uniqueid": "w25488418:a40214211", "current_trial": 66, "dateTime": 1693569247098, "trialdata": {"revealed_states": [], "clicked_states": [], "num_clicks_accrued": [0, 0, 0, 0, 0, 0, 0, 0, 0, 0, 0, 0, 0], "stateRewards": ["", 1, -4, -4, 8, 1, -79, 68, -10, -79, 8, -74, -1, -3, -6, 14, 43, 23, 9, 5, -51, 63, 61, -2, 4, 6, -10, 69, -32, 57, 15, -80, -80, -77], "withholdReward": false, "trial_id": "mdp_trial_40", "block": "test", "trialIndex": 47, "score": 13, "costs": 0, "simulationMode": [null, null, null, null, null], "rewards": [-1, -3, -6, 14, 9], "path": ["0", "0", "12", "13", "14", "15", "18"], "rt": [1459, 123, 175, 695, 545], "actions": ["right", "right", "right", "up", "left"], "actionTimes": [2544, 3173, 3843, 5033, 6083], "queries": {"click": {"state": {"target": [], "time": []}, "edge": {"target": [], "time": []}}, "mouseover": {"state": {"target": [], "time": []}, "edge": {"target": [], "time": []}}, "mouseout": {"state": {"target": [], "time": []}, "edge": {"target": [], "time": []}}}, "displayed_time": "15.09", "trialTime": 17215, "trial_type": "mouselab-mdp", "trial_index": 66, "time_elapsed": 2198831, "internal_node_id": "0.0-6.0-1.0-39.0"}}, {"uniqueid": "w25488418:a40214211", "current_trial": 67, "dateTime": 1693569305233, "trialdata": {"rt": 58088, "response": {"Q0": "$-2 to $2", "Q1": "$-4 to $4", "Q2": "$-32 to $32", "Q3": "The cost for clicking on nodes varied between nodes.", "Q4": "Very motivated"}, "question_order": [0, 1, 2, 3, 4], "trial_id": "final_quiz_control", "trial_type": "survey-multi-choice", "trial_index": 67, "time_elapsed": 2256967, "internal_node_id": "0.0-6.0-2.0"}}, {"uniqueid": "w25488418:a40214211", "current_trial": 68, "dateTime": 1693569477873, "trialdata": {"rt": 172585, "response": {"Q0": "Try make least moves, and not go easiest route", "Q1": "No, no change ", "Q2": "very, not being able to see values you passed through"}, "trial_id": "self_report_control", "trial_type": "survey-text", "trial_index": 68, "time_elapsed": 2429608, "internal_node_id": "0.0-6.0-3.0"}}, {"uniqueid": "w25488418:a40214211", "current_trial": 69, "dateTime": 1693569548689, "trialdata": {"rt": 70805, "response": {"Q0": "Neither disagree nor agree", "Q1": "Disagree", "Q2": "Agree", "Q3": "Disagree", "Q4": "Agree", "Q5": "Agree", "Q6": "Disagree"}, "question_order": [0, 1, 2, 3, 4, 5, 6], "trial_id": "self_report_2", "trial_type": "survey-multi-choice", "trial_index": 69, "time_elapsed": 2500424, "internal_node_id": "0.0-6.0-4.0"}}, {"uniqueid": "w25488418:a40214211", "current_trial": 70, "dateTime": 1693569570032, "trialdata": {"rt": 21328, "response": {"gender": "male", "age": "52", "colorblind": "0", "effort": "0"}, "trial_type": "survey-html-form", "trial_index": 70, "time_elapsed": 2521767, "internal_node_id": "0.0-6.0-5.0"}}, {"uniqueid": "w25488418:a40214211", "current_trial": 71, "dateTime": 1693569595810, "trialdata": {"rt": 25769, "response": {"Q0": "No", "Q1": "No never", "Q2": "Good fun...."}, "trial_type": "survey-text", "trial_index": 71, "time_elapsed": 2547545, "internal_node_id": "0.0-6.0-6.0"}}, {"uniqueid": "w25488418:a40214211", "current_trial": 72, "dateTime": 1693569659719, "trialdata": {"rt": 63898, "stimulus": "<h1>Completion Code Instructions (1/2)</h1>\n<br><br><br><br>\nYou have reached the end of the experiment! The completion code consists of two parts: (1) a code with 2 characters (2) a code with 6 characters. On this page, you will receive the second part of the code. The first part of the completion code will be on the next page.\n<br><br>\nThe second part of your completion code is: <b>EWEK22</b>\n<br><br>\nPlease note this down. Then, press 'Finish HIT' in order to find the first part of your completion code. Once the data has been saved, you will receive this code either in this window or in the original browser window where you started the experiment.\n", "response": 0, "trial_type": "html-button-response", "trial_index": 72, "time_elapsed": 2611453, "internal_node_id": "0.0-6.0-7.0"}}, {"uniqueid": "w25488418:a40214211", "current_trial": 73, "dateTime": 1693569660726, "trialdata": {"success": true, "trial_type": "fullscreen", "trial_index": 73, "time_elapsed": 2612460, "internal_node_id": "0.0-7.0"}}], "questiondata": {"params": {"CODE": "C6DMOQA6", "MIN_TIME": 14, "inspectCost": 1, "startTime": "Fri Sep 01 2023 12:17:27 GMT+0100 (British Summer Time)", "bonusRate": 0.002, "variance": "1_2_4_8_44", "branching": "31123"}, "final_score": 401.95}, "eventdata": [{"eventtype": "initialized", "value": null, "timestamp": 1693567047178, "interval": 0}, {"eventtype": "window_resize", "value": [1440, 862], "timestamp": 1693567047178, "interval": 0}, {"eventtype": "window_resize", "value": [1440, 862], "timestamp": 1693567047499, "interval": 321}, {"eventtype": "window_resize", "value": [1440, 960], "timestamp": 1693567052031, "interval": 4532}, {"eventtype": "focus", "value": "off", "timestamp": 1693567493238, "interval": 441207}, {"eventtype": "focus", "value": "on", "timestamp": 1693567493239, "interval": 1}, {"eventtype": "window_resize", "value": [1440, 862], "timestamp": 1693567493449, "interval": 210}, {"eventtype": "window_resize", "value": [1440, 960], "timestamp": 1693567496267, "interval": 2818}, {"eventtype": "focus", "value": "off", "timestamp": 1693567962637, "interval": 466370}, {"eventtype": "focus", "value": "on", "timestamp": 1693567962638, "interval": 1}, {"eventtype": "window_resize", "value": [1440, 862], "timestamp": 1693567962845, "interval": 207}, {"eventtype": "window_resize", "value": [1440, 960], "timestamp": 1693567964402, "interval": 1557}, {"eventtype": "focus", "value": "off", "timestamp": 1693568318265, "interval": 353863}, {"eventtype": "focus", "value": "on", "timestamp": 1693568318265, "interval": 0}, {"eventtype": "window_resize", "value": [1440, 862], "timestamp": 1693568318476, "interval": 211}, {"eventtype": "window_resize", "value": [1440, 960], "timestamp": 1693568319973, "interval": 1497}, {"eventtype": "window_resize", "value": [1440, 862], "timestamp": 1693569660023, "interval": 1340050}], "useragent": "Mozilla/5.0 (Windows NT 10.0; Win64; x64) AppleWebKit/537.36 (KHTML, like Gecko) Chrome/116.0.0.0 Safari/537.36", "mode": "live", "id": "w25488418:a40214211", "status": "user data saved", "Beginhit": "2023-09-01 11:17:25.970396", "Beginexp": "2023-09-01 11:17:32.958992", "Endhit": "2023-09-01 12:01:01.39455", "psiturkStatus": 3, "browser": "<redacted>", "platform": "windows", "language": "en-US"}