{"condition": 0, "counterbalance": 0, "assignmentId": "a95668050", "workerId": "w22709195", "hitId": "h31064033", "currenttrial": 61, "bonus": 0, "data": [{"uniqueid": "w22709195:a95668050", "current_trial": 0, "dateTime": 1693564728387, "trialdata": {"success": true, "trial_type": "fullscreen", "trial_index": 0, "time_elapsed": 8906, "internal_node_id": "0.0-0.0"}}, {"uniqueid": "w22709195:a95668050", "current_trial": 1, "dateTime": 1693564747664, "trialdata": {"view_history": [{"page_index": 0, "viewing_time": 19273}], "rt": 19274, "trial_id": "exp_instructions_control", "trial_type": "instructions", "trial_index": 1, "time_elapsed": 28184, "internal_node_id": "0.0-1.0"}}, {"uniqueid": "w22709195:a95668050", "current_trial": 2, "dateTime": 1693564873523, "trialdata": {"view_history": [{"page_index": 0, "viewing_time": 48701}, {"page_index": 1, "viewing_time": 38157}, {"page_index": 0, "viewing_time": 12150}, {"page_index": 1, "viewing_time": 16777}, {"page_index": 2, "viewing_time": 3520}, {"page_index": 3, "viewing_time": 6551}], "rt": 125856, "trial_id": "mouselab_instructions_1_control", "trial_type": "instructions", "trial_index": 2, "time_elapsed": 154043, "internal_node_id": "0.0-2.0-1.0"}}, {"uniqueid": "w22709195:a95668050", "current_trial": 3, "dateTime": 1693565000406, "trialdata": {"revealed_states": [], "clicked_states": ["1", "2", "7", "4", "3", "8", "10", "28", "23", "13", "14", "15", "17", "16", "18", "22", "19", "21", "20", "24", "26", "29", "30", "32", "33", "25", "31", "27", "11", "9", "5", "6", "12"], "num_clicks_accrued": [0, 0, 0, 0, 0, 0, 0, 0, 0, 0, 0, 0, 0], "stateRewards": ["", -10, -10, 10, -10, -10, 10, -10, -10, 10, 10, -10, -10, -10, 10, 10, 10, -10, 10, 10, -10, 10, 10, 10, -10, 10, -10, -10, -10, -10, -10, -10, -10, 10], "withholdReward": false, "trial_id": "practice_1", "block": "test", "trialIndex": 0, "score": -3, "costs": -16.5, "simulationMode": [null, null, null, null, null], "rewards": [-10, -10, 10, 10, 10], "path": ["0", "0", "12", "13", "14", "15", "18"], "rt": [105155, 499, 1901, 729, 7877], "actions": ["right", "right", "right", "up", "left"], "actionTimes": [108311, 109327, 111745, 112990, 121384], "queries": {"click": {"state": {"target": ["1", "2", "7", "4", "3", "8", "10", "28", "23", "13", "14", "15", "17", "16", "18", "22", "19", "21", "20", "24", "26", "29", "30", "32", "33", "25", "31", "27", "11", "9", "5", "6", "12"], "time": [6793, 9334, 10716, 11999, 13516, 14967, 17384, 22159, 24939, 27534, 30006, 34287, 36025, 37795, 39372, 40828, 42172, 43850, 45907, 48266, 55567, 57144, 58945, 60531, 61818, 62978, 64232, 65665, 66900, 67986, 69088, 70505, 73192]}, "edge": {"target": [], "time": []}}, "mouseover": {"state": {"target": ["1", "12", "2", "7", "4", "3", "8", "10", "8", "8", "28", "24", "23", "0", "12", "13", "14", "15", "17", "16", "18", "22", "19", "21", "20", "19", "24", "28", "26", "29", "30", "32", "33", "25", "31", "24", "27", "11", "9", "5", "6", "15", "12", "0", "0", "0", "23", "1", "2", "2", "1", "12", "19", "19", "5", "4", "7", "1", "0", "12"], "time": [6385, 8168, 8784, 10307, 11624, 13012, 14408, 16872, 20340, 21146, 21607, 23909, 24008, 26212, 26260, 26909, 29392, 33878, 35514, 37412, 38980, 40284, 41770, 43381, 45354, 46952, 47767, 49121, 55041, 56755, 58308, 60154, 61259, 62495, 63759, 65011, 65336, 66525, 67660, 68643, 70173, 72090, 72857, 74027, 81142, 85260, 85343, 91363, 91818, 93506, 93630, 95915, 95963, 97015, 98536, 102350, 102400, 102468, 103451, 103500]}, "edge": {"target": [], "time": []}}, "mouseout": {"state": {"target": ["0", "1", "12", "2", "7", "4", "3", "8", "10", "8", "8", "10", "28", "24", "23", "0", "12", "13", "14", "15", "17", "16", "18", "22", "19", "21", "20", "19", "24", "28", "26", "29", "30", "32", "33", "25", "25", "31", "24", "27", "11", "9", "5", "6", "15", "12", "0", "0", "0", "23", "1", "2", "2", "1", "12", "19", "19", "5", "4", "7", "1", "0", "12", "21", "19", "14", "18", "0", "0", "18", "16", "16"], "time": [1999, 7473, 8703, 10207, 11524, 12875, 14376, 16588, 17448, 20672, 21243, 21425, 23606, 23943, 26196, 26228, 26580, 29244, 33598, 35418, 36104, 38685, 40004, 41719, 43237, 45161, 46925, 46982, 49090, 54903, 56476, 57992, 60021, 61164, 62459, 63032, 63560, 64995, 65029, 66391, 67508, 68493, 69876, 71824, 72109, 73745, 77949, 81459, 85276, 85544, 91479, 92196, 93530, 93683, 95932, 96272, 97035, 98565, 102369, 102419, 102491, 103469, 104657, 115823, 115905, 115954, 116291, 116355, 117690, 117755, 119123, 119540]}, "edge": {"target": [], "time": []}}}, "displayed_time": "121.90", "trialTime": 126393, "trial_type": "mouselab-mdp", "trial_index": 3, "time_elapsed": 280925, "internal_node_id": "0.0-2.0-2.0-0.0"}}, {"uniqueid": "w22709195:a95668050", "current_trial": 4, "dateTime": 1693565073544, "trialdata": {"revealed_states": [], "clicked_states": ["3", "8", "11", "9", "10", "2", "7", "4", "5", "6", "1", "12", "13", "14", "15", "16", "17", "18", "25", "24", "23", "31", "30", "32", "33", "29", "26", "28", "27", "22", "19", "21", "20"], "num_clicks_accrued": [0, 0, 0, 0, 0, 0, 0, 0, 0, 0, 0, 0, 0], "stateRewards": ["", 10, 10, -10, -10, -10, 10, -10, -10, -10, 10, 10, 10, -10, -10, -10, 10, 10, -10, 10, 10, -10, 10, 10, -10, 10, 10, 10, -10, 10, -10, 10, 10, -10], "withholdReward": false, "trial_id": "practice_2", "block": "test", "trialIndex": 1, "score": -23, "costs": -16.5, "simulationMode": [null, null, null, null, null], "rewards": [10, -10, -10, -10, 10], "path": ["0", "0", "12", "13", "14", "15", "16"], "rt": [55545, 715, 5595, 558, 611], "actions": ["right", "right", "right", "up", "up"], "actionTimes": [59223, 60463, 66577, 67643, 68765], "queries": {"click": {"state": {"target": ["3", "8", "11", "9", "10", "2", "7", "4", "5", "6", "1", "12", "13", "14", "15", "16", "17", "18", "25", "24", "23", "31", "30", "32", "33", "29", "26", "28", "27", "22", "19", "21", "20"], "time": [6546, 9312, 11088, 12459, 13967, 15277, 16665, 17872, 19057, 20193, 21815, 22993, 24039, 25081, 26378, 27416, 28587, 29998, 32668, 35051, 37155, 39321, 41541, 43314, 45638, 47294, 48359, 51007, 52197, 53727, 54920, 56387, 57436]}, "edge": {"target": [], "time": []}}, "mouseover": {"state": {"target": ["1", "2", "3", "2", "8", "11", "9", "8", "10", "2", "7", "4", "5", "6", "18", "12", "0", "1", "12", "13", "14", "15", "16", "17", "18", "23", "24", "25", "24", "23", "31", "30", "32", "33", "29", "29", "26", "28", "27", "22", "19", "21", "20", "14"], "time": [5271, 5670, 5975, 7592, 8772, 10456, 12028, 13347, 13657, 14828, 16231, 17314, 18597, 19782, 20750, 21030, 21148, 21461, 22749, 23649, 24733, 25932, 27067, 27951, 29433, 31647, 31903, 32214, 34150, 36666, 38833, 41136, 42921, 44839, 46576, 47048, 47862, 49293, 51810, 53113, 54428, 55611, 57046, 58181]}, "edge": {"target": [], "time": []}}, "mouseout": {"state": {"target": ["15", "18", "1", "1", "2", "3", "2", "3", "8", "11", "9", "8", "10", "2", "7", "4", "5", "6", "18", "12", "0", "1", "12", "12", "13", "14", "15", "16", "17", "15", "18", "23", "24", "25", "24", "23", "31", "30", "32", "33", "29", "29", "26", "28", "27", "22", "19", "21", "20", "14", "0", "12"], "time": [2922, 2953, 3104, 5622, 5737, 7561, 8373, 8623, 10260, 11927, 13279, 13411, 14728, 16066, 17215, 17941, 19681, 20699, 20765, 21049, 21262, 22267, 23038, 23549, 24682, 25665, 26901, 27902, 29102, 29163, 31586, 31664, 32184, 33983, 36499, 38616, 41019, 42802, 44354, 46524, 46608, 47354, 49159, 51015, 52281, 53799, 55578, 56912, 58145, 58200, 64111, 64162]}, "edge": {"target": [], "time": []}}}, "displayed_time": "69.28", "trialTime": 72977, "trial_type": "mouselab-mdp", "trial_index": 4, "time_elapsed": 354064, "internal_node_id": "0.0-2.0-2.0-1.0"}}, {"uniqueid": "w22709195:a95668050", "current_trial": 5, "dateTime": 1693565130677, "trialdata": {"view_history": [{"page_index": 0, "viewing_time": 53280}, {"page_index": 1, "viewing_time": 3845}], "rt": 57126, "trial_id": "mouselab_instructions_2_control", "trial_type": "instructions", "trial_index": 5, "time_elapsed": 411196, "internal_node_id": "0.0-2.0-3.0"}}, {"uniqueid": "w22709195:a95668050", "current_trial": 6, "dateTime": 1693565199475, "trialdata": {"rt": 68789, "response": {"Q0": "The cost for clicking on nodes may vary between nodes.", "Q1": "I will receive a $1 bonus if I perform well, otherwise I will receive no bonus.", "Q2": "No, the amount of cash at each node of the web may be different each time.", "Q3": "To get the highest total score.", "Q4": "Only after moving the spider.", "Q5": "3 seconds"}, "question_order": [0, 1, 2, 3, 4, 5], "correct": {"Q0": "The cost for clicking on nodes may vary between nodes.", "Q1": "The better I perform the higher my bonus will be.", "Q2": "No, the amount of cash at each node of the web may be different each time.", "Q3": "To get the highest total score.", "Q4": "Only before moving the spider.", "Q5": "3 seconds"}, "trial_id": "mouselab_quiz_control", "trial_type": "survey-multi-choice", "trial_index": 6, "time_elapsed": 479994, "internal_node_id": "0.0-2.0-4.0"}}, {"uniqueid": "w22709195:a95668050", "current_trial": 7, "dateTime": 1693565239764, "trialdata": {"success": true, "trial_type": "fullscreen", "trial_index": 7, "time_elapsed": 520284, "internal_node_id": "0.0-2.1-0.1-0.1"}}, {"uniqueid": "w22709195:a95668050", "current_trial": 8, "dateTime": 1693565967127, "trialdata": {"view_history": [{"page_index": 0, "viewing_time": 304207}, {"page_index": 1, "viewing_time": 131941}, {"page_index": 2, "viewing_time": 201923}, {"page_index": 3, "viewing_time": 89283}], "rt": 727355, "trial_id": "mouselab_instructions_1_control", "trial_type": "instructions", "trial_index": 8, "time_elapsed": 1247647, "internal_node_id": "0.0-2.1-1.1"}}, {"uniqueid": "w22709195:a95668050", "current_trial": 9, "dateTime": 1693566043204, "trialdata": {"revealed_states": [], "clicked_states": ["1", "2", "3", "6", "4", "7", "5", "9", "11", "8", "10", "28", "26", "27", "29", "25", "23", "24", "31", "30", "32", "33"], "num_clicks_accrued": [0, 0, 0, 0, 0, 0, 0, 0, 0, 0, 0, 0, 0], "stateRewards": ["", -10, -10, 10, -10, -10, 10, -10, -10, 10, 10, -10, -10, -10, 10, 10, 10, -10, 10, 10, -10, 10, 10, 10, -10, 10, -10, -10, -10, -10, -10, -10, -10, 10], "withholdReward": false, "trial_id": "practice_1", "block": "test", "trialIndex": 2, "score": -17.5, "costs": -11, "simulationMode": [null, null, null, null, null], "rewards": [-10, -10, 10, -10, 10], "path": ["0", "0", "1", "2", "3", "4", "6"], "rt": [63434, 600, 792, 1299, 576], "actions": ["up", "up", "up", "right", "right"], "actionTimes": [66153, 67267, 68576, 70387, 71478], "queries": {"click": {"state": {"target": ["1", "2", "3", "6", "4", "7", "5", "9", "11", "8", "10", "28", "26", "27", "29", "25", "23", "24", "31", "30", "32", "33"], "time": [6201, 7327, 8337, 10174, 12401, 13570, 14797, 15946, 17887, 20372, 21614, 23942, 24981, 26132, 27494, 28749, 30805, 31836, 33807, 34841, 37048, 38723]}, "edge": {"target": [], "time": []}}, "mouseover": {"state": {"target": ["22", "1", "2", "3", "4", "6", "4", "7", "5", "9", "8", "11", "8", "8", "10", "28", "26", "27", "29", "25", "24", "23", "24", "31", "30", "33", "32", "33", "17", "13", "12", "13", "15", "13"], "time": [4340, 5874, 6962, 7998, 9061, 9959, 10797, 13330, 14299, 15598, 16531, 17578, 18399, 19763, 21166, 23431, 24469, 25753, 26954, 28087, 29237, 30250, 31522, 32320, 34471, 35472, 36636, 37691, 58541, 59078, 59111, 62778, 64096, 64146]}, "edge": {"target": [], "time": []}}, "mouseout": {"state": {"target": ["0", "22", "1", "2", "3", "4", "6", "4", "7", "4", "5", "9", "8", "11", "8", "8", "10", "28", "26", "27", "29", "25", "24", "23", "24", "31", "30", "33", "32", "33", "17", "13", "12", "13", "15", "13"], "time": [3806, 4440, 6778, 7797, 8910, 9859, 10614, 13147, 14167, 14215, 15018, 16464, 17412, 18298, 19480, 20999, 23382, 24452, 25519, 26706, 28041, 29188, 30183, 31370, 32304, 34304, 34898, 36452, 37474, 39192, 58562, 59094, 60145, 63763, 64113, 64163]}, "edge": {"target": [], "time": []}}}, "displayed_time": "71.99", "trialTime": 75950, "trial_type": "mouselab-mdp", "trial_index": 9, "time_elapsed": 1323724, "internal_node_id": "0.0-2.1-2.1-0.1"}}, {"uniqueid": "w22709195:a95668050", "current_trial": 10, "dateTime": 1693566104271, "trialdata": {"revealed_states": [], "clicked_states": ["1", "7", "4", "6", "5", "3", "8", "9", "11", "10", "2", "28", "27", "29", "26", "25", "32", "30", "31", "24", "33", "23", "12", "13", "18", "15", "16", "17", "14", "19", "22", "21", "20"], "num_clicks_accrued": [0, 0, 0, 0, 0, 0, 0, 0, 0, 0, 0, 0, 0], "stateRewards": ["", 10, 10, -10, -10, -10, 10, -10, -10, -10, 10, 10, 10, -10, -10, -10, 10, 10, -10, 10, 10, -10, 10, 10, -10, 10, 10, 10, -10, 10, -10, 10, 10, -10], "withholdReward": false, "trial_id": "practice_2", "block": "test", "trialIndex": 3, "score": -3, "costs": -16.5, "simulationMode": [null, null, null, null, null], "rewards": [10, 10, -10, -10, 10], "path": ["0", "0", "1", "2", "3", "8", "11"], "rt": [50360, 294, 287, 598, 574], "actions": ["up", "up", "up", "left", "left"], "actionTimes": [53114, 53916, 54724, 55835, 56928], "queries": {"click": {"state": {"target": ["1", "7", "4", "6", "5", "3", "8", "9", "11", "10", "2", "28", "27", "29", "26", "25", "32", "30", "31", "24", "33", "23", "12", "13", "18", "15", "16", "17", "14", "19", "22", "21", "20"], "time": [3713, 4920, 6860, 8128, 9176, 10661, 11853, 13000, 14157, 15394, 16419, 17558, 19441, 20521, 22083, 23622, 25399, 27483, 29596, 30985, 32135, 33466, 34537, 36191, 37246, 39465, 41743, 42966, 44870, 47160, 48220, 49366, 50409]}, "edge": {"target": [], "time": []}}, "mouseover": {"state": {"target": ["1", "7", "4", "6", "5", "3", "8", "9", "11", "10", "2", "28", "26", "27", "29", "26", "25", "30", "32", "33", "30", "33", "31", "24", "33", "0", "23", "12", "13", "18", "15", "16", "16", "17", "14", "19", "22", "21", "20"], "time": [3313, 4449, 5588, 7322, 8820, 10137, 11471, 12673, 13739, 14986, 16119, 17120, 18190, 19019, 20156, 20989, 22843, 24242, 25205, 25926, 27005, 27927, 29056, 30707, 31495, 32962, 33080, 34030, 35130, 36862, 37829, 39963, 41277, 42650, 43865, 46630, 47985, 48950, 49986]}, "edge": {"target": [], "time": []}}, "mouseout": {"state": {"target": ["0", "1", "7", "4", "6", "5", "3", "8", "9", "11", "10", "2", "28", "28", "26", "27", "29", "26", "25", "30", "32", "33", "30", "33", "30", "31", "24", "33", "0", "23", "12", "13", "18", "15", "16", "16", "17", "17", "14", "19", "22", "21", "20", "0"], "time": [3197, 4282, 5434, 7271, 8571, 10053, 11321, 12522, 13622, 14836, 16024, 16919, 17788, 18056, 18986, 19972, 20923, 22758, 24143, 25138, 25616, 26922, 27897, 28923, 29006, 30460, 31430, 32614, 32979, 33961, 35047, 36762, 37795, 39525, 40978, 42300, 43186, 43581, 46580, 47702, 48751, 49886, 50821, 60102]}, "edge": {"target": [], "time": []}}}, "displayed_time": "57.44", "trialTime": 60944, "trial_type": "mouselab-mdp", "trial_index": 10, "time_elapsed": 1384790, "internal_node_id": "0.0-2.1-2.1-1.1"}}, {"uniqueid": "w22709195:a95668050", "current_trial": 11, "dateTime": 1693566116796, "trialdata": {"view_history": [{"page_index": 0, "viewing_time": 8046}, {"page_index": 1, "viewing_time": 4475}], "rt": 12522, "trial_id": "mouselab_instructions_2_control", "trial_type": "instructions", "trial_index": 11, "time_elapsed": 1397315, "internal_node_id": "0.0-2.1-3.1"}}, {"uniqueid": "w22709195:a95668050", "current_trial": 12, "dateTime": 1693566428147, "trialdata": {"rt": 311348, "response": {"Q0": "The cost for clicking on nodes may vary between nodes.", "Q1": "The better I perform the higher my bonus will be.", "Q2": "No, the amount of cash at each node of the web may be different each time.", "Q3": "To get the highest total score.", "Q4": "Only before moving the spider.", "Q5": "3 seconds"}, "question_order": [0, 1, 2, 3, 4, 5], "correct": {"Q0": "The cost for clicking on nodes may vary between nodes.", "Q1": "The better I perform the higher my bonus will be.", "Q2": "No, the amount of cash at each node of the web may be different each time.", "Q3": "To get the highest total score.", "Q4": "Only before moving the spider.", "Q5": "3 seconds"}, "trial_id": "mouselab_quiz_control", "trial_type": "survey-multi-choice", "trial_index": 12, "time_elapsed": 1708667, "internal_node_id": "0.0-2.1-4.1"}}, {"uniqueid": "w22709195:a95668050", "current_trial": 13, "dateTime": 1693566439388, "trialdata": {"rt": 11234, "response": {"Q0": "No"}, "question_order": [0], "trial_id": "repeat_check", "trial_type": "survey-multi-choice", "trial_index": 13, "time_elapsed": 1719907, "internal_node_id": "0.0-4.0-0.0"}}, {"uniqueid": "w22709195:a95668050", "current_trial": 14, "dateTime": 1693566466672, "trialdata": {"rt": 27277, "stimulus": "\n<h1> Get ready to start the game! </h1>\n\nThank you for reading the instructions. Get ready start with the 40 rounds of this game.\n<br><br>\nIf you need to take a break, feel free to take one after the end of a round, before continuing to the next one.\n<br><br>\nRemember, the more money the spider gets, the bigger your bonus will be!\n<br><br>\n<div style='text-align: center;'>Press <code>space</code> to begin.</div>\n\n<br><br>\n(If, at any point, the <code>space</code> key does not take you to the next page, click once on the text and try again.)", "response": " ", "trial_id": "mdp_ready", "trial_type": "html-keyboard-response", "trial_index": 14, "time_elapsed": 1747192, "internal_node_id": "0.0-6.0-0.0"}}, {"uniqueid": "w22709195:a95668050", "current_trial": 15, "dateTime": 1693566544671, "trialdata": {"revealed_states": [], "clicked_states": ["1", "2", "3", "10", "11", "27", "26", "28", "24", "15", "16", "18", "17", "14", "19"], "num_clicks_accrued": [0, 0, 0, 0, 0, 0, 0, 0, 0, 0, 0, 0, 0], "stateRewards": ["", 1, 3, -2, 15, 51, 15, -19, 11, 67, -45, -73, 2, 4, -2, -13, 36, 9, -28, 10, -30, 31, 16, 1, 2, -1, -16, 14, -22, 36, -1, 88, -5, 45], "withholdReward": false, "trial_id": "mdp_trial_1", "block": "test", "trialIndex": 4, "score": 11.000000000000004, "costs": -20.999999999999996, "simulationMode": [null, null, null, null, null], "rewards": [1, 3, -2, 15, 15], "path": ["0", "0", "1", "2", "3", "4", "6"], "rt": [48175, 256, 699, 649, 600], "actions": ["up", "up", "up", "right", "right"], "actionTimes": [50131, 50908, 52100, 53269, 54385], "queries": {"click": {"state": {"target": ["1", "2", "3", "10", "11", "27", "26", "28", "24", "15", "16", "18", "17", "14", "19"], "time": [4067, 6807, 8327, 11279, 13217, 15539, 18640, 21624, 23653, 25970, 27595, 29589, 32593, 34535, 37175]}, "edge": {"target": [], "time": []}}, "mouseover": {"state": {"target": ["1", "0", "1", "2", "7", "2", "3", "8", "10", "8", "11", "27", "26", "28", "24", "23", "0", "13", "15", "15", "16", "18", "17", "17", "14", "20", "19", "21", "22", "13", "0"], "time": [2628, 2978, 3579, 4632, 5199, 6447, 7469, 9285, 10732, 12587, 12804, 14817, 17868, 20786, 22605, 25061, 25078, 25124, 25480, 25654, 26709, 28457, 30177, 32240, 33429, 35496, 36625, 37880, 38809, 47729, 48363]}, "edge": {"target": [], "time": []}}, "mouseout": {"state": {"target": ["0", "1", "0", "1", "2", "7", "2", "3", "8", "10", "8", "11", "27", "27", "26", "28", "24", "23", "0", "13", "15", "15", "16", "18", "15", "17", "17", "14", "20", "19", "21", "22", "13", "0"], "time": [2581, 2645, 2995, 4548, 4966, 6413, 7386, 9203, 10631, 12470, 12621, 14753, 16821, 17768, 20587, 22522, 25059, 25075, 25091, 25141, 25570, 26560, 28257, 30094, 30148, 32140, 33245, 35312, 36475, 37746, 38759, 47666, 47762, 48379]}, "edge": {"target": [], "time": []}}}, "displayed_time": "54.90", "trialTime": 77865, "trial_type": "mouselab-mdp", "trial_index": 15, "time_elapsed": 1825190, "internal_node_id": "0.0-6.0-1.0-0.0"}}, {"uniqueid": "w22709195:a95668050", "current_trial": 16, "dateTime": 1693566620526, "trialdata": {"revealed_states": [], "clicked_states": ["27", "29", "26", "25", "30", "31", "28", "3", "4", "5", "6", "9", "8", "10"], "num_clicks_accrued": [0, 0, 0, 0, 0, 0, 0, 0, 0, 0, 0, 0, 0], "stateRewards": ["", -1, -4, -3, 1, -45, -67, -24, 14, 32, 22, 22, -1, 1, -5, -7, 72, 84, -79, -5, 19, -40, -2, -1, -2, 8, -3, 84, -25, -28, 11, 64, -66, 77], "withholdReward": false, "trial_id": "mdp_trial_2", "block": "test", "trialIndex": 5, "score": 8.400000000000002, "costs": -19.599999999999998, "simulationMode": [null, null, null, null, null], "rewards": [-1, -4, -3, 14, 22], "path": ["0", "0", "1", "2", "3", "8", "11"], "rt": [46455, 2499, 346, 830, 112], "actions": ["up", "up", "up", "left", "left"], "actionTimes": [49286, 52300, 53165, 54516, 55149], "queries": {"click": {"state": {"target": ["27", "29", "26", "25", "30", "31", "28", "3", "4", "5", "6", "9", "8", "10"], "time": [4845, 7739, 9689, 11543, 13669, 15752, 18109, 19965, 22156, 24427, 26718, 28339, 30176, 32484]}, "edge": {"target": [], "time": []}}, "mouseover": {"state": {"target": ["23", "24", "27", "29", "26", "26", "25", "25", "30", "32", "31", "24", "24", "28", "10", "3", "3", "4", "5", "7", "6", "9", "8", "11", "10", "2", "2", "7", "15", "15", "17"], "time": [3496, 3796, 4213, 7364, 8584, 9398, 10818, 11135, 12387, 14269, 15401, 16686, 17588, 17819, 19022, 19076, 19440, 21141, 22773, 25324, 26473, 27928, 29195, 30709, 32141, 32912, 33163, 33946, 38810, 39226, 47020]}, "edge": {"target": [], "time": []}}, "mouseout": {"state": {"target": ["0", "0", "23", "24", "27", "27", "29", "26", "29", "26", "25", "25", "25", "30", "32", "31", "24", "24", "28", "10", "3", "3", "4", "5", "5", "4", "7", "6", "9", "9", "8", "11", "10", "10", "2", "2", "7", "15", "15"], "time": [2515, 3447, 3546, 3813, 5069, 6564, 8467, 9201, 9315, 10801, 10852, 11775, 12304, 14186, 15187, 16619, 16819, 17786, 19006, 19039, 19093, 21024, 22756, 24505, 24906, 25190, 26222, 27262, 28570, 29097, 30692, 31790, 32709, 32881, 33012, 33930, 34391, 38960, 46262]}, "edge": {"target": [], "time": []}}}, "displayed_time": "55.65", "trialTime": 75706, "trial_type": "mouselab-mdp", "trial_index": 16, "time_elapsed": 1901045, "internal_node_id": "0.0-6.0-1.0-1.0"}}, {"uniqueid": "w22709195:a95668050", "current_trial": 17, "dateTime": 1693566672683, "trialdata": {"revealed_states": [], "clicked_states": ["12", "13", "15", "7", "26", "24", "25", "27", "28", "29", "30", "32", "33", "9", "10"], "num_clicks_accrued": [0, 0, 0, 0, 0, 0, 0, 0, 0, 0, 0, 0, 0], "stateRewards": ["", 1, -4, -6, 11, -20, 8, -30, 1, -38, 88, 42, 2, 3, 5, -12, -8, -74, 30, -8, 67, -19, 42, 2, -1, 4, 13, 50, -68, 2, -8, -15, 87, -46], "withholdReward": false, "trial_id": "mdp_trial_3", "block": "test", "trialIndex": 6, "score": 63, "costs": -20.999999999999996, "simulationMode": [null, null, null, null, null], "rewards": [2, -1, 4, -8, 87], "path": ["0", "0", "23", "24", "25", "30", "32"], "rt": [39023, 476, 351, 784, 206], "actions": ["left", "left", "left", "down", "down"], "actionTimes": [42546, 43538, 44410, 45693, 46416], "queries": {"click": {"state": {"target": ["12", "13", "15", "7", "26", "24", "25", "27", "28", "29", "30", "32", "33", "9", "10"], "time": [4659, 6444, 8597, 11134, 14441, 16328, 18102, 19810, 22249, 24847, 27023, 29130, 31244, 33400, 35271]}, "edge": {"target": [], "time": []}}, "mouseover": {"state": {"target": ["12", "13", "14", "15", "16", "7", "4", "3", "8", "10", "28", "26", "25", "24", "25", "27", "29", "26", "28", "26", "29", "29", "25", "30", "31", "32", "33", "8", "9", "8", "10", "7", "18", "14", "20"], "time": [4456, 5394, 7151, 8341, 9394, 10692, 11729, 13109, 13626, 13743, 13828, 13977, 15115, 16077, 17048, 18765, 20583, 21563, 21613, 22916, 23233, 24514, 25369, 25686, 27521, 28682, 30004, 31738, 33134, 34086, 35085, 36360, 36936, 37202, 38102]}, "edge": {"target": [], "time": []}}, "mouseout": {"state": {"target": ["17", "14", "13", "12", "0", "12", "13", "14", "15", "16", "7", "4", "3", "8", "10", "28", "26", "25", "24", "25", "26", "27", "29", "26", "28", "26", "29", "29", "25", "30", "31", "32", "33", "8", "9", "8", "10", "7", "18", "14"], "time": [2740, 2939, 3022, 3105, 4356, 5295, 7066, 8242, 9328, 10426, 11360, 12976, 13576, 13677, 13760, 13860, 14998, 16010, 16899, 18631, 18681, 20333, 21546, 21596, 22899, 23199, 24280, 25337, 25603, 27503, 28535, 29721, 31460, 33034, 34052, 35051, 35483, 36406, 36969, 37237]}, "edge": {"target": [], "time": []}}}, "displayed_time": "46.91", "trialTime": 51994, "trial_type": "mouselab-mdp", "trial_index": 17, "time_elapsed": 1953202, "internal_node_id": "0.0-6.0-1.0-2.0"}}, {"uniqueid": "w22709195:a95668050", "current_trial": 18, "dateTime": 1693566705133, "trialdata": {"revealed_states": [], "clicked_states": ["1", "3", "4", "15", "19", "24", "26"], "num_clicks_accrued": [0, 0, 0, 0, 0, 0, 0, 0, 0, 0, 0, 0, 0], "stateRewards": ["", 2, -4, -4, 13, -80, 62, 13, -11, 57, -13, -44, 1, 4, 3, -4, -29, -88, 15, 16, -58, 68, -45, -1, -3, -1, -9, -44, -86, -19, -7, -36, 59, 66], "withholdReward": false, "trial_id": "mdp_trial_4", "block": "test", "trialIndex": 7, "score": 59.2, "costs": -9.8, "simulationMode": [null, null, null, null, null], "rewards": [2, -4, -4, 13, 62], "path": ["0", "0", "1", "2", "3", "4", "6"], "rt": [24418, 370, 62, 464, 15], "actions": ["up", "up", "up", "right", "right"], "actionTimes": [26812, 27697, 28273, 29241, 29776], "queries": {"click": {"state": {"target": ["1", "3", "4", "15", "19", "24", "26"], "time": [3348, 4906, 6573, 8932, 11139, 13903, 16244]}, "edge": {"target": [], "time": []}}, "mouseover": {"state": {"target": ["1", "2", "3", "4", "7", "15", "14", "19", "22", "12", "23", "24", "28", "26"], "time": [3081, 3822, 4686, 5401, 7218, 8682, 9505, 10884, 12037, 13019, 13317, 13619, 14506, 15935]}, "edge": {"target": [], "time": []}}, "mouseout": {"state": {"target": ["20", "21", "1", "2", "3", "4", "7", "15", "14", "19", "22", "12", "23", "24", "28", "26"], "time": [1063, 1113, 3786, 4619, 5352, 7184, 8600, 9456, 10850, 12004, 12984, 13041, 13351, 14112, 15902, 16464]}, "edge": {"target": [], "time": []}}}, "displayed_time": "30.28", "trialTime": 32300, "trial_type": "mouselab-mdp", "trial_index": 18, "time_elapsed": 1985652, "internal_node_id": "0.0-6.0-1.0-3.0"}}, {"uniqueid": "w22709195:a95668050", "current_trial": 19, "dateTime": 1693566767199, "trialdata": {"revealed_states": [], "clicked_states": ["1", "3", "9", "26", "24", "31", "32", "15", "16", "18", "19"], "num_clicks_accrued": [0, 0, 0, 0, 0, 0, 0, 0, 0, 0, 0, 0, 0], "stateRewards": ["", -1, 3, -4, -14, 78, 67, 2, 13, -32, 28, 39, -2, 1, -4, -4, -4, -42, -86, 11, 64, -29, -32, -1, -4, 2, -7, 5, 68, -61, 2, -21, 85, 50], "withholdReward": false, "trial_id": "mdp_trial_5", "block": "test", "trialIndex": 8, "score": 35.599999999999994, "costs": -15.400000000000002, "simulationMode": [null, null, null, null, null], "rewards": [-1, 3, -4, -14, 67], "path": ["0", "0", "1", "2", "3", "4", "6"], "rt": [34987, 4, 98, 771, 327], "actions": ["up", "up", "up", "right", "right"], "actionTimes": [56281, 56801, 57409, 58698, 59539], "queries": {"click": {"state": {"target": ["1", "3", "9", "26", "24", "31", "32", "15", "16", "18", "19"], "time": [22178, 24671, 26609, 29379, 31107, 33656, 35509, 37858, 39613, 42059, 44451]}, "edge": {"target": [], "time": []}}, "mouseover": {"state": {"target": ["1", "1", "2", "3", "8", "9", "11", "26", "25", "26", "25", "24", "31", "31", "30", "32", "14", "15", "16", "17", "18", "13", "14", "19", "21"], "time": [21776, 21993, 22698, 24377, 25213, 26294, 27533, 28679, 28762, 28962, 29883, 30849, 31801, 33420, 34224, 35298, 36103, 37549, 38407, 40171, 41640, 42571, 43287, 44218, 44906]}, "edge": {"target": [], "time": []}}, "mouseout": {"state": {"target": ["26", "23", "0", "1", "1", "2", "3", "8", "9", "11", "26", "25", "26", "25", "24", "31", "31", "30", "32", "14", "15", "16", "17", "15", "18", "18", "13", "14", "19", "19"], "time": [20509, 20608, 20858, 21909, 22402, 24244, 25163, 26261, 27333, 28630, 28729, 28878, 29833, 30833, 31721, 31867, 34201, 35231, 35729, 37466, 38370, 40072, 41567, 41617, 42275, 42504, 43255, 44135, 44666, 44873]}, "edge": {"target": [], "time": []}}}, "displayed_time": "60.05", "trialTime": 61909, "trial_type": "mouselab-mdp", "trial_index": 19, "time_elapsed": 2047718, "internal_node_id": "0.0-6.0-1.0-4.0"}}, {"uniqueid": "w22709195:a95668050", "current_trial": 20, "dateTime": 1693566791826, "trialdata": {"revealed_states": [], "clicked_states": ["1", "10", "8", "4"], "num_clicks_accrued": [0, 0, 0, 0, 0, 0, 0, 0, 0, 0, 0, 0, 0], "stateRewards": ["", 2, -1, 5, 6, 10, 86, 55, 10, -45, 63, -71, 1, -2, 5, -8, -50, -72, 36, 15, 61, 12, 33, -1, -4, 6, 5, 79, -56, -21, -16, -87, 60, -81], "withholdReward": false, "trial_id": "mdp_trial_6", "block": "test", "trialIndex": 9, "score": 92.4, "costs": -5.6, "simulationMode": [null, null, null, null, null], "rewards": [2, -1, 5, 6, 86], "path": ["0", "0", "1", "2", "3", "4", "6"], "rt": [14246, 971, 4, 1046, 77], "actions": ["up", "up", "up", "right", "right"], "actionTimes": [17947, 19411, 19928, 21487, 22085], "queries": {"click": {"state": {"target": ["1", "10", "8", "4"], "time": [4702, 7012, 8880, 11082]}, "edge": {"target": [], "time": []}}, "mouseover": {"state": {"target": ["1", "1", "2", "10", "8", "3", "4", "7"], "time": [4231, 4481, 5183, 6732, 8069, 9387, 10287, 11904]}, "edge": {"target": [], "time": []}}, "mouseout": {"state": {"target": ["21", "0", "1", "1", "2", "10", "8", "3", "4", "7"], "time": [696, 4188, 4347, 4926, 6681, 7236, 9092, 10238, 11821, 13367]}, "edge": {"target": [], "time": []}}}, "displayed_time": "22.57", "trialTime": 24473, "trial_type": "mouselab-mdp", "trial_index": 20, "time_elapsed": 2072345, "internal_node_id": "0.0-6.0-1.0-5.0"}}, {"uniqueid": "w22709195:a95668050", "current_trial": 21, "dateTime": 1693566831046, "trialdata": {"revealed_states": [], "clicked_states": ["20", "17", "15", "7", "4"], "num_clicks_accrued": [0, 0, 0, 0, 0, 0, 0, 0, 0, 0, 0, 0, 0], "stateRewards": ["", 1, 1, -2, 7, -31, -6, 76, 1, -36, -16, -53, 2, 1, 7, 13, -47, -10, 47, -7, 72, 46, -56, -2, -2, -2, 11, -80, 44, 38, 16, 67, 85, -78], "withholdReward": false, "trial_id": "mdp_trial_7", "block": "test", "trialIndex": 10, "score": -59, "costs": -7, "simulationMode": [null, null, null, null, null], "rewards": [1, 1, -2, 1, -53], "path": ["0", "0", "1", "2", "3", "8", "11"], "rt": [21054, 2478, 16, 745, 44], "actions": ["up", "up", "up", "left", "left"], "actionTimes": [26182, 29173, 29696, 30955, 31505], "queries": {"click": {"state": {"target": ["20", "17", "15", "7", "4"], "time": [6214, 8195, 10582, 14285, 17899]}, "edge": {"target": [], "time": []}}, "mouseover": {"state": {"target": ["12", "19", "20", "17", "15", "18", "7", "4", "5"], "time": [5564, 5613, 5914, 7101, 9037, 11386, 13916, 15035, 22420]}, "edge": {"target": [], "time": []}}, "mouseout": {"state": {"target": ["19", "22", "12", "0", "12", "19", "20", "17", "15", "18", "7", "4"], "time": [2013, 2028, 4546, 4813, 5580, 5863, 6835, 8868, 11187, 13583, 15002, 22381]}, "edge": {"target": [], "time": []}}}, "displayed_time": "32.03", "trialTime": 39065, "trial_type": "mouselab-mdp", "trial_index": 21, "time_elapsed": 2111565, "internal_node_id": "0.0-6.0-1.0-6.0"}}, {"uniqueid": "w22709195:a95668050", "current_trial": 22, "dateTime": 1693566871732, "trialdata": {"revealed_states": [], "clicked_states": ["2", "4", "8", "11", "26", "28", "25", "32", "30", "13", "14", "15", "18"], "num_clicks_accrued": [0, 0, 0, 0, 0, 0, 0, 0, 0, 0, 0, 0, 0], "stateRewards": ["", 1, -2, -3, 14, -42, -87, -37, -11, -50, 33, -44, -2, 4, -7, 13, 48, -75, -66, 12, 23, -2, 82, 1, -4, 3, 12, 51, -15, -26, -11, -52, -29, 82], "withholdReward": false, "trial_id": "mdp_trial_8", "block": "test", "trialIndex": 11, "score": -45.2, "costs": -18.2, "simulationMode": [null, null, null, null, null], "rewards": [1, -2, -3, 14, -37], "path": ["0", "0", "1", "2", "3", "4", "7"], "rt": [31517, 72, 52, 1029, 504], "actions": ["up", "up", "up", "right", "down"], "actionTimes": [32903, 33493, 34057, 35600, 36610], "queries": {"click": {"state": {"target": ["2", "4", "8", "11", "26", "28", "25", "32", "30", "13", "14", "15", "18"], "time": [2495, 4700, 6751, 8740, 10591, 12177, 14549, 16501, 18595, 21039, 22727, 24254, 26598]}, "edge": {"target": [], "time": []}}, "mouseover": {"state": {"target": ["2", "7", "4", "3", "8", "11", "27", "26", "28", "24", "24", "25", "30", "32", "33", "30", "31", "13", "14", "15", "16", "18", "13"], "time": [2071, 2996, 4339, 5460, 6442, 8440, 9363, 10408, 11180, 12630, 13164, 14126, 15179, 16277, 17151, 18377, 19262, 20629, 21634, 23252, 24683, 26264, 27137]}, "edge": {"target": [], "time": []}}, "mouseout": {"state": {"target": ["5", "4", "7", "2", "7", "4", "3", "8", "11", "11", "27", "26", "28", "24", "24", "25", "30", "32", "33", "30", "31", "13", "14", "15", "16", "18", "13"], "time": [555, 587, 758, 2977, 3942, 5344, 6406, 7645, 8951, 9195, 10342, 10807, 12597, 12680, 14076, 15113, 16193, 16719, 18278, 19214, 20112, 21600, 23151, 24649, 26047, 26812, 27152]}, "edge": {"target": [], "time": []}}}, "displayed_time": "37.12", "trialTime": 40513, "trial_type": "mouselab-mdp", "trial_index": 22, "time_elapsed": 2152252, "internal_node_id": "0.0-6.0-1.0-7.0"}}, {"uniqueid": "w22709195:a95668050", "current_trial": 23, "dateTime": 1693566905223, "trialdata": {"revealed_states": [], "clicked_states": ["3", "4", "1", "24", "26", "11", "6", "16", "19"], "num_clicks_accrued": [0, 0, 0, 0, 0, 0, 0, 0, 0, 0, 0, 0, 0], "stateRewards": ["", -2, 3, 8, -9, 59, 41, -50, -1, 82, 66, 33, 2, -2, 7, 8, 1, -38, 12, -16, 24, -37, 67, 1, 4, -2, 5, 35, -83, 28, 8, -27, 69, -64], "withholdReward": false, "trial_id": "mdp_trial_9", "block": "test", "trialIndex": 12, "score": -58.6, "costs": -12.600000000000001, "simulationMode": [null, null, null, null, null], "rewards": [2, -2, 7, -16, -37], "path": ["0", "0", "12", "13", "14", "19", "21"], "rt": [27826, 45, 81, 74, 112], "actions": ["right", "right", "right", "down", "down"], "actionTimes": [28909, 29469, 30054, 30630, 31237], "queries": {"click": {"state": {"target": ["3", "4", "1", "24", "26", "11", "6", "16", "19"], "time": [2315, 4491, 6563, 8734, 10922, 13085, 15501, 17147, 21321]}, "edge": {"target": [], "time": []}}, "mouseover": {"state": {"target": ["1", "3", "4", "2", "1", "23", "24", "25", "26", "27", "11", "8", "3", "6", "6", "16", "15", "14", "19", "22", "19", "20"], "time": [1660, 1975, 3497, 5215, 5631, 7300, 8479, 9399, 10546, 11715, 12796, 13634, 13667, 13717, 14016, 16034, 17720, 19166, 19232, 19485, 20766, 22437]}, "edge": {"target": [], "time": []}}, "mouseout": {"state": {"target": ["0", "1", "3", "4", "2", "1", "23", "24", "25", "26", "27", "11", "8", "3", "6", "6", "16", "15", "14", "19", "22", "19", "20"], "time": [709, 1692, 2797, 5119, 5514, 7198, 8378, 9347, 10513, 11582, 12630, 13633, 13666, 13684, 13736, 15967, 17621, 19165, 19215, 19465, 19516, 22236, 24117]}, "edge": {"target": [], "time": []}}}, "displayed_time": "31.74", "trialTime": 33326, "trial_type": "mouselab-mdp", "trial_index": 23, "time_elapsed": 2185742, "internal_node_id": "0.0-6.0-1.0-8.0"}}, {"uniqueid": "w22709195:a95668050", "current_trial": 24, "dateTime": 1693566956604, "trialdata": {"revealed_states": [], "clicked_states": ["1", "8", "9", "11", "3", "5", "6", "7", "2", "4", "10", "23", "28", "26", "24", "25", "30", "32"], "num_clicks_accrued": [0, 0, 0, 0, 0, 0, 0, 0, 0, 0, 0, 0, 0], "stateRewards": ["", 2, 3, -2, -8, -8, -41, 74, 15, -23, -80, 1, 1, 3, 3, -15, -63, -78, 67, 13, 75, -41, 86, 2, -2, 6, -3, -8, -49, 50, -6, 83, 74, 80], "withholdReward": false, "trial_id": "mdp_trial_10", "block": "test", "trialIndex": 13, "score": 48.80000000000001, "costs": -25.199999999999992, "simulationMode": [null, null, null, null, null], "rewards": [2, -2, 6, -6, 74], "path": ["0", "0", "23", "24", "25", "30", "32"], "rt": [41952, 124, 163, 757, 82], "actions": ["left", "left", "left", "down", "down"], "actionTimes": [46029, 46671, 47327, 48588, 49184], "queries": {"click": {"state": {"target": ["1", "8", "9", "11", "3", "5", "6", "7", "2", "4", "10", "23", "28", "26", "24", "25", "30", "32"], "time": [5993, 8108, 9953, 12249, 14303, 16635, 18193, 20278, 21827, 24036, 26438, 28185, 29783, 32708, 34448, 36423, 38024, 40368]}, "edge": {"target": [], "time": []}}, "mouseover": {"state": {"target": ["1", "1", "1", "10", "8", "9", "11", "10", "3", "4", "5", "6", "4", "7", "2", "4", "10", "23", "28", "27", "26", "25", "24", "25", "30", "32"], "time": [4446, 4511, 5745, 6766, 7729, 8867, 10900, 12802, 13948, 14854, 16348, 17284, 18786, 20000, 21322, 22689, 24586, 27288, 28958, 30277, 32408, 33208, 34208, 35043, 37142, 38643]}, "edge": {"target": [], "time": []}}, "mouseout": {"state": {"target": ["32", "27", "10", "10", "0", "1", "1", "1", "10", "8", "9", "11", "10", "3", "4", "5", "5", "6", "4", "7", "2", "4", "10", "23", "28", "27", "26", "25", "24", "25", "30", "30"], "time": [509, 810, 1294, 1409, 3760, 4461, 4577, 6517, 7562, 8784, 10583, 12719, 13881, 14787, 16182, 16844, 17134, 18419, 19900, 20855, 22522, 24539, 26955, 28759, 30208, 31704, 33175, 34158, 35027, 37061, 38236, 38592]}, "edge": {"target": [], "time": []}}}, "displayed_time": "49.68", "trialTime": 51212, "trial_type": "mouselab-mdp", "trial_index": 24, "time_elapsed": 2237124, "internal_node_id": "0.0-6.0-1.0-9.0"}}, {"uniqueid": "w22709195:a95668050", "current_trial": 25, "dateTime": 1693566990335, "trialdata": {"revealed_states": [], "clicked_states": ["12", "15", "16", "18", "13", "14", "17", "22", "20", "19", "21"], "num_clicks_accrued": [0, 0, 0, 0, 0, 0, 0, 0, 0, 0, 0, 0, 0], "stateRewards": ["", 1, -1, 1, 13, 31, -56, 72, 2, 41, 5, 63, -2, -3, -2, 3, -71, -26, 52, 13, -31, 24, -67, 2, -2, 5, 4, 66, 43, 72, 9, 86, -26, 44], "withholdReward": false, "trial_id": "mdp_trial_11", "block": "test", "trialIndex": 14, "score": 14.599999999999998, "costs": -15.400000000000002, "simulationMode": [null, null, null, null, null, null], "rewards": [-2, -3, -2, 13, 24], "path": ["0", "0", "12", "13", "14", "19", "21"], "rt": [24907, 271, 862, 281, 1480, 47], "actions": ["right", "right", "right", "right", "down", "down"], "actionTimes": [26636, 26910, 28267, 29066, 31071, 31637], "queries": {"click": {"state": {"target": ["12", "15", "16", "18", "13", "14", "17", "22", "20", "19", "21"], "time": [2812, 6018, 8147, 11195, 12732, 14806, 16599, 18948, 21541, 23711, 25250]}, "edge": {"target": [], "time": []}}, "mouseover": {"state": {"target": ["12", "13", "14", "15", "18", "16", "17", "18", "13", "14", "17", "19", "22", "19", "20", "20", "19", "21"], "time": [2555, 3360, 5552, 5756, 6627, 7807, 8763, 10828, 11716, 13199, 15350, 17295, 17617, 19402, 20613, 21243, 22087, 24285]}, "edge": {"target": [], "time": []}}, "mouseout": {"state": {"target": ["32", "31", "0", "12", "13", "14", "15", "18", "16", "17", "15", "18", "13", "14", "17", "19", "22", "19", "20", "20", "19"], "time": [655, 720, 971, 3276, 4756, 5606, 6479, 7657, 8699, 10459, 10726, 11666, 13182, 15300, 17252, 17317, 19383, 20584, 20698, 22053, 24201]}, "edge": {"target": [], "time": []}}}, "displayed_time": "32.15", "trialTime": 33534, "trial_type": "mouselab-mdp", "trial_index": 25, "time_elapsed": 2270854, "internal_node_id": "0.0-6.0-1.0-10.0"}}, {"uniqueid": "w22709195:a95668050", "current_trial": 26, "dateTime": 1693567020215, "trialdata": {"revealed_states": [], "clicked_states": ["2", "8", "11", "3", "5", "6", "4", "7", "10", "1", "9"], "num_clicks_accrued": [0, 0, 0, 0, 0, 0, 0, 0, 0, 0, 0, 0, 0], "stateRewards": ["", -1, -1, 4, -16, -75, 81, -51, -7, -84, 73, -30, -2, 1, -3, -16, -77, 33, 14, 1, 45, 87, -66, 2, 2, -5, -7, -19, -17, 79, -3, 8, 49, 47], "withholdReward": false, "trial_id": "mdp_trial_12", "block": "test", "trialIndex": 15, "score": 51.599999999999994, "costs": -15.400000000000002, "simulationMode": [null, null, null, null, null, null], "rewards": [-1, -1, 4, -16, 81], "path": ["0", "0", "1", "2", "3", "4", "6"], "rt": [22706, 185, 80, 107, 927, 45], "actions": ["up", "up", "up", "up", "right", "right"], "actionTimes": [23909, 24097, 24688, 25301, 26734, 27301], "queries": {"click": {"state": {"target": ["2", "8", "11", "3", "5", "6", "4", "7", "10", "1", "9"], "time": [3144, 4922, 7284, 9573, 11397, 13151, 14817, 16480, 18840, 20651, 22765]}, "edge": {"target": [], "time": []}}, "mouseover": {"state": {"target": ["1", "2", "10", "8", "9", "11", "9", "3", "4", "5", "6", "4", "7", "1", "10", "1", "8", "9"], "time": [1741, 2824, 3597, 4581, 5430, 7033, 7781, 9295, 10033, 11034, 12033, 13820, 15466, 16986, 18424, 19343, 21187, 21238]}, "edge": {"target": [], "time": []}}, "mouseout": {"state": {"target": ["21", "22", "0", "1", "2", "10", "8", "9", "11", "9", "3", "4", "5", "6", "4", "4", "7", "1", "10", "1", "8"], "time": [140, 173, 223, 1774, 3564, 4547, 5363, 6350, 7504, 9094, 9966, 10882, 11917, 13652, 15025, 15348, 16972, 18131, 19303, 21154, 21205]}, "edge": {"target": [], "time": []}}}, "displayed_time": "27.82", "trialTime": 29274, "trial_type": "mouselab-mdp", "trial_index": 26, "time_elapsed": 2300735, "internal_node_id": "0.0-6.0-1.0-11.0"}}, {"uniqueid": "w22709195:a95668050", "current_trial": 27, "dateTime": 1693567054121, "trialdata": {"revealed_states": [], "clicked_states": ["23", "28", "27", "26", "29", "24", "25", "30", "31", "33", "32"], "num_clicks_accrued": [0, 0, 0, 0, 0, 0, 0, 0, 0, 0, 0, 0, 0], "stateRewards": ["", 1, -1, -7, -7, -22, 15, -13, 13, 26, -32, 38, -1, 1, -7, -4, 16, -62, 86, 12, -54, 56, 64, -2, -1, 6, 14, -57, 37, 62, -6, -25, 50, -70], "withholdReward": false, "trial_id": "mdp_trial_13", "block": "test", "trialIndex": 16, "score": -55.400000000000006, "costs": -15.400000000000002, "simulationMode": [null, null, null, null, null], "rewards": [-2, -1, 6, 14, -57], "path": ["0", "0", "23", "24", "25", "26", "27"], "rt": [23528, 442, 79, 885, 83], "actions": ["left", "left", "left", "up", "up"], "actionTimes": [24818, 25778, 26379, 27769, 28368], "queries": {"click": {"state": {"target": ["23", "28", "27", "26", "29", "24", "25", "30", "31", "33", "32"], "time": [2843, 4908, 6984, 8731, 10358, 12368, 14164, 15987, 17700, 20186, 22396]}, "edge": {"target": [], "time": []}}, "mouseover": {"state": {"target": ["1", "1", "23", "24", "28", "26", "27", "29", "26", "29", "25", "24", "25", "30", "31", "32", "33", "32"], "time": [1827, 2143, 2443, 3731, 4583, 5683, 6662, 7648, 8480, 9301, 10969, 12046, 13003, 15719, 16871, 18322, 19916, 20812]}, "edge": {"target": [], "time": []}}, "mouseout": {"state": {"target": ["9", "8", "1", "1", "23", "24", "28", "26", "27", "29", "26", "29", "25", "24", "25", "30", "31", "32", "33"], "time": [545, 609, 1859, 2364, 3059, 4545, 5519, 6597, 7484, 8432, 9202, 10869, 11997, 12954, 15685, 16820, 18238, 19636, 20696]}, "edge": {"target": [], "time": []}}}, "displayed_time": "28.89", "trialTime": 33668, "trial_type": "mouselab-mdp", "trial_index": 27, "time_elapsed": 2334640, "internal_node_id": "0.0-6.0-1.0-12.0"}}, {"uniqueid": "w22709195:a95668050", "current_trial": 28, "dateTime": 1693567082790, "trialdata": {"revealed_states": [], "clicked_states": ["1", "2", "4", "7", "6", "5", "3", "8", "9", "11", "10"], "num_clicks_accrued": [0, 0, 0, 0, 0, 0, 0, 0, 0, 0, 0, 0, 0], "stateRewards": ["", 1, 1, 5, 6, -29, -7, 3, -16, 9, -46, 65, -1, 4, -1, -16, -63, -77, -87, 8, 80, -50, 43, -1, -1, -5, 5, -38, -71, -62, 9, 81, -50, -52], "withholdReward": false, "trial_id": "mdp_trial_14", "block": "test", "trialIndex": 17, "score": 40.599999999999994, "costs": -15.400000000000002, "simulationMode": [null, null, null, null, null, null], "rewards": [1, 1, 5, -16, 65], "path": ["0", "0", "1", "2", "3", "8", "11"], "rt": [19668, 203, 203, 469, 1681, 62], "actions": ["up", "up", "up", "up", "left", "left"], "actionTimes": [21772, 21980, 22700, 23679, 25860, 26439], "queries": {"click": {"state": {"target": ["1", "2", "4", "7", "6", "5", "3", "8", "9", "11", "10"], "time": [2961, 4480, 6812, 8688, 10238, 11945, 13750, 15468, 17227, 18846, 20549]}, "edge": {"target": [], "time": []}}, "mouseover": {"state": {"target": ["1", "2", "7", "4", "7", "6", "6", "5", "3", "8", "9", "11", "10"], "time": [2515, 3536, 5000, 6466, 7406, 9206, 9956, 11537, 12706, 14308, 16007, 18059, 19660]}, "edge": {"target": [], "time": []}}, "mouseout": {"state": {"target": ["32", "0", "1", "2", "7", "4", "7", "6", "6", "5", "3", "8", "9", "11"], "time": [537, 1766, 3470, 4950, 6434, 7323, 8910, 9337, 11372, 12623, 14242, 15681, 17842, 19323]}, "edge": {"target": [], "time": []}}}, "displayed_time": "26.95", "trialTime": 28434, "trial_type": "mouselab-mdp", "trial_index": 28, "time_elapsed": 2363309, "internal_node_id": "0.0-6.0-1.0-13.0"}}, {"uniqueid": "w22709195:a95668050", "current_trial": 29, "dateTime": 1693567127219, "trialdata": {"revealed_states": [], "clicked_states": ["1", "7", "10", "2", "4", "3", "8", "11", "9"], "num_clicks_accrued": [0, 0, 0, 0, 0, 0, 0, 0, 0, 0, 0, 0, 0], "stateRewards": ["", -2, 2, 3, -7, -31, -33, 29, -8, -57, 50, -83, -1, -1, 5, 13, -23, -62, 25, 5, -66, -85, 14, 1, -2, -1, 16, 71, 33, -19, -14, 5, -43, 79], "withholdReward": false, "trial_id": "mdp_trial_15", "block": "test", "trialIndex": 18, "score": -100.6, "costs": -12.600000000000001, "simulationMode": [null, null, null, null, null], "rewards": [-2, 2, 3, -8, -83], "path": ["0", "0", "1", "2", "3", "8", "11"], "rt": [37039, 17, 332, 704, 129], "actions": ["up", "up", "up", "left", "left"], "actionTimes": [38123, 38659, 39493, 40714, 41356], "queries": {"click": {"state": {"target": ["1", "7", "10", "2", "4", "3", "8", "11", "9"], "time": [2840, 4504, 6685, 8796, 11279, 12808, 14730, 16249, 20586]}, "edge": {"target": [], "time": []}}, "mouseover": {"state": {"target": ["1", "2", "2", "1", "2", "7", "2", "10", "2", "3", "4", "3", "8", "11", "9"], "time": [1464, 1501, 1747, 2097, 3370, 4287, 4985, 6333, 7620, 9371, 10818, 12423, 14356, 15461, 20178]}, "edge": {"target": [], "time": []}}, "mouseout": {"state": {"target": ["10", "1", "2", "2", "1", "2", "7", "2", "10", "2", "3", "4", "3", "8", "8", "11", "9", "31"], "time": [480, 1482, 1530, 2048, 3317, 4237, 4956, 6267, 7503, 9287, 10784, 12389, 14329, 14947, 15408, 16472, 37136, 42888]}, "edge": {"target": [], "time": []}}}, "displayed_time": "41.86", "trialTime": 44203, "trial_type": "mouselab-mdp", "trial_index": 29, "time_elapsed": 2407739, "internal_node_id": "0.0-6.0-1.0-14.0"}}, {"uniqueid": "w22709195:a95668050", "current_trial": 30, "dateTime": 1693567155804, "trialdata": {"revealed_states": [], "clicked_states": ["1", "3", "2", "7", "4", "6", "5", "9", "11", "8", "10"], "num_clicks_accrued": [0, 0, 0, 0, 0, 0, 0, 0, 0, 0, 0, 0, 0], "stateRewards": ["", -1, -3, -6, -2, -7, 80, -45, -3, -38, -72, 76, 2, 1, 7, 4, -62, 14, -74, 14, -87, -21, -88, -2, 1, -7, -10, 66, 56, -76, 10, -29, -72, -70], "withholdReward": false, "trial_id": "mdp_trial_16", "block": "test", "trialIndex": 19, "score": 52.599999999999994, "costs": -15.400000000000002, "simulationMode": [null, null, null, null, null, null], "rewards": [-1, -3, -6, -2, 80], "path": ["0", "0", "1", "2", "3", "4", "6"], "rt": [22020, 197, 123, 40, 645, 26], "actions": ["up", "up", "up", "up", "right", "right"], "actionTimes": [23520, 23718, 24358, 24904, 26045, 26592], "queries": {"click": {"state": {"target": ["1", "3", "2", "7", "4", "6", "5", "9", "11", "8", "10"], "time": [2775, 4904, 6650, 8191, 9748, 12158, 14069, 15774, 18358, 20017, 22338]}, "edge": {"target": [], "time": []}}, "mouseover": {"state": {"target": ["1", "2", "2", "1", "2", "3", "2", "7", "4", "5", "6", "5", "9", "8", "11", "8", "10"], "time": [2073, 2091, 2236, 2534, 3290, 4618, 5557, 7095, 8715, 10141, 11841, 12942, 14678, 16295, 18024, 18927, 20579]}, "edge": {"target": [], "time": []}}, "mouseout": {"state": {"target": ["0", "1", "2", "2", "1", "2", "3", "2", "7", "4", "5", "6", "5", "9", "9", "8", "11", "8"], "time": [918, 2087, 2118, 2419, 2999, 4586, 5523, 6858, 8669, 10128, 11557, 12378, 14510, 15985, 16213, 17909, 18863, 20498]}, "edge": {"target": [], "time": []}}}, "displayed_time": "27.13", "trialTime": 28316, "trial_type": "mouselab-mdp", "trial_index": 30, "time_elapsed": 2436323, "internal_node_id": "0.0-6.0-1.0-15.0"}}, {"uniqueid": "w22709195:a95668050", "current_trial": 31, "dateTime": 1693567206446, "trialdata": {"revealed_states": [], "clicked_states": ["1", "7", "2", "10", "9", "8"], "num_clicks_accrued": [0, 0, 0, 0, 0, 0, 0, 0, 0, 0, 0, 0, 0], "stateRewards": ["", 2, 3, 3, 10, 19, -21, 6, 9, 54, 68, 16, 2, 2, -6, -8, 40, -2, -75, -2, -42, 55, 59, -1, 2, 4, -14, 11, -34, -30, -6, 61, -53, 13], "withholdReward": false, "trial_id": "mdp_trial_17", "block": "test", "trialIndex": 20, "score": 76.6, "costs": -8.4, "simulationMode": [null, null, null, null, null], "rewards": [2, 3, 3, 9, 68], "path": ["0", "0", "1", "2", "3", "8", "10"], "rt": [23494, 76, 19775, 783, 238], "actions": ["up", "up", "up", "left", "down"], "actionTimes": [24851, 25439, 45735, 47038, 47793], "queries": {"click": {"state": {"target": ["1", "7", "2", "10", "9", "8"], "time": [2846, 5025, 6860, 8644, 10882, 12716]}, "edge": {"target": [], "time": []}}, "mouseover": {"state": {"target": ["1", "1", "2", "7", "2", "10", "8", "9", "11", "8", "3"], "time": [1783, 2481, 3903, 4781, 5486, 7344, 9121, 10517, 11556, 12455, 13308]}, "edge": {"target": [], "time": []}}, "mouseout": {"state": {"target": ["10", "1", "1", "2", "7", "2", "10", "8", "9", "11", "8", "3"], "time": [630, 2065, 3387, 4697, 5453, 7328, 9074, 10490, 11371, 12434, 13274, 23489]}, "edge": {"target": [], "time": []}}}, "displayed_time": "48.30", "trialTime": 50411, "trial_type": "mouselab-mdp", "trial_index": 31, "time_elapsed": 2486965, "internal_node_id": "0.0-6.0-1.0-16.0"}}, {"uniqueid": "w22709195:a95668050", "current_trial": 32, "dateTime": 1693567231374, "trialdata": {"revealed_states": [], "clicked_states": ["15", "17", "18", "19", "14", "12", "13"], "num_clicks_accrued": [0, 0, 0, 0, 0, 0, 0, 0, 0, 0, 0, 0, 0], "stateRewards": ["", 1, 2, 8, -2, 23, -69, -18, -16, 54, -21, 71, -1, -4, 7, 11, 43, -6, 88, 6, -55, 72, 43, 1, -3, -2, -1, 68, -31, -54, 4, -8, 25, -2], "withholdReward": false, "trial_id": "mdp_trial_18", "block": "test", "trialIndex": 21, "score": -2.8000000000000007, "costs": -9.8, "simulationMode": [null, null, null, null, null], "rewards": [-1, -4, 7, 11, -6], "path": ["0", "0", "12", "13", "14", "15", "17"], "rt": [16605, 659, 187, 1015, 797], "actions": ["right", "right", "right", "up", "right"], "actionTimes": [18400, 19574, 20267, 21797, 23114], "queries": {"click": {"state": {"target": ["15", "17", "18", "19", "14", "12", "13"], "time": [2888, 5065, 6606, 8837, 10886, 12692, 14960]}, "edge": {"target": [], "time": []}}, "mouseover": {"state": {"target": ["18", "15", "16", "17", "18", "14", "19", "20", "14", "13", "12", "13", "17", "0", "0"], "time": [2386, 2686, 3406, 4818, 6074, 7476, 8506, 9577, 10558, 11476, 12444, 13979, 15707, 16094, 17539]}, "edge": {"target": [], "time": []}}, "mouseout": {"state": {"target": ["1", "0", "18", "15", "16", "17", "15", "18", "18", "14", "19", "20", "14", "13", "12", "13", "17", "13", "12", "0", "0"], "time": [1151, 1317, 2501, 3327, 4786, 5995, 6023, 7157, 7442, 8455, 9501, 10342, 11411, 12410, 13344, 15513, 15744, 15799, 15860, 17424, 17561]}, "edge": {"target": [], "time": []}}}, "displayed_time": "23.63", "trialTime": 24673, "trial_type": "mouselab-mdp", "trial_index": 32, "time_elapsed": 2511893, "internal_node_id": "0.0-6.0-1.0-17.0"}}, {"uniqueid": "w22709195:a95668050", "current_trial": 33, "dateTime": 1693567258063, "trialdata": {"revealed_states": [], "clicked_states": ["23", "24", "30", "25", "31", "32", "33"], "num_clicks_accrued": [0, 0, 0, 0, 0, 0, 0, 0, 0, 0, 0, 0, 0], "stateRewards": ["", -2, 2, 5, -14, -56, 64, 84, -5, 52, 39, 85, -2, 1, 7, 8, 21, 29, -78, -9, -10, -69, 10, -2, -1, -7, 15, 72, 20, 41, -2, 52, 80, 22], "withholdReward": false, "trial_id": "mdp_trial_19", "block": "test", "trialIndex": 22, "score": 58.2, "costs": -9.8, "simulationMode": [null, null, null, null, null, null], "rewards": [-2, -1, -7, -2, 80], "path": ["0", "0", "23", "24", "25", "30", "32"], "rt": [17246, 177, 169, 3, 654, 159], "actions": ["left", "left", "left", "left", "down", "down"], "actionTimes": [21299, 21482, 22160, 22681, 23848, 24521], "queries": {"click": {"state": {"target": ["23", "24", "30", "25", "31", "32", "33"], "time": [5535, 7404, 10075, 11888, 15545, 18020, 20115]}, "edge": {"target": [], "time": []}}, "mouseover": {"state": {"target": ["1", "23", "23", "24", "25", "30", "30", "25", "33", "30", "31", "30", "33", "32", "33"], "time": [4630, 4931, 5230, 6289, 7953, 8901, 9703, 10587, 12573, 15135, 15251, 16162, 16423, 17568, 18842]}, "edge": {"target": [], "time": []}}, "mouseout": {"state": {"target": ["1", "23", "23", "24", "25", "30", "30", "25", "33", "30", "31", "30", "33", "32"], "time": [4797, 5013, 6118, 7871, 8871, 9018, 10487, 12370, 14967, 15201, 16156, 16200, 17351, 18660]}, "edge": {"target": [], "time": []}}}, "displayed_time": "25.04", "trialTime": 26464, "trial_type": "mouselab-mdp", "trial_index": 33, "time_elapsed": 2538582, "internal_node_id": "0.0-6.0-1.0-18.0"}}, {"uniqueid": "w22709195:a95668050", "current_trial": 34, "dateTime": 1693567283722, "trialdata": {"revealed_states": [], "clicked_states": ["23", "24", "26", "27", "28", "29", "25"], "num_clicks_accrued": [0, 0, 0, 0, 0, 0, 0, 0, 0, 0, 0, 0, 0], "stateRewards": ["", -2, -3, 7, -13, 60, 9, 37, -6, 37, 20, 1, 2, -2, -8, 6, -80, -31, -10, -7, 70, -65, -44, -1, 1, 7, 6, -11, 73, -85, 16, -21, 47, 34], "withholdReward": false, "trial_id": "mdp_trial_20", "block": "test", "trialIndex": 23, "score": -81.8, "costs": -9.8, "simulationMode": [null, null, null, null, null, null], "rewards": [-1, 1, 7, 6, -85], "path": ["0", "0", "23", "24", "25", "26", "29"], "rt": [14988, 2721, 99, 104, 1804, 487], "actions": ["left", "left", "left", "left", "up", "left"], "actionTimes": [16372, 19096, 19699, 20318, 22641, 23639], "queries": {"click": {"state": {"target": ["23", "24", "26", "27", "28", "29", "25"], "time": [2576, 4230, 6798, 9330, 11300, 13306, 15148]}, "edge": {"target": [], "time": []}}, "mouseover": {"state": {"target": ["0", "23", "24", "25", "26", "28", "27", "29", "28", "26", "29", "25", "24", "23", "0"], "time": [2173, 2254, 3294, 4927, 6406, 7295, 9024, 9928, 10975, 11812, 11996, 13912, 17862, 17931, 17994]}, "edge": {"target": [], "time": []}}, "mouseout": {"state": {"target": ["33", "28", "0", "23", "24", "25", "26", "28", "27", "29", "26", "28", "26", "29", "25", "24", "23"], "time": [505, 688, 2204, 3242, 4895, 5889, 7279, 8727, 9795, 10894, 10942, 11799, 11863, 13797, 17848, 17912, 17964]}, "edge": {"target": [], "time": []}}}, "displayed_time": "24.15", "trialTime": 25406, "trial_type": "mouselab-mdp", "trial_index": 34, "time_elapsed": 2564242, "internal_node_id": "0.0-6.0-1.0-19.0"}}, {"uniqueid": "w22709195:a95668050", "current_trial": 35, "dateTime": 1693567319871, "trialdata": {"revealed_states": [], "clicked_states": ["13", "18", "16"], "num_clicks_accrued": [0, 0, 0, 0, 0, 0, 0, 0, 0, 0, 0, 0, 0], "stateRewards": ["", -1, -3, -3, 1, -38, 2, -53, -2, -1, -81, 70, -1, 1, -5, -9, 46, 15, 35, -1, -22, 38, 59, -2, 4, -8, 13, 1, -83, -43, 4, 76, 13, 48], "withholdReward": false, "trial_id": "mdp_trial_21", "block": "test", "trialIndex": 24, "score": 27.8, "costs": -4.199999999999999, "simulationMode": [null, null, null, null, null], "rewards": [-1, 1, -5, -1, 38], "path": ["0", "0", "12", "13", "14", "19", "21"], "rt": [13216, 59, 22, 6237, 228], "actions": ["right", "right", "right", "down", "down"], "actionTimes": [15340, 15904, 16450, 23201, 23946], "queries": {"click": {"state": {"target": ["13", "18", "16"], "time": [3136, 4928, 6477]}, "edge": {"target": [], "time": []}}, "mouseover": {"state": {"target": ["12", "13", "12", "18", "15", "16", "17", "15", "17", "14", "22"], "time": [2589, 2736, 3690, 4591, 5457, 6145, 6959, 7708, 13990, 14324, 14390]}, "edge": {"target": [], "time": []}}, "mouseout": {"state": {"target": ["0", "12", "0", "12", "13", "12", "18", "15", "16", "17", "15", "17", "14", "22", "19"], "time": [501, 701, 2569, 2618, 3626, 4525, 5378, 6074, 6891, 7678, 13959, 14273, 14358, 21310, 22326]}, "edge": {"target": [], "time": []}}}, "displayed_time": "24.47", "trialTime": 35926, "trial_type": "mouselab-mdp", "trial_index": 35, "time_elapsed": 2600390, "internal_node_id": "0.0-6.0-1.0-20.0"}}, {"uniqueid": "w22709195:a95668050", "current_trial": 36, "dateTime": 1693567356100, "trialdata": {"revealed_states": [], "clicked_states": ["26", "24", "23", "28", "25", "30", "31"], "num_clicks_accrued": [0, 0, 0, 0, 0, 0, 0, 0, 0, 0, 0, 0, 0], "stateRewards": ["", -1, 2, -2, 13, -56, -28, 10, 14, 53, -80, -29, 1, -3, -3, -14, 14, 9, -40, -9, 18, 18, 48, 1, 1, 1, -9, 64, -39, -9, 7, -52, -78, 7], "withholdReward": false, "trial_id": "mdp_trial_22", "block": "test", "trialIndex": 25, "score": -77.8, "costs": -9.8, "simulationMode": [null, null, null, null, null], "rewards": [1, 1, 1, 7, -78], "path": ["0", "0", "23", "24", "25", "30", "32"], "rt": [21101, 71, 3, 1191, 52], "actions": ["left", "left", "left", "down", "down"], "actionTimes": [30633, 31227, 31742, 33447, 34008], "queries": {"click": {"state": {"target": ["26", "24", "23", "28", "25", "30", "31"], "time": [10752, 13043, 15938, 17713, 19719, 21461, 23357]}, "edge": {"target": [], "time": []}}, "mouseover": {"state": {"target": ["26", "28", "24", "28", "28", "23", "23", "28", "25", "25", "30", "33", "31", "32", "12", "18"], "time": [10356, 11295, 12774, 13628, 14115, 14959, 15575, 16565, 18179, 19411, 20281, 21918, 23079, 24283, 25680, 25719]}, "edge": {"target": [], "time": []}}, "mouseout": {"state": {"target": ["12", "0", "26", "28", "24", "28", "28", "23", "23", "28", "25", "25", "30", "33", "30", "31", "32", "12", "18"], "time": [655, 9925, 11262, 12691, 13613, 13679, 14928, 15228, 16514, 18151, 19117, 20214, 21871, 22937, 23001, 24052, 25617, 25700, 25731]}, "edge": {"target": [], "time": []}}}, "displayed_time": "34.52", "trialTime": 35944, "trial_type": "mouselab-mdp", "trial_index": 36, "time_elapsed": 2636619, "internal_node_id": "0.0-6.0-1.0-21.0"}}, {"uniqueid": "w22709195:a95668050", "current_trial": 37, "dateTime": 1693567384414, "trialdata": {"revealed_states": [], "clicked_states": ["1", "2", "3", "8", "9", "11", "10", "7", "4", "5"], "num_clicks_accrued": [0, 0, 0, 0, 0, 0, 0, 0, 0, 0, 0, 0, 0], "stateRewards": ["", 1, -3, 4, 13, -72, 52, 5, 5, -58, 5, 14, 2, 1, 3, -14, -86, -4, 73, 6, -58, -50, 49, 2, -3, -4, 2, 33, -41, 42, -11, 81, 45, 53], "withholdReward": false, "trial_id": "mdp_trial_23", "block": "test", "trialIndex": 26, "score": 7, "costs": -14.000000000000002, "simulationMode": [null, null, null, null, null], "rewards": [1, -3, 4, 5, 14], "path": ["0", "0", "1", "2", "3", "8", "11"], "rt": [21783, 3, 90, 748, 143], "actions": ["up", "up", "up", "left", "left"], "actionTimes": [23272, 23798, 24400, 25644, 26305], "queries": {"click": {"state": {"target": ["1", "2", "3", "8", "9", "11", "10", "7", "4", "5"], "time": [2691, 4344, 6270, 8003, 9623, 11220, 13106, 14872, 18096, 19743]}, "edge": {"target": [], "time": []}}, "mouseover": {"state": {"target": ["0", "1", "2", "2", "3", "8", "9", "11", "10", "7", "0", "0", "4", "4", "5", "6"], "time": [2181, 2330, 3218, 4122, 5135, 6735, 8560, 10187, 12053, 13958, 15989, 17243, 17519, 17686, 18725, 20477]}, "edge": {"target": [], "time": []}}, "mouseout": {"state": {"target": ["0", "1", "2", "2", "3", "8", "9", "11", "10", "7", "0", "0", "7", "4", "4", "5"], "time": [2279, 2909, 3385, 5102, 6703, 8436, 10072, 11704, 13670, 15639, 16106, 17252, 17435, 17602, 18314, 20173]}, "edge": {"target": [], "time": []}}}, "displayed_time": "26.81", "trialTime": 28052, "trial_type": "mouselab-mdp", "trial_index": 37, "time_elapsed": 2664933, "internal_node_id": "0.0-6.0-1.0-22.0"}}, {"uniqueid": "w22709195:a95668050", "current_trial": 38, "dateTime": 1693567409010, "trialdata": {"revealed_states": [], "clicked_states": ["3", "5", "4", "6", "2", "8", "11"], "num_clicks_accrued": [0, 0, 0, 0, 0, 0, 0, 0, 0, 0, 0, 0, 0], "stateRewards": ["", 2, 3, -1, 6, 44, -4, -59, -14, -3, 64, 16, 1, -3, 3, 6, 3, 49, 19, 3, -49, -14, -86, 1, 2, -3, -8, -33, 14, 32, -13, -77, -47, -67], "withholdReward": false, "trial_id": "mdp_trial_24", "block": "test", "trialIndex": 27, "score": -3.8000000000000007, "costs": -9.8, "simulationMode": [null, null, null, null, null], "rewards": [2, 3, -1, -14, 16], "path": ["0", "0", "1", "2", "3", "8", "11"], "rt": [17854, 40, 19, 825, 14], "actions": ["up", "up", "up", "left", "left"], "actionTimes": [19437, 19987, 20500, 21836, 22360], "queries": {"click": {"state": {"target": ["3", "5", "4", "6", "2", "8", "11"], "time": [2568, 4956, 6799, 8805, 11278, 13574, 16177]}, "edge": {"target": [], "time": []}}, "mouseover": {"state": {"target": ["1", "2", "3", "4", "5", "4", "6", "7", "2", "10", "8", "9", "9", "11", "9", "8", "10"], "time": [1999, 2051, 2252, 3790, 4620, 5458, 7327, 9294, 10808, 11961, 13276, 14009, 14477, 15906, 16728, 18492, 18523]}, "edge": {"target": [], "time": []}}, "mouseout": {"state": {"target": ["6", "1", "1", "2", "3", "4", "5", "4", "4", "6", "7", "2", "10", "8", "9", "9", "11", "9", "8", "10"], "time": [418, 868, 2022, 2169, 3072, 4507, 5406, 7013, 7292, 9243, 10790, 11942, 13257, 13801, 14044, 15560, 16384, 18474, 18521, 18542]}, "edge": {"target": [], "time": []}}}, "displayed_time": "22.88", "trialTime": 24326, "trial_type": "mouselab-mdp", "trial_index": 38, "time_elapsed": 2689529, "internal_node_id": "0.0-6.0-1.0-23.0"}}, {"uniqueid": "w22709195:a95668050", "current_trial": 39, "dateTime": 1693567438578, "trialdata": {"revealed_states": [], "clicked_states": ["1", "2", "7", "4", "5", "6", "3", "9", "8", "11", "10"], "num_clicks_accrued": [0, 0, 0, 0, 0, 0, 0, 0, 0, 0, 0, 0, 0], "stateRewards": ["", -1, -3, -7, -4, -85, -70, 79, 8, 84, -66, 42, 2, -2, -3, -16, -54, -66, 68, -3, 21, -14, 7, -2, -1, -3, -8, 75, 80, 86, -7, -84, 73, -16], "withholdReward": false, "trial_id": "mdp_trial_25", "block": "test", "trialIndex": 28, "score": 23.599999999999998, "costs": -15.400000000000002, "simulationMode": [null, null, null, null, null, null], "rewards": [-1, -3, -7, 8, 42], "path": ["0", "0", "1", "2", "3", "8", "11"], "rt": [23064, 231, 89, 77, 882, 18], "actions": ["up", "up", "up", "up", "left", "left"], "actionTimes": [24102, 24335, 24939, 25510, 26899, 27441], "queries": {"click": {"state": {"target": ["1", "2", "7", "4", "5", "6", "3", "9", "8", "11", "10"], "time": [1982, 4012, 5846, 9378, 10907, 12448, 14544, 16335, 17959, 20687, 22865]}, "edge": {"target": [], "time": []}}, "mouseover": {"state": {"target": ["1", "2", "7", "4", "5", "6", "3", "9", "8", "10", "11", "10"], "time": [1685, 3089, 4622, 8870, 10009, 11641, 13255, 15410, 17142, 18595, 20225, 21563]}, "edge": {"target": [], "time": []}}, "mouseout": {"state": {"target": ["1", "2", "7", "4", "5", "6", "4", "3", "9", "8", "10", "11"], "time": [2488, 4573, 8754, 9958, 11359, 12925, 12992, 15093, 16981, 18494, 19926, 21194]}, "edge": {"target": [], "time": []}}}, "displayed_time": "27.97", "trialTime": 29320, "trial_type": "mouselab-mdp", "trial_index": 39, "time_elapsed": 2719097, "internal_node_id": "0.0-6.0-1.0-24.0"}}, {"uniqueid": "w22709195:a95668050", "current_trial": 40, "dateTime": 1693567459436, "trialdata": {"revealed_states": [], "clicked_states": ["7", "5", "3", "4", "6", "2", "1"], "num_clicks_accrued": [0, 0, 0, 0, 0, 0, 0, 0, 0, 0, 0, 0, 0], "stateRewards": ["", 1, 2, 3, 16, 63, -25, 16, -4, -14, 82, -66, -1, -3, -3, -11, -14, 19, 46, 3, -34, -82, 66, -2, -3, 4, -5, -63, 77, -37, -1, -45, -41, 84], "withholdReward": false, "trial_id": "mdp_trial_26", "block": "test", "trialIndex": 29, "score": -12.8, "costs": -9.8, "simulationMode": [null, null, null, null, null, null], "rewards": [1, 2, 3, 16, -25], "path": ["0", "0", "1", "2", "3", "4", "6"], "rt": [14201, 257, 136, 211, 904, 127], "actions": ["up", "up", "up", "up", "right", "right"], "actionTimes": [15370, 15628, 16268, 16978, 18386, 19029], "queries": {"click": {"state": {"target": ["7", "5", "3", "4", "6", "2", "1"], "time": [2482, 4364, 6394, 8225, 9822, 11676, 14055]}, "edge": {"target": [], "time": []}}, "mouseover": {"state": {"target": ["7", "4", "5", "4", "3", "4", "6", "2", "1"], "time": [2023, 3011, 4128, 4910, 6090, 7497, 8893, 10497, 12432]}, "edge": {"target": [], "time": []}}, "mouseout": {"state": {"target": ["10", "1", "7", "4", "5", "4", "3", "4", "6", "2", "1"], "time": [388, 788, 2947, 4012, 4844, 5940, 6979, 8846, 10397, 12246, 14273]}, "edge": {"target": [], "time": []}}}, "displayed_time": "19.54", "trialTime": 20620, "trial_type": "mouselab-mdp", "trial_index": 40, "time_elapsed": 2739955, "internal_node_id": "0.0-6.0-1.0-25.0"}}, {"uniqueid": "w22709195:a95668050", "current_trial": 41, "dateTime": 1693567490558, "trialdata": {"revealed_states": [], "clicked_states": ["14", "15", "17", "16", "18", "13", "19", "20", "12", "22", "21"], "num_clicks_accrued": [0, 0, 0, 0, 0, 0, 0, 0, 0, 0, 0, 0, 0], "stateRewards": ["", 2, 4, 7, 7, -79, -2, -21, -5, -53, 47, -21, 1, -3, -1, 7, 83, 7, 84, -7, 80, -37, 69, 2, -4, 5, 2, 4, -20, -30, 7, 71, 44, -81], "withholdReward": false, "trial_id": "mdp_trial_27", "block": "test", "trialIndex": 30, "score": 43.599999999999994, "costs": -15.400000000000002, "simulationMode": [null, null, null, null, null], "rewards": [1, -3, -1, -7, 69], "path": ["0", "0", "12", "13", "14", "19", "22"], "rt": [23325, 34, 792, 660, 554], "actions": ["right", "right", "right", "down", "left"], "actionTimes": [24679, 25226, 26534, 27715, 28778], "queries": {"click": {"state": {"target": ["14", "15", "17", "16", "18", "13", "19", "20", "12", "22", "21"], "time": [2378, 4560, 7161, 9153, 10719, 12303, 14370, 15980, 17787, 19669, 22372]}, "edge": {"target": [], "time": []}}, "mouseover": {"state": {"target": ["12", "13", "14", "15", "16", "17", "16", "18", "13", "22", "19", "20", "12", "22", "21", "21"], "time": [1707, 1739, 2058, 2929, 5064, 6861, 8083, 9849, 11531, 12869, 14048, 15197, 16521, 18671, 20136, 22050]}, "edge": {"target": [], "time": []}}, "mouseout": {"state": {"target": ["1", "0", "0", "12", "13", "14", "15", "16", "17", "16", "18", "13", "13", "22", "19", "20", "12", "22", "21", "21"], "time": [369, 403, 994, 1728, 1771, 2832, 4771, 6529, 8000, 9683, 11185, 12524, 12800, 13849, 15164, 16453, 18336, 20121, 20188, 23188]}, "edge": {"target": [], "time": []}}}, "displayed_time": "29.30", "trialTime": 30834, "trial_type": "mouselab-mdp", "trial_index": 41, "time_elapsed": 2771077, "internal_node_id": "0.0-6.0-1.0-26.0"}}, {"uniqueid": "w22709195:a95668050", "current_trial": 42, "dateTime": 1693567512076, "trialdata": {"revealed_states": [], "clicked_states": ["23", "28", "27", "29", "26", "25", "24"], "num_clicks_accrued": [0, 0, 0, 0, 0, 0, 0, 0, 0, 0, 0, 0, 0], "stateRewards": ["", 1, -2, -2, 10, -31, -77, 35, 9, -47, 8, 48, -2, 1, -4, -3, -26, -50, 43, -11, 76, -38, 17, 1, -1, 6, 10, 15, -9, 12, -8, 85, 11, -55], "withholdReward": false, "trial_id": "mdp_trial_28", "block": "test", "trialIndex": 31, "score": 18.2, "costs": -9.8, "simulationMode": [null, null, null, null, null], "rewards": [1, -1, 6, 10, 12], "path": ["0", "0", "23", "24", "25", "26", "29"], "rt": [14750, 75, 14, 624, 518], "actions": ["left", "left", "left", "up", "left"], "actionTimes": [16131, 16727, 17247, 18371, 19402], "queries": {"click": {"state": {"target": ["23", "28", "27", "29", "26", "25", "24"], "time": [3007, 4888, 6862, 8464, 10380, 12130, 13954]}, "edge": {"target": [], "time": []}}, "mouseover": {"state": {"target": ["1", "12", "23", "23", "24", "28", "27", "29", "26", "25", "24", "23", "0"], "time": [1738, 2288, 2477, 2740, 3759, 4512, 5547, 7512, 9045, 10962, 12780, 14882, 15167]}, "edge": {"target": [], "time": []}}, "mouseout": {"state": {"target": ["0", "1", "12", "23", "23", "24", "28", "27", "29", "26", "25", "24", "23", "0"], "time": [1037, 1923, 2405, 2521, 3626, 4477, 5119, 7314, 8964, 10913, 12732, 14682, 15130, 15282]}, "edge": {"target": [], "time": []}}}, "displayed_time": "19.92", "trialTime": 21186, "trial_type": "mouselab-mdp", "trial_index": 42, "time_elapsed": 2792595, "internal_node_id": "0.0-6.0-1.0-27.0"}}, {"uniqueid": "w22709195:a95668050", "current_trial": 43, "dateTime": 1693567528833, "trialdata": {"revealed_states": [], "clicked_states": [], "num_clicks_accrued": [0, 0, 0, 0, 0, 0, 0, 0, 0, 0, 0, 0, 0], "stateRewards": ["", 2, -1, -4, -13, 74, 77, 3, 2, -43, -2, -11, 2, 3, 7, 11, -26, -29, -33, -3, -3, -13, -3, 1, 3, -7, 14, -59, 33, 9, -5, 34, 79, 68], "withholdReward": false, "trial_id": "mdp_trial_29", "block": "test", "trialIndex": 32, "score": -4, "costs": 0, "simulationMode": [null, null, null, null, null], "rewards": [2, 3, 7, -3, -13], "path": ["0", "0", "12", "13", "14", "19", "21"], "rt": [7294, 37, 159, 552, 35], "actions": ["right", "right", "right", "down", "down"], "actionTimes": [8592, 9147, 9802, 10861, 11413], "queries": {"click": {"state": {"target": [], "time": []}, "edge": {"target": [], "time": []}}, "mouseover": {"state": {"target": ["1", "7", "7", "18", "15", "15"], "time": [3503, 3572, 3737, 3853, 4053, 7461]}, "edge": {"target": [], "time": []}}, "mouseout": {"state": {"target": ["12", "13", "13", "12", "1", "7", "7", "18", "15", "15"], "time": [368, 434, 702, 851, 3522, 3703, 3769, 3938, 5521, 7588]}, "edge": {"target": [], "time": []}}}, "displayed_time": "15.30", "trialTime": 16500, "trial_type": "mouselab-mdp", "trial_index": 43, "time_elapsed": 2809353, "internal_node_id": "0.0-6.0-1.0-28.0"}}, {"uniqueid": "w22709195:a95668050", "current_trial": 44, "dateTime": 1693567550186, "trialdata": {"revealed_states": [], "clicked_states": ["12", "13", "15", "17", "16", "18", "14"], "num_clicks_accrued": [0, 0, 0, 0, 0, 0, 0, 0, 0, 0, 0, 0, 0], "stateRewards": ["", 1, -3, -1, 9, -34, -40, 22, -7, 45, 53, -11, 2, 4, 5, 15, 21, 37, -49, -3, 80, -28, -34, 1, -3, 1, 1, -40, -6, -5, -16, -85, -86, 59], "withholdReward": false, "trial_id": "mdp_trial_30", "block": "test", "trialIndex": 33, "score": 37.2, "costs": -9.8, "simulationMode": [null, null, null, null, null, null], "rewards": [2, 4, 5, 15, 21], "path": ["0", "0", "12", "13", "14", "15", "16"], "rt": [14614, 215, 125, 45, 1031, 195], "actions": ["right", "right", "right", "right", "up", "up"], "actionTimes": [15953, 16170, 16809, 17364, 18896, 19613], "queries": {"click": {"state": {"target": ["12", "13", "15", "17", "16", "18", "14"], "time": [2190, 3714, 6001, 8536, 10646, 12478, 14867]}, "edge": {"target": [], "time": []}}, "mouseover": {"state": {"target": ["12", "13", "18", "15", "16", "17", "16", "18", "14"], "time": [1941, 2697, 4226, 5706, 6593, 8225, 9223, 12194, 13512]}, "edge": {"target": [], "time": []}}, "mouseout": {"state": {"target": ["15", "7", "2", "1", "12", "13", "18", "15", "16", "17", "16", "18"], "time": [404, 680, 737, 871, 2670, 4164, 5661, 6561, 7834, 9027, 11896, 13415]}, "edge": {"target": [], "time": []}}}, "displayed_time": "20.11", "trialTime": 21116, "trial_type": "mouselab-mdp", "trial_index": 44, "time_elapsed": 2830705, "internal_node_id": "0.0-6.0-1.0-29.0"}}, {"uniqueid": "w22709195:a95668050", "current_trial": 45, "dateTime": 1693567572211, "trialdata": {"revealed_states": [], "clicked_states": ["13", "14", "12", "19", "20", "22", "21"], "num_clicks_accrued": [0, 0, 0, 0, 0, 0, 0, 0, 0, 0, 0, 0, 0], "stateRewards": ["", 1, 4, 5, -5, 58, -80, 75, 6, 25, -39, 46, 2, -2, 4, 2, 59, 31, -22, -12, -61, 15, 72, 1, -2, -7, 8, 77, 76, -23, -7, 71, -15, -3], "withholdReward": false, "trial_id": "mdp_trial_31", "block": "test", "trialIndex": 34, "score": -2.8000000000000007, "costs": -9.8, "simulationMode": [null, null, null, null, null], "rewards": [2, -2, 4, -12, 15], "path": ["0", "0", "12", "13", "14", "19", "21"], "rt": [14384, 31, 142, 1099, 3], "actions": ["right", "right", "right", "down", "down"], "actionTimes": [15716, 16256, 16930, 18524, 19029], "queries": {"click": {"state": {"target": ["13", "14", "12", "19", "20", "22", "21"], "time": [2313, 4822, 6585, 9200, 10743, 12388, 14001]}, "edge": {"target": [], "time": []}}, "mouseover": {"state": {"target": ["12", "13", "12", "14", "12", "22", "19", "20", "22", "21"], "time": [1745, 2028, 2835, 4413, 5717, 7285, 8747, 9866, 11469, 13087]}, "edge": {"target": [], "time": []}}, "mouseout": {"state": {"target": ["14", "13", "12", "13", "12", "13", "14", "13", "12", "22", "19", "20", "19", "22", "21"], "time": [394, 461, 1844, 2782, 4282, 4345, 5366, 5601, 7068, 8702, 9818, 11236, 11303, 12854, 14689]}, "edge": {"target": [], "time": []}}}, "displayed_time": "19.54", "trialTime": 21773, "trial_type": "mouselab-mdp", "trial_index": 45, "time_elapsed": 2852730, "internal_node_id": "0.0-6.0-1.0-30.0"}}, {"uniqueid": "w22709195:a95668050", "current_trial": 46, "dateTime": 1693567613966, "trialdata": {"revealed_states": [], "clicked_states": ["23", "24", "29", "27", "28", "26", "25", "30"], "num_clicks_accrued": [0, 0, 0, 0, 0, 0, 0, 0, 0, 0, 0, 0, 0], "stateRewards": ["", 1, -2, 7, -14, 88, -56, -44, -14, 64, -51, -57, -2, 3, -4, -9, -11, 19, -77, -1, 68, 75, -67, -1, 1, -2, 5, -37, 70, -34, -10, -72, 63, -41], "withholdReward": false, "trial_id": "mdp_trial_32", "block": "test", "trialIndex": 35, "score": -42.2, "costs": -11.200000000000001, "simulationMode": [null, null, null, null, null], "rewards": [-1, 1, -2, 5, -34], "path": ["0", "0", "23", "24", "25", "26", "29"], "rt": [24893, 106, 125, 813, 512], "actions": ["left", "left", "left", "up", "left"], "actionTimes": [26214, 26838, 27456, 28775, 29807], "queries": {"click": {"state": {"target": ["23", "24", "29", "27", "28", "26", "25", "30"], "time": [2395, 4310, 6498, 8122, 10148, 12274, 14404, 15979]}, "edge": {"target": [], "time": []}}, "mouseover": {"state": {"target": ["24", "23", "24", "25", "26", "29", "27", "26", "28", "26", "25", "30"], "time": [1918, 2185, 3029, 4907, 5953, 6219, 6980, 8693, 9718, 11007, 12789, 15625]}, "edge": {"target": [], "time": []}}, "mouseout": {"state": {"target": ["0", "28", "23", "24", "23", "24", "25", "26", "29", "27", "26", "28", "26", "25", "30", "33"], "time": [334, 692, 733, 2118, 2614, 4758, 5887, 5987, 6941, 8657, 9685, 10923, 12755, 15573, 40433, 40464]}, "edge": {"target": [], "time": []}}}, "displayed_time": "30.33", "trialTime": 41476, "trial_type": "mouselab-mdp", "trial_index": 46, "time_elapsed": 2894486, "internal_node_id": "0.0-6.0-1.0-31.0"}}, {"uniqueid": "w22709195:a95668050", "current_trial": 47, "dateTime": 1693567634707, "trialdata": {"revealed_states": [], "clicked_states": ["13", "12", "14", "22", "19", "20", "21"], "num_clicks_accrued": [0, 0, 0, 0, 0, 0, 0, 0, 0, 0, 0, 0, 0], "stateRewards": ["", -1, 3, -5, -2, -13, -9, -34, -7, -81, 32, 35, -2, -2, 1, -14, -32, 81, 7, 4, 82, 56, -8, -1, 3, -8, 6, -24, -24, -53, 2, 38, 61, 54], "withholdReward": false, "trial_id": "mdp_trial_33", "block": "test", "trialIndex": 36, "score": 73.2, "costs": -9.8, "simulationMode": [null, null, null, null, null, null], "rewards": [-2, -2, 1, 4, 82], "path": ["0", "0", "12", "13", "14", "19", "20"], "rt": [14157, 183, 14, 17, 895, 276], "actions": ["right", "right", "right", "right", "down", "right"], "actionTimes": [15428, 15612, 16137, 16670, 18065, 18850], "queries": {"click": {"state": {"target": ["13", "12", "14", "22", "19", "20", "21"], "time": [2379, 4480, 6071, 8324, 10348, 12540, 14392]}, "edge": {"target": [], "time": []}}, "mouseover": {"state": {"target": ["18", "13", "12", "12", "14", "19", "22", "19", "20", "19", "21", "20", "21"], "time": [1676, 2111, 2981, 4194, 4916, 6617, 7930, 8818, 9172, 10080, 10869, 12332, 13401]}, "edge": {"target": [], "time": []}}, "mouseout": {"state": {"target": ["0", "18", "13", "12", "13", "13", "12", "13", "14", "19", "22", "19", "20", "19", "21", "20"], "time": [977, 1795, 2932, 3882, 3915, 4162, 4866, 4898, 6583, 7898, 8546, 8851, 9931, 10800, 12147, 13154]}, "edge": {"target": [], "time": []}}}, "displayed_time": "19.37", "trialTime": 20413, "trial_type": "mouselab-mdp", "trial_index": 47, "time_elapsed": 2915226, "internal_node_id": "0.0-6.0-1.0-32.0"}}, {"uniqueid": "w22709195:a95668050", "current_trial": 48, "dateTime": 1693567680761, "trialdata": {"revealed_states": [], "clicked_states": ["13", "15", "16", "18", "17", "14", "19", "20", "21", "22", "23", "24", "26", "27", "25", "30", "31", "32", "33"], "num_clicks_accrued": [0, 0, 0, 0, 0, 0, 0, 0, 0, 0, 0, 0, 0], "stateRewards": ["", -2, -4, 6, 14, -34, 49, 36, -8, -3, 32, -4, 1, -2, 1, -8, -20, -71, -57, -7, -86, -62, -16, -2, -3, -5, 11, 23, -21, 53, 5, -5, 85, 73], "withholdReward": false, "trial_id": "mdp_trial_34", "block": "test", "trialIndex": 37, "score": 53.400000000000006, "costs": -26.59999999999999, "simulationMode": [null, null, null, null, null, null], "rewards": [-2, -3, -5, 5, 85], "path": ["0", "0", "23", "24", "25", "30", "32"], "rt": [37303, 217, 551, 151, 622, 17], "actions": ["left", "left", "left", "left", "down", "down"], "actionTimes": [39254, 39473, 40520, 41187, 42324, 42853], "queries": {"click": {"state": {"target": ["13", "15", "16", "18", "17", "14", "19", "20", "21", "22", "23", "24", "26", "27", "25", "30", "31", "32", "33"], "time": [2835, 4496, 6873, 8640, 10240, 11782, 13664, 15540, 17089, 18810, 20692, 22882, 25225, 27244, 29572, 31092, 33501, 35444, 37831]}, "edge": {"target": [], "time": []}}, "mouseover": {"state": {"target": ["12", "13", "18", "15", "16", "18", "17", "17", "14", "19", "20", "21", "22", "0", "23", "24", "28", "26", "27", "29", "25", "30", "32", "31", "32", "33"], "time": [2367, 2586, 3369, 4202, 4976, 7671, 9204, 9438, 11006, 12339, 14204, 16205, 17778, 19475, 19777, 21303, 23387, 24891, 25959, 27777, 29156, 30194, 31627, 33227, 34481, 36062]}, "edge": {"target": [], "time": []}}, "mouseout": {"state": {"target": ["21", "0", "12", "13", "18", "15", "16", "18", "17", "17", "14", "19", "20", "21", "22", "0", "23", "24", "28", "26", "27", "27", "29", "26", "25", "30", "32", "31", "32"], "time": [588, 1615, 2484, 3240, 4071, 4928, 7387, 9154, 9240, 10736, 12287, 14171, 16057, 17693, 19373, 19522, 21208, 23336, 24805, 25452, 27468, 27710, 28841, 29092, 30144, 31577, 32977, 34425, 35998]}, "edge": {"target": [], "time": []}}}, "displayed_time": "43.37", "trialTime": 45782, "trial_type": "mouselab-mdp", "trial_index": 48, "time_elapsed": 2961281, "internal_node_id": "0.0-6.0-1.0-33.0"}}, {"uniqueid": "w22709195:a95668050", "current_trial": 49, "dateTime": 1693567708235, "trialdata": {"revealed_states": [], "clicked_states": ["1", "2", "3", "4", "6", "7", "5", "9", "8", "10", "11"], "num_clicks_accrued": [0, 0, 0, 0, 0, 0, 0, 0, 0, 0, 0, 0, 0], "stateRewards": ["", 2, -1, -2, -5, -47, -57, -33, -11, 31, -18, -72, -2, 1, -4, -8, -46, -53, -50, 15, -85, -9, 39, -2, -2, 1, 14, -1, -8, 53, -12, -41, -74, 62], "withholdReward": false, "trial_id": "mdp_trial_35", "block": "test", "trialIndex": 38, "score": -78.4, "costs": -15.400000000000002, "simulationMode": [null, null, null, null, null, null], "rewards": [2, -1, -2, -5, -57], "path": ["0", "0", "1", "2", "3", "4", "6"], "rt": [21213, 190, 116, 81, 699, 22], "actions": ["up", "up", "up", "up", "right", "right"], "actionTimes": [22484, 22677, 23296, 23876, 25082, 25621], "queries": {"click": {"state": {"target": ["1", "2", "3", "4", "6", "7", "5", "9", "8", "10", "11"], "time": [2266, 4546, 6223, 7775, 10273, 12355, 14097, 15656, 17219, 18760, 21081]}, "edge": {"target": [], "time": []}}, "mouseover": {"state": {"target": ["1", "2", "1", "2", "3", "4", "5", "6", "7", "5", "5", "9", "9", "8", "10", "11"], "time": [1634, 1683, 2084, 3473, 5238, 6785, 8275, 10021, 10957, 12832, 13144, 14630, 14959, 16212, 17895, 19427]}, "edge": {"target": [], "time": []}}, "mouseout": {"state": {"target": ["33", "25", "24", "23", "0", "1", "2", "1", "2", "3", "4", "5", "6", "7", "5", "5", "9", "9", "8", "10", "11", "11"], "time": [295, 567, 615, 649, 868, 1654, 1933, 2496, 5104, 6454, 8239, 9679, 10437, 12793, 12850, 14327, 14647, 16194, 17825, 19242, 21303, 21614]}, "edge": {"target": [], "time": []}}}, "displayed_time": "26.13", "trialTime": 27192, "trial_type": "mouselab-mdp", "trial_index": 49, "time_elapsed": 2988755, "internal_node_id": "0.0-6.0-1.0-34.0"}}, {"uniqueid": "w22709195:a95668050", "current_trial": 50, "dateTime": 1693567730297, "trialdata": {"revealed_states": [], "clicked_states": ["1", "2", "8", "9", "3", "11", "10"], "num_clicks_accrued": [0, 0, 0, 0, 0, 0, 0, 0, 0, 0, 0, 0, 0], "stateRewards": ["", 1, 1, 4, 11, 83, -66, 18, -16, -23, 5, 25, 1, -3, 1, -12, 18, 24, -86, -11, -64, 36, 40, 2, 1, -6, 13, 55, 29, 72, -2, 81, -72, -41], "withholdReward": false, "trial_id": "mdp_trial_36", "block": "test", "trialIndex": 39, "score": 5.199999999999999, "costs": -9.8, "simulationMode": [null, null, null, null, null], "rewards": [1, 1, 4, -16, 25], "path": ["0", "0", "1", "2", "3", "8", "11"], "rt": [14988, 78, 6, 909, 123], "actions": ["up", "up", "up", "left", "left"], "actionTimes": [16882, 17479, 17989, 19411, 20055], "queries": {"click": {"state": {"target": ["1", "2", "8", "9", "3", "11", "10"], "time": [2890, 4493, 7180, 9216, 10977, 13035, 14698]}, "edge": {"target": [], "time": []}}, "mouseover": {"state": {"target": ["1", "1", "2", "3", "8", "9", "3", "8", "11", "10", "23"], "time": [2337, 2621, 3777, 5058, 6660, 8923, 10382, 12313, 12361, 14398, 16098]}, "edge": {"target": [], "time": []}}, "mouseout": {"state": {"target": ["28", "0", "1", "1", "2", "3", "8", "9", "3", "8", "11", "10"], "time": [586, 2294, 2373, 3105, 4978, 6639, 8808, 10329, 12296, 12330, 14097, 16015]}, "edge": {"target": [], "time": []}}}, "displayed_time": "20.55", "trialTime": 21729, "trial_type": "mouselab-mdp", "trial_index": 50, "time_elapsed": 3010816, "internal_node_id": "0.0-6.0-1.0-35.0"}}, {"uniqueid": "w22709195:a95668050", "current_trial": 51, "dateTime": 1693567757605, "trialdata": {"revealed_states": [], "clicked_states": ["15", "16", "18", "13", "14", "17", "19", "12"], "num_clicks_accrued": [0, 0, 0, 0, 0, 0, 0, 0, 0, 0, 0, 0, 0], "stateRewards": ["", -2, 3, -1, 2, -72, 63, 20, -1, 62, -66, 39, -2, 3, -6, 14, 22, 47, 1, 8, -49, -1, -41, 2, 2, -6, -16, -64, -60, -34, 16, 54, 22, -7], "withholdReward": false, "trial_id": "mdp_trial_37", "block": "test", "trialIndex": 40, "score": 44.8, "costs": -11.200000000000001, "simulationMode": [null, null, null, null, null, null], "rewards": [-2, 3, -6, 14, 47], "path": ["0", "0", "12", "13", "14", "15", "17"], "rt": [16637, 184, 38, 300, 800, 2840], "actions": ["right", "right", "right", "right", "up", "right"], "actionTimes": [18099, 18284, 18835, 19631, 20947, 24305], "queries": {"click": {"state": {"target": ["15", "16", "18", "13", "14", "17", "19", "12"], "time": [2844, 4618, 7046, 8791, 10368, 12460, 14868, 16829]}, "edge": {"target": [], "time": []}}, "mouseover": {"state": {"target": ["12", "15", "16", "17", "18", "13", "14", "17", "20", "19", "22", "12"], "time": [2166, 2534, 3319, 5221, 6736, 7971, 9288, 10933, 13023, 14521, 15725, 16421]}, "edge": {"target": [], "time": []}}, "mouseout": {"state": {"target": ["23", "0", "12", "15", "16", "17", "15", "18", "13", "14", "14", "17", "20", "19", "22", "12"], "time": [394, 416, 2187, 3253, 5171, 6400, 6452, 7923, 9275, 10580, 10881, 12927, 14423, 15675, 16358, 26192]}, "edge": {"target": [], "time": []}}}, "displayed_time": "24.82", "trialTime": 27026, "trial_type": "mouselab-mdp", "trial_index": 51, "time_elapsed": 3038125, "internal_node_id": "0.0-6.0-1.0-36.0"}}, {"uniqueid": "w22709195:a95668050", "current_trial": 52, "dateTime": 1693567778714, "trialdata": {"revealed_states": [], "clicked_states": [], "num_clicks_accrued": [0, 0, 0, 0, 0, 0, 0, 0, 0, 0, 0, 0, 0], "stateRewards": ["", 2, 4, -6, -13, -75, -81, 30, 7, 5, 59, -65, -1, -1, 7, 14, -38, 36, -41, 1, -54, -5, 64, 2, -1, 5, 6, -19, 79, 11, 16, -33, -50, 58], "withholdReward": false, "trial_id": "mdp_trial_38", "block": "test", "trialIndex": 41, "score": 1, "costs": 0, "simulationMode": [null, null, null, null, null], "rewards": [-1, -1, 7, 1, -5], "path": ["0", "0", "12", "13", "14", "19", "21"], "rt": [7131, 74, 23, 552, 13], "actions": ["right", "right", "right", "down", "down"], "actionTimes": [11121, 11714, 12248, 13312, 13841], "queries": {"click": {"state": {"target": [], "time": []}, "edge": {"target": [], "time": []}}, "mouseover": {"state": {"target": ["7", "6", "5", "4", "18", "15", "16", "18", "12"], "time": [5449, 7570, 7767, 8002, 8185, 8385, 9219, 9923, 9951]}, "edge": {"target": [], "time": []}}, "mouseout": {"state": {"target": ["0", "7", "6", "5", "4", "18", "15", "16", "18", "12"], "time": [3559, 5500, 7587, 7952, 8023, 8234, 9153, 9901, 9936, 9972]}, "edge": {"target": [], "time": []}}}, "displayed_time": "17.99", "trialTime": 20849, "trial_type": "mouselab-mdp", "trial_index": 52, "time_elapsed": 3059233, "internal_node_id": "0.0-6.0-1.0-37.0"}}, {"uniqueid": "w22709195:a95668050", "current_trial": 53, "dateTime": 1693567799188, "trialdata": {"revealed_states": [], "clicked_states": ["1", "10", "11", "8", "9", "3", "2"], "num_clicks_accrued": [0, 0, 0, 0, 0, 0, 0, 0, 0, 0, 0, 0, 0], "stateRewards": ["", 1, 3, 1, -13, 52, -28, 67, -14, 3, 63, -70, -1, -4, 7, -11, -10, 47, -18, 6, 69, -9, -61, 2, 3, -6, 10, 63, -34, 40, -6, -79, -35, -32], "withholdReward": false, "trial_id": "mdp_trial_39", "block": "test", "trialIndex": 42, "score": -88.8, "costs": -9.8, "simulationMode": [null, null, null, null, null, null], "rewards": [1, 3, 1, -14, -70], "path": ["0", "0", "1", "2", "3", "8", "11"], "rt": [14202, 215, 80, 102, 256, 71], "actions": ["up", "up", "up", "up", "left", "left"], "actionTimes": [15289, 15505, 16099, 16704, 17458, 18023], "queries": {"click": {"state": {"target": ["1", "10", "11", "8", "9", "3", "2"], "time": [2094, 4213, 7444, 9066, 10955, 12570, 14508]}, "edge": {"target": [], "time": []}}, "mouseover": {"state": {"target": ["1", "2", "1", "2", "10", "8", "11", "8", "9", "3", "2"], "time": [1489, 1555, 1888, 2847, 3922, 4810, 7024, 8670, 10013, 11637, 13106]}, "edge": {"target": [], "time": []}}, "mouseout": {"state": {"target": ["23", "0", "1", "2", "1", "2", "10", "8", "11", "8", "9", "3"], "time": [538, 622, 1521, 1771, 2319, 3826, 4759, 6991, 8545, 9980, 11515, 13086]}, "edge": {"target": [], "time": []}}}, "displayed_time": "18.52", "trialTime": 20105, "trial_type": "mouselab-mdp", "trial_index": 53, "time_elapsed": 3079707, "internal_node_id": "0.0-6.0-1.0-38.0"}}, {"uniqueid": "w22709195:a95668050", "current_trial": 54, "dateTime": 1693567823900, "trialdata": {"revealed_states": [], "clicked_states": ["15", "16", "17", "18", "14", "13", "12", "19"], "num_clicks_accrued": [0, 0, 0, 0, 0, 0, 0, 0, 0, 0, 0, 0, 0], "stateRewards": ["", -1, -2, 4, 9, 10, -75, 39, 16, -43, 88, -19, -1, 1, 2, 4, -31, 10, 73, 12, 41, -64, -81, -2, 2, -6, 1, -81, -1, -26, 3, -59, -3, -20], "withholdReward": false, "trial_id": "mdp_trial_40", "block": "test", "trialIndex": 43, "score": -61.2, "costs": -11.200000000000001, "simulationMode": [null, null, null, null, null], "rewards": [-1, 1, 2, 12, -64], "path": ["0", "0", "12", "13", "14", "19", "21"], "rt": [16696, 19, 172, 754, 5], "actions": ["right", "right", "right", "down", "down"], "actionTimes": [19400, 19947, 20629, 21882, 22400], "queries": {"click": {"state": {"target": ["15", "16", "17", "18", "14", "13", "12", "19"], "time": [3679, 5715, 7449, 8990, 10721, 12705, 14483, 17037]}, "edge": {"target": [], "time": []}}, "mouseover": {"state": {"target": ["15", "15", "16", "17", "18", "14", "13", "12", "22", "19", "21"], "time": [3229, 3401, 4618, 7206, 8292, 9678, 11239, 13305, 15299, 16472, 17933]}, "edge": {"target": [], "time": []}}, "mouseout": {"state": {"target": ["2", "1", "15", "15", "16", "17", "18", "14", "13", "12", "22", "19"], "time": [2146, 2229, 3336, 4569, 6637, 8236, 9558, 11209, 13219, 14995, 16453, 17856]}, "edge": {"target": [], "time": []}}}, "displayed_time": "22.91", "trialTime": 24366, "trial_type": "mouselab-mdp", "trial_index": 54, "time_elapsed": 3104419, "internal_node_id": "0.0-6.0-1.0-39.0"}}, {"uniqueid": "w22709195:a95668050", "current_trial": 55, "dateTime": 1693567892079, "trialdata": {"rt": 68157, "response": {"Q0": "$-2 to $2", "Q1": "$-32 to $32", "Q2": "$-32 to $32", "Q3": "The cost for clicking on nodes varied between nodes.", "Q4": "Slightly motivated"}, "question_order": [0, 1, 2, 3, 4], "trial_id": "final_quiz_control", "trial_type": "survey-multi-choice", "trial_index": 55, "time_elapsed": 3172598, "internal_node_id": "0.0-6.0-2.0"}}, {"uniqueid": "w22709195:a95668050", "current_trial": 56, "dateTime": 1693567972534, "trialdata": {"rt": 80426, "response": {"Q0": "Target different sides of the nodes for each round ", "Q1": "No I didn't kept to the same strategy ", "Q2": "Very difficult "}, "trial_id": "self_report_control", "trial_type": "survey-text", "trial_index": 56, "time_elapsed": 3253053, "internal_node_id": "0.0-6.0-3.0"}}, {"uniqueid": "w22709195:a95668050", "current_trial": 57, "dateTime": 1693568036270, "trialdata": {"rt": 63728, "response": {"gender": "female", "age": "37", "colorblind": "0", "effort": "0"}, "trial_type": "survey-html-form", "trial_index": 57, "time_elapsed": 3316790, "internal_node_id": "0.0-6.0-4.0"}}, {"uniqueid": "w22709195:a95668050", "current_trial": 58, "dateTime": 1693568084522, "trialdata": {"rt": 48240, "response": {"Q0": "All the instructions were straight forward ", "Q1": "No I have'nt participated before ", "Q2": ""}, "trial_type": "survey-text", "trial_index": 58, "time_elapsed": 3365042, "internal_node_id": "0.0-6.0-5.0"}}, {"uniqueid": "w22709195:a95668050", "current_trial": 59, "dateTime": 1693568133362, "trialdata": {"rt": 48829, "stimulus": "<h1>Completion Code Instructions (1/2)</h1>\n<br><br><br><br>\nYou have reached the end of the experiment! The completion code consists of two parts: (1) a code with 2 characters (2) a code with 6 characters. On this page, you will receive the second part of the code. The first part of the completion code will be on the next page.\n<br><br>\nThe second part of your completion code is: <b>EWEK22</b>\n<br><br>\nPlease note this down. Then, press 'Finish HIT' in order to find the first part of your completion code. Once the data has been saved, you will receive this code either in this window or in the original browser window where you started the experiment.\n", "response": 0, "trial_type": "html-button-response", "trial_index": 59, "time_elapsed": 3413882, "internal_node_id": "0.0-6.0-6.0"}}, {"uniqueid": "w22709195:a95668050", "current_trial": 60, "dateTime": 1693568134376, "trialdata": {"success": true, "trial_type": "fullscreen", "trial_index": 60, "time_elapsed": 3414896, "internal_node_id": "0.0-7.0"}}], "questiondata": {"params": {"CODE": "C6DMOQA6", "MIN_TIME": 14, "inspectCost": 1, "startTime": "Fri Sep 01 2023 12:38:34 GMT+0200 (South Africa Standard Time)", "bonusRate": 0.002, "variance": "1_2_4_8_44", "branching": "31123"}}, "eventdata": [{"eventtype": "initialized", "value": null, "timestamp": 1693564713798, "interval": 0}, {"eventtype": "window_resize", "value": [1028, 744], "timestamp": 1693564713798, "interval": 0}, {"eventtype": "window_resize", "value": [1028, 744], "timestamp": 1693564714811, "interval": 1013}, {"eventtype": "window_resize", "value": [1536, 864], "timestamp": 1693564727624, "interval": 12813}, {"eventtype": "focus", "value": "off", "timestamp": 1693565235084, "interval": 507460}, {"eventtype": "focus", "value": "on", "timestamp": 1693565235085, "interval": 1}, {"eventtype": "window_resize", "value": [1536, 758], "timestamp": 1693565235322, "interval": 237}, {"eventtype": "window_resize", "value": [1536, 864], "timestamp": 1693565238984, "interval": 3662}, {"eventtype": "window_resize", "value": [1536, 758], "timestamp": 1693568133633, "interval": 2894649}], "useragent": "Mozilla/5.0 (Windows NT 10.0; Win64; x64) AppleWebKit/537.36 (KHTML, like Gecko) Chrome/116.0.0.0 Safari/537.36", "mode": "live", "id": "w22709195:a95668050", "status": "user data saved", "Beginhit": "2023-09-01 10:38:29.972439", "Beginexp": "2023-09-01 10:38:48.239469", "Endhit": "2023-09-01 11:35:35.278758", "psiturkStatus": 3, "browser": "<redacted>", "platform": "windows", "language": "en-US"}