{"condition": 1, "counterbalance": 0, "assignmentId": "a97669083", "workerId": "w21947348", "hitId": "h27544087", "currenttrial": 74, "bonus": 0, "data": [{"uniqueid": "w21947348:a97669083", "current_trial": 0, "dateTime": 1691160393422, "trialdata": {"success": true, "trial_type": "fullscreen", "trial_index": 0, "time_elapsed": 19503, "internal_node_id": "0.0-0.0"}}, {"uniqueid": "w21947348:a97669083", "current_trial": 1, "dateTime": 1691160461116, "trialdata": {"view_history": [{"page_index": 0, "viewing_time": 67687}], "rt": 67688, "trial_id": "exp_instructions_misaligned", "trial_type": "instructions", "trial_index": 1, "time_elapsed": 87197, "internal_node_id": "0.0-1.0"}}, {"uniqueid": "w21947348:a97669083", "current_trial": 2, "dateTime": 1691160465269, "trialdata": {"success": true, "trial_type": "fullscreen", "trial_index": 2, "time_elapsed": 91350, "internal_node_id": "0.0-2.0-0.0"}}, {"uniqueid": "w21947348:a97669083", "current_trial": 3, "dateTime": 1691160636107, "trialdata": {"view_history": [{"page_index": 0, "viewing_time": 23213}, {"page_index": 1, "viewing_time": 91864}, {"page_index": 2, "viewing_time": 6064}, {"page_index": 3, "viewing_time": 49696}], "rt": 170837, "trial_id": "mouselab_instructions_1_misaligned", "trial_type": "instructions", "trial_index": 3, "time_elapsed": 262188, "internal_node_id": "0.0-2.0-1.0"}}, {"uniqueid": "w21947348:a97669083", "current_trial": 4, "dateTime": 1691160706228, "trialdata": {"revealed_states": [], "clicked_states": ["23", "24", "28", "1", "2", "3", "4", "5", "8", "10", "9", "12", "13", "14", "25", "19", "30", "26", "27", "16", "15"], "num_clicks_accrued": [0, 0, 0, 0, 0, 0, 0, 0, 0, 0, 0, 0, 0], "stateRewards": ["", 10, 10, -10, -10, -10, -10, 10, 10, 10, -10, 10, -10, -10, -10, 10, 10, -10, -10, 10, 10, -10, 10, -10, -10, -10, 10, -10, -10, 10, 10, -10, 10, -10], "withholdReward": false, "trial_id": "practice_1", "block": "test", "trialIndex": 0, "score": -57, "costs": -10.5, "simulationMode": [null, null, null, null, null, null, null, null, null, null, null, null], "rewards": [-10, -10, -10, -10, -10, 10, -10], "path": ["0", "0", "12", "12", "13", "13", "14", "19", "21"], "rt": [53006, 46400, 847, 348, 643, 149, 814, 319, 853, 344, 126, 323], "actions": ["right", "right", "right", "right", "right", "right", "right", "right", "right", "right", "down", "down"], "actionTimes": [46400, 46403, 47254, 47256, 47901, 47905, 48721, 48723, 49579, 49581, 50220, 51043], "queries": {"click": {"state": {"target": ["23", "24", "28", "1", "2", "3", "4", "5", "8", "10", "9", "12", "13", "14", "25", "19", "30", "26", "27", "16", "15"], "time": [null, null, null, 2212, 3336, 4362, 9190, 11198, 14909, 17487, 19733, 22389, 23935, 25029, 26421, 28109, 29444, 31540, 32575, 34628, 36606]}, "edge": {"target": [], "time": []}}, "mouseover": {"state": {"target": ["23", "24", "28", "1", "2", "3", "4", "5", "4", "7", "2", "10", "8", "11", "10", "9", "12", "13", "14", "24", "25", "25", "24", "22", "19", "22", "31", "31", "30", "26", "27", "26", "27", "7", "16", "16", "15", "15", "14", "19"], "time": [null, null, null, 1789, 2710, 3906, 8969, 10989, 13872, 14339, 14407, 14606, 14822, 15357, 15738, 18904, 22137, 23190, 24775, 25824, 25843, 26154, 27374, 27705, 27954, 28492, 28641, 28924, 29109, 30187, 30854, 31321, 31905, 33323, 34136, 34522, 35020, 36337, 37176, 41569]}, "edge": {"target": [], "time": []}}, "mouseout": {"state": {"target": ["0", "12", "13", "0", "23", "24", "24", "28", "1", "2", "3", "4", "5", "4", "7", "2", "10", "8", "11", "10", "8", "9", "12", "13", "14", "14", "13", "24", "25", "25", "24", "22", "19", "22", "31", "31", "30", "26", "27", "26", "27", "7", "16", "16", "15", "15", "14", "19"], "time": [null, null, null, null, null, null, null, 1538, 2574, 3862, 8488, 10906, 13838, 13888, 14390, 14439, 14673, 15308, 15690, 18704, 18804, 20525, 23040, 24607, 25208, 25741, 25757, 25841, 25875, 27357, 27391, 27755, 28475, 28508, 28807, 28957, 29787, 30654, 31272, 31660, 33071, 33407, 34320, 34987, 36088, 37106, 37240, 41869]}, "edge": {"target": [], "time": []}}}, "displayed_time": "51.54", "trialTime": 56294, "trial_type": "mouselab-mdp", "trial_index": 4, "time_elapsed": 332309, "internal_node_id": "0.0-2.0-2.0-0.0"}}, {"uniqueid": "w21947348:a97669083", "current_trial": 5, "dateTime": 1691160721951, "trialdata": {"revealed_states": [], "clicked_states": [], "num_clicks_accrued": [0, 0, 0, 0, 0, 0, 0, 0, 0, 0, 0, 0, 0], "stateRewards": ["", 10, 10, -10, 10, 10, -10, 10, 10, 10, -10, -10, 10, -10, -10, 10, -10, 10, -10, 10, 10, -10, -10, -10, 10, 10, 10, -10, 10, 10, 10, -10, 10, 10], "withholdReward": false, "trial_id": "practice_2", "block": "test", "trialIndex": 1, "score": 13.5, "costs": 0, "simulationMode": [null, null, null, null, null], "rewards": [-10, 10, 10, 10, -10], "path": ["0", "0", "23", "24", "25", "26", "27"], "rt": [1054, 347, 278, 322, 169], "actions": ["left", "left", "left", "up", "up"], "actionTimes": [5120, 5990, 6774, 7615, 8282], "queries": {"click": {"state": {"target": [], "time": []}, "edge": {"target": [], "time": []}}, "mouseover": {"state": {"target": ["12", "13"], "time": [4096, 4142]}, "edge": {"target": [], "time": []}}, "mouseout": {"state": {"target": ["16", "0", "23", "12", "13"], "time": [3075, 3108, 3475, 4125, 4159]}, "edge": {"target": [], "time": []}}}, "displayed_time": "8.79", "trialTime": 15289, "trial_type": "mouselab-mdp", "trial_index": 5, "time_elapsed": 348032, "internal_node_id": "0.0-2.0-2.0-1.0"}}, {"uniqueid": "w21947348:a97669083", "current_trial": 6, "dateTime": 1691160777932, "trialdata": {"view_history": [{"page_index": 0, "viewing_time": 45265}, {"page_index": 1, "viewing_time": 10712}], "rt": 55977, "trial_id": "mouselab_instructions_2_misaligned", "trial_type": "instructions", "trial_index": 6, "time_elapsed": 404013, "internal_node_id": "0.0-2.0-3.0"}}, {"uniqueid": "w21947348:a97669083", "current_trial": 7, "dateTime": 1691160820068, "trialdata": {"rt": 42132, "response": {"Q0": "The cost for clicking on nodes may vary between nodes.", "Q1": "The better I perform the higher my bonus will be.", "Q2": "No, the amount of cash at each node of the web may be different each time.", "Q3": "To finish the game in the shortest amount of time.", "Q4": "Only before moving the spider.", "Q5": "10 seconds"}, "question_order": [0, 1, 2, 3, 4, 5], "correct": {"Q0": "The cost for clicking on nodes may vary between nodes.", "Q1": "The better I perform the higher my bonus will be.", "Q2": "No, the amount of cash at each node of the web may be different each time.", "Q3": "To get the highest total score.", "Q4": "Only before moving the spider.", "Q5": "3 seconds"}, "trial_id": "mouselab_quiz_misaligned", "trial_type": "survey-multi-choice", "trial_index": 7, "time_elapsed": 446149, "internal_node_id": "0.0-2.0-4.0"}}, {"uniqueid": "w21947348:a97669083", "current_trial": 8, "dateTime": 1691160830924, "trialdata": {"success": true, "trial_type": "fullscreen", "trial_index": 8, "time_elapsed": 457005, "internal_node_id": "0.0-2.1-0.1"}}, {"uniqueid": "w21947348:a97669083", "current_trial": 9, "dateTime": 1691160914395, "trialdata": {"view_history": [{"page_index": 0, "viewing_time": 26517}, {"page_index": 1, "viewing_time": 13504}, {"page_index": 2, "viewing_time": 11376}, {"page_index": 3, "viewing_time": 32072}], "rt": 83469, "trial_id": "mouselab_instructions_1_misaligned", "trial_type": "instructions", "trial_index": 9, "time_elapsed": 540476, "internal_node_id": "0.0-2.1-1.1"}}, {"uniqueid": "w21947348:a97669083", "current_trial": 10, "dateTime": 1691160930190, "trialdata": {"revealed_states": [], "clicked_states": [], "num_clicks_accrued": [0, 0, 0, 0, 0, 0, 0, 0, 0, 0, 0, 0, 0], "stateRewards": ["", 10, 10, -10, -10, -10, -10, 10, 10, 10, -10, 10, -10, -10, -10, 10, 10, -10, -10, 10, 10, -10, 10, -10, -10, -10, 10, -10, -10, 10, 10, -10, 10, -10], "withholdReward": false, "trial_id": "practice_1", "block": "test", "trialIndex": 2, "score": 33.5, "costs": 0, "simulationMode": [null, null, null, null, null], "rewards": [10, 10, -10, 10, 10], "path": ["0", "0", "1", "2", "3", "8", "9"], "rt": [1397, 271, 508, 1636, 132], "actions": ["up", "up", "up", "left", "up"], "actionTimes": [5087, 5851, 6870, 9002, 9626], "queries": {"click": {"state": {"target": [], "time": []}, "edge": {"target": [], "time": []}}, "mouseover": {"state": {"target": [], "time": []}, "edge": {"target": [], "time": []}}, "mouseout": {"state": {"target": ["0", "21"], "time": [3058, 13458]}, "edge": {"target": [], "time": []}}}, "displayed_time": "10.14", "trialTime": 15394, "trial_type": "mouselab-mdp", "trial_index": 10, "time_elapsed": 556270, "internal_node_id": "0.0-2.1-2.1-0.1"}}, {"uniqueid": "w21947348:a97669083", "current_trial": 11, "dateTime": 1691160943299, "trialdata": {"revealed_states": [], "clicked_states": [], "num_clicks_accrued": [0, 0, 0, 0, 0, 0, 0, 0, 0, 0, 0, 0, 0], "stateRewards": ["", 10, 10, -10, 10, 10, -10, 10, 10, 10, -10, -10, 10, -10, -10, 10, -10, 10, -10, 10, 10, -10, -10, -10, 10, 10, 10, -10, 10, 10, 10, -10, 10, 10], "withholdReward": false, "trial_id": "practice_2", "block": "test", "trialIndex": 3, "score": -6.5, "costs": 0, "simulationMode": [null, null, null, null, null], "rewards": [10, -10, -10, 10, -10], "path": ["0", "0", "12", "13", "14", "19", "21"], "rt": [1418, 154, 263, 160, 172], "actions": ["right", "right", "right", "down", "down"], "actionTimes": [5544, 6237, 6996, 7675, 8357], "queries": {"click": {"state": {"target": [], "time": []}, "edge": {"target": [], "time": []}}, "mouseover": {"state": {"target": ["22"], "time": [4141]}, "edge": {"target": [], "time": []}}, "mouseout": {"state": {"target": ["0", "22"], "time": [4137, 4148]}, "edge": {"target": [], "time": []}}}, "displayed_time": "8.87", "trialTime": 12728, "trial_type": "mouselab-mdp", "trial_index": 11, "time_elapsed": 569380, "internal_node_id": "0.0-2.1-2.1-1.1"}}, {"uniqueid": "w21947348:a97669083", "current_trial": 12, "dateTime": 1691160959843, "trialdata": {"view_history": [{"page_index": 0, "viewing_time": 14397}, {"page_index": 1, "viewing_time": 2144}], "rt": 16541, "trial_id": "mouselab_instructions_2_misaligned", "trial_type": "instructions", "trial_index": 12, "time_elapsed": 585924, "internal_node_id": "0.0-2.1-3.1"}}, {"uniqueid": "w21947348:a97669083", "current_trial": 13, "dateTime": 1691161150949, "trialdata": {"rt": 191101, "response": {"Q0": "The cost for clicking on nodes may vary between nodes.", "Q1": "The better I perform the higher my bonus will be.", "Q2": "No, the structure of the web will be different each time.", "Q3": "To get the highest total score.", "Q4": "Only before moving the spider.", "Q5": "3 seconds"}, "question_order": [0, 1, 2, 3, 4, 5], "correct": {"Q0": "The cost for clicking on nodes may vary between nodes.", "Q1": "The better I perform the higher my bonus will be.", "Q2": "No, the amount of cash at each node of the web may be different each time.", "Q3": "To get the highest total score.", "Q4": "Only before moving the spider.", "Q5": "3 seconds"}, "trial_id": "mouselab_quiz_misaligned", "trial_type": "survey-multi-choice", "trial_index": 13, "time_elapsed": 777030, "internal_node_id": "0.0-2.1-4.1"}}, {"uniqueid": "w21947348:a97669083", "current_trial": 14, "dateTime": 1691161159725, "trialdata": {"success": true, "trial_type": "fullscreen", "trial_index": 14, "time_elapsed": 785806, "internal_node_id": "0.0-2.2-0.2"}}, {"uniqueid": "w21947348:a97669083", "current_trial": 15, "dateTime": 1691161229812, "trialdata": {"view_history": [{"page_index": 0, "viewing_time": 50204}, {"page_index": 1, "viewing_time": 4016}, {"page_index": 2, "viewing_time": 2320}, {"page_index": 3, "viewing_time": 13544}], "rt": 70085, "trial_id": "mouselab_instructions_1_misaligned", "trial_type": "instructions", "trial_index": 15, "time_elapsed": 855893, "internal_node_id": "0.0-2.2-1.2"}}, {"uniqueid": "w21947348:a97669083", "current_trial": 16, "dateTime": 1691161243993, "trialdata": {"revealed_states": [], "clicked_states": [], "num_clicks_accrued": [0, 0, 0, 0, 0, 0, 0, 0, 0, 0, 0, 0, 0], "stateRewards": ["", 10, 10, -10, -10, -10, -10, 10, 10, 10, -10, 10, -10, -10, -10, 10, 10, -10, -10, 10, 10, -10, 10, -10, -10, -10, 10, -10, -10, 10, 10, -10, 10, -10], "withholdReward": false, "trial_id": "practice_1", "block": "test", "trialIndex": 4, "score": -6.5, "costs": 0, "simulationMode": [null, null, null, null, null], "rewards": [-10, -10, -10, 10, 10], "path": ["0", "0", "23", "24", "25", "30", "32"], "rt": [1804, 266, 295, 145, 248], "actions": ["left", "left", "left", "down", "down"], "actionTimes": [5445, 6215, 7028, 7683, 8431], "queries": {"click": {"state": {"target": [], "time": []}, "edge": {"target": [], "time": []}}, "mouseover": {"state": {"target": [], "time": []}, "edge": {"target": [], "time": []}}, "mouseout": {"state": {"target": ["0"], "time": [11064]}, "edge": {"target": [], "time": []}}}, "displayed_time": "8.93", "trialTime": 13793, "trial_type": "mouselab-mdp", "trial_index": 16, "time_elapsed": 870074, "internal_node_id": "0.0-2.2-2.2-0.2"}}, {"uniqueid": "w21947348:a97669083", "current_trial": 17, "dateTime": 1691161259491, "trialdata": {"revealed_states": [], "clicked_states": [], "num_clicks_accrued": [0, 0, 0, 0, 0, 0, 0, 0, 0, 0, 0, 0, 0], "stateRewards": ["", 10, 10, -10, 10, 10, -10, 10, 10, 10, -10, -10, 10, -10, -10, 10, -10, 10, -10, 10, 10, -10, -10, -10, 10, 10, 10, -10, 10, 10, 10, -10, 10, 10], "withholdReward": false, "trial_id": "practice_2", "block": "test", "trialIndex": 5, "score": 33.5, "costs": 0, "simulationMode": [null, null, null, null, null], "rewards": [10, 10, -10, 10, 10], "path": ["0", "0", "1", "2", "3", "4", "5"], "rt": [1170, 307, 342, 658, 624], "actions": ["up", "up", "up", "right", "up"], "actionTimes": [7108, 7927, 8791, 9942, 11061], "queries": {"click": {"state": {"target": [], "time": []}, "edge": {"target": [], "time": []}}, "mouseover": {"state": {"target": [], "time": []}, "edge": {"target": [], "time": []}}, "mouseout": {"state": {"target": ["21", "12", "0", "0", "23"], "time": [2397, 5114, 5530, 13097, 13248]}, "edge": {"target": [], "time": []}}}, "displayed_time": "11.56", "trialTime": 15058, "trial_type": "mouselab-mdp", "trial_index": 17, "time_elapsed": 885571, "internal_node_id": "0.0-2.2-2.2-1.2"}}, {"uniqueid": "w21947348:a97669083", "current_trial": 18, "dateTime": 1691161266140, "trialdata": {"view_history": [{"page_index": 0, "viewing_time": 4822}, {"page_index": 1, "viewing_time": 1824}], "rt": 6646, "trial_id": "mouselab_instructions_2_misaligned", "trial_type": "instructions", "trial_index": 18, "time_elapsed": 892221, "internal_node_id": "0.0-2.2-3.2"}}, {"uniqueid": "w21947348:a97669083", "current_trial": 19, "dateTime": 1691161302141, "trialdata": {"rt": 35997, "response": {"Q0": "The cost for clicking on nodes may vary between nodes.", "Q1": "The better I perform the higher my bonus will be.", "Q2": "Yes.", "Q3": "To get the highest total score.", "Q4": "Only before moving the spider.", "Q5": "3 seconds"}, "question_order": [0, 1, 2, 3, 4, 5], "correct": {"Q0": "The cost for clicking on nodes may vary between nodes.", "Q1": "The better I perform the higher my bonus will be.", "Q2": "No, the amount of cash at each node of the web may be different each time.", "Q3": "To get the highest total score.", "Q4": "Only before moving the spider.", "Q5": "3 seconds"}, "trial_id": "mouselab_quiz_misaligned", "trial_type": "survey-multi-choice", "trial_index": 19, "time_elapsed": 928221, "internal_node_id": "0.0-2.2-4.2"}}, {"uniqueid": "w21947348:a97669083", "current_trial": 20, "dateTime": 1691161307549, "trialdata": {"success": true, "trial_type": "fullscreen", "trial_index": 20, "time_elapsed": 933630, "internal_node_id": "0.0-2.3-0.3"}}, {"uniqueid": "w21947348:a97669083", "current_trial": 21, "dateTime": 1691161315780, "trialdata": {"view_history": [{"page_index": 0, "viewing_time": 3229}, {"page_index": 1, "viewing_time": 3248}, {"page_index": 2, "viewing_time": 632}, {"page_index": 3, "viewing_time": 1120}], "rt": 8229, "trial_id": "mouselab_instructions_1_misaligned", "trial_type": "instructions", "trial_index": 21, "time_elapsed": 941860, "internal_node_id": "0.0-2.3-1.3"}}, {"uniqueid": "w21947348:a97669083", "current_trial": 22, "dateTime": 1691161327316, "trialdata": {"revealed_states": [], "clicked_states": [], "num_clicks_accrued": [0, 0, 0, 0, 0, 0, 0, 0, 0, 0, 0, 0, 0], "stateRewards": ["", 10, 10, -10, -10, -10, -10, 10, 10, 10, -10, 10, -10, -10, -10, 10, 10, -10, -10, 10, 10, -10, 10, -10, -10, -10, 10, -10, -10, 10, 10, -10, 10, -10], "withholdReward": false, "trial_id": "practice_1", "block": "test", "trialIndex": 6, "score": 13.5, "costs": 0, "simulationMode": [null, null, null, null, null], "rewards": [10, 10, -10, -10, 10], "path": ["0", "0", "1", "2", "3", "4", "7"], "rt": [2127, 359, 1000, 860, 33], "actions": ["up", "up", "up", "right", "down"], "actionTimes": [3666, 4529, 6033, 7392, 7919], "queries": {"click": {"state": {"target": [], "time": []}, "edge": {"target": [], "time": []}}, "mouseover": {"state": {"target": [], "time": []}, "edge": {"target": [], "time": []}}, "mouseout": {"state": {"target": ["0", "0"], "time": [1095, 9879]}, "edge": {"target": [], "time": []}}}, "displayed_time": "8.43", "trialTime": 11121, "trial_type": "mouselab-mdp", "trial_index": 22, "time_elapsed": 953396, "internal_node_id": "0.0-2.3-2.3-0.3"}}, {"uniqueid": "w21947348:a97669083", "current_trial": 23, "dateTime": 1691161392391, "trialdata": {"revealed_states": [], "clicked_states": [], "num_clicks_accrued": [0, 0, 0, 0, 0, 0, 0, 0, 0, 0, 0, 0, 0], "stateRewards": ["", 10, 10, -10, 10, 10, -10, 10, 10, 10, -10, -10, 10, -10, -10, 10, -10, 10, -10, 10, 10, -10, -10, -10, 10, 10, 10, -10, 10, 10, 10, -10, 10, 10], "withholdReward": false, "trial_id": "practice_2", "block": "test", "trialIndex": 7, "score": 13.5, "costs": 0, "simulationMode": [null, null, null, null, null], "rewards": [10, -10, -10, 10, 10], "path": ["0", "0", "12", "13", "14", "19", "20"], "rt": [1662, 198, 470, 73, 673], "actions": ["right", "right", "right", "down", "right"], "actionTimes": [58817, 59527, 60497, 61080, 62250], "queries": {"click": {"state": {"target": [], "time": []}, "edge": {"target": [], "time": []}}, "mouseover": {"state": {"target": [], "time": []}, "edge": {"target": [], "time": []}}, "mouseout": {"state": {"target": [], "time": []}, "edge": {"target": [], "time": []}}}, "displayed_time": "62.74", "trialTime": 64678, "trial_type": "mouselab-mdp", "trial_index": 23, "time_elapsed": 1018471, "internal_node_id": "0.0-2.3-2.3-1.3"}}, {"uniqueid": "w21947348:a97669083", "current_trial": 24, "dateTime": 1691161399051, "trialdata": {"view_history": [{"page_index": 0, "viewing_time": 3225}, {"page_index": 1, "viewing_time": 3432}], "rt": 6657, "trial_id": "mouselab_instructions_2_misaligned", "trial_type": "instructions", "trial_index": 24, "time_elapsed": 1025132, "internal_node_id": "0.0-2.3-3.3"}}, {"uniqueid": "w21947348:a97669083", "current_trial": 25, "dateTime": 1691161433076, "trialdata": {"rt": 34021, "response": {"Q0": "The cost for clicking on nodes may vary between nodes.", "Q1": "The better I perform the higher my bonus will be.", "Q2": "No, the amount of cash at each node of the web may be different each time.", "Q3": "To get the highest total score.", "Q4": "Only before moving the spider.", "Q5": "3 seconds"}, "question_order": [0, 1, 2, 3, 4, 5], "correct": {"Q0": "The cost for clicking on nodes may vary between nodes.", "Q1": "The better I perform the higher my bonus will be.", "Q2": "No, the amount of cash at each node of the web may be different each time.", "Q3": "To get the highest total score.", "Q4": "Only before moving the spider.", "Q5": "3 seconds"}, "trial_id": "mouselab_quiz_misaligned", "trial_type": "survey-multi-choice", "trial_index": 25, "time_elapsed": 1059157, "internal_node_id": "0.0-2.3-4.3"}}, {"uniqueid": "w21947348:a97669083", "current_trial": 26, "dateTime": 1691161443580, "trialdata": {"rt": 10495, "stimulus": "\n<h1> Get ready to start the game! </h1>\n\nThank you for reading the instructions. Get ready start with the 40 rounds of this game.\n<br><br>\nIf you need to take a break, feel free to take one after the end of a round, before continuing to the next one.\n<br><br>\nRemember, the more money the spider gets, the bigger your bonus will be!\n<br><br>\n<div style='text-align: center;'>Press <code>space</code> to begin.</div>\n\n<br><br>\n(If, at any point, the <code>space</code> key does not take you to the next page, click once on the text and try again.)", "response": " ", "trial_id": "mdp_ready", "trial_type": "html-keyboard-response", "trial_index": 26, "time_elapsed": 1069661, "internal_node_id": "0.0-4.0-0.0"}}, {"uniqueid": "w21947348:a97669083", "current_trial": 27, "dateTime": 1691161462108, "trialdata": {"revealed_states": [], "clicked_states": [], "num_clicks_accrued": [0, 0, 0, 0, 0, 0, 0, 0, 0, 0, 0, 0, 0], "stateRewards": ["", 2, 3, 6, -5, -74, -53, 17, -12, 46, 44, 18, -2, 4, 1, -8, 22, -23, -49, 9, -45, 55, 81, 1, -1, -7, -16, -83, -71, -45, 2, 51, 82, 61], "withholdReward": false, "trial_id": "mdp_trial_1", "block": "test", "trialIndex": 8, "score": 77, "costs": 0, "simulationMode": [null, null, null, null, null], "rewards": [1, -1, -7, 2, 82], "path": ["0", "0", "23", "24", "25", "30", "32"], "rt": [1233, 144, 196, 695, 182], "actions": ["left", "left", "left", "down", "down"], "actionTimes": [4058, 4720, 5426, 6623, 7308], "queries": {"click": {"state": {"target": [], "time": []}, "edge": {"target": [], "time": []}}, "mouseover": {"state": {"target": [], "time": []}, "edge": {"target": [], "time": []}}, "mouseout": {"state": {"target": ["7", "0"], "time": [2056, 2848]}, "edge": {"target": [], "time": []}}}, "displayed_time": "16.83", "trialTime": 18118, "trial_type": "mouselab-mdp", "trial_index": 27, "time_elapsed": 1088189, "internal_node_id": "0.0-4.0-1.0-0.0"}}, {"uniqueid": "w21947348:a97669083", "current_trial": 28, "dateTime": 1691161480358, "trialdata": {"revealed_states": [], "clicked_states": [], "num_clicks_accrued": [0, 0, 0, 0, 0, 0, 0, 0, 0, 0, 0, 0, 0], "stateRewards": ["", 2, -2, 7, -11, -76, -65, -23, 16, -58, 30, 81, 1, 2, 7, 14, 9, 55, -2, 6, 11, -15, 31, -1, -1, -3, 2, 15, 2, 46, 15, 18, 45, -34], "withholdReward": false, "trial_id": "mdp_trial_2", "block": "test", "trialIndex": 9, "score": -27, "costs": 0, "simulationMode": [null, null, null, null, null], "rewards": [2, -2, 7, -11, -23], "path": ["0", "0", "1", "2", "3", "4", "7"], "rt": [1074, 180, 47, 1302, 111], "actions": ["up", "up", "up", "right", "down"], "actionTimes": [4093, 4783, 5348, 7185, 7812], "queries": {"click": {"state": {"target": [], "time": []}, "edge": {"target": [], "time": []}}, "mouseover": {"state": {"target": [], "time": []}, "edge": {"target": [], "time": []}}, "mouseout": {"state": {"target": [], "time": []}, "edge": {"target": [], "time": []}}}, "displayed_time": "17.02", "trialTime": 17793, "trial_type": "mouselab-mdp", "trial_index": 28, "time_elapsed": 1106438, "internal_node_id": "0.0-4.0-1.0-1.0"}}, {"uniqueid": "w21947348:a97669083", "current_trial": 29, "dateTime": 1691161538258, "trialdata": {"revealed_states": [], "clicked_states": [], "num_clicks_accrued": [0, 0, 0, 0, 0, 0, 0, 0, 0, 0, 0, 0, 0], "stateRewards": ["", 2, 3, -6, -5, -3, 55, 40, 11, 61, 11, 51, 2, -4, -6, 9, -25, 29, -15, -6, 7, -77, -2, -2, -4, 1, 14, -43, -1, 56, -12, -54, 41, -74], "withholdReward": false, "trial_id": "mdp_trial_3", "block": "test", "trialIndex": 10, "score": 65, "costs": 0, "simulationMode": [null, null, null, null, null], "rewards": [-2, -4, 1, 14, 56], "path": ["0", "0", "23", "24", "25", "26", "29"], "rt": [2272, 1975, 1978, 67, 221], "actions": ["left", "left", "left", "up", "left"], "actionTimes": [45173, 47641, 50125, 50699, 51417], "queries": {"click": {"state": {"target": [], "time": []}, "edge": {"target": [], "time": []}}, "mouseover": {"state": {"target": ["0"], "time": [43577]}, "edge": {"target": [], "time": []}}, "mouseout": {"state": {"target": ["0"], "time": [42355]}, "edge": {"target": [], "time": []}}}, "displayed_time": "56.90", "trialTime": 57477, "trial_type": "mouselab-mdp", "trial_index": 29, "time_elapsed": 1164339, "internal_node_id": "0.0-4.0-1.0-2.0"}}, {"uniqueid": "w21947348:a97669083", "current_trial": 30, "dateTime": 1691161557328, "trialdata": {"revealed_states": [], "clicked_states": [], "num_clicks_accrued": [0, 0, 0, 0, 0, 0, 0, 0, 0, 0, 0, 0, 0], "stateRewards": ["", 2, 3, -3, 12, -43, 81, -82, -15, 58, -7, -75, -1, -1, 3, -5, 50, -25, -8, 4, 66, 65, -66, 2, -4, 2, -1, -10, 10, 37, 11, 88, -37, 8], "withholdReward": false, "trial_id": "mdp_trial_4", "block": "test", "trialIndex": 11, "score": -12, "costs": 0, "simulationMode": [null, null, null, null, null], "rewards": [-1, -1, 3, -5, -8], "path": ["0", "0", "12", "13", "14", "15", "18"], "rt": [3611, 713, 302, 104, 1272], "actions": ["right", "right", "right", "up", "left"], "actionTimes": [6803, 8031, 8838, 9460, 11243], "queries": {"click": {"state": {"target": [], "time": []}, "edge": {"target": [], "time": []}}, "mouseover": {"state": {"target": [], "time": []}, "edge": {"target": [], "time": []}}, "mouseout": {"state": {"target": ["0"], "time": [2910]}, "edge": {"target": [], "time": []}}}, "displayed_time": "17.20", "trialTime": 18638, "trial_type": "mouselab-mdp", "trial_index": 30, "time_elapsed": 1183409, "internal_node_id": "0.0-4.0-1.0-3.0"}}, {"uniqueid": "w21947348:a97669083", "current_trial": 31, "dateTime": 1691161578349, "trialdata": {"revealed_states": [], "clicked_states": [], "num_clicks_accrued": [0, 0, 0, 0, 0, 0, 0, 0, 0, 0, 0, 0, 0], "stateRewards": ["", 2, -1, -2, -5, -47, -57, -33, -11, 31, -18, -72, -2, 1, -4, -8, -46, -53, -50, 15, -85, -9, 39, -2, -2, 1, 14, -1, -8, 53, -12, -41, -74, 62], "withholdReward": false, "trial_id": "mdp_trial_5", "block": "test", "trialIndex": 12, "score": -30, "costs": 0, "simulationMode": [null, null, null, null, null], "rewards": [2, -1, -2, -11, -18], "path": ["0", "0", "1", "2", "3", "8", "10"], "rt": [997, 558, 156, 417, 845], "actions": ["up", "up", "up", "left", "down"], "actionTimes": [3020, 4074, 4752, 5666, 7008], "queries": {"click": {"state": {"target": [], "time": []}, "edge": {"target": [], "time": []}}, "mouseover": {"state": {"target": [], "time": []}, "edge": {"target": [], "time": []}}, "mouseout": {"state": {"target": ["0"], "time": [1716]}, "edge": {"target": [], "time": []}}}, "displayed_time": "16.02", "trialTime": 20536, "trial_type": "mouselab-mdp", "trial_index": 31, "time_elapsed": 1204429, "internal_node_id": "0.0-4.0-1.0-4.0"}}, {"uniqueid": "w21947348:a97669083", "current_trial": 32, "dateTime": 1691161596873, "trialdata": {"revealed_states": [], "clicked_states": [], "num_clicks_accrued": [0, 0, 0, 0, 0, 0, 0, 0, 0, 0, 0, 0, 0], "stateRewards": ["", 1, -4, -6, -1, -21, 17, -72, 10, 77, 67, -46, -1, 4, -2, 14, -66, -49, -45, -15, -52, 23, -67, 2, -2, -2, 15, -3, 45, -64, 5, -44, 83, 61], "withholdReward": false, "trial_id": "mdp_trial_6", "block": "test", "trialIndex": 13, "score": -31, "costs": 0, "simulationMode": [null, null, null, null, null], "rewards": [1, -4, -6, -1, -21], "path": ["0", "0", "1", "2", "3", "4", "5"], "rt": [1294, 730, 560, 363, 416], "actions": ["up", "up", "up", "right", "up"], "actionTimes": [2483, 3730, 4809, 5681, 6616], "queries": {"click": {"state": {"target": [], "time": []}, "edge": {"target": [], "time": []}}, "mouseover": {"state": {"target": [], "time": []}, "edge": {"target": [], "time": []}}, "mouseout": {"state": {"target": ["0"], "time": [897]}, "edge": {"target": [], "time": []}}}, "displayed_time": "15.19", "trialTime": 18067, "trial_type": "mouselab-mdp", "trial_index": 32, "time_elapsed": 1222954, "internal_node_id": "0.0-4.0-1.0-5.0"}}, {"uniqueid": "w21947348:a97669083", "current_trial": 33, "dateTime": 1691161616293, "trialdata": {"revealed_states": [], "clicked_states": [], "num_clicks_accrued": [0, 0, 0, 0, 0, 0, 0, 0, 0, 0, 0, 0, 0], "stateRewards": ["", -2, -3, 8, 14, -73, 73, 84, -12, -2, -50, -17, 2, 1, -2, -9, -44, -27, -33, 16, -63, -47, -66, -2, 1, 4, -5, -33, -11, 50, 9, 38, -79, 31], "withholdReward": false, "trial_id": "mdp_trial_7", "block": "test", "trialIndex": 14, "score": 48, "costs": 0, "simulationMode": [null, null, null, null, null], "rewards": [-2, 1, 4, -5, 50], "path": ["0", "0", "23", "24", "25", "26", "29"], "rt": [1100, 202, 255, 2, 547], "actions": ["left", "left", "left", "up", "left"], "actionTimes": [2702, 3415, 4167, 4681, 5772], "queries": {"click": {"state": {"target": [], "time": []}, "edge": {"target": [], "time": []}}, "mouseover": {"state": {"target": [], "time": []}, "edge": {"target": [], "time": []}}, "mouseout": {"state": {"target": ["0"], "time": [1301]}, "edge": {"target": [], "time": []}}}, "displayed_time": "15.60", "trialTime": 18932, "trial_type": "mouselab-mdp", "trial_index": 33, "time_elapsed": 1242374, "internal_node_id": "0.0-4.0-1.0-6.0"}}, {"uniqueid": "w21947348:a97669083", "current_trial": 34, "dateTime": 1691161634186, "trialdata": {"revealed_states": [], "clicked_states": [], "num_clicks_accrued": [0, 0, 0, 0, 0, 0, 0, 0, 0, 0, 0, 0, 0], "stateRewards": ["", -1, 3, 2, 9, 41, 4, -46, -12, -54, -87, -25, 2, 3, -1, 11, -77, 12, -33, -9, -32, 35, 72, 1, 3, -7, 4, 37, 65, -73, 6, 77, -43, 8], "withholdReward": false, "trial_id": "mdp_trial_8", "block": "test", "trialIndex": 15, "score": -18, "costs": 0, "simulationMode": [null, null, null, null, null], "rewards": [2, 3, -1, 11, -33], "path": ["0", "0", "12", "13", "14", "15", "18"], "rt": [1478, 95, 138, 521, 594], "actions": ["right", "right", "right", "up", "left"], "actionTimes": [2503, 3089, 3730, 4765, 5856], "queries": {"click": {"state": {"target": [], "time": []}, "edge": {"target": [], "time": []}}, "mouseover": {"state": {"target": [], "time": []}, "edge": {"target": [], "time": []}}, "mouseout": {"state": {"target": ["0"], "time": [703]}, "edge": {"target": [], "time": []}}}, "displayed_time": "15.03", "trialTime": 17442, "trial_type": "mouselab-mdp", "trial_index": 34, "time_elapsed": 1260267, "internal_node_id": "0.0-4.0-1.0-7.0"}}, {"uniqueid": "w21947348:a97669083", "current_trial": 35, "dateTime": 1691161650036, "trialdata": {"revealed_states": [], "clicked_states": [], "num_clicks_accrued": [0, 0, 0, 0, 0, 0, 0, 0, 0, 0, 0, 0, 0], "stateRewards": ["", 1, 1, -6, -2, 7, 77, 3, 16, -16, 66, 31, -1, 3, -8, -6, 33, -50, -48, 7, -60, -66, 36, 2, -3, 3, -7, -12, -61, -79, -4, 8, 74, -70], "withholdReward": false, "trial_id": "mdp_trial_9", "block": "test", "trialIndex": 16, "score": 72, "costs": 0, "simulationMode": [null, null, null, null, null], "rewards": [2, -3, 3, -4, 74], "path": ["0", "0", "23", "24", "25", "30", "32"], "rt": [3382, 322, 165, 86, 57], "actions": ["left", "left", "left", "down", "down"], "actionTimes": [4128, 4961, 5638, 6224, 6780], "queries": {"click": {"state": {"target": [], "time": []}, "edge": {"target": [], "time": []}}, "mouseover": {"state": {"target": [], "time": []}, "edge": {"target": [], "time": []}}, "mouseout": {"state": {"target": ["0"], "time": [453]}, "edge": {"target": [], "time": []}}}, "displayed_time": "14.75", "trialTime": 15354, "trial_type": "mouselab-mdp", "trial_index": 35, "time_elapsed": 1276116, "internal_node_id": "0.0-4.0-1.0-8.0"}}, {"uniqueid": "w21947348:a97669083", "current_trial": 36, "dateTime": 1691161672487, "trialdata": {"revealed_states": [], "clicked_states": [], "num_clicks_accrued": [0, 0, 0, 0, 0, 0, 0, 0, 0, 0, 0, 0, 0], "stateRewards": ["", -2, -3, 8, -4, -30, 31, 69, 9, 66, 87, 64, -2, 2, 8, 5, 47, 16, -39, -8, -54, 51, -19, 1, -2, -2, -11, -25, -26, 43, -9, 19, -84, 86], "withholdReward": false, "trial_id": "mdp_trial_10", "block": "test", "trialIndex": 17, "score": 60, "costs": 0, "simulationMode": [null, null, null, null, null], "rewards": [-2, 2, 8, 5, 47], "path": ["0", "0", "12", "13", "14", "15", "16"], "rt": [2580, 834, 1417, 4761, 1295], "actions": ["right", "right", "right", "up", "up"], "actionTimes": [7194, 8546, 10464, 15725, 17542], "queries": {"click": {"state": {"target": [], "time": []}, "edge": {"target": [], "time": []}}, "mouseover": {"state": {"target": [], "time": []}, "edge": {"target": [], "time": []}}, "mouseout": {"state": {"target": ["0", "0", "1"], "time": [4211, 12290, 12924]}, "edge": {"target": [], "time": []}}}, "displayed_time": "18.61", "trialTime": 21945, "trial_type": "mouselab-mdp", "trial_index": 36, "time_elapsed": 1298567, "internal_node_id": "0.0-4.0-1.0-9.0"}}, {"uniqueid": "w21947348:a97669083", "current_trial": 37, "dateTime": 1691161690696, "trialdata": {"revealed_states": [], "clicked_states": [], "num_clicks_accrued": [0, 0, 0, 0, 0, 0, 0, 0, 0, 0, 0, 0, 0], "stateRewards": ["", 2, -1, -4, -13, 74, 77, 3, 2, -43, -2, -11, 2, 3, 7, 11, -26, -29, -33, -3, -3, -13, -3, 1, 3, -7, 14, -59, 33, 9, -5, 34, 79, 68], "withholdReward": false, "trial_id": "mdp_trial_11", "block": "test", "trialIndex": 18, "score": 60, "costs": 0, "simulationMode": [null, null, null, null, null], "rewards": [1, 3, -7, -5, 68], "path": ["0", "0", "23", "24", "25", "30", "33"], "rt": [1293, 28, 225, 541, 550], "actions": ["left", "left", "left", "down", "left"], "actionTimes": [3918, 4967, 5700, 6733, 7778], "queries": {"click": {"state": {"target": [], "time": []}, "edge": {"target": [], "time": []}}, "mouseover": {"state": {"target": ["12", "13"], "time": [2649, 2680]}, "edge": {"target": [], "time": []}}, "mouseout": {"state": {"target": ["0", "12", "13"], "time": [2639, 2669, 2707]}, "edge": {"target": [], "time": []}}}, "displayed_time": "16.63", "trialTime": 17769, "trial_type": "mouselab-mdp", "trial_index": 37, "time_elapsed": 1316777, "internal_node_id": "0.0-4.0-1.0-10.0"}}, {"uniqueid": "w21947348:a97669083", "current_trial": 38, "dateTime": 1691161707761, "trialdata": {"revealed_states": [], "clicked_states": [], "num_clicks_accrued": [0, 0, 0, 0, 0, 0, 0, 0, 0, 0, 0, 0, 0], "stateRewards": ["", -1, -1, 4, -16, -75, 81, -51, -7, -84, 73, -30, -2, 1, -3, -16, -77, 33, 14, 1, 45, 87, -66, 2, 2, -5, -7, -19, -17, 79, -3, 8, 49, 47], "withholdReward": false, "trial_id": "mdp_trial_12", "block": "test", "trialIndex": 19, "score": -25, "costs": 0, "simulationMode": [null, null, null, null, null], "rewards": [2, 2, -5, -7, -17], "path": ["0", "0", "23", "24", "25", "26", "28"], "rt": [1593, 2931, 341, 315, 180], "actions": ["left", "left", "left", "up", "right"], "actionTimes": [3325, 6751, 7608, 8417, 9111], "queries": {"click": {"state": {"target": [], "time": []}, "edge": {"target": [], "time": []}}, "mouseover": {"state": {"target": [], "time": []}, "edge": {"target": [], "time": []}}, "mouseout": {"state": {"target": ["14", "13", "12"], "time": [945, 1045, 1146]}, "edge": {"target": [], "time": []}}}, "displayed_time": "15.73", "trialTime": 16510, "trial_type": "mouselab-mdp", "trial_index": 38, "time_elapsed": 1333841, "internal_node_id": "0.0-4.0-1.0-11.0"}}, {"uniqueid": "w21947348:a97669083", "current_trial": 39, "dateTime": 1691161724263, "trialdata": {"revealed_states": [], "clicked_states": [], "num_clicks_accrued": [0, 0, 0, 0, 0, 0, 0, 0, 0, 0, 0, 0, 0], "stateRewards": ["", 2, 3, 8, 11, 25, -80, 6, -4, -56, 84, -23, -2, -4, -3, 4, -51, -9, -61, -15, -64, 67, -35, 1, -1, -7, -6, 83, 59, -15, 12, -79, 56, 41], "withholdReward": false, "trial_id": "mdp_trial_13", "block": "test", "trialIndex": 20, "score": -47, "costs": 0, "simulationMode": [null, null, null, null, null], "rewards": [2, 3, 8, -4, -56], "path": ["0", "0", "1", "2", "3", "8", "9"], "rt": [1996, 191, 314, 203, 3], "actions": ["up", "up", "up", "left", "up"], "actionTimes": [3255, 3952, 6079, 6816, 7322], "queries": {"click": {"state": {"target": [], "time": []}, "edge": {"target": [], "time": []}}, "mouseover": {"state": {"target": [], "time": []}, "edge": {"target": [], "time": []}}, "mouseout": {"state": {"target": ["0"], "time": [976]}, "edge": {"target": [], "time": []}}}, "displayed_time": "15.26", "trialTime": 15975, "trial_type": "mouselab-mdp", "trial_index": 39, "time_elapsed": 1350343, "internal_node_id": "0.0-4.0-1.0-12.0"}}, {"uniqueid": "w21947348:a97669083", "current_trial": 40, "dateTime": 1691161746588, "trialdata": {"revealed_states": [], "clicked_states": [], "num_clicks_accrued": [0, 0, 0, 0, 0, 0, 0, 0, 0, 0, 0, 0, 0], "stateRewards": ["", -1, 3, -7, 16, -32, -74, -48, 2, 10, 15, -30, 1, 1, -2, 10, 12, -83, 67, 13, -66, 47, 65, -2, 4, 2, -14, -8, -57, 24, 9, 65, 12, 46], "withholdReward": false, "trial_id": "mdp_trial_14", "block": "test", "trialIndex": 21, "score": -37, "costs": 0, "simulationMode": [null, null, null, null, null], "rewards": [-1, 3, -7, 16, -48], "path": ["0", "0", "1", "2", "3", "4", "7"], "rt": [1618, 601, 59, 117, 68], "actions": ["up", "up", "up", "right", "down"], "actionTimes": [3357, 4459, 5022, 5676, 6251], "queries": {"click": {"state": {"target": [], "time": []}, "edge": {"target": [], "time": []}}, "mouseover": {"state": {"target": [], "time": []}, "edge": {"target": [], "time": []}}, "mouseout": {"state": {"target": ["0"], "time": [1396]}, "edge": {"target": [], "time": []}}}, "displayed_time": "15.74", "trialTime": 21799, "trial_type": "mouselab-mdp", "trial_index": 40, "time_elapsed": 1372668, "internal_node_id": "0.0-4.0-1.0-13.0"}}, {"uniqueid": "w21947348:a97669083", "current_trial": 41, "dateTime": 1691161767354, "trialdata": {"revealed_states": [], "clicked_states": [], "num_clicks_accrued": [0, 0, 0, 0, 0, 0, 0, 0, 0, 0, 0, 0, 0], "stateRewards": ["", 1, 4, 7, -16, -84, -6, -46, -12, -7, -49, -26, -1, 2, -4, 2, 22, 37, -64, 1, 88, -13, -10, 1, -4, -2, 5, 2, -10, -34, 9, 66, 55, 38], "withholdReward": false, "trial_id": "mdp_trial_15", "block": "test", "trialIndex": 22, "score": -12, "costs": 0, "simulationMode": [null, null, null, null, null], "rewards": [-1, 2, -4, 1, -10], "path": ["0", "0", "12", "13", "14", "19", "22"], "rt": [1210, 206, 42, 640, 145], "actions": ["right", "right", "right", "down", "left"], "actionTimes": [6620, 7344, 7896, 9048, 9700], "queries": {"click": {"state": {"target": [], "time": []}, "edge": {"target": [], "time": []}}, "mouseover": {"state": {"target": [], "time": []}, "edge": {"target": [], "time": []}}, "mouseout": {"state": {"target": ["0"], "time": [4849]}, "edge": {"target": [], "time": []}}}, "displayed_time": "19.41", "trialTime": 20211, "trial_type": "mouselab-mdp", "trial_index": 41, "time_elapsed": 1393435, "internal_node_id": "0.0-4.0-1.0-14.0"}}, {"uniqueid": "w21947348:a97669083", "current_trial": 42, "dateTime": 1691161788834, "trialdata": {"revealed_states": [], "clicked_states": [], "num_clicks_accrued": [0, 0, 0, 0, 0, 0, 0, 0, 0, 0, 0, 0, 0], "stateRewards": ["", 1, 4, -8, -13, -13, -87, -77, -10, -44, 54, 42, 2, -3, -4, 12, -9, -80, 52, 9, 84, -2, -65, 1, -4, -5, -6, 8, 80, 32, 13, -59, -5, -13], "withholdReward": false, "trial_id": "mdp_trial_16", "block": "test", "trialIndex": 23, "score": 0, "costs": 0, "simulationMode": [null, null, null, null, null], "rewards": [1, -4, -5, 13, -5], "path": ["0", "0", "23", "24", "25", "30", "32"], "rt": [3389, 149, 279, 336, 518], "actions": ["left", "left", "left", "down", "down"], "actionTimes": [6421, 7070, 7880, 8742, 9769], "queries": {"click": {"state": {"target": [], "time": []}, "edge": {"target": [], "time": []}}, "mouseover": {"state": {"target": [], "time": []}, "edge": {"target": [], "time": []}}, "mouseout": {"state": {"target": ["0"], "time": [2475]}, "edge": {"target": [], "time": []}}}, "displayed_time": "17.03", "trialTime": 20957, "trial_type": "mouselab-mdp", "trial_index": 42, "time_elapsed": 1414914, "internal_node_id": "0.0-4.0-1.0-15.0"}}, {"uniqueid": "w21947348:a97669083", "current_trial": 43, "dateTime": 1691161807443, "trialdata": {"revealed_states": [], "clicked_states": [], "num_clicks_accrued": [0, 0, 0, 0, 0, 0, 0, 0, 0, 0, 0, 0, 0], "stateRewards": ["", -2, 4, -5, -12, 85, -24, -18, -15, -78, -22, 26, -1, -1, 2, 14, -45, 52, -23, 7, -33, 24, -6, -2, -4, 5, -7, -16, 36, -39, 5, 71, -87, -23], "withholdReward": false, "trial_id": "mdp_trial_17", "block": "test", "trialIndex": 24, "score": 66, "costs": 0, "simulationMode": [null, null, null, null, null], "rewards": [-1, -1, 2, 14, 52], "path": ["0", "0", "12", "13", "14", "15", "17"], "rt": [2039, 525, 228, 728, 213], "actions": ["right", "right", "right", "up", "right"], "actionTimes": [4192, 6154, 6895, 8120, 8837], "queries": {"click": {"state": {"target": [], "time": []}, "edge": {"target": [], "time": []}}, "mouseover": {"state": {"target": [], "time": []}, "edge": {"target": [], "time": []}}, "mouseout": {"state": {"target": [], "time": []}, "edge": {"target": [], "time": []}}}, "displayed_time": "16.15", "trialTime": 18123, "trial_type": "mouselab-mdp", "trial_index": 43, "time_elapsed": 1433523, "internal_node_id": "0.0-4.0-1.0-16.0"}}, {"uniqueid": "w21947348:a97669083", "current_trial": 44, "dateTime": 1691161827858, "trialdata": {"revealed_states": [], "clicked_states": [], "num_clicks_accrued": [0, 0, 0, 0, 0, 0, 0, 0, 0, 0, 0, 0, 0], "stateRewards": ["", -1, 3, 1, -7, 56, 76, 57, 3, 11, -9, 14, 1, -2, 2, 8, -77, -3, 79, -5, 88, 24, -66, -2, -1, 7, -7, -30, 14, -76, 11, -36, 28, -6], "withholdReward": false, "trial_id": "mdp_trial_18", "block": "test", "trialIndex": 25, "score": 20, "costs": 0, "simulationMode": [null, null, null, null, null], "rewards": [1, -2, 2, -5, 24], "path": ["0", "0", "12", "13", "14", "19", "21"], "rt": [1629, 209, 125, 89, 107], "actions": ["right", "right", "right", "down", "down"], "actionTimes": [4110, 4813, 5459, 6046, 6661], "queries": {"click": {"state": {"target": [], "time": []}, "edge": {"target": [], "time": []}}, "mouseover": {"state": {"target": [], "time": []}, "edge": {"target": [], "time": []}}, "mouseout": {"state": {"target": [], "time": []}, "edge": {"target": [], "time": []}}}, "displayed_time": "16.48", "trialTime": 19819, "trial_type": "mouselab-mdp", "trial_index": 44, "time_elapsed": 1453938, "internal_node_id": "0.0-4.0-1.0-17.0"}}, {"uniqueid": "w21947348:a97669083", "current_trial": 45, "dateTime": 1691161848434, "trialdata": {"revealed_states": [], "clicked_states": [], "num_clicks_accrued": [0, 0, 0, 0, 0, 0, 0, 0, 0, 0, 0, 0, 0], "stateRewards": ["", 1, 1, 6, -14, -40, 37, 16, -13, 33, -68, 49, 2, 4, 3, 6, 55, 27, 32, 10, -65, 20, -87, 2, 1, -6, -5, -42, 12, 29, -8, 16, 76, -33], "withholdReward": false, "trial_id": "mdp_trial_19", "block": "test", "trialIndex": 26, "score": -46, "costs": 0, "simulationMode": [null, null, null, null, null], "rewards": [2, 4, 3, 10, -65], "path": ["0", "0", "12", "13", "14", "19", "20"], "rt": [1417, 171, 78, 535, 89], "actions": ["right", "right", "right", "down", "right"], "actionTimes": [5419, 6224, 9760, 12073, 12659], "queries": {"click": {"state": {"target": [], "time": []}, "edge": {"target": [], "time": []}}, "mouseover": {"state": {"target": [], "time": []}, "edge": {"target": [], "time": []}}, "mouseout": {"state": {"target": [], "time": []}, "edge": {"target": [], "time": []}}}, "displayed_time": "18.00", "trialTime": 20011, "trial_type": "mouselab-mdp", "trial_index": 45, "time_elapsed": 1474514, "internal_node_id": "0.0-4.0-1.0-18.0"}}, {"uniqueid": "w21947348:a97669083", "current_trial": 46, "dateTime": 1691161870091, "trialdata": {"revealed_states": [], "clicked_states": [], "num_clicks_accrued": [0, 0, 0, 0, 0, 0, 0, 0, 0, 0, 0, 0, 0], "stateRewards": ["", 2, 4, -5, 7, 81, 35, 6, 11, 14, -72, 42, -1, 2, 3, -7, -77, -44, -40, -15, -85, 51, -32, -2, -1, -5, 7, -74, 47, 52, 16, -49, 48, -46], "withholdReward": false, "trial_id": "mdp_trial_20", "block": "test", "trialIndex": 27, "score": 56, "costs": 0, "simulationMode": [null, null, null, null, null], "rewards": [-2, -1, -5, 16, 48], "path": ["0", "0", "23", "24", "25", "30", "32"], "rt": [2465, 377, 37, 568, 592], "actions": ["left", "left", "left", "down", "down"], "actionTimes": [6128, 7015, 7554, 8654, 9764], "queries": {"click": {"state": {"target": [], "time": []}, "edge": {"target": [], "time": []}}, "mouseover": {"state": {"target": [], "time": []}, "edge": {"target": [], "time": []}}, "mouseout": {"state": {"target": [], "time": []}, "edge": {"target": [], "time": []}}}, "displayed_time": "17.66", "trialTime": 21105, "trial_type": "mouselab-mdp", "trial_index": 46, "time_elapsed": 1496172, "internal_node_id": "0.0-4.0-1.0-19.0"}}, {"uniqueid": "w21947348:a97669083", "current_trial": 47, "dateTime": 1691161901291, "trialdata": {"revealed_states": [], "clicked_states": [], "num_clicks_accrued": [0, 0, 0, 0, 0, 0, 0, 0, 0, 0, 0, 0, 0], "stateRewards": ["", 1, 2, -6, -13, -51, 22, -4, -12, -44, -12, 6, -2, -2, -2, -14, -46, -4, -77, -2, 36, -79, 41, 2, -4, 2, -6, -55, 59, 70, -5, 39, -19, 24], "withholdReward": false, "trial_id": "mdp_trial_21", "block": "test", "trialIndex": 28, "score": -9, "costs": 0, "simulationMode": [null, null, null, null, null], "rewards": [1, 2, -6, -12, 6], "path": ["0", "0", "1", "2", "3", "8", "11"], "rt": [958, 368, 590, 14, 478], "actions": ["up", "up", "up", "left", "left"], "actionTimes": [13637, 14522, 15609, 16119, 17133], "queries": {"click": {"state": {"target": [], "time": []}, "edge": {"target": [], "time": []}}, "mouseover": {"state": {"target": [], "time": []}, "edge": {"target": [], "time": []}}, "mouseout": {"state": {"target": [], "time": []}, "edge": {"target": [], "time": []}}}, "displayed_time": "26.68", "trialTime": 30606, "trial_type": "mouselab-mdp", "trial_index": 47, "time_elapsed": 1527371, "internal_node_id": "0.0-4.0-1.0-20.0"}}, {"uniqueid": "w21947348:a97669083", "current_trial": 48, "dateTime": 1691161984329, "trialdata": {"revealed_states": [], "clicked_states": [], "num_clicks_accrued": [0, 0, 0, 0, 0, 0, 0, 0, 0, 0, 0, 0, 0], "stateRewards": ["", 1, 3, 3, -10, 52, 68, 59, 12, 7, 49, 21, -2, -3, -4, -2, -2, 63, 63, -4, 44, 43, -76, -2, -3, -6, 13, 48, 36, 12, -5, -36, -33, -11], "withholdReward": false, "trial_id": "mdp_trial_22", "block": "test", "trialIndex": 29, "score": 52, "costs": 0, "simulationMode": [null, null, null, null, null], "rewards": [-2, -3, -4, -2, 63], "path": ["0", "0", "12", "13", "14", "15", "18"], "rt": [1680, 432, 135, 115, 470], "actions": ["right", "right", "right", "up", "left"], "actionTimes": [68643, 69605, 70256, 70869, 71862], "queries": {"click": {"state": {"target": [], "time": []}, "edge": {"target": [], "time": []}}, "mouseover": {"state": {"target": [], "time": []}, "edge": {"target": [], "time": []}}, "mouseout": {"state": {"target": [], "time": []}, "edge": {"target": [], "time": []}}}, "displayed_time": "81.97", "trialTime": 82457, "trial_type": "mouselab-mdp", "trial_index": 48, "time_elapsed": 1610410, "internal_node_id": "0.0-4.0-1.0-21.0"}}, {"uniqueid": "w21947348:a97669083", "current_trial": 49, "dateTime": 1691162027507, "trialdata": {"revealed_states": [], "clicked_states": [], "num_clicks_accrued": [0, 0, 0, 0, 0, 0, 0, 0, 0, 0, 0, 0, 0], "stateRewards": ["", 2, 4, -6, -13, -75, -81, 30, 7, 5, 59, -65, -1, -1, 7, 14, -38, 36, -41, 1, -54, -5, 64, 2, -1, 5, 6, -19, 79, 11, 16, -33, -50, 58], "withholdReward": false, "trial_id": "mdp_trial_23", "block": "test", "trialIndex": 30, "score": -7, "costs": 0, "simulationMode": [null, null, null, null, null], "rewards": [2, -1, 5, 6, -19], "path": ["0", "0", "23", "24", "25", "26", "27"], "rt": [1827, 468, 77, 118, 520], "actions": ["left", "left", "left", "up", "up"], "actionTimes": [25188, 26170, 26747, 27392, 28407], "queries": {"click": {"state": {"target": [], "time": []}, "edge": {"target": [], "time": []}}, "mouseover": {"state": {"target": [], "time": []}, "edge": {"target": [], "time": []}}, "mouseout": {"state": {"target": [], "time": []}, "edge": {"target": [], "time": []}}}, "displayed_time": "37.36", "trialTime": 42600, "trial_type": "mouselab-mdp", "trial_index": 49, "time_elapsed": 1653587, "internal_node_id": "0.0-4.0-1.0-22.0"}}, {"uniqueid": "w21947348:a97669083", "current_trial": 50, "dateTime": 1691162047848, "trialdata": {"revealed_states": [], "clicked_states": [], "num_clicks_accrued": [0, 0, 0, 0, 0, 0, 0, 0, 0, 0, 0, 0, 0], "stateRewards": ["", -2, -4, -2, 10, -8, -15, -47, 7, -84, 53, 5, -1, 2, -7, 3, 83, 31, 47, -1, 30, -8, 69, 2, -4, -1, 8, -7, 12, -8, -8, -13, 30, -84], "withholdReward": false, "trial_id": "mdp_trial_24", "block": "test", "trialIndex": 31, "score": -15, "costs": 0, "simulationMode": [null, null, null, null, null], "rewards": [-1, 2, -7, -1, -8], "path": ["0", "0", "12", "13", "14", "19", "21"], "rt": [4121, 221, 14, 51, 568], "actions": ["right", "right", "right", "down", "down"], "actionTimes": [5192, 5924, 6434, 7021, 8123], "queries": {"click": {"state": {"target": [], "time": []}, "edge": {"target": [], "time": []}}, "mouseover": {"state": {"target": [], "time": []}, "edge": {"target": [], "time": []}}, "mouseout": {"state": {"target": [], "time": []}, "edge": {"target": [], "time": []}}}, "displayed_time": "15.07", "trialTime": 19791, "trial_type": "mouselab-mdp", "trial_index": 50, "time_elapsed": 1673929, "internal_node_id": "0.0-4.0-1.0-23.0"}}, {"uniqueid": "w21947348:a97669083", "current_trial": 51, "dateTime": 1691162064377, "trialdata": {"revealed_states": [], "clicked_states": [], "num_clicks_accrued": [0, 0, 0, 0, 0, 0, 0, 0, 0, 0, 0, 0, 0], "stateRewards": ["", 1, -2, 7, -14, 88, -56, -44, -14, 64, -51, -57, -2, 3, -4, -9, -11, 19, -77, -1, 68, 75, -67, -1, 1, -2, 5, -37, 70, -34, -10, -72, 63, -41], "withholdReward": false, "trial_id": "mdp_trial_25", "block": "test", "trialIndex": 32, "score": -64, "costs": 0, "simulationMode": [null, null, null, null, null], "rewards": [1, -2, 7, -14, -56], "path": ["0", "0", "1", "2", "3", "4", "6"], "rt": [2375, 2201, 176, 128, 377], "actions": ["up", "up", "up", "right", "right"], "actionTimes": [3126, 5846, 6517, 7166, 8068], "queries": {"click": {"state": {"target": [], "time": []}, "edge": {"target": [], "time": []}}, "mouseover": {"state": {"target": [], "time": []}, "edge": {"target": [], "time": []}}, "mouseout": {"state": {"target": [], "time": []}, "edge": {"target": [], "time": []}}}, "displayed_time": "14.75", "trialTime": 15908, "trial_type": "mouselab-mdp", "trial_index": 51, "time_elapsed": 1690457, "internal_node_id": "0.0-4.0-1.0-24.0"}}, {"uniqueid": "w21947348:a97669083", "current_trial": 52, "dateTime": 1691162096781, "trialdata": {"revealed_states": [], "clicked_states": [], "num_clicks_accrued": [0, 0, 0, 0, 0, 0, 0, 0, 0, 0, 0, 0, 0], "stateRewards": ["", 1, -2, 4, 7, -43, -83, -60, -5, -86, -80, 83, -1, -2, 6, 11, -15, 21, 13, 9, 29, -49, 11, -1, 4, -6, -11, 87, 40, 63, -8, -39, -11, 62], "withholdReward": false, "trial_id": "mdp_trial_26", "block": "test", "trialIndex": 33, "score": 26, "costs": 0, "simulationMode": [null, null, null, null, null], "rewards": [-1, 4, -6, -11, 40], "path": ["0", "0", "23", "24", "25", "26", "28"], "rt": [1629, 564, 122, 8, 179], "actions": ["left", "left", "left", "up", "right"], "actionTimes": [7032, 8971, 9604, 10123, 10828], "queries": {"click": {"state": {"target": [], "time": []}, "edge": {"target": [], "time": []}}, "mouseover": {"state": {"target": [], "time": []}, "edge": {"target": [], "time": []}}, "mouseout": {"state": {"target": [], "time": []}, "edge": {"target": [], "time": []}}}, "displayed_time": "19.41", "trialTime": 31771, "trial_type": "mouselab-mdp", "trial_index": 52, "time_elapsed": 1722861, "internal_node_id": "0.0-4.0-1.0-25.0"}}, {"uniqueid": "w21947348:a97669083", "current_trial": 53, "dateTime": 1691162112963, "trialdata": {"revealed_states": [], "clicked_states": [], "num_clicks_accrued": [0, 0, 0, 0, 0, 0, 0, 0, 0, 0, 0, 0, 0], "stateRewards": ["", 2, 4, -3, 16, -58, 30, -35, 11, -60, 47, 27, -2, -1, -7, -16, 23, -70, 68, -10, -65, -43, -34, -2, 1, 7, 9, -63, 34, -31, -8, -12, -86, 59], "withholdReward": false, "trial_id": "mdp_trial_27", "block": "test", "trialIndex": 34, "score": -54, "costs": 0, "simulationMode": [null, null, null, null, null], "rewards": [-2, -1, -7, -10, -34], "path": ["0", "0", "12", "13", "14", "19", "22"], "rt": [1396, 281, 28, 529, 42], "actions": ["right", "right", "right", "down", "left"], "actionTimes": [2234, 3022, 3565, 4604, 5149], "queries": {"click": {"state": {"target": [], "time": []}, "edge": {"target": [], "time": []}}, "mouseover": {"state": {"target": [], "time": []}, "edge": {"target": [], "time": []}}, "mouseout": {"state": {"target": [], "time": []}, "edge": {"target": [], "time": []}}}, "displayed_time": "14.84", "trialTime": 15482, "trial_type": "mouselab-mdp", "trial_index": 53, "time_elapsed": 1739043, "internal_node_id": "0.0-4.0-1.0-26.0"}}, {"uniqueid": "w21947348:a97669083", "current_trial": 54, "dateTime": 1691162132157, "trialdata": {"revealed_states": [], "clicked_states": [], "num_clicks_accrued": [0, 0, 0, 0, 0, 0, 0, 0, 0, 0, 0, 0, 0], "stateRewards": ["", 2, -3, -4, -1, 25, -16, 16, 10, -71, -20, -55, 1, 3, -4, -9, 1, 32, 11, -6, 32, -50, -41, -1, 4, 4, -8, 7, -81, 70, 2, -52, 45, -10], "withholdReward": false, "trial_id": "mdp_trial_28", "block": "test", "trialIndex": 35, "score": -43, "costs": 0, "simulationMode": [null, null, null, null, null], "rewards": [-1, 4, 4, 2, -52], "path": ["0", "0", "23", "24", "25", "30", "31"], "rt": [1558, 27, 264, 376, 183], "actions": ["left", "left", "left", "down", "right"], "actionTimes": [5227, 5752, 6538, 7418, 8123], "queries": {"click": {"state": {"target": [], "time": []}, "edge": {"target": [], "time": []}}, "mouseover": {"state": {"target": [], "time": []}, "edge": {"target": [], "time": []}}, "mouseout": {"state": {"target": ["0"], "time": [2364]}, "edge": {"target": [], "time": []}}}, "displayed_time": "17.67", "trialTime": 18561, "trial_type": "mouselab-mdp", "trial_index": 54, "time_elapsed": 1758237, "internal_node_id": "0.0-4.0-1.0-27.0"}}, {"uniqueid": "w21947348:a97669083", "current_trial": 55, "dateTime": 1691162154649, "trialdata": {"revealed_states": [], "clicked_states": [], "num_clicks_accrued": [0, 0, 0, 0, 0, 0, 0, 0, 0, 0, 0, 0, 0], "stateRewards": ["", -2, -3, -7, 7, -54, -69, -4, -14, -77, 22, 40, -2, -1, 5, 6, -35, 50, -60, 10, -28, 75, 57, 1, -4, -2, 2, 68, 34, -18, 12, 3, -21, -43], "withholdReward": false, "trial_id": "mdp_trial_29", "block": "test", "trialIndex": 36, "score": -16, "costs": 0, "simulationMode": [null, null, null, null, null], "rewards": [-2, -1, 5, 10, -28], "path": ["0", "0", "12", "13", "14", "19", "20"], "rt": [1158, 557, 363, 1230, 97], "actions": ["right", "right", "right", "down", "right"], "actionTimes": [3408, 4504, 5380, 7133, 7727], "queries": {"click": {"state": {"target": [], "time": []}, "edge": {"target": [], "time": []}}, "mouseover": {"state": {"target": [], "time": []}, "edge": {"target": [], "time": []}}, "mouseout": {"state": {"target": [], "time": []}, "edge": {"target": [], "time": []}}}, "displayed_time": "16.25", "trialTime": 21897, "trial_type": "mouselab-mdp", "trial_index": 55, "time_elapsed": 1780729, "internal_node_id": "0.0-4.0-1.0-28.0"}}, {"uniqueid": "w21947348:a97669083", "current_trial": 56, "dateTime": 1691162182430, "trialdata": {"revealed_states": [], "clicked_states": [], "num_clicks_accrued": [0, 0, 0, 0, 0, 0, 0, 0, 0, 0, 0, 0, 0], "stateRewards": ["", 1, 1, -5, 8, -6, 45, 16, -6, -7, -22, -38, -1, -4, 8, -11, -16, 21, -45, -15, -59, -32, 42, -1, 3, 6, 11, -7, 34, -27, -8, 85, 43, -9], "withholdReward": false, "trial_id": "mdp_trial_30", "block": "test", "trialIndex": 37, "score": -31, "costs": 0, "simulationMode": [null, null, null, null, null], "rewards": [1, 1, -5, -6, -22], "path": ["0", "0", "1", "2", "3", "8", "10"], "rt": [1127, 593, 284, 4, 70], "actions": ["up", "up", "up", "left", "down"], "actionTimes": [7452, 10143, 10931, 11449, 12080], "queries": {"click": {"state": {"target": [], "time": []}, "edge": {"target": [], "time": []}}, "mouseover": {"state": {"target": [], "time": []}, "edge": {"target": [], "time": []}}, "mouseout": {"state": {"target": [], "time": []}, "edge": {"target": [], "time": []}}}, "displayed_time": "20.33", "trialTime": 27224, "trial_type": "mouselab-mdp", "trial_index": 56, "time_elapsed": 1808510, "internal_node_id": "0.0-4.0-1.0-29.0"}}, {"uniqueid": "w21947348:a97669083", "current_trial": 57, "dateTime": 1691162200385, "trialdata": {"revealed_states": [], "clicked_states": [], "num_clicks_accrued": [0, 0, 0, 0, 0, 0, 0, 0, 0, 0, 0, 0, 0], "stateRewards": ["", 2, -3, 5, -14, -63, -9, -24, -11, -54, -43, 68, 2, -2, -4, 7, -64, 30, 47, 12, -74, 11, 86, 1, -3, 3, 10, -71, -42, -52, -1, -29, -16, 69], "withholdReward": false, "trial_id": "mdp_trial_31", "block": "test", "trialIndex": 38, "score": -31, "costs": 0, "simulationMode": [null, null, null, null, null], "rewards": [1, -3, 3, 10, -42], "path": ["0", "0", "23", "24", "25", "26", "28"], "rt": [1200, 16, 621, 18, 956], "actions": ["left", "left", "left", "up", "right"], "actionTimes": [3499, 4111, 5279, 5804, 7284], "queries": {"click": {"state": {"target": [], "time": []}, "edge": {"target": [], "time": []}}, "mouseover": {"state": {"target": [], "time": []}, "edge": {"target": [], "time": []}}, "mouseout": {"state": {"target": [], "time": []}, "edge": {"target": [], "time": []}}}, "displayed_time": "16.30", "trialTime": 17316, "trial_type": "mouselab-mdp", "trial_index": 57, "time_elapsed": 1826466, "internal_node_id": "0.0-4.0-1.0-30.0"}}, {"uniqueid": "w21947348:a97669083", "current_trial": 58, "dateTime": 1691162223241, "trialdata": {"revealed_states": [], "clicked_states": [], "num_clicks_accrued": [0, 0, 0, 0, 0, 0, 0, 0, 0, 0, 0, 0, 0], "stateRewards": ["", -1, 1, 6, -6, 70, 66, 67, -16, -75, -35, 37, -1, 4, 4, -6, 47, -9, 63, 15, 21, -63, 13, 1, 3, -6, 10, 79, -29, 18, -15, 9, -67, -19], "withholdReward": false, "trial_id": "mdp_trial_32", "block": "test", "trialIndex": 39, "score": 48, "costs": 0, "simulationMode": [null, null, null, null, null], "rewards": [-1, 4, 4, -6, 47], "path": ["0", "0", "12", "13", "14", "15", "16"], "rt": [1453, 13, 240, 387, 4], "actions": ["right", "right", "right", "up", "up"], "actionTimes": [8031, 8538, 9312, 10197, 10696], "queries": {"click": {"state": {"target": [], "time": []}, "edge": {"target": [], "time": []}}, "mouseover": {"state": {"target": [], "time": []}, "edge": {"target": [], "time": []}}, "mouseout": {"state": {"target": ["0"], "time": [7523]}, "edge": {"target": [], "time": []}}}, "displayed_time": "20.58", "trialTime": 22254, "trial_type": "mouselab-mdp", "trial_index": 58, "time_elapsed": 1849322, "internal_node_id": "0.0-4.0-1.0-31.0"}}, {"uniqueid": "w21947348:a97669083", "current_trial": 59, "dateTime": 1691162239541, "trialdata": {"revealed_states": [], "clicked_states": [], "num_clicks_accrued": [0, 0, 0, 0, 0, 0, 0, 0, 0, 0, 0, 0, 0], "stateRewards": ["", 2, 1, -3, 7, 46, 11, -36, 16, 71, 5, 1, 2, -2, -8, -3, -4, 6, 55, 7, 68, -54, 2, 1, 1, 6, -6, 42, -4, -84, -11, -65, 63, 25], "withholdReward": false, "trial_id": "mdp_trial_33", "block": "test", "trialIndex": 40, "score": -2, "costs": 0, "simulationMode": [null, null, null, null, null], "rewards": [1, 1, 6, -6, -4], "path": ["0", "0", "23", "24", "25", "26", "28"], "rt": [1354, 62, 186, 305, 501], "actions": ["left", "left", "left", "up", "right"], "actionTimes": [1996, 2583, 3304, 4109, 5102], "queries": {"click": {"state": {"target": [], "time": []}, "edge": {"target": [], "time": []}}, "mouseover": {"state": {"target": [], "time": []}, "edge": {"target": [], "time": []}}, "mouseout": {"state": {"target": ["0"], "time": [285]}, "edge": {"target": [], "time": []}}}, "displayed_time": "14.64", "trialTime": 15732, "trial_type": "mouselab-mdp", "trial_index": 59, "time_elapsed": 1865622, "internal_node_id": "0.0-4.0-1.0-32.0"}}, {"uniqueid": "w21947348:a97669083", "current_trial": 60, "dateTime": 1691162256018, "trialdata": {"revealed_states": [], "clicked_states": [], "num_clicks_accrued": [0, 0, 0, 0, 0, 0, 0, 0, 0, 0, 0, 0, 0], "stateRewards": ["", 1, 3, -2, 15, 51, 15, -19, 11, 67, -45, -73, 2, 4, -2, -13, 36, 9, -28, 10, -30, 31, 16, 1, 2, -1, -16, 14, -22, 36, -1, 88, -5, 45], "withholdReward": false, "trial_id": "mdp_trial_34", "block": "test", "trialIndex": 41, "score": -4, "costs": 0, "simulationMode": [null, null, null, null, null], "rewards": [1, 2, -1, -1, -5], "path": ["0", "0", "23", "24", "25", "30", "32"], "rt": [5136, 108, 357, 674, 93], "actions": ["left", "left", "left", "down", "down"], "actionTimes": [5745, 6358, 7212, 8845, 9500], "queries": {"click": {"state": {"target": [], "time": []}, "edge": {"target": [], "time": []}}, "mouseover": {"state": {"target": ["0"], "time": [4850]}, "edge": {"target": [], "time": []}}, "mouseout": {"state": {"target": ["0"], "time": [267]}, "edge": {"target": [], "time": []}}}, "displayed_time": "14.61", "trialTime": 15814, "trial_type": "mouselab-mdp", "trial_index": 60, "time_elapsed": 1882098, "internal_node_id": "0.0-4.0-1.0-33.0"}}, {"uniqueid": "w21947348:a97669083", "current_trial": 61, "dateTime": 1691162274251, "trialdata": {"revealed_states": [], "clicked_states": [], "num_clicks_accrued": [0, 0, 0, 0, 0, 0, 0, 0, 0, 0, 0, 0, 0], "stateRewards": ["", -1, -4, -3, 1, -45, -67, -24, 14, 32, 22, 22, -1, 1, -5, -7, 72, 84, -79, -5, 19, -40, -2, -1, -2, 8, -3, 84, -25, -28, 11, 64, -66, 77], "withholdReward": false, "trial_id": "mdp_trial_35", "block": "test", "trialIndex": 42, "score": 93, "costs": 0, "simulationMode": [null, null, null, null, null], "rewards": [-1, -2, 8, 11, 77], "path": ["0", "0", "23", "24", "25", "30", "33"], "rt": [1709, 33, 161, 596, 106], "actions": ["left", "left", "left", "down", "left"], "actionTimes": [2774, 3301, 3978, 5083, 5708], "queries": {"click": {"state": {"target": [], "time": []}, "edge": {"target": [], "time": []}}, "mouseover": {"state": {"target": [], "time": []}, "edge": {"target": [], "time": []}}, "mouseout": {"state": {"target": [], "time": []}, "edge": {"target": [], "time": []}}}, "displayed_time": "15.07", "trialTime": 17461, "trial_type": "mouselab-mdp", "trial_index": 61, "time_elapsed": 1900332, "internal_node_id": "0.0-4.0-1.0-34.0"}}, {"uniqueid": "w21947348:a97669083", "current_trial": 62, "dateTime": 1691162302387, "trialdata": {"revealed_states": [], "clicked_states": [], "num_clicks_accrued": [0, 0, 0, 0, 0, 0, 0, 0, 0, 0, 0, 0, 0], "stateRewards": ["", -1, -3, -6, 14, 41, 18, 63, -14, 80, 21, 17, -2, -4, -2, -5, 13, 70, 8, -4, -64, -10, -20, 2, -1, 4, -1, -17, -55, 42, -7, 47, 54, 15], "withholdReward": false, "trial_id": "mdp_trial_36", "block": "test", "trialIndex": 43, "score": -3, "costs": 0, "simulationMode": [null, null, null, null, null], "rewards": [-1, -3, -6, -14, 21], "path": ["0", "0", "1", "2", "3", "8", "10"], "rt": [1663, 68, 5736, 598, 601], "actions": ["up", "up", "up", "left", "down"], "actionTimes": [6450, 7036, 13289, 14399, 15499], "queries": {"click": {"state": {"target": [], "time": []}, "edge": {"target": [], "time": []}}, "mouseover": {"state": {"target": [], "time": []}, "edge": {"target": [], "time": []}}, "mouseout": {"state": {"target": ["0"], "time": [530]}, "edge": {"target": [], "time": []}}}, "displayed_time": "18.79", "trialTime": 27451, "trial_type": "mouselab-mdp", "trial_index": 62, "time_elapsed": 1928467, "internal_node_id": "0.0-4.0-1.0-35.0"}}, {"uniqueid": "w21947348:a97669083", "current_trial": 63, "dateTime": 1691162346989, "trialdata": {"revealed_states": [], "clicked_states": [], "num_clicks_accrued": [0, 0, 0, 0, 0, 0, 0, 0, 0, 0, 0, 0, 0], "stateRewards": ["", 1, 2, -8, 9, 18, -83, -11, 6, -64, -48, 17, -2, -2, -5, -3, -24, -3, -86, -2, 48, -41, -22, -2, 4, 7, 8, 81, 13, -48, 10, 61, 19, 57], "withholdReward": false, "trial_id": "mdp_trial_37", "block": "test", "trialIndex": 44, "score": -4, "costs": 0, "simulationMode": [null, null, null, null, null, null, null, null, null, null, null], "rewards": [1, 1, 2, 2, -8, 9, -11], "path": ["0", "0", "1", "1", "2", "2", "3", "4", "7"], "rt": [1965, 1897, 3560, 960, 338, 602, 107, 2771, 2288, 63, 280], "actions": ["up", "up", "up", "up", "up", "up", "up", "up", "up", "right", "down"], "actionTimes": [1897, 1899, 5462, 8499, 8501, 9105, 9108, 11883, 11885, 12462, 13907], "queries": {"click": {"state": {"target": [], "time": []}, "edge": {"target": [], "time": []}}, "mouseover": {"state": {"target": [], "time": []}, "edge": {"target": [], "time": []}}, "mouseout": {"state": {"target": ["0"], "time": [84]}, "edge": {"target": [], "time": []}}}, "displayed_time": "14.43", "trialTime": 43162, "trial_type": "mouselab-mdp", "trial_index": 63, "time_elapsed": 1973069, "internal_node_id": "0.0-4.0-1.0-36.0"}}, {"uniqueid": "w21947348:a97669083", "current_trial": 64, "dateTime": 1691162371913, "trialdata": {"revealed_states": [], "clicked_states": [], "num_clicks_accrued": [0, 0, 0, 0, 0, 0, 0, 0, 0, 0, 0, 0, 0], "stateRewards": ["", -2, -3, -3, 9, 79, 67, 22, -15, -56, 27, -85, -2, 4, -4, -15, -20, -32, 60, 15, 71, 57, 17, 1, 2, -8, 15, -37, -81, 82, 15, 21, -3, 2], "withholdReward": false, "trial_id": "mdp_trial_38", "block": "test", "trialIndex": 45, "score": 30, "costs": 0, "simulationMode": [null, null, null, null, null], "rewards": [-2, 4, -4, 15, 17], "path": ["0", "0", "12", "13", "14", "19", "22"], "rt": [2606, 571, 403, 1091, 123], "actions": ["right", "right", "right", "down", "left"], "actionTimes": [9320, 10515, 11509, 14246, 14863], "queries": {"click": {"state": {"target": [], "time": []}, "edge": {"target": [], "time": []}}, "mouseover": {"state": {"target": [], "time": []}, "edge": {"target": [], "time": []}}, "mouseout": {"state": {"target": ["1"], "time": [5778]}, "edge": {"target": [], "time": []}}}, "displayed_time": "20.72", "trialTime": 21669, "trial_type": "mouselab-mdp", "trial_index": 64, "time_elapsed": 1997994, "internal_node_id": "0.0-4.0-1.0-37.0"}}, {"uniqueid": "w21947348:a97669083", "current_trial": 65, "dateTime": 1691162393634, "trialdata": {"revealed_states": [], "clicked_states": [], "num_clicks_accrued": [0, 0, 0, 0, 0, 0, 0, 0, 0, 0, 0, 0, 0], "stateRewards": ["", -2, 3, 8, -9, 59, 41, -50, -1, 82, 66, 33, 2, -2, 7, 8, 1, -38, 12, -16, 24, -37, 67, 1, 4, -2, 5, 35, -83, 28, 8, -27, 69, -64], "withholdReward": false, "trial_id": "mdp_trial_39", "block": "test", "trialIndex": 46, "score": -16, "costs": 0, "simulationMode": [null, null, null, null, null], "rewards": [1, 4, -2, 8, -27], "path": ["0", "0", "23", "24", "25", "30", "31"], "rt": [1602, 146, 38, 546, 330], "actions": ["left", "left", "left", "down", "right"], "actionTimes": [7730, 8389, 8946, 10020, 10859], "queries": {"click": {"state": {"target": [], "time": []}, "edge": {"target": [], "time": []}}, "mouseover": {"state": {"target": [], "time": []}, "edge": {"target": [], "time": []}}, "mouseout": {"state": {"target": ["0", "12"], "time": [198, 5372]}, "edge": {"target": [], "time": []}}}, "displayed_time": "20.13", "trialTime": 21010, "trial_type": "mouselab-mdp", "trial_index": 65, "time_elapsed": 2019715, "internal_node_id": "0.0-4.0-1.0-38.0"}}, {"uniqueid": "w21947348:a97669083", "current_trial": 66, "dateTime": 1691162413570, "trialdata": {"revealed_states": [], "clicked_states": [], "num_clicks_accrued": [0, 0, 0, 0, 0, 0, 0, 0, 0, 0, 0, 0, 0], "stateRewards": ["", 1, 1, -7, -9, -44, 24, -83, -15, 44, -24, 72, -2, -3, 4, -5, 57, 55, 29, -11, 22, 12, -25, -1, 2, 7, 12, 33, -8, 47, -4, 8, 50, -4], "withholdReward": false, "trial_id": "mdp_trial_40", "block": "test", "trialIndex": 47, "score": 49, "costs": 0, "simulationMode": [null, null, null, null, null], "rewards": [-2, -3, 4, -5, 55], "path": ["0", "0", "12", "13", "14", "15", "17"], "rt": [1985, 35, 46, 509, 485], "actions": ["right", "right", "right", "up", "right"], "actionTimes": [4321, 4866, 5411, 6440, 7438], "queries": {"click": {"state": {"target": [], "time": []}, "edge": {"target": [], "time": []}}, "mouseover": {"state": {"target": [], "time": []}, "edge": {"target": [], "time": []}}, "mouseout": {"state": {"target": [], "time": []}, "edge": {"target": [], "time": []}}}, "displayed_time": "16.34", "trialTime": 19335, "trial_type": "mouselab-mdp", "trial_index": 66, "time_elapsed": 2039650, "internal_node_id": "0.0-4.0-1.0-39.0"}}, {"uniqueid": "w21947348:a97669083", "current_trial": 67, "dateTime": 1691162447286, "trialdata": {"rt": 33578, "response": {"Q0": "$-2 to $2", "Q1": "$-32 to $32", "Q2": "$-88 to $88", "Q3": "The cost for clicking on nodes varied between nodes.", "Q4": "Very motivated"}, "question_order": [0, 1, 2, 3, 4], "trial_id": "final_quiz_control", "trial_type": "survey-multi-choice", "trial_index": 67, "time_elapsed": 2073367, "internal_node_id": "0.0-4.0-2.0"}}, {"uniqueid": "w21947348:a97669083", "current_trial": 68, "dateTime": 1691162506993, "trialdata": {"rt": 59645, "response": {"Q0": "I mixed it up and took it at a glance. I never used one set strategy but relied on a set of them.", "Q1": "No", "Q2": "Nothing made it difficult"}, "trial_id": "self_report_control", "trial_type": "survey-text", "trial_index": 68, "time_elapsed": 2133074, "internal_node_id": "0.0-4.0-3.0"}}, {"uniqueid": "w21947348:a97669083", "current_trial": 69, "dateTime": 1691162530163, "trialdata": {"rt": 23164, "response": {"Q0": "Neither disagree nor agree", "Q1": "Agree", "Q2": "Disagree", "Q3": "Agree", "Q4": "Disagree", "Q5": "Neither disagree nor agree", "Q6": "Disagree"}, "question_order": [0, 1, 2, 3, 4, 5, 6], "trial_id": "self_report_2", "trial_type": "survey-multi-choice", "trial_index": 69, "time_elapsed": 2156244, "internal_node_id": "0.0-4.0-4.0"}}, {"uniqueid": "w21947348:a97669083", "current_trial": 70, "dateTime": 1691162554837, "trialdata": {"rt": 24663, "response": {"gender": "male", "age": "31", "colorblind": "0", "effort": "0"}, "trial_type": "survey-html-form", "trial_index": 70, "time_elapsed": 2180917, "internal_node_id": "0.0-4.0-5.0"}}, {"uniqueid": "w21947348:a97669083", "current_trial": 71, "dateTime": 1691162568804, "trialdata": {"rt": 13960, "response": {"Q0": "No", "Q1": "No", "Q2": "None"}, "trial_type": "survey-text", "trial_index": 71, "time_elapsed": 2194885, "internal_node_id": "0.0-4.0-6.0"}}, {"uniqueid": "w21947348:a97669083", "current_trial": 72, "dateTime": 1691162575348, "trialdata": {"rt": 6540, "stimulus": "Press 'Finish HIT' in order to reach the completion code. Once the data has been saved, you will receive the code either in this window or in the original browser window where you started the experiment.\n", "response": 0, "trial_type": "html-button-response", "trial_index": 72, "time_elapsed": 2201429, "internal_node_id": "0.0-5.0"}}, {"uniqueid": "w21947348:a97669083", "current_trial": 73, "dateTime": 1691162576352, "trialdata": {"success": true, "trial_type": "fullscreen", "trial_index": 73, "time_elapsed": 2202433, "internal_node_id": "0.0-6.0"}}], "questiondata": {"params": {"CODE": "C6DMOQA6", "MIN_TIME": 14, "inspectCost": 1, "startTime": "Fri Aug 04 2023 16:46:02 GMT+0200 (South Africa Standard Time)", "bonusRate": 0.002, "variance": "1_2_4_8_44", "branching": "31123"}, "final_score": 238}, "eventdata": [{"eventtype": "initialized", "value": null, "timestamp": 1691160360225, "interval": 0}, {"eventtype": "window_resize", "value": [1366, 670], "timestamp": 1691160360225, "interval": 0}, {"eventtype": "window_resize", "value": [1366, 670], "timestamp": 1691160362011, "interval": 1786}, {"eventtype": "window_resize", "value": [1366, 768], "timestamp": 1691160392844, "interval": 30833}, {"eventtype": "focus", "value": "off", "timestamp": 1691160826163, "interval": 433319}, {"eventtype": "focus", "value": "on", "timestamp": 1691160826163, "interval": 0}, {"eventtype": "window_resize", "value": [1366, 670], "timestamp": 1691160826803, "interval": 640}, {"eventtype": "window_resize", "value": [1366, 768], "timestamp": 1691160830167, "interval": 3364}, {"eventtype": "focus", "value": "off", "timestamp": 1691161154751, "interval": 324584}, {"eventtype": "focus", "value": "on", "timestamp": 1691161154751, "interval": 0}, {"eventtype": "window_resize", "value": [1366, 670], "timestamp": 1691161154959, "interval": 208}, {"eventtype": "window_resize", "value": [1366, 768], "timestamp": 1691161158960, "interval": 4001}, {"eventtype": "focus", "value": "off", "timestamp": 1691161305036, "interval": 146076}, {"eventtype": "focus", "value": "on", "timestamp": 1691161305037, "interval": 1}, {"eventtype": "window_resize", "value": [1366, 670], "timestamp": 1691161305248, "interval": 211}, {"eventtype": "window_resize", "value": [1366, 768], "timestamp": 1691161306780, "interval": 1532}], "useragent": "Mozilla/5.0 (Windows NT 10.0; Win64; x64) AppleWebKit/537.36 (KHTML, like Gecko) Chrome/115.0.0.0 Safari/537.36", "mode": "live", "id": "w21947348:a97669083", "status": "user data saved", "Beginhit": "2023-08-04 14:46:01.348039", "Beginexp": "2023-08-04 14:46:59.208385", "Endhit": "2023-08-04 15:23:15.746518", "psiturkStatus": 3, "browser": "<redacted>", "platform": "windows", "language": "en-US"}