{"condition": 0, "counterbalance": 0, "assignmentId": "a11898039", "workerId": "w92268574", "hitId": "h18726481", "currenttrial": 13, "bonus": 0, "data": [{"uniqueid": "w92268574:a11898039", "current_trial": 0, "dateTime": 1693481638434, "trialdata": {"success": true, "trial_type": "fullscreen", "trial_index": 0, "time_elapsed": 6209, "internal_node_id": "0.0-0.0"}}, {"uniqueid": "w92268574:a11898039", "current_trial": 1, "dateTime": 1693481646203, "trialdata": {"view_history": [{"page_index": 0, "viewing_time": 7765}], "rt": 7766, "trial_id": "exp_instructions_control", "trial_type": "instructions", "trial_index": 1, "time_elapsed": 13980, "internal_node_id": "0.0-1.0"}}, {"uniqueid": "w92268574:a11898039", "current_trial": 2, "dateTime": 1693481676474, "trialdata": {"view_history": [{"page_index": 0, "viewing_time": 11189}, {"page_index": 1, "viewing_time": 11144}, {"page_index": 2, "viewing_time": 4616}, {"page_index": 3, "viewing_time": 3320}], "rt": 30269, "trial_id": "mouselab_instructions_1_control", "trial_type": "instructions", "trial_index": 2, "time_elapsed": 44251, "internal_node_id": "0.0-2.0-1.0"}}, {"uniqueid": "w92268574:a11898039", "current_trial": 3, "dateTime": 1693481805451, "trialdata": {"revealed_states": [], "clicked_states": ["1", "4", "25", "21", "3", "32", "8", "10", "9", "14", "13", "20", "27", "29", "28", "26", "33", "6", "19", "5", "11", "24", "23", "31", "30", "2", "7", "18", "16", "15", "17", "22", "12"], "num_clicks_accrued": [0, 0, 0, 0, 0, 0, 0, 0, 0, 0, 0, 0, 0], "stateRewards": ["", -10, 10, 10, 10, -10, 10, -10, 10, 10, 10, -10, -10, 10, 10, 10, -10, -10, -10, -10, -10, -10, -10, 10, -10, 10, 10, -10, 10, 10, -10, 10, -10, 10], "withholdReward": false, "trial_id": "practice_1", "block": "test", "trialIndex": 0, "score": -23, "costs": -16.5, "simulationMode": [null, null, null, null, null], "rewards": [-10, 10, 10, -10, -10], "path": ["0", "0", "12", "13", "14", "19", "21"], "rt": [110039, 2438, 3745, 2150, 557], "actions": ["right", "right", "right", "down", "down"], "actionTimes": [113147, 116074, 120314, 122969, 124043], "queries": {"click": {"state": {"target": ["1", "4", "25", "21", "3", "32", "8", "10", "9", "14", "13", "20", "27", "29", "28", "26", "33", "6", "19", "5", "11", "24", "23", "31", "30", "2", "7", "18", "16", "15", "17", "22", "12"], "time": [8606, 10931, 14227, 16403, 19798, 23162, 25846, 27427, 29896, 33363, 35411, 37116, 39802, 41635, 43236, 44881, 46770, 56692, 61373, 63304, 64585, 65866, 67468, 69003, 70433, 71972, 73341, 74756, 76061, 77522, 78975, 80507, 81670]}, "edge": {"target": [], "time": []}}, "mouseover": {"state": {"target": ["12", "13", "15", "18", "1", "12", "4", "5", "2", "0", "23", "24", "25", "24", "0", "12", "22", "21", "0", "1", "2", "3", "2", "1", "31", "30", "32", "12", "1", "0", "1", "2", "8", "10", "1", "1", "2", "9", "2", "1", "12", "13", "14", "13", "23", "12", "13", "12", "12", "19", "20", "19", "22", "0", "23", "28", "27", "27", "26", "29", "26", "23", "0", "28", "0", "26", "23", "24", "30", "33", "30", "31", "0", "1", "2", "3", "2", "1", "10", "10", "1", "0", "1", "2", "3", "8", "1", "7", "4", "6", "23", "31", "32", "21", "21", "22", "22", "19", "14", "15", "16", "5", "8", "11", "28", "24", "24", "23", "0", "23", "31", "0", "30", "0", "1", "2", "1", "0", "7", "1", "18", "16", "12", "15", "12", "0", "12", "13", "17", "12", "0", "0", "0", "22", "0", "12", "0", "8", "8", "2", "1", "1", "2", "3", "2", "1", "23", "24", "23", "23", "0", "22", "19", "12", "24", "24", "23", "0", "1", "1", "0", "22", "21", "17", "15", "8", "2", "1", "2", "3", "2", "1", "0"], "time": [3469, 3519, 3640, 4208, 8290, 10023, 10592, 11517, 12487, 12973, 13473, 13516, 13621, 14733, 14916, 15517, 15566, 15873, 18050, 18840, 19023, 19290, 20317, 20817, 21833, 21866, 22216, 23817, 24304, 24489, 25007, 25083, 25390, 26853, 27883, 28590, 28633, 28983, 31322, 31572, 32606, 32633, 32756, 33649, 33733, 34655, 34970, 35633, 36316, 36383, 36656, 37567, 37602, 37749, 38720, 38855, 39073, 39281, 40941, 41185, 41916, 41983, 42250, 42756, 43649, 44384, 45883, 45933, 46023, 46223, 47200, 47266, 47649, 50150, 50284, 50440, 51382, 51555, 52173, 52393, 52932, 53033, 53590, 53634, 53791, 53967, 55155, 55720, 55837, 55990, 57823, 57900, 58223, 60106, 60606, 60751, 60823, 61006, 62066, 62272, 62316, 62999, 64151, 64316, 65349, 65382, 65632, 66383, 66433, 66957, 68540, 69333, 69949, 70866, 71317, 71557, 72299, 72382, 72900, 73649, 74366, 75566, 76849, 76999, 77799, 77916, 78300, 78318, 78550, 79249, 79316, 79500, 79799, 79966, 80949, 81300, 82016, 86856, 87824, 88069, 88150, 88888, 88935, 89174, 90032, 90102, 90790, 90833, 92256, 92699, 93199, 94223, 94673, 95756, 99841, 100456, 101066, 101116, 101606, 102389, 102634, 102717, 103316, 104622, 104684, 104886, 104999, 105673, 105733, 106903, 108006, 108102, 108151]}, "edge": {"target": [], "time": []}}, "mouseout": {"state": {"target": ["12", "15", "16", "18", "12", "0", "12", "13", "15", "18", "1", "12", "4", "5", "2", "0", "23", "24", "25", "24", "0", "12", "22", "21", "0", "1", "2", "3", "2", "1", "31", "30", "32", "12", "1", "0", "1", "2", "8", "8", "10", "1", "1", "2", "9", "2", "1", "12", "13", "14", "13", "23", "12", "13", "12", "12", "19", "20", "19", "22", "0", "23", "28", "27", "27", "26", "29", "26", "23", "0", "28", "0", "28", "26", "28", "23", "24", "30", "33", "30", "31", "0", "1", "2", "3", "2", "1", "10", "10", "1", "0", "1", "2", "3", "8", "1", "7", "4", "6", "23", "31", "32", "21", "21", "22", "22", "19", "14", "15", "16", "5", "8", "11", "28", "24", "24", "23", "0", "23", "23", "31", "23", "0", "23", "30", "0", "1", "2", "1", "0", "7", "1", "18", "18", "16", "12", "15", "12", "0", "12", "13", "17", "15", "12", "0", "0", "0", "22", "0", "12", "0", "8", "8", "2", "1", "1", "2", "3", "2", "1", "23", "24", "23", "23", "0", "22", "19", "12", "24", "24", "23", "0", "1", "1", "0", "22", "21", "17", "15", "8", "2", "1", "2", "3", "2", "1", "0"], "time": [492, 639, 1224, 2458, 2574, 2842, 3502, 3536, 3809, 4320, 9117, 10052, 11450, 12433, 12499, 13106, 13500, 13550, 14716, 14750, 15100, 15550, 15583, 17201, 18337, 18919, 19173, 20250, 20567, 21073, 21850, 21883, 23369, 23833, 24316, 24673, 25035, 25118, 26317, 26800, 27817, 28007, 28620, 28666, 30632, 31366, 32089, 32619, 32666, 33632, 33666, 34033, 34689, 35616, 35666, 36333, 36484, 37550, 37600, 37616, 37916, 38739, 38872, 39119, 39949, 41036, 41883, 41949, 41999, 42350, 43452, 43733, 44337, 45150, 45200, 45920, 45950, 46038, 47184, 47233, 47333, 47783, 50220, 50349, 51356, 51416, 51705, 52218, 52906, 52949, 53239, 53602, 53686, 53920, 55022, 55202, 55767, 55905, 57233, 57849, 58007, 59087, 60132, 60656, 60802, 60852, 61982, 62216, 62288, 62349, 63866, 64249, 65133, 65366, 65433, 66350, 66416, 66650, 67733, 68249, 69149, 69316, 69500, 69849, 70440, 70883, 71334, 72266, 72316, 72566, 73532, 73666, 74883, 75500, 76183, 76883, 77716, 77816, 78117, 78316, 78333, 79117, 79167, 79283, 79383, 79666, 79816, 80649, 81250, 81966, 82806, 86869, 87972, 88116, 88183, 88904, 89002, 89989, 90067, 90138, 90816, 90902, 92269, 92733, 93274, 94439, 94735, 99289, 100141, 101050, 101099, 101186, 101670, 102555, 102668, 102733, 103438, 104673, 104699, 104966, 105016, 105685, 105873, 107839, 108051, 108135, 108166]}, "edge": {"target": [], "time": []}}}, "displayed_time": "124.55", "trialTime": 128378, "trial_type": "mouselab-mdp", "trial_index": 3, "time_elapsed": 173227, "internal_node_id": "0.0-2.0-2.0-0.0"}}, {"uniqueid": "w92268574:a11898039", "current_trial": 4, "dateTime": 1693481904015, "trialdata": {"revealed_states": [], "clicked_states": ["12", "13", "14", "19", "22", "21", "20", "23", "24", "25", "30", "32", "33", "31", "26", "27", "29", "28", "1", "2", "3", "8", "10", "11", "9", "4", "5", "6", "7", "15", "16", "17", "18"], "num_clicks_accrued": [0, 0, 0, 0, 0, 0, 0, 0, 0, 0, 0, 0, 0], "stateRewards": ["", -10, -10, -10, 10, 10, -10, -10, 10, 10, 10, -10, -10, 10, -10, 10, 10, -10, 10, 10, -10, 10, 10, 10, 10, -10, 10, 10, 10, -10, 10, -10, -10, -10], "withholdReward": false, "trial_id": "practice_2", "block": "test", "trialIndex": 1, "score": -3, "costs": -16.5, "simulationMode": [null, null, null, null, null], "rewards": [-10, 10, -10, 10, 10], "path": ["0", "0", "12", "13", "14", "19", "21"], "rt": [87119, 1871, 403, 606, 225], "actions": ["right", "right", "right", "down", "down"], "actionTimes": [89865, 92246, 93158, 94279, 95014], "queries": {"click": {"state": {"target": ["12", "13", "14", "19", "22", "21", "20", "23", "24", "25", "30", "32", "33", "31", "26", "27", "29", "28", "1", "2", "3", "8", "10", "11", "9", "4", "5", "6", "7", "15", "16", "17", "18"], "time": [5205, 7327, 9081, 11488, 13066, 15719, 18375, 20616, 22326, 23767, 25452, 27106, 28296, 29532, 31423, 32663, 34069, 35229, 37141, 40894, 43031, 44857, 46325, 47511, 48687, 50565, 56048, 63909, 65174, 70325, 72453, 73726, 75802]}, "edge": {"target": [], "time": []}}, "mouseover": {"state": {"target": ["12", "13", "14", "12", "19", "22", "21", "19", "20", "14", "18", "12", "0", "23", "23", "24", "25", "25", "30", "32", "33", "31", "25", "26", "26", "27", "29", "28", "1", "1", "0", "2", "1", "1", "3", "8", "10", "11", "9", "3", "4", "3", "8", "3", "3", "8", "3", "8", "3", "4", "5", "4", "7", "7", "4", "6", "4", "7", "15", "15", "14", "13", "12", "12", "15", "15", "15", "18", "16", "17", "15", "18", "15", "14", "19", "19", "22", "12", "0", "1", "0", "0", "23", "0", "12", "19", "12", "12", "13", "14", "19", "21", "21"], "time": [4236, 6846, 8540, 9853, 10811, 12337, 15112, 17238, 17903, 18960, 19103, 19336, 19386, 19928, 20219, 21722, 22836, 23036, 24837, 26537, 27822, 28970, 29985, 30419, 30988, 32236, 33653, 34820, 36203, 36527, 39427, 40444, 41686, 42121, 42378, 44359, 45836, 47103, 48286, 49720, 50077, 50836, 51169, 51353, 51756, 52091, 52323, 52671, 53806, 54602, 55354, 56936, 57387, 58647, 62892, 63272, 64302, 64720, 65869, 66485, 66975, 67421, 67592, 67909, 68755, 69126, 69828, 70836, 71977, 73254, 74872, 75354, 76204, 77042, 77373, 78059, 78222, 78389, 78606, 79112, 80209, 81590, 81662, 81970, 82173, 82621, 82788, 83570, 85206, 86209, 87060, 88007, 88109]}, "edge": {"target": [], "time": []}}, "mouseout": {"state": {"target": ["26", "29", "26", "0", "12", "12", "13", "12", "14", "12", "13", "14", "19", "22", "19", "19", "21", "19", "20", "14", "18", "12", "0", "23", "23", "23", "23", "24", "25", "25", "25", "30", "32", "30", "33", "33", "30", "31", "25", "26", "26", "27", "26", "29", "29", "26", "28", "1", "1", "0", "1", "2", "1", "1", "2", "3", "8", "10", "8", "11", "8", "9", "3", "4", "3", "8", "3", "3", "8", "3", "8", "3", "4", "5", "4", "7", "7", "4", "6", "4", "7", "15", "15", "14", "13", "12", "12", "15", "15", "15", "18", "15", "16", "15", "17", "15", "15", "18", "15", "14", "19", "19", "22", "12", "0", "1", "0", "0", "23", "0", "12", "19", "12", "12", "13", "14", "19", "21", "21"], "time": [1585, 1668, 1802, 2452, 5953, 6611, 7586, 7636, 9336, 9887, 9987, 10660, 12270, 13077, 14653, 14995, 16270, 17834, 18793, 19019, 19136, 19353, 19659, 19987, 20728, 21120, 21694, 22352, 22886, 23803, 24719, 26470, 27240, 27810, 28399, 28502, 28903, 29869, 30002, 30692, 31769, 32936, 33586, 34175, 34269, 34720, 35436, 36219, 38259, 39607, 40276, 41469, 41752, 42153, 42221, 44326, 45753, 46447, 46702, 47615, 48063, 48970, 49876, 50786, 50853, 51269, 51403, 51855, 52191, 52611, 53740, 54402, 54959, 56503, 57360, 57494, 58805, 63244, 64254, 64636, 65263, 66152, 66659, 67409, 67452, 67726, 68592, 68786, 69323, 70803, 71421, 71821, 72687, 73153, 74102, 74685, 75278, 76136, 76752, 77159, 77754, 78156, 78322, 78539, 78692, 79806, 81405, 81607, 81954, 82106, 82206, 82709, 82959, 84347, 85273, 86909, 87091, 88019, 89073]}, "edge": {"target": [], "time": []}}}, "displayed_time": "95.51", "trialTime": 98358, "trial_type": "mouselab-mdp", "trial_index": 4, "time_elapsed": 271790, "internal_node_id": "0.0-2.0-2.0-1.0"}}, {"uniqueid": "w92268574:a11898039", "current_trial": 5, "dateTime": 1693481940042, "trialdata": {"view_history": [{"page_index": 0, "viewing_time": 26911}, {"page_index": 1, "viewing_time": 9112}], "rt": 36024, "trial_id": "mouselab_instructions_2_control", "trial_type": "instructions", "trial_index": 5, "time_elapsed": 307819, "internal_node_id": "0.0-2.0-3.0"}}, {"uniqueid": "w92268574:a11898039", "current_trial": 6, "dateTime": 1693482088332, "trialdata": {"rt": 148287, "response": {"Q0": "There is no cost for clicking on nodes.", "Q1": "The better I perform the higher my bonus will be.", "Q2": "No, the structure of the web will be different each time.", "Q3": "To finish the game in the shortest amount of time.", "Q4": "Only before moving the spider.", "Q5": "10 seconds"}, "question_order": [0, 1, 2, 3, 4, 5], "correct": {"Q0": "The cost for clicking on nodes may vary between nodes.", "Q1": "The better I perform the higher my bonus will be.", "Q2": "No, the amount of cash at each node of the web may be different each time.", "Q3": "To get the highest total score.", "Q4": "Only before moving the spider.", "Q5": "3 seconds"}, "trial_id": "mouselab_quiz_control", "trial_type": "survey-multi-choice", "trial_index": 6, "time_elapsed": 456109, "internal_node_id": "0.0-2.0-4.0"}}, {"uniqueid": "w92268574:a11898039", "current_trial": 7, "dateTime": 1693482104547, "trialdata": {"success": true, "trial_type": "fullscreen", "trial_index": 7, "time_elapsed": 472324, "internal_node_id": "0.0-2.1-0.1-0.1"}}, {"uniqueid": "w92268574:a11898039", "current_trial": 8, "dateTime": 1693482207696, "trialdata": {"view_history": [{"page_index": 0, "viewing_time": 40057}, {"page_index": 1, "viewing_time": 23184}, {"page_index": 2, "viewing_time": 13224}, {"page_index": 3, "viewing_time": 26680}], "rt": 103146, "trial_id": "mouselab_instructions_1_control", "trial_type": "instructions", "trial_index": 8, "time_elapsed": 575473, "internal_node_id": "0.0-2.1-1.1"}}, {"uniqueid": "w92268574:a11898039", "current_trial": 9, "dateTime": 1693482304941, "trialdata": {"revealed_states": [], "clicked_states": ["1", "3", "4", "8", "10", "7", "15", "19", "22", "16", "26", "30", "29", "27", "28", "24", "25", "31", "32", "33", "2", "5", "6", "11", "9", "13", "14", "18", "17", "20", "21", "12", "23"], "num_clicks_accrued": [0, 0, 0, 0, 0, 0, 0, 0, 0, 0, 0, 0, 0], "stateRewards": ["", -10, 10, 10, 10, -10, 10, -10, 10, 10, 10, -10, -10, 10, 10, 10, -10, -10, -10, -10, -10, -10, -10, 10, -10, 10, 10, -10, 10, 10, -10, 10, -10, 10], "withholdReward": false, "trial_id": "practice_1", "block": "test", "trialIndex": 2, "score": -3, "costs": -16.5, "simulationMode": [null, null, null, null, null], "rewards": [-10, 10, 10, 10, -10], "path": ["0", "0", "12", "13", "14", "15", "16"], "rt": [82611, 1956, 3059, 643, 358], "actions": ["right", "right", "right", "up", "up"], "actionTimes": [85118, 87609, 91178, 92314, 93194], "queries": {"click": {"state": {"target": ["1", "3", "4", "8", "10", "7", "15", "19", "22", "16", "26", "30", "29", "27", "28", "24", "25", "31", "32", "33", "2", "5", "6", "11", "9", "13", "14", "18", "17", "20", "21", "12", "23"], "time": [6996, 11047, 12544, 14439, 17171, 19134, 21206, 22922, 24790, 26454, 29511, 31562, 34507, 36554, 38195, 39274, 41211, 42835, 44233, 45498, 46775, 49782, 52393, 55017, 57530, 58994, 60212, 62165, 63953, 67476, 68638, 70041, 72083]}, "edge": {"target": [], "time": []}}, "mouseover": {"state": {"target": ["12", "22", "0", "1", "0", "2", "3", "4", "8", "11", "8", "10", "2", "7", "4", "7", "18", "14", "15", "14", "19", "22", "14", "15", "16", "15", "14", "13", "12", "23", "24", "25", "26", "25", "30", "25", "29", "29", "27", "28", "23", "24", "25", "25", "30", "31", "30", "30", "32", "30", "33", "24", "1", "2", "3", "4", "4", "5", "4", "7", "7", "4", "6", "4", "3", "8", "8", "11", "9", "8", "10", "8", "9", "7", "18", "13", "14", "16", "16", "18", "15", "17", "19", "22", "19", "20", "21", "12", "0", "23", "0", "0", "23", "24", "31", "21", "21", "15", "18", "1", "2", "1", "13", "14", "18", "15", "18", "18", "0", "23", "24", "30", "22", "19", "21"], "time": [3068, 3569, 5669, 6113, 9970, 10218, 10669, 11169, 13702, 13787, 14169, 16719, 17734, 17984, 18418, 18719, 19950, 20250, 20967, 22117, 22284, 23052, 25367, 25451, 26069, 27017, 27200, 27334, 27434, 27685, 27752, 28101, 29085, 30234, 30584, 32967, 33803, 34081, 36222, 37656, 38601, 39003, 39834, 40750, 42167, 42436, 43070, 43400, 43819, 44500, 45169, 45750, 46084, 46671, 47350, 48283, 48650, 49484, 50283, 50400, 50667, 51850, 52307, 52734, 52783, 53134, 54389, 54718, 55384, 56284, 56383, 57083, 57251, 58087, 58373, 58550, 59818, 61001, 61151, 61817, 62400, 62634, 64802, 66734, 67017, 67151, 68167, 69717, 70367, 70434, 71333, 71634, 71785, 72583, 73301, 73601, 74250, 74669, 74835, 75071, 75468, 76719, 77451, 77818, 78295, 78701, 79101, 79418, 80117, 80767, 81633, 82685, 84302, 84434, 84668]}, "edge": {"target": [], "time": []}}, "mouseout": {"state": {"target": ["0", "12", "22", "0", "1", "0", "1", "2", "3", "4", "3", "8", "11", "8", "8", "10", "2", "7", "4", "7", "18", "14", "15", "14", "19", "22", "14", "15", "16", "15", "14", "13", "12", "23", "24", "25", "26", "26", "25", "30", "25", "26", "29", "29", "27", "28", "23", "24", "25", "25", "30", "31", "30", "30", "32", "30", "33", "24", "1", "2", "3", "4", "4", "5", "4", "7", "7", "4", "6", "6", "4", "3", "8", "8", "11", "9", "8", "10", "8", "9", "7", "18", "13", "14", "16", "16", "18", "15", "17", "19", "22", "19", "20", "21", "12", "0", "23", "0", "0", "23", "24", "31", "21", "21", "15", "18", "1", "2", "1", "13", "14", "18", "15", "18", "18", "0", "23", "24", "30", "22", "19", "21"], "time": [3002, 3185, 3634, 5768, 8151, 10001, 10101, 10335, 11152, 13000, 13100, 13745, 14068, 14951, 16685, 17668, 17784, 18267, 18652, 19901, 19984, 20901, 22100, 22150, 23002, 25284, 25400, 25584, 26900, 27067, 27284, 27417, 27517, 27718, 27951, 28304, 29733, 30200, 30284, 32723, 33068, 33786, 33889, 35017, 36901, 38451, 38936, 39584, 40437, 41567, 42397, 43000, 43100, 43636, 44316, 44886, 45600, 45784, 46117, 47050, 48083, 48352, 49103, 50200, 50350, 50483, 50700, 51901, 52515, 52717, 52767, 52800, 53653, 54550, 55200, 56235, 56318, 57035, 57117, 57884, 58117, 58400, 59534, 60500, 61034, 61685, 62370, 62533, 64333, 66669, 66983, 67101, 67867, 69500, 70124, 70400, 71317, 71451, 71735, 72533, 72801, 73351, 73651, 74283, 74683, 74851, 75284, 76634, 76920, 77501, 77985, 78334, 79067, 79150, 79800, 80652, 81584, 82135, 83005, 84335, 84634, 84684]}, "edge": {"target": [], "time": []}}}, "displayed_time": "93.69", "trialTime": 97050, "trial_type": "mouselab-mdp", "trial_index": 9, "time_elapsed": 672716, "internal_node_id": "0.0-2.1-2.1-0.1"}}, {"uniqueid": "w92268574:a11898039", "current_trial": 10, "dateTime": 1693482397514, "trialdata": {"revealed_states": [], "clicked_states": ["1", "3", "5", "9", "7", "4", "12", "14", "15", "18", "17", "19", "21", "20", "22", "13", "23", "24", "25", "26", "27", "29", "28", "30", "33", "31", "32", "2", "8", "11", "10", "6", "16"], "num_clicks_accrued": [0, 0, 0, 0, 0, 0, 0, 0, 0, 0, 0, 0, 0], "stateRewards": ["", -10, -10, -10, 10, 10, -10, -10, 10, 10, 10, -10, -10, 10, -10, 10, 10, -10, 10, 10, -10, 10, 10, 10, 10, -10, 10, 10, 10, -10, 10, -10, -10, -10], "withholdReward": false, "trial_id": "practice_2", "block": "test", "trialIndex": 3, "score": -3, "costs": -16.5, "simulationMode": [null, null, null, null, null], "rewards": [-10, 10, -10, 10, 10], "path": ["0", "0", "12", "13", "14", "15", "16"], "rt": [80084, 4055, 399, 619, 1132], "actions": ["right", "right", "right", "up", "up"], "actionTimes": [82251, 86824, 87735, 88856, 90520], "queries": {"click": {"state": {"target": ["1", "3", "5", "9", "7", "4", "12", "14", "15", "18", "17", "19", "21", "20", "22", "13", "23", "24", "25", "26", "27", "29", "28", "30", "33", "31", "32", "2", "8", "11", "10", "6", "16"], "time": [4712, 5978, 7427, 9258, 12946, 14931, 17960, 20454, 22034, 24175, 25190, 26882, 29269, 30478, 32250, 34518, 36053, 37151, 38565, 39637, 41306, 42424, 44825, 46416, 48074, 51900, 54086, 56680, 58584, 60703, 62699, 66749, 68459]}, "edge": {"target": [], "time": []}}, "mouseover": {"state": {"target": ["12", "13", "12", "1", "2", "3", "4", "5", "9", "8", "10", "2", "7", "4", "4", "6", "18", "12", "13", "14", "15", "16", "18", "18", "17", "16", "14", "19", "22", "21", "20", "22", "22", "13", "13", "12", "13", "0", "23", "24", "25", "26", "27", "27", "29", "28", "28", "28", "25", "30", "33", "31", "30", "31", "30", "32", "30", "24", "28", "1", "1", "2", "3", "8", "11", "10", "8", "3", "4", "6", "16", "15", "15", "16", "15", "12", "0", "1", "1", "1", "2", "3", "8", "11", "8", "10", "10", "27", "26", "24", "23"], "time": [2570, 2701, 3233, 4467, 5067, 5701, 6500, 6967, 8367, 11069, 11669, 11752, 12487, 13884, 14668, 15534, 16535, 16835, 18517, 20035, 21584, 22451, 23703, 24024, 24750, 25601, 26334, 26502, 27418, 28787, 30384, 31017, 31836, 32634, 33001, 33667, 34147, 35234, 35802, 36653, 38217, 39286, 40017, 41101, 41651, 43084, 44334, 44592, 45401, 45534, 47184, 49034, 50601, 51119, 52986, 53521, 54718, 55453, 55550, 55852, 55952, 56451, 57503, 58568, 60225, 62292, 63021, 63586, 64225, 66221, 67200, 67318, 67533, 68039, 69500, 69818, 70000, 71318, 72322, 72956, 73950, 74850, 75936, 76851, 77735, 78285, 78883, 79051, 79853, 80384, 80466]}, "edge": {"target": [], "time": []}}, "mouseout": {"state": {"target": ["12", "13", "12", "1", "2", "3", "4", "5", "9", "8", "10", "2", "7", "4", "4", "6", "18", "12", "13", "14", "14", "15", "16", "18", "18", "15", "17", "16", "14", "19", "22", "19", "21", "19", "19", "20", "19", "22", "22", "13", "13", "12", "13", "0", "23", "24", "25", "26", "27", "27", "29", "26", "28", "28", "28", "25", "30", "33", "30", "31", "30", "31", "30", "32", "30", "24", "28", "1", "1", "2", "2", "3", "8", "11", "11", "8", "10", "8", "3", "4", "6", "16", "15", "15", "16", "15", "12", "0", "1", "1", "1", "2", "3", "8", "11", "8", "10", "10", "27", "26", "24", "23"], "time": [2636, 2718, 3769, 4867, 5601, 6484, 6567, 8051, 10819, 11184, 11735, 11784, 13467, 14484, 15267, 16253, 16585, 18384, 19471, 20951, 21384, 22194, 23568, 23918, 24651, 24701, 25484, 26201, 26350, 27334, 28084, 28603, 29484, 29584, 30173, 30618, 30767, 31518, 32435, 32851, 33619, 34088, 34801, 35301, 36568, 38034, 38935, 39917, 40634, 41584, 42734, 42867, 44035, 44417, 45318, 45450, 46934, 48538, 48734, 50271, 51004, 52920, 53409, 54602, 54768, 55469, 55717, 55868, 56151, 56703, 57353, 58452, 59754, 61098, 61451, 62138, 62916, 63066, 63837, 66035, 67150, 67250, 67466, 67857, 69150, 69617, 69917, 70268, 71723, 72366, 73056, 74118, 75885, 76718, 77651, 78052, 78611, 78933, 79785, 80266, 80400, 80499]}, "edge": {"target": [], "time": []}}}, "displayed_time": "91.02", "trialTime": 92375, "trial_type": "mouselab-mdp", "trial_index": 10, "time_elapsed": 765290, "internal_node_id": "0.0-2.1-2.1-1.1"}}, {"uniqueid": "w92268574:a11898039", "current_trial": 11, "dateTime": 1693482407405, "trialdata": {"view_history": [{"page_index": 0, "viewing_time": 7904}, {"page_index": 1, "viewing_time": 1983}], "rt": 9888, "trial_id": "mouselab_instructions_2_control", "trial_type": "instructions", "trial_index": 11, "time_elapsed": 775182, "internal_node_id": "0.0-2.1-3.1"}}, {"uniqueid": "w92268574:a11898039", "current_trial": 12, "dateTime": 1693482456829, "trialdata": {"rt": 49420, "response": {"Q0": "The cost for clicking on nodes may vary between nodes.", "Q1": "I will receive a $1 bonus if I perform well, otherwise I will receive no bonus.", "Q2": "No, the amount of cash at each node of the web may be different each time.", "Q3": "To get the highest total score.", "Q4": "Only before moving the spider.", "Q5": "3 seconds"}, "question_order": [0, 1, 2, 3, 4, 5], "correct": {"Q0": "The cost for clicking on nodes may vary between nodes.", "Q1": "The better I perform the higher my bonus will be.", "Q2": "No, the amount of cash at each node of the web may be different each time.", "Q3": "To get the highest total score.", "Q4": "Only before moving the spider.", "Q5": "3 seconds"}, "trial_id": "mouselab_quiz_control", "trial_type": "survey-multi-choice", "trial_index": 12, "time_elapsed": 824606, "internal_node_id": "0.0-2.1-4.1"}}], "questiondata": {"params": {"CODE": "C6DMOQA6", "MIN_TIME": 14, "inspectCost": 1, "startTime": "Thu Aug 31 2023 13:33:48 GMT+0200 (South Africa Standard Time)", "bonusRate": 0.002, "variance": "1_2_4_8_44", "branching": "31123"}}, "eventdata": [{"eventtype": "initialized", "value": null, "timestamp": 1693481627765, "interval": 0}, {"eventtype": "window_resize", "value": [1024, 767], "timestamp": 1693481627765, "interval": 0}, {"eventtype": "window_resize", "value": [1024, 767], "timestamp": 1693481628303, "interval": 538}, {"eventtype": "window_resize", "value": [1600, 900], "timestamp": 1693481637724, "interval": 9421}, {"eventtype": "focus", "value": "off", "timestamp": 1693482098915, "interval": 461191}, {"eventtype": "focus", "value": "on", "timestamp": 1693482098916, "interval": 1}, {"eventtype": "window_resize", "value": [1024, 767], "timestamp": 1693482099126, "interval": 210}, {"eventtype": "window_resize", "value": [1600, 900], "timestamp": 1693482103759, "interval": 4633}, {"eventtype": "focus", "value": "off", "timestamp": 1693482464783, "interval": 361024}, {"eventtype": "focus", "value": "on", "timestamp": 1693482464783, "interval": 0}, {"eventtype": "window_resize", "value": [1024, 767], "timestamp": 1693482464996, "interval": 213}], "useragent": "Mozilla/5.0 (Windows NT 10.0; Win64; x64) AppleWebKit/537.36 (KHTML, like Gecko) Chrome/89.0.4389.90 Safari/537.36", "mode": "live", "id": "w92268574:a11898039", "status": "user data saved", "Beginhit": "2023-08-31 11:33:43.004222", "Beginexp": "2023-08-31 11:33:58.680952", "Endhit": null, "psiturkStatus": 6, "browser": "<redacted>", "platform": "windows", "language": "en-US", "excludeReason": "quizfail"}