{"condition": 1, "counterbalance": 0, "assignmentId": "a63842106", "workerId": "w24178968", "hitId": "h91458175", "currenttrial": 68, "bonus": 0, "data": [{"uniqueid": "w24178968:a63842106", "current_trial": 0, "dateTime": 1693834702413, "trialdata": {"success": true, "trial_type": "fullscreen", "trial_index": 0, "time_elapsed": 8552, "internal_node_id": "0.0-0.0"}}, {"uniqueid": "w24178968:a63842106", "current_trial": 1, "dateTime": 1693834727353, "trialdata": {"view_history": [{"page_index": 0, "viewing_time": 24929}], "rt": 24931, "trial_id": "exp_instructions_misaligned", "trial_type": "instructions", "trial_index": 1, "time_elapsed": 33492, "internal_node_id": "0.0-1.0"}}, {"uniqueid": "w24178968:a63842106", "current_trial": 2, "dateTime": 1693834901420, "trialdata": {"view_history": [{"page_index": 0, "viewing_time": 58580}, {"page_index": 1, "viewing_time": 74002}, {"page_index": 2, "viewing_time": 21680}, {"page_index": 3, "viewing_time": 19803}], "rt": 174064, "trial_id": "mouselab_instructions_1_misaligned", "trial_type": "instructions", "trial_index": 2, "time_elapsed": 207560, "internal_node_id": "0.0-2.0-1.0"}}, {"uniqueid": "w24178968:a63842106", "current_trial": 3, "dateTime": 1693834946264, "trialdata": {"revealed_states": [], "clicked_states": ["1", "23", "12"], "num_clicks_accrued": [0, 0, 0, 0, 0, 0, 0, 0, 0, 0, 0, 0, 0], "stateRewards": ["", -10, -10, 10, -10, 10, -10, -10, -10, -10, -10, 10, 10, 10, -10, -10, -10, 10, 10, -10, -10, -10, -10, -10, -10, -10, -10, 10, 10, -10, -10, -10, -10, 10], "withholdReward": false, "trial_id": "practice_1", "block": "test", "trialIndex": 0, "score": -8, "costs": -1.5, "simulationMode": [null, null, null, null, null], "rewards": [10, 10, -10, -10, -10], "path": ["0", "0", "12", "13", "14", "19", "21"], "rt": [14958, 6017, 6278, 2967, 995], "actions": ["right", "right", "right", "down", "down"], "actionTimes": [20274, 26791, 33583, 37052, 38548], "queries": {"click": {"state": {"target": ["1", "23", "12"], "time": [9629, 10943, 12036]}, "edge": {"target": [], "time": []}}, "mouseover": {"state": {"target": ["1", "23", "12", "13", "12", "12"], "time": [9219, 10668, 11370, 11418, 11802, 18682]}, "edge": {"target": [], "time": []}}, "mouseout": {"state": {"target": ["30", "25", "0", "0", "1", "23", "12", "13", "12", "12", "12", "12", "12", "13"], "time": [null, null, 4152, 8401, 10203, 11336, 11385, 11707, 12684, 13055, 14719, 16803, 22369, 41632]}, "edge": {"target": [], "time": []}}}, "displayed_time": "39.07", "trialTime": 43595, "trial_type": "mouselab-mdp", "trial_index": 3, "time_elapsed": 252404, "internal_node_id": "0.0-2.0-2.0-0.0"}}, {"uniqueid": "w24178968:a63842106", "current_trial": 4, "dateTime": 1693834985136, "trialdata": {"revealed_states": [], "clicked_states": ["1", "10", "2", "3", "7", "12", "13", "14", "4", "8", "11", "9"], "num_clicks_accrued": [0, 0, 0, 0, 0, 0, 0, 0, 0, 0, 0, 0, 0], "stateRewards": ["", -10, -10, -10, -10, 10, -10, 10, -10, 10, -10, 10, -10, 10, -10, 10, -10, -10, 10, -10, 10, 10, 10, -10, -10, -10, 10, -10, -10, 10, 10, 10, 10, -10], "withholdReward": false, "trial_id": "practice_2", "block": "test", "trialIndex": 1, "score": -32.5, "costs": -6, "simulationMode": [null, null, null, null, null], "rewards": [-10, -10, -10, -10, 10], "path": ["0", "0", "1", "2", "3", "8", "9"], "rt": [25134, 380, 263, 356, 162], "actions": ["up", "up", "up", "left", "up"], "actionTimes": [28568, 29454, 30217, 31093, 31767], "queries": {"click": {"state": {"target": ["1", "10", "2", "3", "7", "12", "13", "14", "4", "8", "11", "9"], "time": [4561, 6396, 7426, 8725, 10884, 12073, 13571, 15398, 18253, 19694, 23151, 24201]}, "edge": {"target": [], "time": []}}, "mouseover": {"state": {"target": ["1", "2", "10", "2", "3", "7", "7", "12", "13", "14", "19", "2", "3", "4", "8", "2", "11", "9", "9", "23"], "time": [4302, 5103, 6203, 7069, 8269, 9437, 10636, 11586, 12820, 14155, 16370, 16912, 17102, 18019, 19121, 20520, 22935, 23585, 23886, 25953]}, "edge": {"target": [], "time": []}}, "mouseout": {"state": {"target": ["14", "19", "22", "12", "0", "1", "2", "10", "2", "3", "7", "7", "12", "13", "14", "19", "13", "2", "3", "4", "8", "8", "2", "8", "11", "9", "9", "23", "24", "29", "28"], "time": [1502, 1985, 2052, 2385, 3969, 4953, 5987, 6852, 7885, 9119, 10119, 11336, 12702, 14120, 16121, 16486, 16536, 16924, 17769, 18919, 19849, 20303, 22452, 22552, 23569, 23602, 24835, 36529, 36552, 36603, 36918]}, "edge": {"target": [], "time": []}}}, "displayed_time": "32.27", "trialTime": 38504, "trial_type": "mouselab-mdp", "trial_index": 4, "time_elapsed": 291275, "internal_node_id": "0.0-2.0-2.0-1.0"}}, {"uniqueid": "w24178968:a63842106", "current_trial": 5, "dateTime": 1693834999394, "trialdata": {"view_history": [{"page_index": 0, "viewing_time": 6735}, {"page_index": 1, "viewing_time": 7518}], "rt": 14254, "trial_id": "mouselab_instructions_2_misaligned", "trial_type": "instructions", "trial_index": 5, "time_elapsed": 305534, "internal_node_id": "0.0-2.0-3.0"}}, {"uniqueid": "w24178968:a63842106", "current_trial": 6, "dateTime": 1693835060562, "trialdata": {"rt": 61160, "response": {"Q0": "It is less costly to inspect further nodes.", "Q1": "The better I perform the higher my bonus will be.", "Q2": "No, the amount of cash at each node of the web may be different each time.", "Q3": "To get the highest total score.", "Q4": "Only before moving the spider.", "Q5": "3 seconds"}, "question_order": [0, 1, 2, 3, 4, 5], "correct": {"Q0": "The cost for clicking on nodes may vary between nodes.", "Q1": "The better I perform the higher my bonus will be.", "Q2": "No, the amount of cash at each node of the web may be different each time.", "Q3": "To get the highest total score.", "Q4": "Only before moving the spider.", "Q5": "3 seconds"}, "trial_id": "mouselab_quiz_misaligned", "trial_type": "survey-multi-choice", "trial_index": 6, "time_elapsed": 366701, "internal_node_id": "0.0-2.0-4.0"}}, {"uniqueid": "w24178968:a63842106", "current_trial": 7, "dateTime": 1693835066131, "trialdata": {"success": true, "trial_type": "fullscreen", "trial_index": 7, "time_elapsed": 372271, "internal_node_id": "0.0-2.1-0.1-0.1"}}, {"uniqueid": "w24178968:a63842106", "current_trial": 8, "dateTime": 1693835115430, "trialdata": {"view_history": [{"page_index": 0, "viewing_time": 5341}, {"page_index": 1, "viewing_time": 4600}, {"page_index": 2, "viewing_time": 15179}, {"page_index": 3, "viewing_time": 24177}], "rt": 49298, "trial_id": "mouselab_instructions_1_misaligned", "trial_type": "instructions", "trial_index": 8, "time_elapsed": 421570, "internal_node_id": "0.0-2.1-1.1"}}, {"uniqueid": "w24178968:a63842106", "current_trial": 9, "dateTime": 1693835138672, "trialdata": {"revealed_states": [], "clicked_states": ["28", "24", "12", "23"], "num_clicks_accrued": [0, 0, 0, 0, 0, 0, 0, 0, 0, 0, 0, 0, 0], "stateRewards": ["", -10, -10, 10, -10, 10, -10, -10, -10, -10, -10, 10, 10, 10, -10, -10, -10, 10, 10, -10, -10, -10, -10, -10, -10, -10, -10, 10, 10, -10, -10, -10, -10, 10], "withholdReward": false, "trial_id": "practice_1", "block": "test", "trialIndex": 2, "score": -28.5, "costs": -2, "simulationMode": [null, null, null, null, null], "rewards": [-10, -10, 10, -10, -10], "path": ["0", "0", "1", "2", "3", "8", "9"], "rt": [9580, 3279, 767, 1848, 9], "actions": ["up", "up", "up", "left", "up"], "actionTimes": [12583, 16375, 17645, 19994, 20521], "queries": {"click": {"state": {"target": ["28", "24", "12", "23"], "time": [5430, 6499, 9108, 10865]}, "edge": {"target": [], "time": []}}, "mouseover": {"state": {"target": ["1", "1", "23", "24", "28", "24", "23", "0", "12", "0", "23", "1"], "time": [3677, 3926, 4526, 4960, 5226, 6176, 7546, 7976, 8877, 9693, 10226, 11644]}, "edge": {"target": [], "time": []}}, "mouseout": {"state": {"target": ["0", "1", "1", "23", "24", "28", "24", "23", "0", "12", "0", "23"], "time": [3510, 3693, 4477, 4901, 5077, 6026, 7543, 7560, 8077, 9629, 10026, 11328]}, "edge": {"target": [], "time": []}}}, "displayed_time": "21.05", "trialTime": 22868, "trial_type": "mouselab-mdp", "trial_index": 9, "time_elapsed": 444812, "internal_node_id": "0.0-2.1-2.1-0.1"}}, {"uniqueid": "w24178968:a63842106", "current_trial": 10, "dateTime": 1693835165066, "trialdata": {"revealed_states": [], "clicked_states": [], "num_clicks_accrued": [0, 0, 0, 0, 0, 0, 0, 0, 0, 0, 0, 0, 0], "stateRewards": ["", -10, -10, -10, -10, 10, -10, 10, -10, 10, -10, 10, -10, 10, -10, 10, -10, -10, 10, -10, 10, 10, 10, -10, -10, -10, 10, -10, -10, 10, 10, 10, 10, -10], "withholdReward": false, "trial_id": "practice_2", "block": "test", "trialIndex": 3, "score": -26.5, "costs": 0, "simulationMode": [null, null, null, null, null], "rewards": [-10, -10, -10, -10, 10], "path": ["0", "0", "1", "2", "3", "8", "11"], "rt": [11177, 3378, 955, 809, 137], "actions": ["up", "up", "up", "left", "left"], "actionTimes": [12040, 15922, 17415, 18737, 19364], "queries": {"click": {"state": {"target": [], "time": []}, "edge": {"target": [], "time": []}}, "mouseover": {"state": {"target": ["23", "24", "24", "23", "0", "0", "18", "13", "15", "13", "12", "12", "13", "12", "1", "2", "3", "2", "1", "2", "8", "10"], "time": [1575, 1925, 3225, 3244, 3308, 3525, 3675, 3892, 5413, 5891, 5958, 6375, 6425, 7025, 7660, 7725, 8608, 8975, 9208, 9842, 10425, 11360]}, "edge": {"target": [], "time": []}}, "mouseout": {"state": {"target": ["1", "12", "0", "23", "24", "24", "23", "0", "0", "18", "13", "15", "13", "12", "12", "13", "12", "1", "2", "3", "2", "1", "2", "8", "10", "28", "8", "3"], "time": [null, null, 1525, 1708, 2075, 3241, 3275, 3325, 3592, 3691, 4492, 5608, 5925, 6141, 6409, 7009, 7091, 7691, 8581, 8675, 9108, 9825, 9862, 11291, 13094, 13258, 14958, 15158]}, "edge": {"target": [], "time": []}}}, "displayed_time": "19.88", "trialTime": 23461, "trial_type": "mouselab-mdp", "trial_index": 10, "time_elapsed": 471205, "internal_node_id": "0.0-2.1-2.1-1.1"}}, {"uniqueid": "w24178968:a63842106", "current_trial": 11, "dateTime": 1693835211681, "trialdata": {"view_history": [{"page_index": 0, "viewing_time": 36764}, {"page_index": 1, "viewing_time": 9846}], "rt": 46611, "trial_id": "mouselab_instructions_2_misaligned", "trial_type": "instructions", "trial_index": 11, "time_elapsed": 517821, "internal_node_id": "0.0-2.1-3.1"}}, {"uniqueid": "w24178968:a63842106", "current_trial": 12, "dateTime": 1693835256334, "trialdata": {"rt": 44650, "response": {"Q0": "The cost for clicking on nodes may vary between nodes.", "Q1": "The better I perform the higher my bonus will be.", "Q2": "No, the amount of cash at each node of the web may be different each time.", "Q3": "To get the highest total score.", "Q4": "Only before moving the spider.", "Q5": "10 seconds"}, "question_order": [0, 1, 2, 3, 4, 5], "correct": {"Q0": "The cost for clicking on nodes may vary between nodes.", "Q1": "The better I perform the higher my bonus will be.", "Q2": "No, the amount of cash at each node of the web may be different each time.", "Q3": "To get the highest total score.", "Q4": "Only before moving the spider.", "Q5": "3 seconds"}, "trial_id": "mouselab_quiz_misaligned", "trial_type": "survey-multi-choice", "trial_index": 12, "time_elapsed": 562474, "internal_node_id": "0.0-2.1-4.1"}}, {"uniqueid": "w24178968:a63842106", "current_trial": 13, "dateTime": 1693835266867, "trialdata": {"success": true, "trial_type": "fullscreen", "trial_index": 13, "time_elapsed": 573007, "internal_node_id": "0.0-2.2-0.2-0.2"}}, {"uniqueid": "w24178968:a63842106", "current_trial": 14, "dateTime": 1693835344792, "trialdata": {"view_history": [{"page_index": 0, "viewing_time": 11693}, {"page_index": 1, "viewing_time": 59976}, {"page_index": 2, "viewing_time": 4917}, {"page_index": 3, "viewing_time": 1328}], "rt": 77915, "trial_id": "mouselab_instructions_1_misaligned", "trial_type": "instructions", "trial_index": 14, "time_elapsed": 650932, "internal_node_id": "0.0-2.2-1.2"}}, {"uniqueid": "w24178968:a63842106", "current_trial": 15, "dateTime": 1693835364036, "trialdata": {"revealed_states": [], "clicked_states": ["23", "12"], "num_clicks_accrued": [0, 0, 0, 0, 0, 0, 0, 0, 0, 0, 0, 0, 0], "stateRewards": ["", -10, -10, 10, -10, 10, -10, -10, -10, -10, -10, 10, 10, 10, -10, -10, -10, 10, 10, -10, -10, -10, -10, -10, -10, -10, -10, 10, 10, -10, -10, -10, -10, 10], "withholdReward": false, "trial_id": "practice_1", "block": "test", "trialIndex": 4, "score": -7.5, "costs": -1, "simulationMode": [null, null, null, null, null], "rewards": [10, 10, -10, -10, -10], "path": ["0", "0", "12", "13", "14", "19", "21"], "rt": [7408, 1699, 736, 516, 156], "actions": ["right", "right", "right", "down", "down"], "actionTimes": [10308, 12535, 13776, 14803, 15476], "queries": {"click": {"state": {"target": ["23", "12"], "time": [4549, 7287]}, "edge": {"target": [], "time": []}}, "mouseover": {"state": {"target": ["0", "23", "24", "23", "0", "12", "24", "0", "12", "1"], "time": [3049, 3433, 3650, 4250, 4935, 5049, 6266, 6716, 7082, 8849]}, "edge": {"target": [], "time": []}}, "mouseout": {"state": {"target": ["0", "0", "23", "24", "23", "0", "12", "24", "23", "0", "12", "1"], "time": [1231, 3384, 3532, 4183, 4916, 4982, 6132, 6601, 6666, 6950, 8633, 9182]}, "edge": {"target": [], "time": []}}}, "displayed_time": "15.99", "trialTime": 18790, "trial_type": "mouselab-mdp", "trial_index": 15, "time_elapsed": 670175, "internal_node_id": "0.0-2.2-2.2-0.2"}}, {"uniqueid": "w24178968:a63842106", "current_trial": 16, "dateTime": 1693835398222, "trialdata": {"revealed_states": [], "clicked_states": ["1", "23", "12", "13", "14", "19", "21", "15", "16"], "num_clicks_accrued": [0, 0, 0, 0, 0, 0, 0, 0, 0, 0, 0, 0, 0], "stateRewards": ["", -10, -10, -10, -10, 10, -10, 10, -10, 10, -10, 10, -10, 10, -10, 10, -10, -10, 10, -10, 10, 10, 10, -10, -10, -10, 10, -10, -10, 10, 10, 10, 10, -10], "withholdReward": false, "trial_id": "practice_2", "block": "test", "trialIndex": 5, "score": 9, "costs": -4.5, "simulationMode": [null, null, null, null, null], "rewards": [-10, 10, -10, 10, 10], "path": ["0", "0", "12", "13", "14", "15", "18"], "rt": [24463, 355, 213, 339, 119], "actions": ["right", "right", "right", "up", "left"], "actionTimes": [27567, 28422, 29140, 29972, 30600], "queries": {"click": {"state": {"target": ["1", "23", "12", "13", "14", "19", "21", "15", "16"], "time": [5518, 7288, 9303, 13641, 17315, 19177, 20855, 23289, 25323]}, "edge": {"target": [], "time": []}}, "mouseover": {"state": {"target": ["14", "1", "23", "12", "12", "19", "14", "13", "14", "14", "14", "19", "19", "21", "21", "14", "15", "15", "16"], "time": [4763, 5080, 6281, 8780, 9083, 9900, 13180, 13413, 14250, 14745, 15214, 17863, 18230, 19666, 20115, 22430, 22513, 23180, 23847]}, "edge": {"target": [], "time": []}}, "mouseout": {"state": {"target": ["0", "14", "1", "23", "12", "12", "19", "14", "13", "14", "14", "14", "19", "19", "21", "21", "19", "14", "15", "15", "16", "16", "15"], "time": [3680, 4997, 6048, 7732, 8930, 9883, 9915, 13313, 14216, 14332, 14829, 17798, 18080, 19647, 19849, 22232, 22379, 22463, 22910, 23445, 25492, 25757, 25814]}, "edge": {"target": [], "time": []}}}, "displayed_time": "31.10", "trialTime": 33775, "trial_type": "mouselab-mdp", "trial_index": 16, "time_elapsed": 704361, "internal_node_id": "0.0-2.2-2.2-1.2"}}, {"uniqueid": "w24178968:a63842106", "current_trial": 17, "dateTime": 1693835406761, "trialdata": {"view_history": [{"page_index": 0, "viewing_time": 6877}, {"page_index": 1, "viewing_time": 1657}], "rt": 8534, "trial_id": "mouselab_instructions_2_misaligned", "trial_type": "instructions", "trial_index": 17, "time_elapsed": 712901, "internal_node_id": "0.0-2.2-3.2"}}, {"uniqueid": "w24178968:a63842106", "current_trial": 18, "dateTime": 1693835438873, "trialdata": {"rt": 32107, "response": {"Q0": "The cost for clicking on nodes may vary between nodes.", "Q1": "The better I perform the higher my bonus will be.", "Q2": "No, the amount of cash at each node of the web may be different each time.", "Q3": "To get the highest total score.", "Q4": "Only before moving the spider.", "Q5": "3 seconds"}, "question_order": [0, 1, 2, 3, 4, 5], "correct": {"Q0": "The cost for clicking on nodes may vary between nodes.", "Q1": "The better I perform the higher my bonus will be.", "Q2": "No, the amount of cash at each node of the web may be different each time.", "Q3": "To get the highest total score.", "Q4": "Only before moving the spider.", "Q5": "3 seconds"}, "trial_id": "mouselab_quiz_misaligned", "trial_type": "survey-multi-choice", "trial_index": 18, "time_elapsed": 745013, "internal_node_id": "0.0-2.2-4.2"}}, {"uniqueid": "w24178968:a63842106", "current_trial": 19, "dateTime": 1693835447622, "trialdata": {"rt": 8733, "response": {"Q0": "No"}, "question_order": [0], "trial_id": "repeat_check", "trial_type": "survey-multi-choice", "trial_index": 19, "time_elapsed": 753761, "internal_node_id": "0.0-4.0-0.0"}}, {"uniqueid": "w24178968:a63842106", "current_trial": 20, "dateTime": 1693835451949, "trialdata": {"rt": 4318, "stimulus": "\n<h1> Get ready to start the game! </h1>\n\nThank you for reading the instructions. Get ready start with the 40 rounds of this game.\n<br><br>\nIf you need to take a break, feel free to take one after the end of a round, before continuing to the next one.\n<br><br>\nRemember, the more money the spider gets, the bigger your bonus will be!\n<br><br>\n<div style='text-align: center;'>Press <code>space</code> to begin.</div>\n\n<br><br>\n(If, at any point, the <code>space</code> key does not take you to the next page, click once on the text and try again.)", "response": " ", "trial_id": "mdp_ready", "trial_type": "html-keyboard-response", "trial_index": 20, "time_elapsed": 758089, "internal_node_id": "0.0-6.0-0.0"}}, {"uniqueid": "w24178968:a63842106", "current_trial": 21, "dateTime": 1693835477727, "trialdata": {"revealed_states": [], "clicked_states": ["12", "13", "14", "15", "18", "19", "22"], "num_clicks_accrued": [0, 0, 0, 0, 0, 0, 0, 0, 0, 0, 0, 0, 0], "stateRewards": ["", 2, -4, 4, 9, 69, 9, -75, 12, -86, 66, 25, -1, 3, 2, -13, -88, -3, 1, 4, -69, 49, -84, 2, -1, 4, 2, -18, -81, -52, -15, -69, -54, 25], "withholdReward": false, "trial_id": "mdp_trial_1", "block": "test", "trialIndex": 6, "score": -69.45, "costs": -8.45, "simulationMode": [null, null, null, null, null], "rewards": [-1, 3, 2, 4, -69], "path": ["0", "0", "12", "13", "14", "19", "20"], "rt": [15397, 175, 177, 166, 238], "actions": ["right", "right", "right", "down", "right"], "actionTimes": [18091, 18783, 19480, 20153, 20910], "queries": {"click": {"state": {"target": ["12", "13", "14", "15", "18", "19", "22"], "time": [3516, 4906, 5938, 7112, 8131, 11655, 12784]}, "edge": {"target": [], "time": []}}, "mouseover": {"state": {"target": ["12", "13", "14", "15", "18", "19", "22", "19", "20"], "time": [2815, 3833, 5338, 6450, 7717, 8601, 12467, 16416, 17300]}, "edge": {"target": [], "time": []}}, "mouseout": {"state": {"target": ["2", "24", "31", "0", "12", "13", "14", "15", "18", "14", "19", "22", "19"], "time": [1215, 1265, 1533, 2782, 3768, 5235, 6252, 7420, 8516, 8568, 12355, 16267, 16517]}, "edge": {"target": [], "time": []}}}, "displayed_time": "21.42", "trialTime": 25318, "trial_type": "mouselab-mdp", "trial_index": 21, "time_elapsed": 783866, "internal_node_id": "0.0-6.0-1.0-0.0"}}, {"uniqueid": "w24178968:a63842106", "current_trial": 22, "dateTime": 1693835499071, "trialdata": {"revealed_states": [], "clicked_states": ["1", "2", "3", "8", "10"], "num_clicks_accrued": [0, 0, 0, 0, 0, 0, 0, 0, 0, 0, 0, 0, 0], "stateRewards": ["", 1, 3, 3, -10, 52, 68, 59, 12, 7, 49, 21, -2, -3, -4, -2, -2, 63, 63, -4, 44, 43, -76, -2, -3, -6, 13, 48, 36, 12, -5, -36, -33, -11], "withholdReward": false, "trial_id": "mdp_trial_2", "block": "test", "trialIndex": 7, "score": 63.25, "costs": -4.75, "simulationMode": [null, null, null, null, null], "rewards": [1, 3, 3, 12, 49], "path": ["0", "0", "1", "2", "3", "8", "10"], "rt": [9098, 137, 96, 14, 136], "actions": ["up", "up", "up", "left", "down"], "actionTimes": [12227, 12880, 13489, 14021, 14694], "queries": {"click": {"state": {"target": ["1", "2", "3", "8", "10"], "time": [4034, 4999, 5965, 7101, 8102]}, "edge": {"target": [], "time": []}}, "mouseover": {"state": {"target": ["1", "2", "3", "8", "10"], "time": [3571, 4637, 5638, 6438, 7505]}, "edge": {"target": [], "time": []}}, "mouseout": {"state": {"target": ["20", "14", "13", "1", "12", "0", "1", "2", "3", "8", "10", "10"], "time": [370, 453, 487, 2203, 2536, 3470, 4438, 5438, 6355, 7340, 8637, 11387]}, "edge": {"target": [], "time": []}}}, "displayed_time": "17.13", "trialTime": 20898, "trial_type": "mouselab-mdp", "trial_index": 22, "time_elapsed": 805210, "internal_node_id": "0.0-6.0-1.0-1.0"}}, {"uniqueid": "w24178968:a63842106", "current_trial": 23, "dateTime": 1693835518067, "trialdata": {"revealed_states": [], "clicked_states": ["23", "24", "25", "30", "31"], "num_clicks_accrued": [0, 0, 0, 0, 0, 0, 0, 0, 0, 0, 0, 0, 0], "stateRewards": ["", 2, 3, 6, -5, -74, -53, 17, -12, 46, 44, 18, -2, 4, 1, -8, 22, -23, -49, 9, -45, 55, 81, 1, -1, -7, -16, -83, -71, -45, 2, 51, 82, 61], "withholdReward": false, "trial_id": "mdp_trial_3", "block": "test", "trialIndex": 8, "score": 41.25, "costs": -4.75, "simulationMode": [null, null, null, null, null], "rewards": [1, -1, -7, 2, 51], "path": ["0", "0", "23", "24", "25", "30", "31"], "rt": [10180, 112, 138, 123, 183], "actions": ["left", "left", "left", "down", "right"], "actionTimes": [12641, 13269, 13926, 14579, 15287], "queries": {"click": {"state": {"target": ["23", "24", "25", "30", "31"], "time": [3933, 5008, 6020, 7309, 8138]}, "edge": {"target": [], "time": []}}, "mouseover": {"state": {"target": ["23", "23", "24", "25", "30", "30", "31", "32", "24"], "time": [2968, 3501, 4784, 5552, 6486, 6851, 7755, 8535, 11902]}, "edge": {"target": [], "time": []}}, "mouseout": {"state": {"target": ["13", "0", "23", "23", "24", "25", "30", "30", "31", "31", "32", "24"], "time": [884, 2685, 3019, 4331, 5173, 6161, 6521, 7719, 8315, 8485, 11851, 11967]}, "edge": {"target": [], "time": []}}}, "displayed_time": "16.46", "trialTime": 18526, "trial_type": "mouselab-mdp", "trial_index": 23, "time_elapsed": 824206, "internal_node_id": "0.0-6.0-1.0-2.0"}}, {"uniqueid": "w24178968:a63842106", "current_trial": 24, "dateTime": 1693835556221, "trialdata": {"revealed_states": [], "clicked_states": ["1", "2", "3", "8", "10", "4", "7", "6", "5", "12", "13", "14", "19", "22"], "num_clicks_accrued": [0, 0, 0, 0, 0, 0, 0, 0, 0, 0, 0, 0, 0], "stateRewards": ["", 1, -2, -3, 14, -42, -87, -37, -11, -50, 33, -44, -2, 4, -7, 13, 48, -75, -66, 12, 23, -2, 82, 1, -4, 3, 12, 51, -15, -26, -11, -52, -29, 82], "withholdReward": false, "trial_id": "mdp_trial_4", "block": "test", "trialIndex": 9, "score": 71.5, "costs": -17.5, "simulationMode": [null, null, null, null, null], "rewards": [-2, 4, -7, 12, 82], "path": ["0", "0", "12", "13", "14", "19", "22"], "rt": [30350, 138, 74, 69, 159], "actions": ["right", "right", "right", "down", "left"], "actionTimes": [32032, 32684, 33267, 33845, 34518], "queries": {"click": {"state": {"target": ["1", "2", "3", "8", "10", "4", "7", "6", "5", "12", "13", "14", "19", "22"], "time": [2399, 3309, 4187, 5156, 6125, 10051, 11489, 15697, 19174, 24052, 25023, 25819, 26685, 27660]}, "edge": {"target": [], "time": []}}, "mouseover": {"state": {"target": ["1", "2", "3", "8", "10", "5", "4", "7", "18", "6", "5", "4", "2", "1", "12", "12", "13", "14", "19", "22", "13", "19"], "time": [2090, 3006, 3773, 4723, 5609, 6560, 6873, 10456, 12508, 15323, 16325, 19956, 22840, 22890, 23314, 23673, 24459, 25391, 26355, 27155, 31223, 31407]}, "edge": {"target": [], "time": []}}, "mouseout": {"state": {"target": ["23", "1", "2", "3", "8", "10", "5", "4", "7", "7", "18", "6", "5", "5", "4", "2", "1", "12", "12", "13", "14", "19", "22", "13", "19"], "time": [1024, 2841, 3673, 4659, 5579, 6527, 6758, 10440, 11833, 12427, 12790, 16241, 19300, 19706, 20139, 22859, 22926, 23340, 24357, 25340, 26276, 26828, 31096, 31373, 31426]}, "edge": {"target": [], "time": []}}}, "displayed_time": "35.02", "trialTime": 37703, "trial_type": "mouselab-mdp", "trial_index": 24, "time_elapsed": 862360, "internal_node_id": "0.0-6.0-1.0-3.0"}}, {"uniqueid": "w24178968:a63842106", "current_trial": 25, "dateTime": 1693835574231, "trialdata": {"revealed_states": [], "clicked_states": ["23", "24", "25", "30", "32"], "num_clicks_accrued": [0, 0, 0, 0, 0, 0, 0, 0, 0, 0, 0, 0, 0], "stateRewards": ["", 2, -2, 7, -11, -76, -65, -23, 16, -58, 30, 81, 1, 2, 7, 14, 9, 55, -2, 6, 11, -15, 31, -1, -1, -3, 2, 15, 2, 46, 15, 18, 45, -34], "withholdReward": false, "trial_id": "mdp_trial_5", "block": "test", "trialIndex": 10, "score": 50.25, "costs": -4.75, "simulationMode": [null, null, null, null, null], "rewards": [-1, -1, -3, 15, 45], "path": ["0", "0", "23", "24", "25", "30", "32"], "rt": [8720, 70, 101, 157, 124], "actions": ["left", "left", "left", "down", "down"], "actionTimes": [10540, 11118, 11732, 12389, 13036], "queries": {"click": {"state": {"target": ["23", "24", "25", "30", "32"], "time": [2769, 3682, 4330, 5383, 6180]}, "edge": {"target": [], "time": []}}, "mouseover": {"state": {"target": ["23", "23", "24", "25", "30", "32", "31", "31", "31"], "time": [1941, 2445, 3494, 4192, 4795, 5826, 7060, 7560, 9577]}, "edge": {"target": [], "time": []}}, "mouseout": {"state": {"target": ["22", "0", "23", "23", "24", "25", "30", "32", "30", "31", "31", "31"], "time": [875, 1908, 2386, 3149, 4066, 4760, 5799, 6776, 6846, 7277, 8778, 9778]}, "edge": {"target": [], "time": []}}}, "displayed_time": "15.82", "trialTime": 17517, "trial_type": "mouselab-mdp", "trial_index": 25, "time_elapsed": 880370, "internal_node_id": "0.0-6.0-1.0-4.0"}}, {"uniqueid": "w24178968:a63842106", "current_trial": 26, "dateTime": 1693835603639, "trialdata": {"revealed_states": [], "clicked_states": ["30", "25", "24", "23", "12", "13", "19", "22", "21", "20"], "num_clicks_accrued": [0, 0, 0, 0, 0, 0, 0, 0, 0, 0, 0, 0, 0], "stateRewards": ["", -2, -1, -2, -15, 87, 57, 29, -10, 77, -80, -7, 1, -3, 6, 14, -11, 87, -59, 4, -71, 16, -11, 2, 2, -7, 2, -47, 61, 50, 14, -20, 17, 81], "withholdReward": false, "trial_id": "mdp_trial_6", "block": "test", "trialIndex": 11, "score": -19.700000000000003, "costs": -10.700000000000001, "simulationMode": [null, null, null, null, null], "rewards": [2, 2, -7, 14, -20], "path": ["0", "0", "23", "24", "25", "30", "31"], "rt": [20443, 111, 152, 105, 862], "actions": ["left", "left", "left", "down", "right"], "actionTimes": [22163, 22775, 23448, 24071, 25441], "queries": {"click": {"state": {"target": ["30", "25", "24", "23", "12", "13", "19", "22", "21", "20"], "time": [4122, 5158, 5892, 6697, 8064, 9012, 10198, 11048, 14792, 18112]}, "edge": {"target": [], "time": []}}, "mouseover": {"state": {"target": ["23", "23", "24", "30", "32", "30", "25", "24", "23", "0", "22", "13", "12", "13", "19", "22", "14", "21", "21", "20", "20", "13"], "time": [1959, 2475, 2659, 3062, 3425, 3746, 4610, 5559, 6424, 7025, 7493, 7659, 7825, 8392, 9725, 10828, 11676, 13258, 14392, 15380, 15760, 18614]}, "edge": {"target": [], "time": []}}, "mouseout": {"state": {"target": ["31", "30", "25", "0", "23", "23", "24", "30", "32", "30", "25", "24", "23", "0", "22", "13", "12", "13", "19", "22", "19", "14", "22", "21", "22", "21", "20", "20", "13", "32"], "time": [792, 891, 908, 1374, 2159, 2609, 2892, 3375, 3742, 4545, 5492, 6341, 7010, 7060, 7526, 7709, 8345, 9462, 10762, 11376, 11559, 12393, 12559, 13542, 14345, 15362, 15398, 18594, 18632, 28310]}, "edge": {"target": [], "time": []}}}, "displayed_time": "25.94", "trialTime": 28875, "trial_type": "mouselab-mdp", "trial_index": 26, "time_elapsed": 909779, "internal_node_id": "0.0-6.0-1.0-5.0"}}, {"uniqueid": "w24178968:a63842106", "current_trial": 27, "dateTime": 1693835632520, "trialdata": {"revealed_states": [], "clicked_states": ["1", "2", "3", "8", "10", "4", "7", "5", "6"], "num_clicks_accrued": [0, 0, 0, 0, 0, 0, 0, 0, 0, 0, 0, 0, 0], "stateRewards": ["", -2, -4, -2, 10, -8, -15, -47, 7, -84, 53, 5, -1, 2, -7, 3, 83, 31, 47, -1, 30, -8, 69, 2, -4, -1, 8, -7, 12, -8, -8, -13, 30, -84], "withholdReward": false, "trial_id": "mdp_trial_7", "block": "test", "trialIndex": 12, "score": 39.25, "costs": -12.75, "simulationMode": [null, null, null, null, null], "rewards": [-2, -4, -2, 7, 53], "path": ["0", "0", "1", "2", "3", "8", "10"], "rt": [20179, 506, 118, 649, 82], "actions": ["up", "up", "up", "left", "down"], "actionTimes": [23450, 24481, 25105, 26270, 26864], "queries": {"click": {"state": {"target": ["1", "2", "3", "8", "10", "4", "7", "5", "6"], "time": [5029, 5620, 6236, 7068, 7840, 10985, 12513, 16500, 20290]}, "edge": {"target": [], "time": []}}, "mouseover": {"state": {"target": ["2", "2", "1", "2", "3", "8", "10", "4", "4", "7", "6", "5", "6", "6"], "time": [3768, 4118, 4768, 5318, 5934, 6834, 7468, 8302, 8568, 12085, 13103, 16167, 16853, 17135]}, "edge": {"target": [], "time": []}}, "mouseout": {"state": {"target": ["12", "13", "20", "12", "0", "2", "2", "1", "2", "3", "8", "10", "4", "4", "7", "6", "5", "5", "6", "6", "7", "1", "0"], "time": [2217, 2250, 2383, 2466, 3416, 4002, 4752, 5285, 5852, 6584, 7385, 8219, 8318, 12065, 13017, 16001, 16660, 16821, 16919, 27953, 27984, 28017, 28069]}, "edge": {"target": [], "time": []}}}, "displayed_time": "27.39", "trialTime": 28399, "trial_type": "mouselab-mdp", "trial_index": 27, "time_elapsed": 938659, "internal_node_id": "0.0-6.0-1.0-6.0"}}, {"uniqueid": "w24178968:a63842106", "current_trial": 28, "dateTime": 1693835656262, "trialdata": {"revealed_states": [], "clicked_states": ["12", "13", "14", "19", "22", "21", "20"], "num_clicks_accrued": [0, 0, 0, 0, 0, 0, 0, 0, 0, 0, 0, 0, 0], "stateRewards": ["", 2, -2, -8, 9, -20, 55, -58, 14, 42, 2, 36, 1, -3, -5, 5, -58, 57, 60, 16, 57, 30, -70, -2, 1, 3, 10, 59, 23, 77, -13, -26, 88, -72], "withholdReward": false, "trial_id": "mdp_trial_8", "block": "test", "trialIndex": 13, "score": 56.95, "costs": -9.05, "simulationMode": [null, null, null, null, null], "rewards": [1, -3, -5, 16, 57], "path": ["0", "0", "12", "13", "14", "19", "20"], "rt": [16337, 109, 144, 170, 136], "actions": ["right", "right", "right", "down", "right"], "actionTimes": [18705, 19323, 19975, 20648, 21301], "queries": {"click": {"state": {"target": ["12", "13", "14", "19", "22", "21", "20"], "time": [4210, 5022, 6014, 6826, 7706, 11007, 14571]}, "edge": {"target": [], "time": []}}, "mouseover": {"state": {"target": ["1", "12", "12", "13", "14", "19", "22", "21", "20", "19", "12"], "time": [2793, 3560, 3829, 4766, 5776, 6429, 7478, 8309, 11727, 15278, 15644]}, "edge": {"target": [], "time": []}}, "mouseout": {"state": {"target": ["10", "2", "1", "0", "1", "12", "12", "13", "14", "19", "22", "21", "20", "19", "12"], "time": [1242, 1341, 1359, 2738, 3543, 3684, 4661, 5495, 6411, 7331, 8227, 11480, 15260, 15293, 16010]}, "edge": {"target": [], "time": []}}}, "displayed_time": "21.82", "trialTime": 23249, "trial_type": "mouselab-mdp", "trial_index": 28, "time_elapsed": 962401, "internal_node_id": "0.0-6.0-1.0-7.0"}}, {"uniqueid": "w24178968:a63842106", "current_trial": 29, "dateTime": 1693835686247, "trialdata": {"revealed_states": [], "clicked_states": ["23", "12", "1", "2", "10", "13", "19", "14", "24", "25", "30", "32", "31"], "num_clicks_accrued": [0, 0, 0, 0, 0, 0, 0, 0, 0, 0, 0, 0, 0], "stateRewards": ["", 2, -3, -5, 5, 11, -9, -33, 6, 67, 6, -30, -1, -2, -6, 13, 55, 13, 72, -14, 75, 21, -66, -2, -4, 6, 15, -1, -35, 60, 2, 51, -73, 12], "withholdReward": false, "trial_id": "mdp_trial_9", "block": "test", "trialIndex": 14, "score": 41.25, "costs": -11.75, "simulationMode": [null, null, null, null, null], "rewards": [-2, -4, 6, 2, 51], "path": ["0", "0", "23", "24", "25", "30", "31"], "rt": [23219, 60, 99, 75, 90], "actions": ["left", "left", "left", "down", "right"], "actionTimes": [25665, 26233, 26840, 27418, 28031], "queries": {"click": {"state": {"target": ["23", "12", "1", "2", "10", "13", "19", "14", "24", "25", "30", "32", "31"], "time": [3236, 4984, 5947, 6862, 8365, 12215, 13308, 14083, 15289, 15992, 16822, 17769, 21207]}, "edge": {"target": [], "time": []}}, "mouseover": {"state": {"target": ["23", "24", "0", "12", "1", "2", "10", "3", "2", "1", "22", "19", "19", "13", "19", "14", "22", "0", "23", "24", "25", "30", "32", "31", "30", "33"], "time": [2889, 3857, 4420, 4805, 5655, 6589, 7639, 9323, 9990, 10314, 11405, 11427, 11738, 12023, 13043, 13824, 14523, 14721, 14854, 15038, 15763, 16438, 17374, 18488, 21655, 21907]}, "edge": {"target": [], "time": []}}, "mouseout": {"state": {"target": ["0", "23", "0", "23", "24", "23", "0", "12", "1", "2", "10", "3", "2", "1", "22", "19", "19", "13", "19", "14", "22", "0", "23", "24", "25", "30", "32", "31", "30", "33", "31"], "time": [1387, 1688, 2738, 3791, 4338, 4403, 4540, 5557, 6424, 7342, 9107, 9940, 10266, 10356, 11422, 11456, 11772, 12772, 13758, 14506, 14623, 14738, 14972, 15739, 16406, 17306, 18288, 21623, 21755, 24806, 24888]}, "edge": {"target": [], "time": []}}}, "displayed_time": "28.52", "trialTime": 29481, "trial_type": "mouselab-mdp", "trial_index": 29, "time_elapsed": 992386, "internal_node_id": "0.0-6.0-1.0-8.0"}}, {"uniqueid": "w24178968:a63842106", "current_trial": 30, "dateTime": 1693835713656, "trialdata": {"revealed_states": [], "clicked_states": ["1", "2", "3", "8", "10", "4", "7", "20", "22"], "num_clicks_accrued": [0, 0, 0, 0, 0, 0, 0, 0, 0, 0, 0, 0, 0], "stateRewards": ["", -1, 1, 8, -3, -24, 11, -65, -6, -77, 48, 44, -2, 1, -2, -7, -55, -35, 33, 8, -28, 19, -53, -1, -1, -5, -5, -70, 10, 44, 8, -58, -70, 51], "withholdReward": false, "trial_id": "mdp_trial_10", "block": "test", "trialIndex": 15, "score": 37.25, "costs": -12.75, "simulationMode": [null, null, null, null, null], "rewards": [-1, 1, 8, -6, 48], "path": ["0", "0", "1", "2", "3", "8", "10"], "rt": [19420, 290, 113, 451, 80], "actions": ["up", "up", "up", "left", "down"], "actionTimes": [22168, 22969, 23607, 24564, 25158], "queries": {"click": {"state": {"target": ["1", "2", "3", "8", "10", "4", "7", "20", "22"], "time": [3347, 4142, 4879, 5728, 6540, 10431, 11206, 14956, 18817]}, "edge": {"target": [], "time": []}}, "mouseover": {"state": {"target": ["1", "2", "3", "8", "10", "4", "7", "14", "20", "20", "21", "22", "22"], "time": [2858, 3926, 4543, 5413, 6292, 7207, 10793, 14442, 14495, 14758, 15557, 18240, 18441]}, "edge": {"target": [], "time": []}}, "mouseout": {"state": {"target": ["33", "27", "16", "18", "1", "18", "13", "13", "12", "1", "2", "3", "8", "10", "3", "4", "7", "14", "20", "20", "21", "22", "22"], "time": [374, 491, 1159, 1207, 1508, 1591, 1708, 2074, 2141, 3776, 4493, 5309, 6160, 6976, 7026, 10777, 14409, 14460, 14526, 15492, 18207, 18324, 26158]}, "edge": {"target": [], "time": []}}}, "displayed_time": "25.68", "trialTime": 26911, "trial_type": "mouselab-mdp", "trial_index": 30, "time_elapsed": 1019796, "internal_node_id": "0.0-6.0-1.0-9.0"}}, {"uniqueid": "w24178968:a63842106", "current_trial": 31, "dateTime": 1693835754925, "trialdata": {"revealed_states": [], "clicked_states": ["23", "24", "25", "26", "28", "30", "32", "31", "33", "20", "22", "21"], "num_clicks_accrued": [0, 0, 0, 0, 0, 0, 0, 0, 0, 0, 0, 0, 0], "stateRewards": ["", -2, 1, -7, 9, 8, 25, 61, -7, -17, 69, -81, 1, 4, -4, -11, 16, 67, 44, 3, 6, -45, -54, -2, 3, 6, -11, -15, 32, -47, 3, -39, -6, -88], "withholdReward": false, "trial_id": "mdp_trial_11", "block": "test", "trialIndex": 16, "score": 8.8, "costs": -19.2, "simulationMode": [null, null, null, null, null], "rewards": [-2, 3, 6, -11, 32], "path": ["0", "0", "23", "24", "25", "26", "28"], "rt": [29775, 239, 213, 84, 113], "actions": ["left", "left", "left", "up", "right"], "actionTimes": [32131, 32863, 33586, 34174, 34787], "queries": {"click": {"state": {"target": ["23", "24", "25", "26", "28", "30", "32", "31", "33", "20", "22", "21"], "time": [3184, 4237, 4910, 5588, 6425, 10152, 11438, 14695, 18311, 22057, 25313, 28538]}, "edge": {"target": [], "time": []}}, "mouseover": {"state": {"target": ["23", "24", "25", "26", "28", "27", "30", "32", "31", "30", "33", "20", "19", "22", "21"], "time": [2939, 3822, 4692, 5408, 6179, 7159, 8672, 10841, 13839, 17856, 18073, 21865, 22722, 22906, 25871]}, "edge": {"target": [], "time": []}}, "mouseout": {"state": {"target": ["0", "23", "24", "25", "26", "28", "27", "26", "30", "32", "31", "31", "30", "33", "20", "19", "22", "21", "22"], "time": [2639, 3707, 4624, 5275, 6109, 6891, 8122, 8305, 10709, 13235, 14900, 17823, 17959, 18872, 22673, 22806, 25755, 29089, 29390]}, "edge": {"target": [], "time": []}}}, "displayed_time": "35.29", "trialTime": 40813, "trial_type": "mouselab-mdp", "trial_index": 31, "time_elapsed": 1061065, "internal_node_id": "0.0-6.0-1.0-10.0"}}, {"uniqueid": "w24178968:a63842106", "current_trial": 32, "dateTime": 1693835774736, "trialdata": {"revealed_states": [], "clicked_states": ["20", "22", "21"], "num_clicks_accrued": [0, 0, 0, 0, 0, 0, 0, 0, 0, 0, 0, 0, 0], "stateRewards": ["", 2, -1, 8, -2, -16, 69, -39, -7, -13, -27, -86, 2, -2, 2, 13, -34, -16, -20, -5, 19, 81, 32, -2, -1, 2, -14, 20, 80, 58, 4, 70, 12, 73], "withholdReward": false, "trial_id": "mdp_trial_12", "block": "test", "trialIndex": 17, "score": 71.55, "costs": -6.449999999999999, "simulationMode": [null, null, null, null, null], "rewards": [2, -2, 2, -5, 81], "path": ["0", "0", "12", "13", "14", "19", "21"], "rt": [13894, 128, 78, 57, 97], "actions": ["right", "right", "right", "down", "down"], "actionTimes": [15675, 16303, 16901, 17464, 18087], "queries": {"click": {"state": {"target": ["20", "22", "21"], "time": [2712, 6497, 10032]}, "edge": {"target": [], "time": []}}, "mouseover": {"state": {"target": ["14", "20", "22", "21", "21", "19", "13", "13", "12", "13", "13", "14"], "time": [2173, 2438, 3374, 6973, 7322, 10989, 12140, 12672, 12905, 13588, 13968, 14755]}, "edge": {"target": [], "time": []}}, "mouseout": {"state": {"target": ["12", "0", "14", "20", "22", "21", "21", "19", "13", "13", "12", "13", "13", "14"], "time": [1054, 2124, 2189, 3189, 6956, 7006, 10940, 11075, 12405, 12794, 13421, 13841, 14689, 14855]}, "edge": {"target": [], "time": []}}}, "displayed_time": "18.61", "trialTime": 19374, "trial_type": "mouselab-mdp", "trial_index": 32, "time_elapsed": 1080876, "internal_node_id": "0.0-6.0-1.0-11.0"}}, {"uniqueid": "w24178968:a63842106", "current_trial": 33, "dateTime": 1693835804555, "trialdata": {"revealed_states": [], "clicked_states": ["1", "23", "12", "13", "14", "22", "21", "20"], "num_clicks_accrued": [0, 0, 0, 0, 0, 0, 0, 0, 0, 0, 0, 0, 0], "stateRewards": ["", 1, -1, 8, 4, 76, -33, -17, -3, -1, -54, -74, -2, 2, -5, 13, -51, 63, 83, 1, 84, 29, -36, 2, -1, 7, -12, -10, -44, -43, -14, 8, -69, 19], "withholdReward": false, "trial_id": "mdp_trial_13", "block": "test", "trialIndex": 18, "score": 73, "costs": -7, "simulationMode": [null, null, null, null, null], "rewards": [-2, 2, -5, 1, 84], "path": ["0", "0", "12", "13", "14", "19", "20"], "rt": [20124, 107, 116, 42, 113], "actions": ["right", "right", "right", "down", "right"], "actionTimes": [25258, 25865, 26474, 27032, 27669], "queries": {"click": {"state": {"target": ["1", "23", "12", "13", "14", "22", "21", "20"], "time": [6751, 7905, 9074, 10382, 11944, 12983, 16284, 20727]}, "edge": {"target": [], "time": []}}, "mouseover": {"state": {"target": ["1", "23", "12", "13", "14", "19", "22", "21", "20", "21", "19", "31", "30", "31", "31", "22", "19", "20", "31", "31"], "time": [6305, 7273, 8523, 9872, 11089, 12372, 12788, 13957, 14340, 15026, 16923, 17823, 18304, 19189, 19522, 20088, 20138, 20187, 21222, 21555]}, "edge": {"target": [], "time": []}}, "mouseout": {"state": {"target": ["13", "12", "1", "0", "1", "23", "12", "13", "14", "19", "22", "21", "20", "21", "19", "22", "31", "30", "31", "31", "22", "19", "20", "31", "31"], "time": [2487, 2570, 2655, 4504, 7122, 8305, 9721, 10843, 12356, 12739, 13145, 14057, 14824, 16621, 16956, 17056, 18189, 18624, 19222, 19923, 20122, 20172, 21122, 21256, 24337]}, "edge": {"target": [], "time": []}}}, "displayed_time": "28.17", "trialTime": 29343, "trial_type": "mouselab-mdp", "trial_index": 33, "time_elapsed": 1110694, "internal_node_id": "0.0-6.0-1.0-12.0"}}, {"uniqueid": "w24178968:a63842106", "current_trial": 34, "dateTime": 1693835844444, "trialdata": {"revealed_states": [], "clicked_states": ["6", "11", "7", "21", "20", "14", "22"], "num_clicks_accrued": [0, 0, 0, 0, 0, 0, 0, 0, 0, 0, 0, 0, 0], "stateRewards": ["", -2, 2, 3, -7, 76, 63, 21, 15, 35, -8, -44, 1, 1, -2, -12, 23, 24, 76, -9, 46, 66, -49, -2, -1, 7, 12, 40, -71, -45, -6, 38, -49, 46], "withholdReward": false, "trial_id": "mdp_trial_14", "block": "test", "trialIndex": 19, "score": 23.15, "costs": -13.85, "simulationMode": [null, null, null, null, null], "rewards": [1, 1, -2, -9, 46], "path": ["0", "0", "12", "13", "14", "19", "20"], "rt": [28184, 49, 50, 32, 74], "actions": ["right", "right", "right", "down", "right"], "actionTimes": [32333, 32876, 33459, 34007, 34616], "queries": {"click": {"state": {"target": ["6", "11", "7", "21", "20", "14", "22"], "time": [5314, 8717, 11965, 15837, 19414, 23063, 24394]}, "edge": {"target": [], "time": []}}, "mouseover": {"state": {"target": ["1", "7", "4", "6", "4", "3", "8", "11", "2", "7", "18", "14", "20", "21", "20", "14", "14", "22", "22", "13", "14", "13", "12"], "time": [4474, 4607, 4707, 5074, 5808, 5871, 5973, 6340, 9191, 9510, 12360, 12391, 12468, 12741, 16774, 20240, 20891, 23440, 23625, 25756, 30289, 30773, 31723]}, "edge": {"target": [], "time": []}}, "mouseout": {"state": {"target": ["0", "1", "7", "4", "6", "4", "3", "8", "11", "2", "7", "18", "14", "20", "21", "20", "20", "14", "14", "22", "22", "13", "14", "13", "12"], "time": [3674, 4540, 4674, 4757, 5792, 5847, 5913, 6141, 9140, 9241, 12357, 12375, 12409, 12491, 16325, 19604, 19790, 20357, 23375, 23540, 25158, 30224, 30707, 31706, 31740]}, "edge": {"target": [], "time": []}}}, "displayed_time": "35.13", "trialTime": 39434, "trial_type": "mouselab-mdp", "trial_index": 34, "time_elapsed": 1150583, "internal_node_id": "0.0-6.0-1.0-13.0"}}, {"uniqueid": "w24178968:a63842106", "current_trial": 35, "dateTime": 1693835871997, "trialdata": {"revealed_states": [], "clicked_states": ["1", "2", "10", "20", "22", "12", "13", "14"], "num_clicks_accrued": [0, 0, 0, 0, 0, 0, 0, 0, 0, 0, 0, 0, 0], "stateRewards": ["", 1, 1, 1, -3, -7, -1, -41, -10, 20, -72, -63, 1, -4, -2, 2, -66, 30, -84, -2, 49, 23, 71, -1, -4, 4, -12, 67, 5, 18, -16, 88, 56, -5], "withholdReward": false, "trial_id": "mdp_trial_15", "block": "test", "trialIndex": 20, "score": 56.4, "costs": -7.6000000000000005, "simulationMode": [null, null, null, null, null], "rewards": [1, -4, -2, -2, 71], "path": ["0", "0", "12", "13", "14", "19", "22"], "rt": [17391, 90, 38, 116, 469], "actions": ["right", "right", "right", "down", "left"], "actionTimes": [19717, 20300, 20848, 21491, 22479], "queries": {"click": {"state": {"target": ["1", "2", "10", "20", "22", "12", "13", "14"], "time": [3074, 3992, 4642, 8623, 12266, 16933, 17815, 18656]}, "edge": {"target": [], "time": []}}, "mouseover": {"state": {"target": ["1", "2", "10", "12", "0", "23", "12", "13", "12", "12", "13", "14", "20", "19", "22", "21", "21", "22", "21", "12", "13", "14", "19"], "time": [2607, 3608, 4457, 5108, 5388, 5523, 5908, 6008, 6391, 7262, 8042, 8123, 8323, 9125, 9225, 10174, 10491, 10925, 12741, 16740, 17290, 18392, 19243]}, "edge": {"target": [], "time": []}}, "mouseout": {"state": {"target": ["0", "1", "2", "2", "10", "12", "0", "23", "12", "13", "12", "12", "13", "14", "20", "19", "22", "21", "21", "22", "21", "22", "12", "13", "14", "19"], "time": [2542, 3533, 4147, 4357, 4941, 5324, 5450, 5807, 5942, 6207, 7041, 8008, 8090, 8156, 9106, 9159, 10159, 10224, 10692, 12383, 16324, 16507, 17274, 18241, 19242, 19259]}, "edge": {"target": [], "time": []}}}, "displayed_time": "22.98", "trialTime": 27122, "trial_type": "mouselab-mdp", "trial_index": 35, "time_elapsed": 1178136, "internal_node_id": "0.0-6.0-1.0-14.0"}}, {"uniqueid": "w24178968:a63842106", "current_trial": 36, "dateTime": 1693835906397, "trialdata": {"revealed_states": [], "clicked_states": ["23", "31", "24", "12", "22", "20", "21", "32"], "num_clicks_accrued": [0, 0, 0, 0, 0, 0, 0, 0, 0, 0, 0, 0, 0], "stateRewards": ["", 1, -3, -6, -5, 47, 80, -29, 11, -71, 10, -29, -2, 3, -6, 12, 2, -78, -6, 8, 34, -16, -5, -1, 3, 3, -13, 84, -36, -62, -3, -27, 66, 15], "withholdReward": false, "trial_id": "mdp_trial_16", "block": "test", "trialIndex": 21, "score": 57.4, "costs": -10.600000000000001, "simulationMode": [null, null, null, null, null], "rewards": [-1, 3, 3, -3, 66], "path": ["0", "0", "23", "24", "25", "30", "32"], "rt": [21422, 61, 32, 574, 23], "actions": ["left", "left", "left", "down", "down"], "actionTimes": [23856, 24408, 24961, 26053, 26586], "queries": {"click": {"state": {"target": ["23", "31", "24", "12", "22", "20", "21", "32"], "time": [3263, 4096, 7058, 8200, 9075, 12996, 16222, 19429]}, "edge": {"target": [], "time": []}}, "mouseover": {"state": {"target": ["23", "31", "24", "23", "0", "12", "13", "12", "13", "22", "20", "15", "15", "14", "20", "21", "30", "33", "32", "33", "33"], "time": [2928, 3778, 4361, 7550, 7582, 7629, 7747, 7962, 8681, 8829, 9761, 11229, 11914, 11935, 12611, 13562, 16779, 16861, 17245, 19879, 20303]}, "edge": {"target": [], "time": []}}, "mouseout": {"state": {"target": ["21", "22", "0", "23", "31", "24", "23", "0", "12", "13", "12", "13", "22", "20", "15", "15", "14", "20", "21", "30", "33", "32", "33", "33"], "time": [1495, 1561, 2644, 3694, 4286, 7547, 7562, 7613, 7682, 7930, 8678, 8695, 9545, 11112, 11496, 11930, 11949, 13428, 16679, 16829, 17129, 19861, 20061, 23145]}, "edge": {"target": [], "time": []}}}, "displayed_time": "27.11", "trialTime": 33962, "trial_type": "mouselab-mdp", "trial_index": 36, "time_elapsed": 1212537, "internal_node_id": "0.0-6.0-1.0-15.0"}}, {"uniqueid": "w24178968:a63842106", "current_trial": 37, "dateTime": 1693835953520, "trialdata": {"revealed_states": [], "clicked_states": ["1", "23", "12", "13", "22", "21", "20", "31", "32", "33", "25", "29", "28", "27"], "num_clicks_accrued": [0, 0, 0, 0, 0, 0, 0, 0, 0, 0, 0, 0, 0], "stateRewards": ["", -1, 1, 6, -6, 70, 66, 67, -16, -75, -35, 37, -1, 4, 4, -6, 47, -9, 63, 15, 21, -63, 13, 1, 3, -6, 10, 79, -29, 18, -15, 9, -67, -19], "withholdReward": false, "trial_id": "mdp_trial_17", "block": "test", "trialIndex": 22, "score": 67.1, "costs": -19.9, "simulationMode": [null, null, null, null, null], "rewards": [1, 3, -6, 10, 79], "path": ["0", "0", "23", "24", "25", "26", "27"], "rt": [39027, 75, 36, 30, 395], "actions": ["left", "left", "left", "up", "up"], "actionTimes": [42563, 43146, 43689, 44217, 45114], "queries": {"click": {"state": {"target": ["1", "23", "12", "13", "22", "21", "20", "31", "32", "33", "25", "29", "28", "27"], "time": [5151, 6206, 7485, 8239, 9591, 13609, 16951, 20537, 23813, 27110, 30379, 31737, 35132, 38366]}, "edge": {"target": [], "time": []}}, "mouseover": {"state": {"target": ["23", "10", "3", "7", "1", "1", "23", "12", "13", "22", "22", "19", "20", "21", "21", "21", "20", "20", "19", "22", "23", "31", "31", "32", "33", "30", "25", "26", "29", "26", "28", "28", "27", "11", "11"], "time": [3967, 4067, 4167, 4267, 4480, 4784, 6069, 6934, 7902, 9018, 9284, 10202, 10983, 11402, 11551, 12407, 14119, 14502, 17483, 17520, 17568, 18035, 18522, 21534, 24585, 27588, 27834, 30918, 31286, 32217, 32300, 32967, 35954, 38869, 39133]}, "edge": {"target": [], "time": []}}, "mouseout": {"state": {"target": ["0", "23", "10", "3", "7", "1", "1", "23", "12", "13", "22", "22", "19", "20", "21", "21", "21", "20", "20", "19", "22", "23", "31", "31", "31", "32", "33", "30", "25", "26", "29", "26", "28", "28", "27", "11", "11"], "time": [3937, 4018, 4100, 4233, 4384, 4543, 5717, 6373, 7851, 8834, 9035, 10118, 10852, 11119, 11458, 12052, 14085, 14166, 17468, 17518, 17535, 17601, 18052, 20705, 21018, 24384, 27501, 27751, 30884, 31017, 32200, 32267, 32351, 35635, 38784, 38918, 41845]}, "edge": {"target": [], "time": []}}}, "displayed_time": "45.64", "trialTime": 46674, "trial_type": "mouselab-mdp", "trial_index": 37, "time_elapsed": 1259660, "internal_node_id": "0.0-6.0-1.0-16.0"}}, {"uniqueid": "w24178968:a63842106", "current_trial": 38, "dateTime": 1693835972327, "trialdata": {"revealed_states": [], "clicked_states": [], "num_clicks_accrued": [0, 0, 0, 0, 0, 0, 0, 0, 0, 0, 0, 0, 0], "stateRewards": ["", -1, 1, -5, -6, -78, 47, -13, 12, 48, -88, 20, 2, -3, -2, 13, -20, 37, -57, 14, -38, 30, 31, -2, -2, 8, 2, -23, 78, 28, 12, -74, -88, 8], "withholdReward": false, "trial_id": "mdp_trial_18", "block": "test", "trialIndex": 23, "score": -72, "costs": 0, "simulationMode": [null, null, null, null, null], "rewards": [-2, -2, 8, 12, -88], "path": ["0", "0", "23", "24", "25", "30", "32"], "rt": [8133, 69, 116, 5, 91], "actions": ["left", "left", "left", "down", "down"], "actionTimes": [10013, 10599, 11213, 11736, 12353], "queries": {"click": {"state": {"target": [], "time": []}, "edge": {"target": [], "time": []}}, "mouseover": {"state": {"target": ["23", "28", "23"], "time": [4678, 5744, 6611]}, "edge": {"target": [], "time": []}}, "mouseout": {"state": {"target": ["23", "0", "0", "23", "28"], "time": [828, 844, 4544, 5544, 6394]}, "edge": {"target": [], "time": []}}}, "displayed_time": "15.88", "trialTime": 18259, "trial_type": "mouselab-mdp", "trial_index": 38, "time_elapsed": 1278466, "internal_node_id": "0.0-6.0-1.0-17.0"}}, {"uniqueid": "w24178968:a63842106", "current_trial": 39, "dateTime": 1693836026573, "trialdata": {"revealed_states": [], "clicked_states": [], "num_clicks_accrued": [0, 0, 0, 0, 0, 0, 0, 0, 0, 0, 0, 0, 0], "stateRewards": ["", -2, -1, -3, -1, -78, -6, 2, -1, 22, -88, 32, 2, 2, -7, -8, -51, -17, 54, 2, -44, 54, 75, 2, -2, -8, -15, -29, 12, -67, 15, -1, -47, -47], "withholdReward": false, "trial_id": "mdp_trial_19", "block": "test", "trialIndex": 24, "score": -85, "costs": 0, "simulationMode": [null, null, null, null, null], "rewards": [-2, -1, -3, -1, -78], "path": ["0", "0", "1", "2", "3", "4", "5"], "rt": [794, 157, 68, 77, 442], "actions": ["up", "up", "up", "right", "up"], "actionTimes": [3269, 3941, 4524, 5117, 6069], "queries": {"click": {"state": {"target": [], "time": []}, "edge": {"target": [], "time": []}}, "mouseover": {"state": {"target": [], "time": []}, "edge": {"target": [], "time": []}}, "mouseout": {"state": {"target": ["23", "12"], "time": [1275, 1787]}, "edge": {"target": [], "time": []}}}, "displayed_time": "16.48", "trialTime": 53682, "trial_type": "mouselab-mdp", "trial_index": 39, "time_elapsed": 1332712, "internal_node_id": "0.0-6.0-1.0-18.0"}}, {"uniqueid": "w24178968:a63842106", "current_trial": 40, "dateTime": 1693836045922, "trialdata": {"revealed_states": [], "clicked_states": ["12", "13", "14", "19", "21", "22"], "num_clicks_accrued": [0, 0, 0, 0, 0, 0, 0, 0, 0, 0, 0, 0, 0], "stateRewards": ["", 2, -2, -3, 10, -4, -1, -11, -8, -9, -36, -78, 2, 1, 7, -7, 44, -1, -31, -1, 26, 47, 83, 2, -4, -4, -6, -52, -76, -81, -1, -59, 45, 67], "withholdReward": false, "trial_id": "mdp_trial_20", "block": "test", "trialIndex": 25, "score": 85.1, "costs": -6.9, "simulationMode": [null, null, null, null, null], "rewards": [2, 1, 7, -1, 83], "path": ["0", "0", "12", "13", "14", "19", "22"], "rt": [12710, 369, 223, 109, 106], "actions": ["right", "right", "right", "down", "left"], "actionTimes": [14222, 15099, 15811, 16414, 17012], "queries": {"click": {"state": {"target": ["12", "13", "14", "19", "21", "22"], "time": [2518, 3382, 4281, 5236, 6070, 9535]}, "edge": {"target": [], "time": []}}, "mouseover": {"state": {"target": ["0", "23", "0", "12", "13", "13", "14", "19", "21", "22", "20", "20"], "time": [1669, 1753, 2153, 2319, 2954, 3154, 3803, 4870, 5755, 6723, 9986, 10336]}, "edge": {"target": [], "time": []}}, "mouseout": {"state": {"target": ["0", "1", "15", "18", "1", "23", "0", "0", "23", "0", "12", "13", "13", "14", "19", "21", "22", "20"], "time": [21, 71, 319, 369, 452, 636, 1069, 1686, 2003, 2223, 2937, 2987, 3754, 4671, 5753, 6504, 9953, 10004]}, "edge": {"target": [], "time": []}}}, "displayed_time": "17.52", "trialTime": 18782, "trial_type": "mouselab-mdp", "trial_index": 40, "time_elapsed": 1352061, "internal_node_id": "0.0-6.0-1.0-19.0"}}, {"uniqueid": "w24178968:a63842106", "current_trial": 41, "dateTime": 1693836065525, "trialdata": {"revealed_states": [], "clicked_states": ["12", "13", "23", "1", "14", "19", "22"], "num_clicks_accrued": [0, 0, 0, 0, 0, 0, 0, 0, 0, 0, 0, 0, 0], "stateRewards": ["", -2, -4, -6, 12, -58, -70, -80, 2, 16, -88, -62, 1, 2, -5, 11, 77, -35, -44, -5, 18, -83, 87, 1, -3, -5, 13, -44, -21, -86, 10, -52, 8, 29], "withholdReward": false, "trial_id": "mdp_trial_21", "block": "test", "trialIndex": 26, "score": 75.75, "costs": -4.25, "simulationMode": [null, null, null, null, null], "rewards": [1, 2, -5, -5, 87], "path": ["0", "0", "12", "13", "14", "19", "22"], "rt": [11625, 59, 30, 35, 475], "actions": ["right", "right", "right", "down", "left"], "actionTimes": [13817, 14376, 14943, 15482, 16488], "queries": {"click": {"state": {"target": ["12", "13", "23", "1", "14", "19", "22"], "time": [3419, 4424, 5458, 6346, 7481, 8665, 9473]}, "edge": {"target": [], "time": []}}, "mouseover": {"state": {"target": ["0", "13", "13", "12", "13", "23", "1", "0", "14", "19", "22", "21"], "time": [2359, 2709, 2925, 3110, 4160, 5193, 6176, 6760, 7165, 8240, 9205, 9959]}, "edge": {"target": [], "time": []}}, "mouseout": {"state": {"target": ["20", "19", "14", "13", "12", "0", "0", "13", "13", "12", "13", "12", "23", "1", "0", "14", "19", "22"], "time": [1175, 1259, 1358, 1425, 1491, 1742, 2475, 2725, 3025, 4043, 4944, 4959, 5726, 6693, 6976, 7902, 9112, 9851]}, "edge": {"target": [], "time": []}}}, "displayed_time": "16.98", "trialTime": 19106, "trial_type": "mouselab-mdp", "trial_index": 41, "time_elapsed": 1371664, "internal_node_id": "0.0-6.0-1.0-20.0"}}, {"uniqueid": "w24178968:a63842106", "current_trial": 42, "dateTime": 1693836092478, "trialdata": {"revealed_states": [], "clicked_states": ["12", "23", "1", "13", "14", "15", "18"], "num_clicks_accrued": [0, 0, 0, 0, 0, 0, 0, 0, 0, 0, 0, 0, 0], "stateRewards": ["", -1, -2, 8, -6, -79, -6, 87, 9, -5, -66, -38, 2, 2, 5, -6, -82, 74, 85, -8, 67, -30, -15, 1, -2, -2, -2, 87, 64, 49, 7, 2, -38, -9], "withholdReward": false, "trial_id": "mdp_trial_22", "block": "test", "trialIndex": 27, "score": 83.75, "costs": -4.25, "simulationMode": [null, null, null, null, null], "rewards": [2, 2, 5, -6, 85], "path": ["0", "0", "12", "13", "14", "15", "18"], "rt": [13166, 222, 4, 1807, 68], "actions": ["right", "right", "right", "up", "left"], "actionTimes": [17336, 18052, 18567, 20918, 21482], "queries": {"click": {"state": {"target": ["12", "23", "1", "13", "14", "15", "18"], "time": [6752, 8472, 9209, 10808, 11637, 12637, 13392]}, "edge": {"target": [], "time": []}}, "mouseover": {"state": {"target": ["12", "13", "12", "13", "0", "23", "1", "13", "14", "15", "18", "17"], "time": [5011, 5427, 5593, 7676, 8028, 8260, 8942, 10325, 11295, 12344, 13115, 14227]}, "edge": {"target": [], "time": []}}, "mouseout": {"state": {"target": ["21", "0", "0", "12", "13", "12", "13", "0", "23", "1", "13", "14", "15", "18"], "time": [2593, 2795, 4978, 5030, 5446, 7542, 7977, 8077, 8826, 9576, 11128, 12096, 13064, 13843]}, "edge": {"target": [], "time": []}}}, "displayed_time": "22.00", "trialTime": 26310, "trial_type": "mouselab-mdp", "trial_index": 42, "time_elapsed": 1398618, "internal_node_id": "0.0-6.0-1.0-21.0"}}, {"uniqueid": "w24178968:a63842106", "current_trial": 43, "dateTime": 1693836120984, "trialdata": {"revealed_states": [], "clicked_states": ["23", "12", "1", "13", "14", "19", "22", "21", "20"], "num_clicks_accrued": [0, 0, 0, 0, 0, 0, 0, 0, 0, 0, 0, 0, 0], "stateRewards": ["", -2, -1, -6, -14, -55, 78, -13, 11, 14, -71, 59, 2, 2, 6, -6, 9, 38, 14, 7, 85, 11, 68, 1, -4, -1, -3, -63, -85, 9, -2, 63, -86, -10], "withholdReward": false, "trial_id": "mdp_trial_23", "block": "test", "trialIndex": 28, "score": 93.45, "costs": -8.55, "simulationMode": [null, null, null, null, null], "rewards": [2, 2, 6, 7, 85], "path": ["0", "0", "12", "13", "14", "19", "20"], "rt": [19663, 107, 85, 117, 103], "actions": ["right", "right", "right", "down", "right"], "actionTimes": [21925, 22553, 23160, 23793, 24412], "queries": {"click": {"state": {"target": ["23", "12", "1", "13", "14", "19", "22", "21", "20"], "time": [4232, 5124, 6087, 8002, 9362, 10235, 11273, 15235, 18604]}, "edge": {"target": [], "time": []}}, "mouseover": {"state": {"target": ["0", "0", "23", "23", "24", "23", "12", "1", "13", "14", "13", "13", "19", "22", "14", "19", "22", "21", "20", "20"], "time": [2375, 2673, 2696, 2957, 3623, 3975, 4923, 5841, 6540, 6577, 6832, 7424, 8324, 8628, 8922, 9691, 10823, 12331, 15690, 16807]}, "edge": {"target": [], "time": []}}, "mouseout": {"state": {"target": ["17", "0", "31", "23", "0", "0", "23", "23", "24", "23", "12", "1", "13", "14", "13", "13", "19", "22", "14", "19", "22", "21", "20", "20"], "time": [137, 259, 1309, 1472, 2423, 2692, 2712, 3540, 3924, 4591, 5558, 6507, 6559, 6597, 7055, 8274, 8508, 8693, 9674, 10725, 11842, 15540, 15755, 19021]}, "edge": {"target": [], "time": []}}}, "displayed_time": "24.92", "trialTime": 27795, "trial_type": "mouselab-mdp", "trial_index": 43, "time_elapsed": 1427123, "internal_node_id": "0.0-6.0-1.0-22.0"}}, {"uniqueid": "w24178968:a63842106", "current_trial": 44, "dateTime": 1693836145282, "trialdata": {"revealed_states": [], "clicked_states": ["12", "23", "1", "2", "3", "8", "10", "11", "9"], "num_clicks_accrued": [0, 0, 0, 0, 0, 0, 0, 0, 0, 0, 0, 0, 0], "stateRewards": ["", 2, 4, -3, 16, -58, 30, -35, 11, -60, 47, 27, -2, -1, -7, -16, 23, -70, 68, -10, -65, -43, -34, -2, 1, 7, 9, -63, 34, -31, -8, -12, -86, 59], "withholdReward": false, "trial_id": "mdp_trial_24", "block": "test", "trialIndex": 29, "score": 52.45, "costs": -8.55, "simulationMode": [null, null, null, null, null], "rewards": [2, 4, -3, 11, 47], "path": ["0", "0", "1", "2", "3", "8", "10"], "rt": [17560, 315, 69, 654, 151], "actions": ["up", "up", "up", "left", "down"], "actionTimes": [18983, 19804, 20386, 21538, 22216], "queries": {"click": {"state": {"target": ["12", "23", "1", "2", "3", "8", "10", "11", "9"], "time": [3032, 3851, 4811, 5720, 7055, 8021, 8897, 12374, 15680]}, "edge": {"target": [], "time": []}}, "mouseover": {"state": {"target": ["0", "12", "23", "1", "2", "3", "8", "10", "11", "9", "3", "2"], "time": [2033, 2319, 3566, 4418, 5350, 6433, 7765, 8507, 9898, 12716, 16233, 16383]}, "edge": {"target": [], "time": []}}, "mouseout": {"state": {"target": ["22", "12", "0", "12", "23", "1", "2", "3", "8", "10", "10", "11", "9", "9", "3"], "time": [417, 715, 2185, 3383, 4044, 5266, 6181, 7568, 8446, 9025, 9538, 12683, 15843, 16084, 16267]}, "edge": {"target": [], "time": []}}}, "displayed_time": "22.74", "trialTime": 23771, "trial_type": "mouselab-mdp", "trial_index": 44, "time_elapsed": 1451421, "internal_node_id": "0.0-6.0-1.0-23.0"}}, {"uniqueid": "w24178968:a63842106", "current_trial": 45, "dateTime": 1693836186380, "trialdata": {"revealed_states": [], "clicked_states": [], "num_clicks_accrued": [0, 0, 0, 0, 0, 0, 0, 0, 0, 0, 0, 0, 0], "stateRewards": ["", 1, 1, -3, 7, 49, 78, 26, -5, 26, 48, -43, -1, -3, 2, -5, 4, -1, -60, 10, -35, 51, 81, -2, 1, -7, -5, -39, -86, -54, 4, -3, 74, 77], "withholdReward": false, "trial_id": "mdp_trial_25", "block": "test", "trialIndex": 30, "score": 70, "costs": 0, "simulationMode": [null, null, null, null, null], "rewards": [-2, 1, -7, 4, 74], "path": ["0", "0", "23", "24", "25", "30", "32"], "rt": [34154, 69, 296, 55, 79], "actions": ["left", "left", "left", "down", "down"], "actionTimes": [35658, 36226, 37038, 37613, 38219], "queries": {"click": {"state": {"target": [], "time": []}, "edge": {"target": [], "time": []}}, "mouseover": {"state": {"target": ["12", "31", "25", "28", "2", "7", "18", "12", "0", "24", "25", "27", "28", "12", "0", "23", "0", "0"], "time": [24077, 24271, 24355, 24421, 24458, 24492, 24672, 27090, 27222, 27421, 27464, 30405, 30488, 30621, 31171, 32588, 33592, 34038]}, "edge": {"target": [], "time": []}}, "mouseout": {"state": {"target": ["2", "0", "12", "31", "25", "28", "2", "7", "18", "12", "0", "24", "25", "27", "28", "12", "0", "23", "0", "0"], "time": [579, 24054, 24137, 24305, 24373, 24439, 24475, 24509, 27031, 27172, 27256, 27460, 27491, 30421, 30508, 30987, 32473, 33588, 33621, 35105]}, "edge": {"target": [], "time": []}}}, "displayed_time": "38.73", "trialTime": 40457, "trial_type": "mouselab-mdp", "trial_index": 45, "time_elapsed": 1492519, "internal_node_id": "0.0-6.0-1.0-24.0"}}, {"uniqueid": "w24178968:a63842106", "current_trial": 46, "dateTime": 1693836217887, "trialdata": {"revealed_states": [], "clicked_states": ["1", "12", "23", "24", "25", "30", "31", "22", "20", "21", "17"], "num_clicks_accrued": [0, 0, 0, 0, 0, 0, 0, 0, 0, 0, 0, 0, 0], "stateRewards": ["", 1, 4, 5, 8, -55, -11, 8, 16, -37, 77, -22, -2, 3, -8, -10, 45, 87, -67, 4, 17, -33, -22, -1, -3, 7, 6, -39, -85, 75, -1, 7, -48, 45], "withholdReward": false, "trial_id": "mdp_trial_26", "block": "test", "trialIndex": 31, "score": 57.15, "costs": -12.850000000000001, "simulationMode": [null, null, null, null, null], "rewards": [-2, 3, -8, -10, 87], "path": ["0", "0", "12", "13", "14", "15", "17"], "rt": [23080, 60, 193, 775, 141], "actions": ["right", "right", "right", "up", "right"], "actionTimes": [25212, 25793, 26490, 27757, 28389], "queries": {"click": {"state": {"target": ["1", "12", "23", "24", "25", "30", "31", "22", "20", "21", "17"], "time": [2880, 3921, 4726, 5440, 6119, 6995, 7815, 11106, 14300, 17567, 20870]}, "edge": {"target": [], "time": []}}, "mouseover": {"state": {"target": ["1", "12", "0", "23", "24", "25", "30", "31", "13", "14", "19", "22", "19", "20", "21", "17", "16"], "time": [2663, 3480, 4298, 4380, 5246, 5859, 6533, 7648, 8763, 9085, 9481, 9897, 11550, 11764, 14847, 19096, 21513]}, "edge": {"target": [], "time": []}}, "mouseout": {"state": {"target": ["0", "0", "1", "12", "0", "23", "24", "24", "25", "30", "31", "13", "14", "19", "22", "19", "20", "21", "17"], "time": [499, 1229, 3281, 4280, 4331, 5147, 5593, 5837, 6517, 7465, 8181, 8830, 9413, 9665, 11531, 11664, 14580, 18097, 21313]}, "edge": {"target": [], "time": []}}}, "displayed_time": "28.90", "trialTime": 30776, "trial_type": "mouselab-mdp", "trial_index": 46, "time_elapsed": 1524026, "internal_node_id": "0.0-6.0-1.0-25.0"}}, {"uniqueid": "w24178968:a63842106", "current_trial": 47, "dateTime": 1693836254295, "trialdata": {"revealed_states": [], "clicked_states": ["23", "12", "1", "13", "17", "16", "18"], "num_clicks_accrued": [0, 0, 0, 0, 0, 0, 0, 0, 0, 0, 0, 0, 0], "stateRewards": ["", -1, 3, 8, 9, -53, 20, -84, 2, -28, -62, -31, -1, -2, -7, 2, 51, 58, 45, -4, -17, -41, 36, 2, -2, -7, -15, 29, -54, -37, -16, -43, 65, -17], "withholdReward": false, "trial_id": "mdp_trial_27", "block": "test", "trialIndex": 32, "score": 43.95, "costs": -6.05, "simulationMode": [null, null, null, null, null], "rewards": [-1, -2, -7, 2, 58], "path": ["0", "0", "12", "13", "14", "15", "17"], "rt": [16724, 90, 123, 658, 97], "actions": ["right", "right", "right", "up", "right"], "actionTimes": [31234, 31842, 32475, 33642, 34248], "queries": {"click": {"state": {"target": ["23", "12", "1", "13", "17", "16", "18"], "time": [15753, 17326, 18285, 19576, 20501, 23952, 27595]}, "edge": {"target": [], "time": []}}, "mouseover": {"state": {"target": ["0", "23", "24", "12", "1", "13", "13", "14", "17", "16", "18", "18", "14", "19"], "time": [14570, 15534, 16333, 17118, 17934, 18810, 19084, 20001, 20300, 21050, 24488, 27365, 28215, 28268]}, "edge": {"target": [], "time": []}}, "mouseout": {"state": {"target": ["16", "17", "15", "18", "1", "0", "10", "2", "21", "0", "23", "24", "12", "1", "13", "13", "14", "17", "16", "18", "18", "14", "19"], "time": [66, 631, 648, 682, 1182, 2087, 3699, 3714, 3775, 15300, 16218, 16866, 17741, 18771, 18853, 19953, 20099, 20945, 24403, 26749, 28082, 28236, 28290]}, "edge": {"target": [], "time": []}}}, "displayed_time": "34.77", "trialTime": 35838, "trial_type": "mouselab-mdp", "trial_index": 47, "time_elapsed": 1560434, "internal_node_id": "0.0-6.0-1.0-26.0"}}, {"uniqueid": "w24178968:a63842106", "current_trial": 48, "dateTime": 1693836305093, "trialdata": {"revealed_states": [], "clicked_states": ["12", "1", "23", "20", "22", "21", "16", "18", "28", "27", "29", "25", "33"], "num_clicks_accrued": [0, 0, 0, 0, 0, 0, 0, 0, 0, 0, 0, 0, 0], "stateRewards": ["", -2, -4, -8, 8, 63, -50, -19, -7, -17, -31, 31, 1, 3, -5, 12, -35, -63, -29, -4, -17, -75, -79, -2, -3, -2, 8, -3, -85, 10, -2, -82, -82, 56], "withholdReward": false, "trial_id": "mdp_trial_28", "block": "test", "trialIndex": 33, "score": 27.450000000000003, "costs": -19.549999999999997, "simulationMode": [null, null, null, null, null], "rewards": [-2, -3, -2, -2, 56], "path": ["0", "0", "23", "24", "25", "30", "33"], "rt": [37159, 10, 478, 22, 16], "actions": ["left", "left", "left", "down", "left"], "actionTimes": [43111, 43633, 44635, 45178, 45721], "queries": {"click": {"state": {"target": ["12", "1", "23", "20", "22", "21", "16", "18", "28", "27", "29", "25", "33"], "time": [7089, 7777, 8610, 9717, 13330, 17312, 20477, 23615, 27516, 30730, 34072, 37863, 38819]}, "edge": {"target": [], "time": []}}, "mouseover": {"state": {"target": ["12", "0", "12", "1", "23", "23", "0", "13", "20", "21", "22", "16", "16", "15", "14", "19", "21", "19", "14", "15", "16", "18", "15", "18", "15", "17", "15", "7", "2", "10", "28", "26", "28", "28", "1", "28", "28", "27", "29", "26", "28", "26", "25", "30", "33", "30", "31", "31"], "time": [6222, 6371, 6889, 7568, 8052, 8405, 8975, 9010, 9405, 10625, 10772, 14382, 14814, 16688, 16755, 16789, 16854, 18689, 18738, 18790, 18973, 20902, 21806, 22189, 24040, 24258, 24451, 24494, 24535, 24589, 24922, 25075, 25323, 26255, 26555, 26888, 27321, 28004, 31171, 34655, 35022, 35772, 37504, 38420, 38678, 39420, 39705, 39955]}, "edge": {"target": [], "time": []}}, "mouseout": {"state": {"target": ["21", "0", "12", "0", "12", "1", "23", "23", "0", "13", "20", "21", "22", "16", "16", "15", "14", "19", "21", "19", "14", "15", "16", "18", "15", "18", "15", "17", "15", "7", "2", "10", "28", "26", "28", "28", "1", "28", "28", "27", "27", "29", "26", "28", "26", "25", "30", "33", "30", "31", "31", "18", "17", "19"], "time": [1721, 5471, 6338, 6638, 7372, 8045, 8222, 8973, 8991, 9045, 10156, 10642, 13655, 14408, 16471, 16721, 16771, 16821, 18656, 18721, 18772, 18856, 20821, 21788, 22072, 24038, 24105, 24446, 24471, 24517, 24571, 24640, 24990, 25298, 25972, 26505, 26589, 26988, 27971, 30876, 31021, 34521, 34854, 35438, 36823, 38388, 38521, 39393, 39444, 39775, 47355, 47471, 47521, 49804]}, "edge": {"target": [], "time": []}}}, "displayed_time": "46.23", "trialTime": 50076, "trial_type": "mouselab-mdp", "trial_index": 48, "time_elapsed": 1611232, "internal_node_id": "0.0-6.0-1.0-27.0"}}, {"uniqueid": "w24178968:a63842106", "current_trial": 49, "dateTime": 1693836328201, "trialdata": {"revealed_states": [], "clicked_states": ["23", "1", "12", "29", "33", "31", "32"], "num_clicks_accrued": [0, 0, 0, 0, 0, 0, 0, 0, 0, 0, 0, 0, 0], "stateRewards": ["", -1, 3, -7, 16, -32, -74, -48, 2, 10, 15, -30, 1, 1, -2, 10, 12, -83, 67, 13, -66, 47, 65, -2, 4, 2, -14, -8, -57, 24, 9, 65, 12, 46], "withholdReward": false, "trial_id": "mdp_trial_29", "block": "test", "trialIndex": 34, "score": 70.15, "costs": -7.85, "simulationMode": [null, null, null, null, null], "rewards": [-2, 4, 2, 9, 65], "path": ["0", "0", "23", "24", "25", "30", "31"], "rt": [17338, 141, 128, 12, 112], "actions": ["left", "left", "left", "down", "right"], "actionTimes": [18730, 19378, 20011, 20544, 21176], "queries": {"click": {"state": {"target": ["23", "1", "12", "29", "33", "31", "32"], "time": [2327, 3118, 3957, 5441, 8642, 11988, 15334]}, "edge": {"target": [], "time": []}}, "mouseover": {"state": {"target": ["12", "12", "23", "1", "1", "12", "28", "26", "29", "33", "32", "31", "32"], "time": [1547, 1749, 2065, 2649, 2911, 3401, 4481, 4548, 4791, 5863, 9081, 9518, 12597]}, "edge": {"target": [], "time": []}}, "mouseout": {"state": {"target": ["22", "31", "18", "13", "12", "0", "12", "12", "23", "1", "1", "12", "28", "26", "29", "29", "33", "32", "31", "32"], "time": [113, 265, 547, 614, 780, 913, 1568, 1815, 2567, 2667, 3346, 4331, 4514, 4718, 5641, 5797, 9047, 9114, 12414, 15763]}, "edge": {"target": [], "time": []}}}, "displayed_time": "21.68", "trialTime": 22578, "trial_type": "mouselab-mdp", "trial_index": 49, "time_elapsed": 1634341, "internal_node_id": "0.0-6.0-1.0-28.0"}}, {"uniqueid": "w24178968:a63842106", "current_trial": 50, "dateTime": 1693836376151, "trialdata": {"revealed_states": [], "clicked_states": ["23", "1", "12", "31", "33", "9", "11", "10", "5", "6", "7", "20", "22", "21"], "num_clicks_accrued": [0, 0, 0, 0, 0, 0, 0, 0, 0, 0, 0, 0, 0], "stateRewards": ["", -2, 2, -5, -6, 10, -66, -58, -10, -11, -63, -70, -1, -4, -5, 7, 66, -64, -43, -3, 45, -37, 4, -2, -2, -6, -4, -30, 33, 43, 15, -32, -65, -59], "withholdReward": false, "trial_id": "mdp_trial_30", "block": "test", "trialIndex": 35, "score": 9.100000000000009, "costs": -22.899999999999995, "simulationMode": [null, null, null, null, null, null], "rewards": [-1, -4, -5, -3, 45], "path": ["0", "0", "12", "13", "14", "19", "20"], "rt": [37977, 2436, 127, 92, 773, 185], "actions": ["right", "right", "right", "right", "down", "right"], "actionTimes": [39693, 42139, 42776, 43390, 44671, 45384], "queries": {"click": {"state": {"target": ["23", "1", "12", "31", "33", "9", "11", "10", "5", "6", "7", "20", "22", "21"], "time": [2768, 3563, 4689, 5933, 9255, 12509, 15704, 18992, 22091, 25258, 28493, 31669, 35212, 38683]}, "edge": {"target": [], "time": []}}, "mouseover": {"state": {"target": ["23", "2", "1", "23", "1", "12", "31", "31", "30", "33", "32", "32", "30", "25", "28", "10", "8", "9", "11", "11", "10", "3", "5", "5", "6", "7", "7", "20", "21", "22", "21", "21"], "time": [1949, 2148, 2282, 2497, 3231, 3864, 5360, 5630, 6365, 6430, 9646, 10130, 10247, 10299, 10353, 10730, 10750, 11096, 13113, 13480, 16096, 19450, 19481, 19899, 22661, 25564, 25850, 29265, 32132, 35080, 35583, 36454]}, "edge": {"target": [], "time": []}}, "mouseout": {"state": {"target": ["15", "23", "2", "1", "23", "1", "12", "31", "31", "30", "33", "32", "32", "30", "25", "28", "10", "8", "9", "11", "11", "10", "3", "5", "5", "6", "7", "7", "20", "21", "22", "21", "21"], "time": [813, 1968, 2249, 2304, 2927, 3825, 5248, 5547, 6363, 6396, 9630, 9680, 10214, 10264, 10319, 10389, 10748, 10797, 13097, 13180, 16063, 19448, 19465, 19497, 22389, 25547, 25697, 28879, 32105, 34880, 35546, 35845, 46479]}, "edge": {"target": [], "time": []}}}, "displayed_time": "45.88", "trialTime": 47192, "trial_type": "mouselab-mdp", "trial_index": 50, "time_elapsed": 1682290, "internal_node_id": "0.0-6.0-1.0-29.0"}}, {"uniqueid": "w24178968:a63842106", "current_trial": 51, "dateTime": 1693836404619, "trialdata": {"revealed_states": [], "clicked_states": ["12", "1", "23", "20", "21", "22", "17", "18"], "num_clicks_accrued": [0, 0, 0, 0, 0, 0, 0, 0, 0, 0, 0, 0, 0], "stateRewards": ["", -1, -2, 4, 9, 10, -75, 39, 16, -43, 88, -19, -1, 1, 2, 4, -31, 10, 73, 12, 41, -64, -81, -2, 2, -6, 1, -81, -1, -26, 3, -59, -3, -20], "withholdReward": false, "trial_id": "mdp_trial_31", "block": "test", "trialIndex": 36, "score": 69, "costs": -10, "simulationMode": [null, null, null, null, null], "rewards": [-1, 1, 2, 4, 73], "path": ["0", "0", "12", "13", "14", "15", "18"], "rt": [21593, 60, 68, 48, 427], "actions": ["right", "right", "right", "up", "left"], "actionTimes": [23096, 23673, 24262, 24810, 25772], "queries": {"click": {"state": {"target": ["12", "1", "23", "20", "21", "22", "17", "18"], "time": [2506, 3381, 4225, 5216, 8594, 11879, 15390, 18738]}, "edge": {"target": [], "time": []}}, "mouseover": {"state": {"target": ["13", "14", "12", "1", "23", "0", "19", "20", "20", "21", "22", "17", "17", "16", "18", "26", "29", "10", "15"], "time": [1637, 1679, 2113, 3160, 3760, 4562, 4595, 4627, 4977, 5977, 9180, 13259, 13658, 15976, 17294, 20085, 20493, 21897, 22310]}, "edge": {"target": [], "time": []}}, "mouseout": {"state": {"target": ["0", "0", "13", "14", "12", "1", "23", "0", "19", "20", "20", "21", "22", "21", "17", "17", "16", "18", "26", "29", "10", "15", "0"], "time": [777, 1604, 1671, 1727, 2927, 3710, 4560, 4578, 4610, 4643, 5760, 9030, 12259, 12309, 13359, 15826, 17192, 19460, 20298, 21612, 21933, 22409, 27192]}, "edge": {"target": [], "time": []}}}, "displayed_time": "26.28", "trialTime": 27875, "trial_type": "mouselab-mdp", "trial_index": 51, "time_elapsed": 1710759, "internal_node_id": "0.0-6.0-1.0-30.0"}}, {"uniqueid": "w24178968:a63842106", "current_trial": 52, "dateTime": 1693836431364, "trialdata": {"revealed_states": [], "clicked_states": ["23", "1", "12", "6", "11", "10", "9"], "num_clicks_accrued": [0, 0, 0, 0, 0, 0, 0, 0, 0, 0, 0, 0, 0], "stateRewards": ["", 2, 3, 3, 10, 19, -21, 6, 9, 54, 68, 16, 2, 2, -6, -8, 40, -2, -75, -2, -42, 55, 59, -1, 2, 4, -14, 11, -34, -30, -6, 61, -53, 13], "withholdReward": false, "trial_id": "mdp_trial_32", "block": "test", "trialIndex": 37, "score": 77.15, "costs": -7.85, "simulationMode": [null, null, null, null, null], "rewards": [2, 3, 3, 9, 68], "path": ["0", "0", "1", "2", "3", "8", "10"], "rt": [18200, 69, 39, 457, 24], "actions": ["up", "up", "up", "left", "down"], "actionTimes": [19987, 20569, 21122, 22074, 22592], "queries": {"click": {"state": {"target": ["23", "1", "12", "6", "11", "10", "9"], "time": [2798, 3758, 4466, 5606, 8550, 12330, 16063]}, "edge": {"target": [], "time": []}}, "mouseover": {"state": {"target": ["13", "12", "23", "1", "12", "7", "6", "6", "3", "8", "11", "11", "10", "10", "8", "9", "3"], "time": [2034, 2073, 2615, 3381, 4117, 5032, 5150, 5415, 6115, 6149, 6184, 6590, 9336, 9815, 13236, 14165, 16448]}, "edge": {"target": [], "time": []}}, "mouseout": {"state": {"target": ["20", "14", "14", "19", "0", "13", "12", "23", "1", "12", "7", "6", "6", "3", "8", "11", "11", "10", "10", "10", "10", "8", "9", "3", "2", "24", "24"], "time": [123, 592, 697, 781, 1811, 2055, 2101, 3082, 4049, 4983, 5049, 5265, 6083, 6131, 6167, 6216, 9333, 9383, 12509, 12781, 13152, 13295, 16415, 16799, 24697, 24814, 25098]}, "edge": {"target": [], "time": []}}}, "displayed_time": "23.12", "trialTime": 26126, "trial_type": "mouselab-mdp", "trial_index": 52, "time_elapsed": 1737503, "internal_node_id": "0.0-6.0-1.0-31.0"}}, {"uniqueid": "w24178968:a63842106", "current_trial": 53, "dateTime": 1693836459159, "trialdata": {"revealed_states": [], "clicked_states": ["23", "1", "12", "9", "10", "11", "6"], "num_clicks_accrued": [0, 0, 0, 0, 0, 0, 0, 0, 0, 0, 0, 0, 0], "stateRewards": ["", 1, -3, -2, 14, 49, -40, -39, 2, 26, -61, 73, 1, -4, -8, 12, 79, 29, -65, -13, 55, -26, 27, -1, 3, 3, 9, -17, -60, -18, -8, 35, -88, 69], "withholdReward": false, "trial_id": "mdp_trial_33", "block": "test", "trialIndex": 38, "score": 63.15, "costs": -7.85, "simulationMode": [null, null, null, null, null], "rewards": [1, -3, -2, 2, 73], "path": ["0", "0", "1", "2", "3", "8", "11"], "rt": [19439, 30, 333, 321, 44], "actions": ["up", "up", "up", "left", "left"], "actionTimes": [21807, 22344, 23197, 24019, 24576], "queries": {"click": {"state": {"target": ["23", "1", "12", "9", "10", "11", "6"], "time": [3148, 4039, 4816, 6151, 9603, 12875, 17557]}, "edge": {"target": [], "time": []}}, "mouseover": {"state": {"target": ["23", "1", "12", "2", "8", "9", "9", "2", "10", "10", "10", "8", "11", "8", "3", "4", "6", "4", "4", "6", "7"], "time": [3030, 3713, 4596, 5296, 5396, 5547, 5881, 6468, 6848, 7230, 8699, 10739, 10925, 13298, 13316, 13349, 13381, 16713, 16929, 17095, 20945]}, "edge": {"target": [], "time": []}}, "mouseout": {"state": {"target": ["14", "12", "0", "23", "1", "12", "2", "8", "9", "9", "2", "10", "10", "10", "8", "11", "8", "3", "4", "6", "4", "4", "6", "7"], "time": [1028, 1329, 1429, 3342, 4346, 5230, 5346, 5413, 5681, 6449, 6511, 7074, 8547, 10229, 10767, 13296, 13314, 13346, 13365, 16681, 16779, 16995, 17930, 26100]}, "edge": {"target": [], "time": []}}}, "displayed_time": "25.11", "trialTime": 26669, "trial_type": "mouselab-mdp", "trial_index": 53, "time_elapsed": 1765299, "internal_node_id": "0.0-6.0-1.0-32.0"}}, {"uniqueid": "w24178968:a63842106", "current_trial": 54, "dateTime": 1693836477886, "trialdata": {"revealed_states": [], "clicked_states": ["1", "23", "12"], "num_clicks_accrued": [0, 0, 0, 0, 0, 0, 0, 0, 0, 0, 0, 0, 0], "stateRewards": ["", -2, 2, -1, -6, 22, 6, 6, -5, 70, -42, 65, 1, 3, 5, -6, -67, -9, 3, 14, 7, -62, -13, -2, 4, 1, 16, 42, -21, -52, -8, 32, 53, 81], "withholdReward": false, "trial_id": "mdp_trial_34", "block": "test", "trialIndex": 39, "score": 61.75, "costs": 0.75, "simulationMode": [null, null, null, null, null], "rewards": [-2, 4, 1, 16, 42], "path": ["0", "0", "23", "24", "25", "26", "27"], "rt": [8030, 100, 72, 26, 25], "actions": ["left", "left", "left", "up", "up"], "actionTimes": [9877, 10475, 11065, 11601, 12149], "queries": {"click": {"state": {"target": ["1", "23", "12"], "time": [2548, 3387, 4206]}, "edge": {"target": [], "time": []}}, "mouseover": {"state": {"target": ["1", "23", "0", "12", "28", "27", "27", "10", "17", "15", "18", "28"], "time": [2308, 2824, 3692, 3773, 4706, 4806, 5106, 5523, 6223, 6875, 6906, 7656]}, "edge": {"target": [], "time": []}}, "mouseout": {"state": {"target": ["17", "15", "18", "0", "1", "23", "0", "12", "28", "27", "27", "10", "17", "15", "18", "28", "18", "20", "32", "30", "24", "18", "15", "17"], "time": [772, 938, 1039, 1972, 2807, 3673, 3740, 4622, 4723, 4822, 5472, 5539, 6873, 6890, 6922, 14692, 14758, 14972, 15022, 15205, 15222, 15322, 15372, 15439]}, "edge": {"target": [], "time": []}}}, "displayed_time": "15.85", "trialTime": 17890, "trial_type": "mouselab-mdp", "trial_index": 54, "time_elapsed": 1784025, "internal_node_id": "0.0-6.0-1.0-33.0"}}, {"uniqueid": "w24178968:a63842106", "current_trial": 55, "dateTime": 1693836507562, "trialdata": {"revealed_states": [], "clicked_states": ["23", "1", "12", "31", "32", "33"], "num_clicks_accrued": [0, 0, 0, 0, 0, 0, 0, 0, 0, 0, 0, 0, 0], "stateRewards": ["", 1, -4, -6, -1, -21, 17, -72, 10, 77, 67, -46, -1, 4, -2, 14, -66, -49, -45, -15, -52, 23, -67, 2, -2, -2, 15, -3, 45, -64, 5, -44, 83, 61], "withholdReward": false, "trial_id": "mdp_trial_35", "block": "test", "trialIndex": 40, "score": 80.3, "costs": -5.699999999999999, "simulationMode": [null, null, null, null, null, null], "rewards": [2, -2, -2, 5, 83], "path": ["0", "0", "23", "24", "25", "30", "32"], "rt": [12297, 286, 167, 434, 42, 60], "actions": ["left", "left", "left", "left", "down", "down"], "actionTimes": [14208, 14500, 15198, 16165, 16723, 17386], "queries": {"click": {"state": {"target": ["23", "1", "12", "31", "32", "33"], "time": [3717, 4464, 5350, 6766, 10009, 13109]}, "edge": {"target": [], "time": []}}, "mouseover": {"state": {"target": ["23", "24", "31", "30", "24", "23", "0", "23", "1", "12", "12", "0", "30", "30", "31", "32", "33", "30"], "time": [2108, 2325, 2376, 2459, 2807, 3190, 3240, 3540, 4206, 4792, 5149, 5744, 5976, 6306, 6556, 7274, 10557, 13609]}, "edge": {"target": [], "time": []}}, "mouseout": {"state": {"target": ["13", "12", "0", "23", "24", "31", "30", "24", "23", "0", "23", "1", "12", "12", "0", "23", "30", "30", "31", "32", "33", "30", "13", "22"], "time": [1123, 1173, 2075, 2129, 2348, 2408, 2741, 3024, 3223, 3473, 3957, 4722, 4884, 5742, 5760, 5825, 6144, 6375, 7240, 10306, 13607, 13625, 20258, 28296]}, "edge": {"target": [], "time": []}}}, "displayed_time": "17.91", "trialTime": 29117, "trial_type": "mouselab-mdp", "trial_index": 55, "time_elapsed": 1813701, "internal_node_id": "0.0-6.0-1.0-34.0"}}, {"uniqueid": "w24178968:a63842106", "current_trial": 56, "dateTime": 1693836558193, "trialdata": {"revealed_states": [], "clicked_states": ["12", "1", "23", "22", "21", "17", "16", "18", "33", "31", "28", "11", "10"], "num_clicks_accrued": [0, 0, 0, 0, 0, 0, 0, 0, 0, 0, 0, 0, 0], "stateRewards": ["", 1, 4, -8, -5, -15, -7, 21, 13, -30, 40, -65, 1, 1, 5, -14, 35, 27, -38, -11, 36, -58, -47, -2, 4, -3, 13, -16, -49, 22, 15, -56, -44, -10], "withholdReward": false, "trial_id": "mdp_trial_36", "block": "test", "trialIndex": 41, "score": 29.250000000000004, "costs": -20.749999999999996, "simulationMode": [null, null, null, null, null], "rewards": [1, 4, -8, 13, 40], "path": ["0", "0", "1", "2", "3", "8", "10"], "rt": [42456, 243, 110, 5, 456], "actions": ["up", "up", "up", "left", "down"], "actionTimes": [44384, 45131, 45763, 46259, 47242], "queries": {"click": {"state": {"target": ["12", "1", "23", "22", "21", "17", "16", "18", "33", "31", "28", "11", "10"], "time": [4570, 5253, 6273, 7320, 10473, 14799, 18121, 21408, 25942, 29537, 32778, 37017, 40414]}, "edge": {"target": [], "time": []}}, "mouseover": {"state": {"target": ["12", "13", "19", "21", "22", "12", "12", "1", "23", "23", "22", "21", "22", "21", "20", "13", "12", "17", "15", "16", "18", "14", "13", "12", "0", "23", "24", "25", "30", "33", "32", "31", "24", "28", "28", "26", "29", "29", "27", "11", "11", "2", "10"], "time": [2990, 3019, 3073, 3433, 3738, 4054, 4386, 5007, 5488, 6097, 6666, 6752, 7071, 7792, 10836, 14035, 14068, 14635, 15386, 15623, 18836, 24818, 24852, 24885, 24985, 25034, 25101, 25184, 25585, 25768, 26535, 29234, 30081, 30181, 30649, 33266, 33341, 34685, 36467, 36668, 36851, 37619, 40051]}, "edge": {"target": [], "time": []}}, "mouseout": {"state": {"target": ["12", "13", "19", "21", "22", "12", "12", "1", "23", "23", "22", "21", "22", "21", "20", "13", "12", "17", "15", "16", "16", "18", "14", "13", "12", "0", "23", "24", "25", "30", "33", "32", "31", "24", "28", "28", "28", "26", "29", "29", "27", "11", "11", "2", "10"], "time": [3013, 3041, 3091, 3605, 3805, 4137, 4905, 5471, 5505, 6615, 6686, 6987, 7705, 10724, 14000, 14051, 14102, 15369, 15419, 18271, 18419, 22189, 24834, 24868, 24919, 25018, 25068, 25151, 25568, 25601, 26470, 29151, 30042, 30143, 30301, 32944, 33244, 33319, 33457, 36451, 36484, 36701, 37580, 37680, 40868]}, "edge": {"target": [], "time": []}}}, "displayed_time": "47.75", "trialTime": 49445, "trial_type": "mouselab-mdp", "trial_index": 56, "time_elapsed": 1864332, "internal_node_id": "0.0-6.0-1.0-35.0"}}, {"uniqueid": "w24178968:a63842106", "current_trial": 57, "dateTime": 1693836592020, "trialdata": {"revealed_states": [], "clicked_states": ["12", "1", "23", "6", "7", "17", "16", "18"], "num_clicks_accrued": [0, 0, 0, 0, 0, 0, 0, 0, 0, 0, 0, 0, 0], "stateRewards": ["", -2, 4, -5, -12, 85, -24, -18, -15, -78, -22, 26, -1, -1, 2, 14, -45, 52, -23, 7, -33, 24, -6, -2, -4, 5, -7, -16, 36, -39, 5, 71, -87, -23], "withholdReward": false, "trial_id": "mdp_trial_37", "block": "test", "trialIndex": 42, "score": 56, "costs": -10, "simulationMode": [null, null, null, null, null], "rewards": [-1, -1, 2, 14, 52], "path": ["0", "0", "12", "13", "14", "15", "17"], "rt": [20945, 480, 118, 194, 326], "actions": ["right", "right", "right", "up", "right"], "actionTimes": [23002, 23998, 24636, 25329, 26181], "queries": {"click": {"state": {"target": ["12", "1", "23", "6", "7", "17", "16", "18"], "time": [3322, 4051, 4911, 5926, 9211, 12357, 15790, 19009]}, "edge": {"target": [], "time": []}}, "mouseover": {"state": {"target": ["12", "1", "23", "7", "6", "7", "4", "8", "15", "17", "16", "18", "15", "17"], "time": [2816, 3899, 4688, 5316, 5734, 6633, 9745, 10183, 10383, 10433, 12916, 17050, 19500, 22216]}, "edge": {"target": [], "time": []}}, "mouseout": {"state": {"target": ["12", "13", "20", "19", "22", "12", "0", "12", "1", "23", "1", "7", "6", "7", "4", "8", "15", "17", "16", "18", "15", "17"], "time": [635, 666, 698, 998, 1379, 1432, 2233, 3489, 4345, 5266, 5300, 5333, 6432, 9719, 9786, 10334, 10416, 12832, 16952, 19482, 19532, 22449]}, "edge": {"target": [], "time": []}}}, "displayed_time": "26.69", "trialTime": 33054, "trial_type": "mouselab-mdp", "trial_index": 57, "time_elapsed": 1898160, "internal_node_id": "0.0-6.0-1.0-36.0"}}, {"uniqueid": "w24178968:a63842106", "current_trial": 58, "dateTime": 1693836624542, "trialdata": {"revealed_states": [], "clicked_states": ["23", "1", "12", "22", "21", "20", "18", "16", "17"], "num_clicks_accrued": [0, 0, 0, 0, 0, 0, 0, 0, 0, 0, 0, 0, 0], "stateRewards": ["", 1, 1, 6, -14, -40, 37, 16, -13, 33, -68, 49, 2, 4, 3, 6, 55, 27, 32, 10, -65, 20, -87, 2, 1, -6, -5, -42, 12, 29, -8, 16, 76, -33], "withholdReward": false, "trial_id": "mdp_trial_38", "block": "test", "trialIndex": 43, "score": 57.85, "costs": -12.15, "simulationMode": [null, null, null, null, null], "rewards": [2, 4, 3, 6, 55], "path": ["0", "0", "12", "13", "14", "15", "16"], "rt": [23763, 74, 68, 1248, 156], "actions": ["right", "right", "right", "up", "up"], "actionTimes": [25507, 26095, 26673, 28437, 29110], "queries": {"click": {"state": {"target": ["23", "1", "12", "22", "21", "20", "18", "16", "17"], "time": [2476, 3172, 3904, 5026, 8522, 11842, 15074, 18362, 21628]}, "edge": {"target": [], "time": []}}, "mouseover": {"state": {"target": ["12", "0", "23", "1", "12", "22", "21", "20", "20", "15", "18", "18", "16", "16", "17", "14", "13", "13"], "time": [1837, 2055, 2271, 2985, 3670, 4436, 8171, 8921, 9610, 12654, 12795, 13104, 15323, 15804, 18803, 22118, 22186, 22810]}, "edge": {"target": [], "time": []}}, "mouseout": {"state": {"target": ["19", "22", "0", "12", "0", "23", "1", "12", "22", "21", "20", "20", "15", "18", "18", "16", "16", "17", "14", "13", "13"], "time": [703, 719, 1804, 2004, 2104, 2719, 3462, 4353, 5402, 8886, 8938, 12453, 12698, 12924, 15304, 15340, 18706, 22085, 22152, 22337, 22931]}, "edge": {"target": [], "time": []}}}, "displayed_time": "29.61", "trialTime": 31962, "trial_type": "mouselab-mdp", "trial_index": 58, "time_elapsed": 1930681, "internal_node_id": "0.0-6.0-1.0-37.0"}}, {"uniqueid": "w24178968:a63842106", "current_trial": 59, "dateTime": 1693836646107, "trialdata": {"revealed_states": [], "clicked_states": ["23", "1", "12", "14", "18", "16"], "num_clicks_accrued": [0, 0, 0, 0, 0, 0, 0, 0, 0, 0, 0, 0, 0], "stateRewards": ["", -1, -3, 3, 5, 56, 39, 50, -1, -80, 33, -46, 1, -2, -6, -8, 87, 48, 54, -11, -20, -64, -54, -2, 3, -7, -3, 12, 88, 35, -16, -46, -70, -3], "withholdReward": false, "trial_id": "mdp_trial_39", "block": "test", "trialIndex": 44, "score": 67.5, "costs": -4.5, "simulationMode": [null, null, null, null, null], "rewards": [1, -2, -6, -8, 87], "path": ["0", "0", "12", "13", "14", "15", "16"], "rt": [12686, 27, 20, 413, 131], "actions": ["right", "right", "right", "up", "up"], "actionTimes": [15461, 16003, 16547, 17474, 18106], "queries": {"click": {"state": {"target": ["23", "1", "12", "14", "18", "16"], "time": [3930, 4983, 5923, 7281, 8102, 11548]}, "edge": {"target": [], "time": []}}, "mouseover": {"state": {"target": ["23", "7", "1", "12", "13", "14", "15", "18", "17", "17", "16", "17"], "time": [3756, 4590, 4740, 5605, 6557, 6606, 7689, 7909, 8841, 9173, 11206, 12389]}, "edge": {"target": [], "time": []}}, "mouseout": {"state": {"target": ["20", "19", "0", "23", "7", "1", "12", "13", "14", "15", "18", "17", "17", "16"], "time": [1389, 1422, 1889, 4206, 4642, 5406, 6540, 6573, 7590, 7707, 8540, 8873, 11123, 11839]}, "edge": {"target": [], "time": []}}}, "displayed_time": "18.63", "trialTime": 20832, "trial_type": "mouselab-mdp", "trial_index": 59, "time_elapsed": 1952247, "internal_node_id": "0.0-6.0-1.0-38.0"}}, {"uniqueid": "w24178968:a63842106", "current_trial": 60, "dateTime": 1693836688146, "trialdata": {"revealed_states": [], "clicked_states": ["23", "1", "12", "5", "7", "6", "11", "10", "9", "33", "32", "31"], "num_clicks_accrued": [0, 0, 0, 0, 0, 0, 0, 0, 0, 0, 0, 0, 0], "stateRewards": ["", -1, -3, 1, -4, -48, -63, -49, -2, -84, -19, 65, 2, -2, -2, -12, -4, 59, 9, 6, 75, 69, -13, -1, -3, -3, -2, -37, -68, -36, 13, 32, 18, -14], "withholdReward": false, "trial_id": "mdp_trial_40", "block": "test", "trialIndex": 45, "score": 41.400000000000006, "costs": -18.599999999999998, "simulationMode": [null, null, null, null, null], "rewards": [-1, -3, 1, -2, 65], "path": ["0", "0", "1", "2", "3", "8", "11"], "rt": [34677, 124, 70, 356, 66], "actions": ["up", "up", "up", "left", "left"], "actionTimes": [36350, 36989, 37580, 38463, 39026], "queries": {"click": {"state": {"target": ["23", "1", "12", "5", "7", "6", "11", "10", "9", "33", "32", "31"], "time": [3056, 3797, 4640, 6957, 10206, 13394, 16679, 19919, 23154, 26328, 29618, 32940]}, "edge": {"target": [], "time": []}}, "mouseover": {"state": {"target": ["23", "1", "12", "12", "15", "18", "13", "19", "21", "13", "4", "5", "6", "7", "6", "3", "8", "11", "10", "8", "8", "9", "2", "1", "24", "25", "33", "32", "32", "31", "10", "8", "11"], "time": [2907, 3573, 4106, 4457, 5206, 5601, 5675, 5758, 5957, 6342, 6424, 6506, 7257, 7694, 10709, 14008, 14050, 14259, 17024, 20257, 20357, 20560, 23540, 23707, 24074, 24140, 24374, 26724, 26926, 30091, 33461, 33518, 33708]}, "edge": {"target": [], "time": []}}, "mouseout": {"state": {"target": ["15", "18", "23", "1", "12", "12", "15", "18", "13", "19", "21", "13", "4", "5", "6", "7", "6", "3", "8", "11", "10", "8", "8", "9", "2", "1", "24", "25", "33", "32", "32", "31", "10", "8", "11"], "time": [791, 839, 3307, 4097, 4191, 5074, 5408, 5627, 5725, 5775, 6324, 6375, 6473, 7240, 7309, 10556, 13960, 14030, 14174, 16974, 20191, 20293, 20375, 23473, 23591, 23725, 24092, 24274, 26706, 26823, 29890, 33088, 33480, 33679, 34505]}, "edge": {"target": [], "time": []}}}, "displayed_time": "39.54", "trialTime": 41139, "trial_type": "mouselab-mdp", "trial_index": 60, "time_elapsed": 1994285, "internal_node_id": "0.0-6.0-1.0-39.0"}}, {"uniqueid": "w24178968:a63842106", "current_trial": 61, "dateTime": 1693836738412, "trialdata": {"rt": 50257, "response": {"Q0": "$-2 to $2", "Q1": "$-16 to $16", "Q2": "$-88 to $88", "Q3": "The cost for clicking on nodes varied between nodes.", "Q4": "Slightly motivated"}, "question_order": [0, 1, 2, 3, 4], "trial_id": "final_quiz_control", "trial_type": "survey-multi-choice", "trial_index": 61, "time_elapsed": 2044552, "internal_node_id": "0.0-6.0-2.0"}}, {"uniqueid": "w24178968:a63842106", "current_trial": 62, "dateTime": 1693836878029, "trialdata": {"rt": 139586, "response": {"Q0": "First get the money from the first steps than inspect the furthest steps to see which may have the highest value while staying under $20 at most \n ", "Q1": "Yes , I tried a new bunch of last nodes each time", "Q2": "At first tricky then over time got easier"}, "trial_id": "self_report_control", "trial_type": "survey-text", "trial_index": 62, "time_elapsed": 2184169, "internal_node_id": "0.0-6.0-3.0"}}, {"uniqueid": "w24178968:a63842106", "current_trial": 63, "dateTime": 1693836948630, "trialdata": {"rt": 70585, "response": {"Q0": "Strongly agree", "Q1": "Strongly agree", "Q2": "Strongly disagree", "Q3": "Agree", "Q4": "Strongly disagree", "Q5": "Disagree", "Q6": "Strongly agree"}, "question_order": [0, 1, 2, 3, 4, 5, 6], "trial_id": "self_report_2", "trial_type": "survey-multi-choice", "trial_index": 63, "time_elapsed": 2254770, "internal_node_id": "0.0-6.0-4.0"}}, {"uniqueid": "w24178968:a63842106", "current_trial": 64, "dateTime": 1693836970858, "trialdata": {"rt": 22214, "response": {"gender": "female", "age": "22", "colorblind": "0", "effort": "1"}, "trial_type": "survey-html-form", "trial_index": 64, "time_elapsed": 2276998, "internal_node_id": "0.0-6.0-5.0"}}, {"uniqueid": "w24178968:a63842106", "current_trial": 65, "dateTime": 1693837046370, "trialdata": {"rt": 75497, "response": {"Q0": "None that I can identify", "Q1": "No I have not", "Q2": "It was fun as time went on "}, "trial_type": "survey-text", "trial_index": 65, "time_elapsed": 2352510, "internal_node_id": "0.0-6.0-6.0"}}, {"uniqueid": "w24178968:a63842106", "current_trial": 66, "dateTime": 1693837081625, "trialdata": {"rt": 35245, "stimulus": "<h1>Completion Code Instructions (1/2)</h1>\n<br><br><br><br>\nYou have reached the end of the experiment! The completion code consists of two parts: (1) a code with 2 characters (2) a code with 6 characters. On this page, you will receive the second part of the code. The first part of the completion code will be on the next page.\n<br><br>\nThe second part of your completion code is: <b>EWEK22</b>\n<br><br>\nPlease note this down. Then, press 'Next' in order to find the first part of your completion code. Once the data has been saved, you will receive this code either in this window or in the original browser window where you started the experiment.\n <br><br>\n<h2 style='color: red;'>Note: this is <strong>NOT</strong> the full completion code. Copy this down and click 'Next' to get the full completion code on the next page.</h2>", "response": 0, "trial_type": "html-button-response", "trial_index": 66, "time_elapsed": 2387765, "internal_node_id": "0.0-6.0-7.0"}}, {"uniqueid": "w24178968:a63842106", "current_trial": 67, "dateTime": 1693837082633, "trialdata": {"success": true, "trial_type": "fullscreen", "trial_index": 67, "time_elapsed": 2388772, "internal_node_id": "0.0-7.0"}}], "questiondata": {"params": {"CODE": "C6DMOQA6", "MIN_TIME": 14, "inspectCost": 1, "startTime": "Mon Sep 04 2023 15:38:10 GMT+0200 (South Africa Standard Time)", "bonusRate": 0.002, "variance": "1_2_4_8_44", "branching": "31123"}, "final_score": 1783.85}, "eventdata": [{"eventtype": "initialized", "value": null, "timestamp": 1693834688581, "interval": 0}, {"eventtype": "window_resize", "value": [1028, 752], "timestamp": 1693834688581, "interval": 0}, {"eventtype": "window_resize", "value": [1028, 752], "timestamp": 1693834690004, "interval": 1423}, {"eventtype": "focus", "value": "on", "timestamp": 1693834695431, "interval": 5427}, {"eventtype": "window_resize", "value": [1536, 766], "timestamp": 1693834699651, "interval": 4220}, {"eventtype": "window_resize", "value": [1536, 864], "timestamp": 1693834701637, "interval": 1986}, {"eventtype": "window_resize", "value": [1536, 766], "timestamp": 1693834861060, "interval": 159423}, {"eventtype": "focus", "value": "off", "timestamp": 1693834867863, "interval": 6803}, {"eventtype": "focus", "value": "on", "timestamp": 1693834875255, "interval": 7392}, {"eventtype": "focus", "value": "off", "timestamp": 1693835063134, "interval": 187879}, {"eventtype": "focus", "value": "on", "timestamp": 1693835063135, "interval": 1}, {"eventtype": "window_resize", "value": [1536, 864], "timestamp": 1693835065366, "interval": 2231}, {"eventtype": "focus", "value": "off", "timestamp": 1693835264185, "interval": 198819}, {"eventtype": "focus", "value": "on", "timestamp": 1693835264185, "interval": 0}, {"eventtype": "window_resize", "value": [1536, 766], "timestamp": 1693835264405, "interval": 220}, {"eventtype": "window_resize", "value": [1536, 864], "timestamp": 1693835266108, "interval": 1703}, {"eventtype": "window_resize", "value": [1536, 766], "timestamp": 1693836221479, "interval": 955371}, {"eventtype": "focus", "value": "off", "timestamp": 1693836225178, "interval": 3699}, {"eventtype": "focus", "value": "on", "timestamp": 1693836230855, "interval": 5677}, {"eventtype": "focus", "value": "off", "timestamp": 1693836501655, "interval": 270800}, {"eventtype": "focus", "value": "on", "timestamp": 1693836505644, "interval": 3989}], "useragent": "Mozilla/5.0 (Windows NT 10.0; Win64; x64) AppleWebKit/537.36 (KHTML, like Gecko) Chrome/116.0.0.0 Safari/537.36", "mode": "live", "id": "w24178968:a63842106", "status": "user data saved", "Beginhit": "2023-09-04 13:38:00.317869", "Beginexp": "2023-09-04 13:38:23.707092", "Endhit": "2023-09-04 14:18:04.741939", "psiturkStatus": 3, "browser": "<redacted>", "platform": "windows", "language": "en-ZA", "excludeReason": "invalidClickStrats"}