{"condition": 0, "counterbalance": 0, "assignmentId": "a71501268", "workerId": "w81030643", "hitId": "h11896026", "currenttrial": 73, "bonus": 0, "data": [{"uniqueid": "w81030643:a71501268", "current_trial": 0, "dateTime": 1691159341798, "trialdata": {"success": true, "trial_type": "fullscreen", "trial_index": 0, "time_elapsed": 9043, "internal_node_id": "0.0-0.0"}}, {"uniqueid": "w81030643:a71501268", "current_trial": 1, "dateTime": 1691159412479, "trialdata": {"view_history": [{"page_index": 0, "viewing_time": 70676}], "rt": 70677, "trial_id": "exp_instructions_control", "trial_type": "instructions", "trial_index": 1, "time_elapsed": 79724, "internal_node_id": "0.0-1.0"}}, {"uniqueid": "w81030643:a71501268", "current_trial": 2, "dateTime": 1691159421908, "trialdata": {"success": true, "trial_type": "fullscreen", "trial_index": 2, "time_elapsed": 89154, "internal_node_id": "0.0-2.0-0.0"}}, {"uniqueid": "w81030643:a71501268", "current_trial": 3, "dateTime": 1691159813565, "trialdata": {"view_history": [{"page_index": 0, "viewing_time": 120678}, {"page_index": 1, "viewing_time": 133990}, {"page_index": 2, "viewing_time": 56373}, {"page_index": 3, "viewing_time": 80612}], "rt": 391653, "trial_id": "mouselab_instructions_1_control", "trial_type": "instructions", "trial_index": 3, "time_elapsed": 480810, "internal_node_id": "0.0-2.0-1.0"}}, {"uniqueid": "w81030643:a71501268", "current_trial": 4, "dateTime": 1691159868486, "trialdata": {"revealed_states": [], "clicked_states": [], "num_clicks_accrued": [0, 0, 0, 0, 0, 0, 0, 0, 0, 0, 0, 0, 0], "stateRewards": ["", 10, -10, 10, 10, -10, 10, 10, 10, -10, -10, 10, -10, -10, -10, 10, -10, -10, -10, -10, -10, 10, 10, 10, -10, -10, -10, -10, -10, 10, -10, -10, -10, 10], "withholdReward": false, "trial_id": "practice_1", "block": "test", "trialIndex": 0, "score": 13.5, "costs": 0, "simulationMode": [null, null, null, null, null], "rewards": [10, -10, 10, 10, -10], "path": ["0", "0", "1", "2", "3", "8", "9"], "rt": [25961, 2015, 8610, 1131, 351], "actions": ["up", "up", "up", "left", "up"], "actionTimes": [26965, 29489, 38599, 40235, 41088], "queries": {"click": {"state": {"target": [], "time": []}, "edge": {"target": [], "time": []}}, "mouseover": {"state": {"target": ["1", "0", "12", "14", "16"], "time": [7118, 10434, 13617, 21323, 25868]}, "edge": {"target": [], "time": []}}, "mouseout": {"state": {"target": ["0", "1", "0", "12", "14", "16"], "time": [6718, 10317, 13468, 17558, 21335, 25885]}, "edge": {"target": [], "time": []}}}, "displayed_time": "41.59", "trialTime": 52665, "trial_type": "mouselab-mdp", "trial_index": 4, "time_elapsed": 535731, "internal_node_id": "0.0-2.0-2.0-0.0"}}, {"uniqueid": "w81030643:a71501268", "current_trial": 5, "dateTime": 1691159898260, "trialdata": {"revealed_states": [], "clicked_states": ["1", "2", "8", "3", "4"], "num_clicks_accrued": [0, 0, 0, 0, 0, 0, 0, 0, 0, 0, 0, 0, 0], "stateRewards": ["", 10, 10, -10, -10, -10, -10, -10, -10, -10, -10, 10, 10, 10, 10, -10, -10, 10, 10, 10, -10, -10, -10, 10, 10, -10, -10, 10, 10, 10, -10, -10, 10, -10], "withholdReward": false, "trial_id": "practice_2", "block": "test", "trialIndex": 1, "score": -9, "costs": -2.5, "simulationMode": [null, null, null, null, null], "rewards": [10, 10, -10, -10, -10], "path": ["0", "0", "1", "2", "3", "8", "9"], "rt": [13341, 496, 974, 624, 222], "actions": ["up", "up", "up", "left", "up"], "actionTimes": [17265, 18266, 19762, 20880, 21609], "queries": {"click": {"state": {"target": ["1", "2", "8", "3", "4"], "time": [5361, 8880, 10162, 11784, 13287]}, "edge": {"target": [], "time": []}}, "mouseover": {"state": {"target": ["1", "2", "10", "2", "3", "8", "3", "4", "12"], "time": [4701, 6400, 8052, 8218, 9401, 9501, 11384, 12623, 14451]}, "edge": {"target": [], "time": []}}, "mouseout": {"state": {"target": ["1", "2", "10", "2", "3", "8", "3", "4", "12"], "time": [5561, 6734, 8201, 9386, 9419, 10358, 12619, 14382, 14485]}, "edge": {"target": [], "time": []}}}, "displayed_time": "22.11", "trialTime": 29305, "trial_type": "mouselab-mdp", "trial_index": 5, "time_elapsed": 565505, "internal_node_id": "0.0-2.0-2.0-1.0"}}, {"uniqueid": "w81030643:a71501268", "current_trial": 6, "dateTime": 1691159984220, "trialdata": {"view_history": [{"page_index": 0, "viewing_time": 72339}, {"page_index": 1, "viewing_time": 13614}], "rt": 85954, "trial_id": "mouselab_instructions_2_control", "trial_type": "instructions", "trial_index": 6, "time_elapsed": 651466, "internal_node_id": "0.0-2.0-3.0"}}, {"uniqueid": "w81030643:a71501268", "current_trial": 7, "dateTime": 1691160056642, "trialdata": {"rt": 72414, "response": {"Q0": "The cost for clicking on nodes may vary between nodes.", "Q1": "The better I perform the higher my bonus will be.", "Q2": "No, the structure of the web will be different each time.", "Q3": "To click on the least number of nodes.", "Q4": "Only after moving the spider.", "Q5": "3 seconds"}, "question_order": [0, 1, 2, 3, 4, 5], "correct": {"Q0": "The cost for clicking on nodes may vary between nodes.", "Q1": "The better I perform the higher my bonus will be.", "Q2": "No, the amount of cash at each node of the web may be different each time.", "Q3": "To get the highest total score.", "Q4": "Only before moving the spider.", "Q5": "3 seconds"}, "trial_id": "mouselab_quiz_control", "trial_type": "survey-multi-choice", "trial_index": 7, "time_elapsed": 723888, "internal_node_id": "0.0-2.0-4.0"}}, {"uniqueid": "w81030643:a71501268", "current_trial": 8, "dateTime": 1691160069860, "trialdata": {"success": true, "trial_type": "fullscreen", "trial_index": 8, "time_elapsed": 737106, "internal_node_id": "0.0-2.1-0.1"}}, {"uniqueid": "w81030643:a71501268", "current_trial": 9, "dateTime": 1691160115526, "trialdata": {"view_history": [{"page_index": 0, "viewing_time": 27357}, {"page_index": 1, "viewing_time": 11803}, {"page_index": 2, "viewing_time": 3671}, {"page_index": 3, "viewing_time": 2834}], "rt": 45666, "trial_id": "mouselab_instructions_1_control", "trial_type": "instructions", "trial_index": 9, "time_elapsed": 782772, "internal_node_id": "0.0-2.1-1.1"}}, {"uniqueid": "w81030643:a71501268", "current_trial": 10, "dateTime": 1691160131257, "trialdata": {"revealed_states": [], "clicked_states": [], "num_clicks_accrued": [0, 0, 0, 0, 0, 0, 0, 0, 0, 0, 0, 0, 0], "stateRewards": ["", 10, -10, 10, 10, -10, 10, 10, 10, -10, -10, 10, -10, -10, -10, 10, -10, -10, -10, -10, -10, 10, 10, 10, -10, -10, -10, -10, -10, 10, -10, -10, -10, 10], "withholdReward": false, "trial_id": "practice_1", "block": "test", "trialIndex": 2, "score": 13.5, "costs": 0, "simulationMode": [null, null, null, null, null], "rewards": [10, -10, 10, 10, -10], "path": ["0", "0", "1", "2", "3", "8", "9"], "rt": [1737, 546, 1503, 628, 1252], "actions": ["up", "up", "up", "left", "up"], "actionTimes": [4492, 5548, 7553, 8677, 10454], "queries": {"click": {"state": {"target": [], "time": []}, "edge": {"target": [], "time": []}}, "mouseover": {"state": {"target": [], "time": []}, "edge": {"target": [], "time": []}}, "mouseout": {"state": {"target": ["0"], "time": [12397]}, "edge": {"target": [], "time": []}}}, "displayed_time": "10.95", "trialTime": 15260, "trial_type": "mouselab-mdp", "trial_index": 10, "time_elapsed": 798503, "internal_node_id": "0.0-2.1-2.1-0.1"}}, {"uniqueid": "w81030643:a71501268", "current_trial": 11, "dateTime": 1691160146283, "trialdata": {"revealed_states": [], "clicked_states": ["1"], "num_clicks_accrued": [0, 0, 0, 0, 0, 0, 0, 0, 0, 0, 0, 0, 0], "stateRewards": ["", 10, 10, -10, -10, -10, -10, -10, -10, -10, -10, 10, 10, 10, 10, -10, -10, 10, 10, 10, -10, -10, -10, 10, 10, -10, -10, 10, 10, 10, -10, -10, 10, -10], "withholdReward": false, "trial_id": "practice_2", "block": "test", "trialIndex": 3, "score": -7, "costs": -0.5, "simulationMode": [null, null, null, null, null], "rewards": [10, 10, -10, -10, -10], "path": ["0", "0", "1", "2", "3", "8", "9"], "rt": [2548, 355, 373, 771, 105], "actions": ["up", "up", "up", "left", "up"], "actionTimes": [5574, 6430, 7297, 8564, 9165], "queries": {"click": {"state": {"target": ["1"], "time": [4429]}, "edge": {"target": [], "time": []}}, "mouseover": {"state": {"target": ["1"], "time": [3704]}, "edge": {"target": [], "time": []}}, "mouseout": {"state": {"target": ["21", "0", "1", "18", "15"], "time": [1536, 2470, 11444, 11506, 11523]}, "edge": {"target": [], "time": []}}}, "displayed_time": "9.66", "trialTime": 14544, "trial_type": "mouselab-mdp", "trial_index": 11, "time_elapsed": 813529, "internal_node_id": "0.0-2.1-2.1-1.1"}}, {"uniqueid": "w81030643:a71501268", "current_trial": 12, "dateTime": 1691160155122, "trialdata": {"view_history": [{"page_index": 0, "viewing_time": 6960}, {"page_index": 1, "viewing_time": 1873}], "rt": 8834, "trial_id": "mouselab_instructions_2_control", "trial_type": "instructions", "trial_index": 12, "time_elapsed": 822367, "internal_node_id": "0.0-2.1-3.1"}}, {"uniqueid": "w81030643:a71501268", "current_trial": 13, "dateTime": 1691160190743, "trialdata": {"rt": 35617, "response": {"Q0": "The cost for clicking on nodes may vary between nodes.", "Q1": "The better I perform the higher my bonus will be.", "Q2": "No, the structure of the web will be different each time.", "Q3": "To get the highest total score.", "Q4": "Only after moving the spider.", "Q5": "3 seconds"}, "question_order": [0, 1, 2, 3, 4, 5], "correct": {"Q0": "The cost for clicking on nodes may vary between nodes.", "Q1": "The better I perform the higher my bonus will be.", "Q2": "No, the amount of cash at each node of the web may be different each time.", "Q3": "To get the highest total score.", "Q4": "Only before moving the spider.", "Q5": "3 seconds"}, "trial_id": "mouselab_quiz_control", "trial_type": "survey-multi-choice", "trial_index": 13, "time_elapsed": 857989, "internal_node_id": "0.0-2.1-4.1"}}, {"uniqueid": "w81030643:a71501268", "current_trial": 14, "dateTime": 1691160203116, "trialdata": {"success": true, "trial_type": "fullscreen", "trial_index": 14, "time_elapsed": 870361, "internal_node_id": "0.0-2.2-0.2"}}, {"uniqueid": "w81030643:a71501268", "current_trial": 15, "dateTime": 1691160338418, "trialdata": {"view_history": [{"page_index": 0, "viewing_time": 51026}, {"page_index": 1, "viewing_time": 66763}, {"page_index": 2, "viewing_time": 12338}, {"page_index": 3, "viewing_time": 5172}], "rt": 135299, "trial_id": "mouselab_instructions_1_control", "trial_type": "instructions", "trial_index": 15, "time_elapsed": 1005664, "internal_node_id": "0.0-2.2-1.2"}}, {"uniqueid": "w81030643:a71501268", "current_trial": 16, "dateTime": 1691160348609, "trialdata": {"revealed_states": [], "clicked_states": [], "num_clicks_accrued": [0, 0, 0, 0, 0, 0, 0, 0, 0, 0, 0, 0, 0], "stateRewards": ["", 10, -10, 10, 10, -10, 10, 10, 10, -10, -10, 10, -10, -10, -10, 10, -10, -10, -10, -10, -10, 10, 10, 10, -10, -10, -10, -10, -10, 10, -10, -10, -10, 10], "withholdReward": false, "trial_id": "practice_1", "block": "test", "trialIndex": 4, "score": 13.5, "costs": 0, "simulationMode": [null, null, null, null, null], "rewards": [10, -10, 10, 10, -10], "path": ["0", "0", "1", "2", "3", "8", "9"], "rt": [603, 276, 203, 300, 126], "actions": ["up", "up", "up", "left", "up"], "actionTimes": [2955, 3729, 4439, 5236, 5863], "queries": {"click": {"state": {"target": [], "time": []}, "edge": {"target": [], "time": []}}, "mouseover": {"state": {"target": [], "time": []}, "edge": {"target": [], "time": []}}, "mouseout": {"state": {"target": [], "time": []}, "edge": {"target": [], "time": []}}}, "displayed_time": "6.37", "trialTime": 9660, "trial_type": "mouselab-mdp", "trial_index": 16, "time_elapsed": 1015854, "internal_node_id": "0.0-2.2-2.2-0.2"}}, {"uniqueid": "w81030643:a71501268", "current_trial": 17, "dateTime": 1691160361360, "trialdata": {"revealed_states": [], "clicked_states": [], "num_clicks_accrued": [0, 0, 0, 0, 0, 0, 0, 0, 0, 0, 0, 0, 0], "stateRewards": ["", 10, 10, -10, -10, -10, -10, -10, -10, -10, -10, 10, 10, 10, 10, -10, -10, 10, 10, 10, -10, -10, -10, 10, 10, -10, -10, 10, 10, 10, -10, -10, 10, -10], "withholdReward": false, "trial_id": "practice_2", "block": "test", "trialIndex": 5, "score": -6.5, "costs": 0, "simulationMode": [null, null, null, null, null], "rewards": [10, 10, -10, -10, -10], "path": ["0", "0", "1", "2", "3", "4", "5"], "rt": [4151, 634, 415, 658, 297], "actions": ["up", "up", "up", "right", "up"], "actionTimes": [5935, 7065, 7979, 9137, 9926], "queries": {"click": {"state": {"target": [], "time": []}, "edge": {"target": [], "time": []}}, "mouseover": {"state": {"target": ["1", "1"], "time": [4126, 4909]}, "edge": {"target": [], "time": []}}, "mouseout": {"state": {"target": ["0", "1"], "time": [4103, 4143]}, "edge": {"target": [], "time": []}}}, "displayed_time": "10.43", "trialTime": 12271, "trial_type": "mouselab-mdp", "trial_index": 17, "time_elapsed": 1028605, "internal_node_id": "0.0-2.2-2.2-1.2"}}, {"uniqueid": "w81030643:a71501268", "current_trial": 18, "dateTime": 1691160375673, "trialdata": {"view_history": [{"page_index": 0, "viewing_time": 12041}, {"page_index": 1, "viewing_time": 2269}], "rt": 14311, "trial_id": "mouselab_instructions_2_control", "trial_type": "instructions", "trial_index": 18, "time_elapsed": 1042919, "internal_node_id": "0.0-2.2-3.2"}}, {"uniqueid": "w81030643:a71501268", "current_trial": 19, "dateTime": 1691160471862, "trialdata": {"rt": 96183, "response": {"Q0": "The cost for clicking on nodes may vary between nodes.", "Q1": "The better I perform the higher my bonus will be.", "Q2": "No, the amount of cash at each node of the web may be different each time.", "Q3": "To click on the least number of nodes.", "Q4": "Only after moving the spider.", "Q5": "3 seconds"}, "question_order": [0, 1, 2, 3, 4, 5], "correct": {"Q0": "The cost for clicking on nodes may vary between nodes.", "Q1": "The better I perform the higher my bonus will be.", "Q2": "No, the amount of cash at each node of the web may be different each time.", "Q3": "To get the highest total score.", "Q4": "Only before moving the spider.", "Q5": "3 seconds"}, "trial_id": "mouselab_quiz_control", "trial_type": "survey-multi-choice", "trial_index": 19, "time_elapsed": 1139108, "internal_node_id": "0.0-2.2-4.2"}}, {"uniqueid": "w81030643:a71501268", "current_trial": 20, "dateTime": 1691160483958, "trialdata": {"success": true, "trial_type": "fullscreen", "trial_index": 20, "time_elapsed": 1151204, "internal_node_id": "0.0-2.3-0.3"}}, {"uniqueid": "w81030643:a71501268", "current_trial": 21, "dateTime": 1691160710994, "trialdata": {"view_history": [{"page_index": 0, "viewing_time": 108358}, {"page_index": 1, "viewing_time": 88987}, {"page_index": 2, "viewing_time": 21618}, {"page_index": 3, "viewing_time": 8069}], "rt": 227032, "trial_id": "mouselab_instructions_1_control", "trial_type": "instructions", "trial_index": 21, "time_elapsed": 1378240, "internal_node_id": "0.0-2.3-1.3"}}, {"uniqueid": "w81030643:a71501268", "current_trial": 22, "dateTime": 1691160725206, "trialdata": {"revealed_states": [], "clicked_states": ["23"], "num_clicks_accrued": [0, 0, 0, 0, 0, 0, 0, 0, 0, 0, 0, 0, 0], "stateRewards": ["", 10, -10, 10, 10, -10, 10, 10, 10, -10, -10, 10, -10, -10, -10, 10, -10, -10, -10, -10, -10, 10, 10, 10, -10, -10, -10, -10, -10, 10, -10, -10, -10, 10], "withholdReward": false, "trial_id": "practice_1", "block": "test", "trialIndex": 6, "score": -27, "costs": -0.5, "simulationMode": [null, null, null, null, null], "rewards": [-10, -10, -10, -10, 10], "path": ["0", "0", "12", "13", "14", "19", "21"], "rt": [4318, 210, 195, 1228, 86], "actions": ["right", "right", "right", "down", "down"], "actionTimes": [6847, 7557, 8259, 9992, 10582], "queries": {"click": {"state": {"target": ["23"], "time": [4082]}, "edge": {"target": [], "time": []}}, "mouseover": {"state": {"target": ["23"], "time": [3593]}, "edge": {"target": [], "time": []}}, "mouseout": {"state": {"target": ["0"], "time": [1508]}, "edge": {"target": [], "time": []}}}, "displayed_time": "11.09", "trialTime": 13676, "trial_type": "mouselab-mdp", "trial_index": 22, "time_elapsed": 1392452, "internal_node_id": "0.0-2.3-2.3-0.3"}}, {"uniqueid": "w81030643:a71501268", "current_trial": 23, "dateTime": 1691160738015, "trialdata": {"revealed_states": [], "clicked_states": [], "num_clicks_accrued": [0, 0, 0, 0, 0, 0, 0, 0, 0, 0, 0, 0, 0], "stateRewards": ["", 10, 10, -10, -10, -10, -10, -10, -10, -10, -10, 10, 10, 10, 10, -10, -10, 10, 10, 10, -10, -10, -10, 10, 10, -10, -10, 10, 10, 10, -10, -10, 10, -10], "withholdReward": false, "trial_id": "practice_2", "block": "test", "trialIndex": 7, "score": -6.5, "costs": 0, "simulationMode": [null, null, null, null, null], "rewards": [10, 10, -10, -10, -10], "path": ["0", "0", "1", "2", "3", "8", "9"], "rt": [1652, 251, 255, 856, 99], "actions": ["up", "up", "up", "left", "up"], "actionTimes": [4440, 5259, 6007, 7357, 7952], "queries": {"click": {"state": {"target": [], "time": []}, "edge": {"target": [], "time": []}}, "mouseover": {"state": {"target": [], "time": []}, "edge": {"target": [], "time": []}}, "mouseout": {"state": {"target": ["23", "0"], "time": [1947, 11119]}, "edge": {"target": [], "time": []}}}, "displayed_time": "8.45", "trialTime": 12339, "trial_type": "mouselab-mdp", "trial_index": 23, "time_elapsed": 1405261, "internal_node_id": "0.0-2.3-2.3-1.3"}}, {"uniqueid": "w81030643:a71501268", "current_trial": 24, "dateTime": 1691160776847, "trialdata": {"view_history": [{"page_index": 0, "viewing_time": 36505}, {"page_index": 1, "viewing_time": 2322}], "rt": 38827, "trial_id": "mouselab_instructions_2_control", "trial_type": "instructions", "trial_index": 24, "time_elapsed": 1444093, "internal_node_id": "0.0-2.3-3.3"}}, {"uniqueid": "w81030643:a71501268", "current_trial": 25, "dateTime": 1691161189816, "trialdata": {"rt": 412962, "response": {"Q0": "The cost for clicking on nodes may vary between nodes.", "Q1": "The better I perform the higher my bonus will be.", "Q2": "No, the structure of the web will be different each time.", "Q3": "To get the highest total score.", "Q4": "Only before moving the spider.", "Q5": "3 seconds"}, "question_order": [0, 1, 2, 3, 4, 5], "correct": {"Q0": "The cost for clicking on nodes may vary between nodes.", "Q1": "The better I perform the higher my bonus will be.", "Q2": "No, the amount of cash at each node of the web may be different each time.", "Q3": "To get the highest total score.", "Q4": "Only before moving the spider.", "Q5": "3 seconds"}, "trial_id": "mouselab_quiz_control", "trial_type": "survey-multi-choice", "trial_index": 25, "time_elapsed": 1857062, "internal_node_id": "0.0-2.3-4.3"}}, {"uniqueid": "w81030643:a71501268", "current_trial": 26, "dateTime": 1691161210158, "trialdata": {"rt": 20329, "stimulus": "\n<h1> Get ready to start the game! </h1>\n\nThank you for reading the instructions. Get ready start with the 40 rounds of this game.\n<br><br>\nIf you need to take a break, feel free to take one after the end of a round, before continuing to the next one.\n<br><br>\nRemember, the more money the spider gets, the bigger your bonus will be!\n<br><br>\n<div style='text-align: center;'>Press <code>space</code> to begin.</div>\n\n<br><br>\n(If, at any point, the <code>space</code> key does not take you to the next page, click once on the text and try again.)", "response": " ", "trial_id": "mdp_ready", "trial_type": "html-keyboard-response", "trial_index": 26, "time_elapsed": 1877404, "internal_node_id": "0.0-4.0-0.0"}}, {"uniqueid": "w81030643:a71501268", "current_trial": 27, "dateTime": 1691161235948, "trialdata": {"revealed_states": [], "clicked_states": [], "num_clicks_accrued": [0, 0, 0, 0, 0, 0, 0, 0, 0, 0, 0, 0, 0], "stateRewards": ["", -1, -3, 1, 13, -64, -29, 12, -4, -33, 50, 56, 2, -3, 4, 11, -64, -58, -55, 12, 47, 38, -25, -2, 2, 5, -15, 85, 7, 84, 10, 8, 57, 26], "withholdReward": false, "trial_id": "mdp_trial_1", "block": "test", "trialIndex": 8, "score": -40, "costs": 0, "simulationMode": [null, null, null, null, null], "rewards": [-1, -3, 1, -4, -33], "path": ["0", "0", "1", "2", "3", "8", "9"], "rt": [1791, 474, 232, 460, 1083], "actions": ["up", "up", "up", "left", "up"], "actionTimes": [7441, 8421, 9157, 10119, 11706], "queries": {"click": {"state": {"target": [], "time": []}, "edge": {"target": [], "time": []}}, "mouseover": {"state": {"target": [], "time": []}, "edge": {"target": [], "time": []}}, "mouseout": {"state": {"target": ["0", "1", "8", "9", "20", "19", "22"], "time": [3170, 17549, 17916, 20716, 24217, 24233, 24283]}, "edge": {"target": [], "time": []}}}, "displayed_time": "19.65", "trialTime": 25265, "trial_type": "mouselab-mdp", "trial_index": 27, "time_elapsed": 1903194, "internal_node_id": "0.0-4.0-1.0-0.0"}}, {"uniqueid": "w81030643:a71501268", "current_trial": 28, "dateTime": 1691161254676, "trialdata": {"revealed_states": [], "clicked_states": [], "num_clicks_accrued": [0, 0, 0, 0, 0, 0, 0, 0, 0, 0, 0, 0, 0], "stateRewards": ["", 1, -1, 8, 4, 76, -33, -17, -3, -1, -54, -74, -2, 2, -5, 13, -51, 63, 83, 1, 84, 29, -36, 2, -1, 7, -12, -10, -44, -43, -14, 8, -69, 19], "withholdReward": false, "trial_id": "mdp_trial_2", "block": "test", "trialIndex": 9, "score": -43, "costs": 0, "simulationMode": [null, null, null, null, null], "rewards": [-2, 2, -5, 13, -51], "path": ["0", "0", "12", "13", "14", "15", "16"], "rt": [6559, 465, 1265, 2960, 3], "actions": ["right", "right", "right", "up", "up"], "actionTimes": [8784, 9748, 11514, 14974, 15485], "queries": {"click": {"state": {"target": [], "time": []}, "edge": {"target": [], "time": []}}, "mouseover": {"state": {"target": [], "time": []}, "edge": {"target": [], "time": []}}, "mouseout": {"state": {"target": [], "time": []}, "edge": {"target": [], "time": []}}}, "displayed_time": "16.24", "trialTime": 18186, "trial_type": "mouselab-mdp", "trial_index": 28, "time_elapsed": 1921921, "internal_node_id": "0.0-4.0-1.0-1.0"}}, {"uniqueid": "w81030643:a71501268", "current_trial": 29, "dateTime": 1691161270802, "trialdata": {"revealed_states": [], "clicked_states": ["12"], "num_clicks_accrued": [0, 0, 0, 0, 0, 0, 0, 0, 0, 0, 0, 0, 0], "stateRewards": ["", -1, 4, 3, 12, -27, 34, -33, 3, -63, 1, 6, 2, 2, -6, -11, -77, -85, 68, -6, 51, 81, -60, -2, -2, 1, 15, 20, 15, 68, -10, -14, 6, -4], "withholdReward": false, "trial_id": "mdp_trial_3", "block": "test", "trialIndex": 10, "score": 41.6, "costs": -1.4, "simulationMode": [null, null, null, null, null], "rewards": [2, 2, -6, -6, 51], "path": ["0", "0", "12", "13", "14", "19", "20"], "rt": [6413, 163, 1279, 431, 370], "actions": ["right", "right", "right", "down", "right"], "actionTimes": [7871, 8541, 10326, 11259, 12133], "queries": {"click": {"state": {"target": ["12"], "time": [4314]}, "edge": {"target": [], "time": []}}, "mouseover": {"state": {"target": ["12"], "time": [4007]}, "edge": {"target": [], "time": []}}, "mouseout": {"state": {"target": ["0", "12"], "time": [3673, 14790]}, "edge": {"target": [], "time": []}}}, "displayed_time": "15.46", "trialTime": 15558, "trial_type": "mouselab-mdp", "trial_index": 29, "time_elapsed": 1938047, "internal_node_id": "0.0-4.0-1.0-2.0"}}, {"uniqueid": "w81030643:a71501268", "current_trial": 30, "dateTime": 1691161291155, "trialdata": {"revealed_states": [], "clicked_states": ["23"], "num_clicks_accrued": [0, 0, 0, 0, 0, 0, 0, 0, 0, 0, 0, 0, 0], "stateRewards": ["", -1, 3, 8, 9, -53, 20, -84, 2, -28, -62, -31, -1, -2, -7, 2, 51, 58, 45, -4, -17, -41, 36, 2, -2, -7, -15, 29, -54, -37, -16, -43, 65, -17], "withholdReward": false, "trial_id": "mdp_trial_4", "block": "test", "trialIndex": 11, "score": 5.600000000000001, "costs": -1.4, "simulationMode": [null, null, null, null, null], "rewards": [2, -2, -7, -15, 29], "path": ["0", "0", "23", "24", "25", "26", "27"], "rt": [4130, 265, 1128, 1717, 3], "actions": ["left", "left", "left", "up", "up"], "actionTimes": [6830, 7598, 9227, 11453, 11974], "queries": {"click": {"state": {"target": ["23"], "time": [4301]}, "edge": {"target": [], "time": []}}, "mouseover": {"state": {"target": ["23"], "time": [3679]}, "edge": {"target": [], "time": []}}, "mouseout": {"state": {"target": ["0"], "time": [3629]}, "edge": {"target": [], "time": []}}}, "displayed_time": "16.71", "trialTime": 19716, "trial_type": "mouselab-mdp", "trial_index": 30, "time_elapsed": 1958400, "internal_node_id": "0.0-4.0-1.0-3.0"}}, {"uniqueid": "w81030643:a71501268", "current_trial": 31, "dateTime": 1691161310866, "trialdata": {"revealed_states": [], "clicked_states": [], "num_clicks_accrued": [0, 0, 0, 0, 0, 0, 0, 0, 0, 0, 0, 0, 0], "stateRewards": ["", 2, -4, 1, -12, -59, -53, -74, 16, -88, -66, 66, 1, -2, 8, -9, -14, 22, 25, -1, -39, 47, -14, -1, -1, -2, 1, -4, 52, -26, 15, -7, 46, 43], "withholdReward": false, "trial_id": "mdp_trial_5", "block": "test", "trialIndex": 12, "score": -72, "costs": 0, "simulationMode": [null, null, null, null, null], "rewards": [2, -4, 1, -12, -59], "path": ["0", "0", "1", "2", "3", "4", "5"], "rt": [2494, 196, 289, 588, 563], "actions": ["up", "up", "up", "right", "up"], "actionTimes": [6114, 6813, 7607, 8690, 9748], "queries": {"click": {"state": {"target": [], "time": []}, "edge": {"target": [], "time": []}}, "mouseover": {"state": {"target": [], "time": []}, "edge": {"target": [], "time": []}}, "mouseout": {"state": {"target": ["23"], "time": [2514]}, "edge": {"target": [], "time": []}}}, "displayed_time": "17.63", "trialTime": 19091, "trial_type": "mouselab-mdp", "trial_index": 31, "time_elapsed": 1978112, "internal_node_id": "0.0-4.0-1.0-4.0"}}, {"uniqueid": "w81030643:a71501268", "current_trial": 32, "dateTime": 1691161331622, "trialdata": {"revealed_states": [], "clicked_states": [], "num_clicks_accrued": [0, 0, 0, 0, 0, 0, 0, 0, 0, 0, 0, 0, 0], "stateRewards": ["", -1, 4, -5, 9, 29, -75, -42, -16, 24, -28, -41, 2, -3, 1, 10, 60, 47, 55, -1, -53, 22, -40, 2, -3, -6, 4, -26, 44, 54, 15, -76, 42, 14], "withholdReward": false, "trial_id": "mdp_trial_6", "block": "test", "trialIndex": 13, "score": 57, "costs": 0, "simulationMode": [null, null, null, null, null], "rewards": [2, -3, 1, 10, 47], "path": ["0", "0", "12", "13", "14", "15", "17"], "rt": [6393, 42, 129, 619, 713], "actions": ["right", "right", "right", "up", "right"], "actionTimes": [8472, 9018, 9671, 10797, 12021], "queries": {"click": {"state": {"target": [], "time": []}, "edge": {"target": [], "time": []}}, "mouseover": {"state": {"target": [], "time": []}, "edge": {"target": [], "time": []}}, "mouseout": {"state": {"target": ["0"], "time": [1691]}, "edge": {"target": [], "time": []}}}, "displayed_time": "16.09", "trialTime": 20105, "trial_type": "mouselab-mdp", "trial_index": 32, "time_elapsed": 1998868, "internal_node_id": "0.0-4.0-1.0-5.0"}}, {"uniqueid": "w81030643:a71501268", "current_trial": 33, "dateTime": 1691161350484, "trialdata": {"revealed_states": [], "clicked_states": ["1"], "num_clicks_accrued": [0, 0, 0, 0, 0, 0, 0, 0, 0, 0, 0, 0, 0], "stateRewards": ["", 1, 1, -3, 7, 49, 78, 26, -5, 26, 48, -43, -1, -3, 2, -5, 4, -1, -60, 10, -35, 51, 81, -2, 1, -7, -5, -39, -86, -54, 4, -3, 74, 77], "withholdReward": false, "trial_id": "mdp_trial_7", "block": "test", "trialIndex": 14, "score": 40.6, "costs": -1.4, "simulationMode": [null, null, null, null, null], "rewards": [1, 1, -3, -5, 48], "path": ["0", "0", "1", "2", "3", "8", "10"], "rt": [3829, 181, 541, 57, 581], "actions": ["up", "up", "up", "left", "down"], "actionTimes": [6225, 6912, 7955, 8554, 9645], "queries": {"click": {"state": {"target": ["1"], "time": [3649]}, "edge": {"target": [], "time": []}}, "mouseover": {"state": {"target": ["1"], "time": [3161]}, "edge": {"target": [], "time": []}}, "mouseout": {"state": {"target": ["0", "1", "1"], "time": [2039, 3854, 5129]}, "edge": {"target": [], "time": []}}}, "displayed_time": "16.41", "trialTime": 18171, "trial_type": "mouselab-mdp", "trial_index": 33, "time_elapsed": 2017730, "internal_node_id": "0.0-4.0-1.0-6.0"}}, {"uniqueid": "w81030643:a71501268", "current_trial": 34, "dateTime": 1691161369633, "trialdata": {"revealed_states": [], "clicked_states": ["1"], "num_clicks_accrued": [0, 0, 0, 0, 0, 0, 0, 0, 0, 0, 0, 0, 0], "stateRewards": ["", 1, 1, -3, 2, 22, -25, -11, -5, 50, 49, 3, 1, -1, 8, 14, -85, -30, 57, -6, -39, -16, 59, -2, -1, 5, 5, 59, -16, 8, 4, 67, 56, -9], "withholdReward": false, "trial_id": "mdp_trial_8", "block": "test", "trialIndex": 15, "score": -25.4, "costs": -1.4, "simulationMode": [null, null, null, null, null], "rewards": [1, 1, -3, 2, -25], "path": ["0", "0", "1", "2", "3", "4", "6"], "rt": [4977, 216, 285, 474, 206], "actions": ["up", "up", "up", "right", "right"], "actionTimes": [7981, 8704, 9491, 10464, 11180], "queries": {"click": {"state": {"target": ["1"], "time": [5942]}, "edge": {"target": [], "time": []}}, "mouseover": {"state": {"target": ["23", "1"], "time": [4886, 5536]}, "edge": {"target": [], "time": []}}, "mouseout": {"state": {"target": ["23", "1", "18", "20", "19", "22"], "time": [5060, 6146, 14386, 17736, 17753, 17770]}, "edge": {"target": [], "time": []}}}, "displayed_time": "17.01", "trialTime": 18479, "trial_type": "mouselab-mdp", "trial_index": 34, "time_elapsed": 2036878, "internal_node_id": "0.0-4.0-1.0-7.0"}}, {"uniqueid": "w81030643:a71501268", "current_trial": 35, "dateTime": 1691161391292, "trialdata": {"revealed_states": [], "clicked_states": [], "num_clicks_accrued": [0, 0, 0, 0, 0, 0, 0, 0, 0, 0, 0, 0, 0], "stateRewards": ["", 2, 3, 8, 11, 25, -80, 6, -4, -56, 84, -23, -2, -4, -3, 4, -51, -9, -61, -15, -64, 67, -35, 1, -1, -7, -6, 83, 59, -15, 12, -79, 56, 41], "withholdReward": false, "trial_id": "mdp_trial_9", "block": "test", "trialIndex": 16, "score": 70, "costs": 0, "simulationMode": [null, null, null, null, null], "rewards": [1, -1, -7, -6, 83], "path": ["0", "0", "23", "24", "25", "26", "27"], "rt": [3125, 47, 619, 1999, 160], "actions": ["left", "left", "left", "up", "up"], "actionTimes": [6070, 6613, 7756, 10250, 10926], "queries": {"click": {"state": {"target": [], "time": []}, "edge": {"target": [], "time": []}}, "mouseover": {"state": {"target": [], "time": []}, "edge": {"target": [], "time": []}}, "mouseout": {"state": {"target": [], "time": []}, "edge": {"target": [], "time": []}}}, "displayed_time": "16.95", "trialTime": 20948, "trial_type": "mouselab-mdp", "trial_index": 35, "time_elapsed": 2058537, "internal_node_id": "0.0-4.0-1.0-8.0"}}, {"uniqueid": "w81030643:a71501268", "current_trial": 36, "dateTime": 1691161409281, "trialdata": {"revealed_states": [], "clicked_states": [], "num_clicks_accrued": [0, 0, 0, 0, 0, 0, 0, 0, 0, 0, 0, 0, 0], "stateRewards": ["", -2, 1, -7, -8, -37, -76, -87, 11, 30, -63, 80, -1, 4, 2, -1, 42, 17, 52, -3, -75, -80, -68, 2, -3, -5, -15, -48, 82, 24, -7, 5, -22, -71], "withholdReward": false, "trial_id": "mdp_trial_10", "block": "test", "trialIndex": 17, "score": -73, "costs": 0, "simulationMode": [null, null, null, null, null], "rewards": [-1, 4, 2, -3, -75], "path": ["0", "0", "12", "13", "14", "19", "20"], "rt": [1718, 111, 163, 234, 154], "actions": ["right", "right", "right", "down", "right"], "actionTimes": [3940, 4552, 5239, 5976, 6639], "queries": {"click": {"state": {"target": [], "time": []}, "edge": {"target": [], "time": []}}, "mouseover": {"state": {"target": [], "time": []}, "edge": {"target": [], "time": []}}, "mouseout": {"state": {"target": [], "time": []}, "edge": {"target": [], "time": []}}}, "displayed_time": "16.22", "trialTime": 17312, "trial_type": "mouselab-mdp", "trial_index": 36, "time_elapsed": 2076527, "internal_node_id": "0.0-4.0-1.0-9.0"}}, {"uniqueid": "w81030643:a71501268", "current_trial": 37, "dateTime": 1691161427000, "trialdata": {"revealed_states": [], "clicked_states": [], "num_clicks_accrued": [0, 0, 0, 0, 0, 0, 0, 0, 0, 0, 0, 0, 0], "stateRewards": ["", 2, -3, -4, -1, 25, -16, 16, 10, -71, -20, -55, 1, 3, -4, -9, 1, 32, 11, -6, 32, -50, -41, -1, 4, 4, -8, 7, -81, 70, 2, -52, 45, -10], "withholdReward": false, "trial_id": "mdp_trial_11", "block": "test", "trialIndex": 18, "score": -47, "costs": 0, "simulationMode": [null, null, null, null, null], "rewards": [1, 3, -4, -6, -41], "path": ["0", "0", "12", "13", "14", "19", "22"], "rt": [3415, 152, 308, 433, 5], "actions": ["right", "right", "right", "down", "left"], "actionTimes": [5333, 5994, 6814, 7753, 8258], "queries": {"click": {"state": {"target": [], "time": []}, "edge": {"target": [], "time": []}}, "mouseover": {"state": {"target": [], "time": []}, "edge": {"target": [], "time": []}}, "mouseout": {"state": {"target": ["0", "12"], "time": [10761, 10796]}, "edge": {"target": [], "time": []}}}, "displayed_time": "15.92", "trialTime": 17073, "trial_type": "mouselab-mdp", "trial_index": 37, "time_elapsed": 2094246, "internal_node_id": "0.0-4.0-1.0-10.0"}}, {"uniqueid": "w81030643:a71501268", "current_trial": 38, "dateTime": 1691161445852, "trialdata": {"revealed_states": [], "clicked_states": [], "num_clicks_accrued": [0, 0, 0, 0, 0, 0, 0, 0, 0, 0, 0, 0, 0], "stateRewards": ["", 2, -4, 7, 3, 23, -42, 4, 7, -81, -33, 7, -2, -4, 5, -1, 50, -57, -14, -13, -14, 44, 55, -2, -2, 5, -2, 33, 1, 57, -13, -7, 58, 87], "withholdReward": false, "trial_id": "mdp_trial_12", "block": "test", "trialIndex": 19, "score": 75, "costs": 0, "simulationMode": [null, null, null, null, null], "rewards": [-2, -2, 5, -13, 87], "path": ["0", "0", "23", "24", "25", "30", "33"], "rt": [6303, 415, 143, 537, 187], "actions": ["left", "left", "left", "down", "left"], "actionTimes": [9210, 10134, 10775, 11819, 12526], "queries": {"click": {"state": {"target": [], "time": []}, "edge": {"target": [], "time": []}}, "mouseover": {"state": {"target": ["23"], "time": [6011]}, "edge": {"target": [], "time": []}}, "mouseout": {"state": {"target": ["0"], "time": [5795]}, "edge": {"target": [], "time": []}}}, "displayed_time": "16.95", "trialTime": 18122, "trial_type": "mouselab-mdp", "trial_index": 38, "time_elapsed": 2113097, "internal_node_id": "0.0-4.0-1.0-11.0"}}, {"uniqueid": "w81030643:a71501268", "current_trial": 39, "dateTime": 1691161465253, "trialdata": {"revealed_states": [], "clicked_states": ["30"], "num_clicks_accrued": [0, 0, 0, 0, 0, 0, 0, 0, 0, 0, 0, 0, 0], "stateRewards": ["", -2, -1, -1, 5, -54, -87, 35, 2, -8, 20, -22, 1, 3, 6, 13, -75, -32, -55, -3, 56, 62, -22, -1, -4, -1, -7, -51, 84, 70, 7, -15, 5, 55], "withholdReward": false, "trial_id": "mdp_trial_13", "block": "test", "trialIndex": 20, "score": 4.6, "costs": -1.4, "simulationMode": [null, null, null, null, null], "rewards": [-1, -4, -1, 7, 5], "path": ["0", "0", "23", "24", "25", "30", "32"], "rt": [4230, 448, 284, 455, 86], "actions": ["left", "left", "left", "down", "down"], "actionTimes": [7297, 8268, 9052, 10010, 10607], "queries": {"click": {"state": {"target": ["30"], "time": [4878]}, "edge": {"target": [], "time": []}}, "mouseover": {"state": {"target": ["0", "23", "30", "30", "24", "1"], "time": [3879, 4098, 4146, 4595, 5715, 5766]}, "edge": {"target": [], "time": []}}, "mouseout": {"state": {"target": ["23", "0", "23", "30", "30", "24", "1", "0", "18", "15"], "time": [1911, 4095, 4112, 4246, 5698, 5732, 5784, 14429, 14463, 14480]}, "edge": {"target": [], "time": []}}}, "displayed_time": "17.07", "trialTime": 18657, "trial_type": "mouselab-mdp", "trial_index": 39, "time_elapsed": 2132498, "internal_node_id": "0.0-4.0-1.0-12.0"}}, {"uniqueid": "w81030643:a71501268", "current_trial": 40, "dateTime": 1691161484044, "trialdata": {"revealed_states": [], "clicked_states": ["19"], "num_clicks_accrued": [0, 0, 0, 0, 0, 0, 0, 0, 0, 0, 0, 0, 0], "stateRewards": ["", -2, -3, 8, -4, -30, 31, 69, 9, 66, 87, 64, -2, 2, 8, 5, 47, 16, -39, -8, -54, 51, -19, 1, -2, -2, -11, -25, -26, 43, -9, 19, -84, 86], "withholdReward": false, "trial_id": "mdp_trial_14", "block": "test", "trialIndex": 21, "score": 66.6, "costs": -1.4, "simulationMode": [null, null, null, null, null], "rewards": [-2, -3, 8, -4, 69], "path": ["0", "0", "1", "2", "3", "4", "7"], "rt": [6720, 197, 132, 806, 137], "actions": ["up", "up", "up", "right", "down"], "actionTimes": [9275, 9968, 10602, 11908, 12538], "queries": {"click": {"state": {"target": ["19"], "time": [4771]}, "edge": {"target": [], "time": []}}, "mouseover": {"state": {"target": ["12", "19", "14"], "time": [3920, 4081, 5666]}, "edge": {"target": [], "time": []}}, "mouseout": {"state": {"target": ["0", "12", "19", "14"], "time": [3909, 3948, 4963, 14348]}, "edge": {"target": [], "time": []}}}, "displayed_time": "16.56", "trialTime": 17969, "trial_type": "mouselab-mdp", "trial_index": 40, "time_elapsed": 2151289, "internal_node_id": "0.0-4.0-1.0-13.0"}}, {"uniqueid": "w81030643:a71501268", "current_trial": 41, "dateTime": 1691161505200, "trialdata": {"revealed_states": [], "clicked_states": [], "num_clicks_accrued": [0, 0, 0, 0, 0, 0, 0, 0, 0, 0, 0, 0, 0], "stateRewards": ["", -2, -3, 8, 14, -73, 73, 84, -12, -2, -50, -17, 2, 1, -2, -9, -44, -27, -33, 16, -63, -47, -66, -2, 1, 4, -5, -33, -11, 50, 9, 38, -79, 31], "withholdReward": false, "trial_id": "mdp_trial_15", "block": "test", "trialIndex": 22, "score": -59, "costs": 0, "simulationMode": [null, null, null, null, null], "rewards": [-2, -3, 8, -12, -50], "path": ["0", "0", "1", "2", "3", "8", "10"], "rt": [1435, 128, 64, 125, 58], "actions": ["up", "up", "up", "left", "down"], "actionTimes": [6567, 7197, 7771, 8427, 9010], "queries": {"click": {"state": {"target": [], "time": []}, "edge": {"target": [], "time": []}}, "mouseover": {"state": {"target": [], "time": []}, "edge": {"target": [], "time": []}}, "mouseout": {"state": {"target": ["19", "22", "12", "0", "12"], "time": [4002, 4029, 4063, 10681, 10700]}, "edge": {"target": [], "time": []}}}, "displayed_time": "19.14", "trialTime": 20358, "trial_type": "mouselab-mdp", "trial_index": 41, "time_elapsed": 2172445, "internal_node_id": "0.0-4.0-1.0-14.0"}}, {"uniqueid": "w81030643:a71501268", "current_trial": 42, "dateTime": 1691161523824, "trialdata": {"revealed_states": [], "clicked_states": [], "num_clicks_accrued": [0, 0, 0, 0, 0, 0, 0, 0, 0, 0, 0, 0, 0], "stateRewards": ["", 1, -3, -4, -11, -56, 61, -47, -16, -28, -9, 69, -2, -3, -4, -8, 40, -86, 59, -4, 80, 27, 54, -1, 3, -1, 8, 67, 23, 50, 6, 83, -43, -29], "withholdReward": false, "trial_id": "mdp_trial_16", "block": "test", "trialIndex": 23, "score": 32, "costs": 0, "simulationMode": [null, null, null, null, null], "rewards": [-1, 3, -1, 8, 23], "path": ["0", "0", "23", "24", "25", "26", "28"], "rt": [1907, 41, 314, 1850, 489], "actions": ["left", "left", "left", "up", "right"], "actionTimes": [4966, 5500, 6309, 8662, 9647], "queries": {"click": {"state": {"target": [], "time": []}, "edge": {"target": [], "time": []}}, "mouseover": {"state": {"target": [], "time": []}, "edge": {"target": [], "time": []}}, "mouseout": {"state": {"target": ["0", "12"], "time": [10778, 10805]}, "edge": {"target": [], "time": []}}}, "displayed_time": "17.08", "trialTime": 17822, "trial_type": "mouselab-mdp", "trial_index": 42, "time_elapsed": 2191069, "internal_node_id": "0.0-4.0-1.0-15.0"}}, {"uniqueid": "w81030643:a71501268", "current_trial": 43, "dateTime": 1691161543444, "trialdata": {"revealed_states": [], "clicked_states": ["24"], "num_clicks_accrued": [0, 0, 0, 0, 0, 0, 0, 0, 0, 0, 0, 0, 0], "stateRewards": ["", 2, -1, 5, 6, 10, 86, 55, 10, -45, 63, -71, 1, -2, 5, -8, -50, -72, 36, 15, 61, 12, 33, -1, -4, 6, 5, 79, -56, -21, -16, -87, 60, -81], "withholdReward": false, "trial_id": "mdp_trial_17", "block": "test", "trialIndex": 24, "score": -56.4, "costs": -1.4, "simulationMode": [null, null, null, null, null], "rewards": [2, -1, 5, 10, -71], "path": ["0", "0", "1", "2", "3", "8", "11"], "rt": [5327, 153, 724, 726, 240], "actions": ["up", "up", "up", "left", "left"], "actionTimes": [7971, 8638, 9859, 11474, 12208], "queries": {"click": {"state": {"target": ["24"], "time": [4861]}, "edge": {"target": [], "time": []}}, "mouseover": {"state": {"target": ["23", "24"], "time": [4213, 4589]}, "edge": {"target": [], "time": []}}, "mouseout": {"state": {"target": ["0", "23", "24", "31"], "time": [1829, 4263, 6144, 15963]}, "edge": {"target": [], "time": []}}}, "displayed_time": "16.65", "trialTime": 18818, "trial_type": "mouselab-mdp", "trial_index": 43, "time_elapsed": 2210689, "internal_node_id": "0.0-4.0-1.0-16.0"}}, {"uniqueid": "w81030643:a71501268", "current_trial": 44, "dateTime": 1691161562415, "trialdata": {"revealed_states": [], "clicked_states": [], "num_clicks_accrued": [0, 0, 0, 0, 0, 0, 0, 0, 0, 0, 0, 0, 0], "stateRewards": ["", 1, 4, -4, 14, 35, 51, 19, -13, 54, 78, -74, -2, -1, -3, 13, -11, -42, -73, -15, -24, -3, -69, 2, -1, 5, 16, -27, 73, 58, 9, -60, 5, -60], "withholdReward": false, "trial_id": "mdp_trial_18", "block": "test", "trialIndex": 25, "score": -24, "costs": 0, "simulationMode": [null, null, null, null, null], "rewards": [-2, -1, -3, -15, -3], "path": ["0", "0", "12", "13", "14", "19", "21"], "rt": [2284, 220, 749, 622, 228], "actions": ["right", "right", "right", "down", "down"], "actionTimes": [5266, 5981, 7230, 8352, 9117], "queries": {"click": {"state": {"target": [], "time": []}, "edge": {"target": [], "time": []}}, "mouseover": {"state": {"target": [], "time": []}, "edge": {"target": [], "time": []}}, "mouseout": {"state": {"target": ["14", "0"], "time": [1830, 2238]}, "edge": {"target": [], "time": []}}}, "displayed_time": "16.98", "trialTime": 18198, "trial_type": "mouselab-mdp", "trial_index": 44, "time_elapsed": 2229661, "internal_node_id": "0.0-4.0-1.0-17.0"}}, {"uniqueid": "w81030643:a71501268", "current_trial": 45, "dateTime": 1691161581280, "trialdata": {"revealed_states": [], "clicked_states": [], "num_clicks_accrued": [0, 0, 0, 0, 0, 0, 0, 0, 0, 0, 0, 0, 0], "stateRewards": ["", -2, -4, 2, 10, -17, 18, 73, 11, -32, 23, -13, -2, -4, 7, 12, -25, 66, -23, 15, 40, -76, -9, 1, 2, -7, -5, -20, 24, 3, -5, 16, -73, 70], "withholdReward": false, "trial_id": "mdp_trial_19", "block": "test", "trialIndex": 26, "score": -12, "costs": 0, "simulationMode": [null, null, null, null, null], "rewards": [-2, -4, 7, 12, -25], "path": ["0", "0", "12", "13", "14", "15", "16"], "rt": [1441, 547, 19, 1127, 334], "actions": ["right", "right", "right", "up", "up"], "actionTimes": [3848, 4904, 5427, 7083, 7923], "queries": {"click": {"state": {"target": [], "time": []}, "edge": {"target": [], "time": []}}, "mouseover": {"state": {"target": [], "time": []}, "edge": {"target": [], "time": []}}, "mouseout": {"state": {"target": ["0", "12"], "time": [1962, 14153]}, "edge": {"target": [], "time": []}}}, "displayed_time": "16.42", "trialTime": 18125, "trial_type": "mouselab-mdp", "trial_index": 45, "time_elapsed": 2248525, "internal_node_id": "0.0-4.0-1.0-18.0"}}, {"uniqueid": "w81030643:a71501268", "current_trial": 46, "dateTime": 1691161600139, "trialdata": {"revealed_states": [], "clicked_states": [], "num_clicks_accrued": [0, 0, 0, 0, 0, 0, 0, 0, 0, 0, 0, 0, 0], "stateRewards": ["", 1, 2, -3, 6, -88, 74, -45, 7, -46, 40, -77, 1, -4, 4, 3, 22, -25, -59, 8, -83, 19, -60, -1, -1, -1, -8, 26, -29, 64, -7, -88, -51, -55], "withholdReward": false, "trial_id": "mdp_trial_20", "block": "test", "trialIndex": 27, "score": -39, "costs": 0, "simulationMode": [null, null, null, null, null], "rewards": [1, 2, -3, 6, -45], "path": ["0", "0", "1", "2", "3", "4", "7"], "rt": [4014, 289, 744, 592, 272], "actions": ["up", "up", "up", "right", "down"], "actionTimes": [6781, 7569, 8807, 9909, 10692], "queries": {"click": {"state": {"target": [], "time": []}, "edge": {"target": [], "time": []}}, "mouseover": {"state": {"target": ["1"], "time": [5344]}, "edge": {"target": [], "time": []}}, "mouseout": {"state": {"target": ["20", "13", "12"], "time": [1526, 1574, 1607]}, "edge": {"target": [], "time": []}}}, "displayed_time": "16.77", "trialTime": 17974, "trial_type": "mouselab-mdp", "trial_index": 46, "time_elapsed": 2267384, "internal_node_id": "0.0-4.0-1.0-19.0"}}, {"uniqueid": "w81030643:a71501268", "current_trial": 47, "dateTime": 1691161618361, "trialdata": {"revealed_states": [], "clicked_states": [], "num_clicks_accrued": [0, 0, 0, 0, 0, 0, 0, 0, 0, 0, 0, 0, 0], "stateRewards": ["", 1, 4, 7, -16, -84, -6, -46, -12, -7, -49, -26, -1, 2, -4, 2, 22, 37, -64, 1, 88, -13, -10, 1, -4, -2, 5, 2, -10, -34, 9, 66, 55, 38], "withholdReward": false, "trial_id": "mdp_trial_21", "block": "test", "trialIndex": 28, "score": -10, "costs": 0, "simulationMode": [null, null, null, null, null], "rewards": [1, -4, -2, 5, -10], "path": ["0", "0", "23", "24", "25", "26", "28"], "rt": [1482, 46, 416, 1610, 351], "actions": ["left", "left", "left", "up", "right"], "actionTimes": [4115, 4669, 5605, 7717, 8573], "queries": {"click": {"state": {"target": [], "time": []}, "edge": {"target": [], "time": []}}, "mouseover": {"state": {"target": [], "time": []}, "edge": {"target": [], "time": []}}, "mouseout": {"state": {"target": ["1", "0"], "time": [1685, 13486]}, "edge": {"target": [], "time": []}}}, "displayed_time": "16.65", "trialTime": 17385, "trial_type": "mouselab-mdp", "trial_index": 47, "time_elapsed": 2285606, "internal_node_id": "0.0-4.0-1.0-20.0"}}, {"uniqueid": "w81030643:a71501268", "current_trial": 48, "dateTime": 1691161636660, "trialdata": {"revealed_states": [], "clicked_states": [], "num_clicks_accrued": [0, 0, 0, 0, 0, 0, 0, 0, 0, 0, 0, 0, 0], "stateRewards": ["", -1, -4, -6, -15, 21, -67, -63, 9, 51, 69, -14, -1, 3, 8, -8, 39, 72, 63, 15, 19, 47, 15, 1, 4, 5, 16, -18, 34, 35, -14, -80, 40, 1], "withholdReward": false, "trial_id": "mdp_trial_22", "block": "test", "trialIndex": 29, "score": 36, "costs": 0, "simulationMode": [null, null, null, null, null], "rewards": [1, 4, 5, -14, 40], "path": ["0", "0", "23", "24", "25", "30", "32"], "rt": [1681, 154, 123, 385, 290], "actions": ["left", "left", "left", "down", "down"], "actionTimes": [4477, 5128, 5745, 6626, 7411], "queries": {"click": {"state": {"target": [], "time": []}, "edge": {"target": [], "time": []}}, "mouseover": {"state": {"target": [], "time": []}, "edge": {"target": [], "time": []}}, "mouseout": {"state": {"target": ["19", "12", "0", "12"], "time": [1516, 1850, 10287, 10318]}, "edge": {"target": [], "time": []}}}, "displayed_time": "16.80", "trialTime": 17349, "trial_type": "mouselab-mdp", "trial_index": 48, "time_elapsed": 2303905, "internal_node_id": "0.0-4.0-1.0-21.0"}}, {"uniqueid": "w81030643:a71501268", "current_trial": 49, "dateTime": 1691161655771, "trialdata": {"revealed_states": [], "clicked_states": [], "num_clicks_accrued": [0, 0, 0, 0, 0, 0, 0, 0, 0, 0, 0, 0, 0], "stateRewards": ["", -1, -1, 4, -16, -75, 81, -51, -7, -84, 73, -30, -2, 1, -3, -16, -77, 33, 14, 1, 45, 87, -66, 2, 2, -5, -7, -19, -17, 79, -3, 8, 49, 47], "withholdReward": false, "trial_id": "mdp_trial_23", "block": "test", "trialIndex": 30, "score": 43, "costs": 0, "simulationMode": [null, null, null, null, null], "rewards": [2, 2, -5, -3, 47], "path": ["0", "0", "23", "24", "25", "30", "33"], "rt": [1626, 150, 339, 697, 51], "actions": ["left", "left", "left", "down", "left"], "actionTimes": [4486, 5144, 5984, 7174, 7731], "queries": {"click": {"state": {"target": [], "time": []}, "edge": {"target": [], "time": []}}, "mouseover": {"state": {"target": [], "time": []}, "edge": {"target": [], "time": []}}, "mouseout": {"state": {"target": ["2", "1", "12"], "time": [1538, 1856, 9206]}, "edge": {"target": [], "time": []}}}, "displayed_time": "16.86", "trialTime": 18217, "trial_type": "mouselab-mdp", "trial_index": 49, "time_elapsed": 2323016, "internal_node_id": "0.0-4.0-1.0-22.0"}}, {"uniqueid": "w81030643:a71501268", "current_trial": 50, "dateTime": 1691161675995, "trialdata": {"revealed_states": [], "clicked_states": [], "num_clicks_accrued": [0, 0, 0, 0, 0, 0, 0, 0, 0, 0, 0, 0, 0], "stateRewards": ["", 1, -2, 7, -14, 88, -56, -44, -14, 64, -51, -57, -2, 3, -4, -9, -11, 19, -77, -1, 68, 75, -67, -1, 1, -2, 5, -37, 70, -34, -10, -72, 63, -41], "withholdReward": false, "trial_id": "mdp_trial_24", "block": "test", "trialIndex": 31, "score": 64, "costs": 0, "simulationMode": [null, null, null, null, null], "rewards": [-2, 3, -4, -1, 68], "path": ["0", "0", "12", "13", "14", "19", "20"], "rt": [1335, 235, 448, 165, 72], "actions": ["right", "right", "right", "down", "right"], "actionTimes": [4776, 5516, 6462, 7130, 7704], "queries": {"click": {"state": {"target": [], "time": []}, "edge": {"target": [], "time": []}}, "mouseover": {"state": {"target": [], "time": []}, "edge": {"target": [], "time": []}}, "mouseout": {"state": {"target": ["14", "18", "12", "0", "18", "15"], "time": [1660, 1793, 1978, 9044, 9345, 9377]}, "edge": {"target": [], "time": []}}}, "displayed_time": "17.44", "trialTime": 19377, "trial_type": "mouselab-mdp", "trial_index": 50, "time_elapsed": 2343240, "internal_node_id": "0.0-4.0-1.0-23.0"}}, {"uniqueid": "w81030643:a71501268", "current_trial": 51, "dateTime": 1691161695992, "trialdata": {"revealed_states": [], "clicked_states": [], "num_clicks_accrued": [0, 0, 0, 0, 0, 0, 0, 0, 0, 0, 0, 0, 0], "stateRewards": ["", -2, 4, 3, 5, -61, 4, 30, 1, -47, 83, 10, 1, 4, 7, -14, 19, -74, -83, 6, -2, -2, -65, -1, -2, 4, -11, 12, -1, -68, 11, -38, -28, 66], "withholdReward": false, "trial_id": "mdp_trial_25", "block": "test", "trialIndex": 32, "score": -76, "costs": 0, "simulationMode": [null, null, null, null, null], "rewards": [1, 4, 7, -14, -74], "path": ["0", "0", "12", "13", "14", "15", "17"], "rt": [920, 299, 489, 1039, 534], "actions": ["right", "right", "right", "up", "right"], "actionTimes": [4350, 5146, 6137, 7686, 8716], "queries": {"click": {"state": {"target": [], "time": []}, "edge": {"target": [], "time": []}}, "mouseover": {"state": {"target": [], "time": []}, "edge": {"target": [], "time": []}}, "mouseout": {"state": {"target": ["13", "12"], "time": [1976, 2376]}, "edge": {"target": [], "time": []}}}, "displayed_time": "17.44", "trialTime": 19073, "trial_type": "mouselab-mdp", "trial_index": 51, "time_elapsed": 2363237, "internal_node_id": "0.0-4.0-1.0-24.0"}}, {"uniqueid": "w81030643:a71501268", "current_trial": 52, "dateTime": 1691161714881, "trialdata": {"revealed_states": [], "clicked_states": [], "num_clicks_accrued": [0, 0, 0, 0, 0, 0, 0, 0, 0, 0, 0, 0, 0], "stateRewards": ["", 1, -1, 8, -3, 38, 85, -20, -4, 8, 23, 73, 2, -4, 6, -13, 44, 7, -28, -11, -77, 45, -69, 1, -1, -7, -11, 75, -51, -87, 7, 36, -53, -26], "withholdReward": false, "trial_id": "mdp_trial_26", "block": "test", "trialIndex": 33, "score": -105, "costs": 0, "simulationMode": [null, null, null, null, null], "rewards": [1, -1, -7, -11, -87], "path": ["0", "0", "23", "24", "25", "26", "29"], "rt": [857, 366, 218, 310, 1270], "actions": ["left", "left", "left", "up", "left"], "actionTimes": [3106, 3979, 4695, 5507, 7286], "queries": {"click": {"state": {"target": [], "time": []}, "edge": {"target": [], "time": []}}, "mouseover": {"state": {"target": [], "time": []}, "edge": {"target": [], "time": []}}, "mouseout": {"state": {"target": ["0"], "time": [1747]}, "edge": {"target": [], "time": []}}}, "displayed_time": "16.26", "trialTime": 17910, "trial_type": "mouselab-mdp", "trial_index": 52, "time_elapsed": 2382126, "internal_node_id": "0.0-4.0-1.0-25.0"}}, {"uniqueid": "w81030643:a71501268", "current_trial": 53, "dateTime": 1691161734238, "trialdata": {"revealed_states": [], "clicked_states": [], "num_clicks_accrued": [0, 0, 0, 0, 0, 0, 0, 0, 0, 0, 0, 0, 0], "stateRewards": ["", 1, 1, 5, 6, -29, -7, 3, -16, 9, -46, 65, -1, 4, -1, -16, -63, -77, -87, 8, 80, -50, 43, -1, -1, -5, 5, -38, -71, -62, 9, 81, -50, -52], "withholdReward": false, "trial_id": "mdp_trial_27", "block": "test", "trialIndex": 34, "score": -55, "costs": 0, "simulationMode": [null, null, null, null, null], "rewards": [1, 1, 5, -16, -46], "path": ["0", "0", "1", "2", "3", "8", "10"], "rt": [1724, 144, 494, 303, 31], "actions": ["up", "up", "up", "left", "down"], "actionTimes": [5155, 5798, 6798, 7611, 8150], "queries": {"click": {"state": {"target": [], "time": []}, "edge": {"target": [], "time": []}}, "mouseover": {"state": {"target": [], "time": []}, "edge": {"target": [], "time": []}}, "mouseout": {"state": {"target": ["0", "0", "12"], "time": [2147, 14356, 14374]}, "edge": {"target": [], "time": []}}}, "displayed_time": "17.44", "trialTime": 18489, "trial_type": "mouselab-mdp", "trial_index": 53, "time_elapsed": 2401484, "internal_node_id": "0.0-4.0-1.0-26.0"}}, {"uniqueid": "w81030643:a71501268", "current_trial": 54, "dateTime": 1691161754889, "trialdata": {"revealed_states": [], "clicked_states": [], "num_clicks_accrued": [0, 0, 0, 0, 0, 0, 0, 0, 0, 0, 0, 0, 0], "stateRewards": ["", 1, 1, -2, 7, -31, -6, 76, 1, -36, -16, -53, 2, 1, 7, 13, -47, -10, 47, -7, 72, 46, -56, -2, -2, -2, 11, -80, 44, 38, 16, 67, 85, -78], "withholdReward": false, "trial_id": "mdp_trial_28", "block": "test", "trialIndex": 35, "score": -24, "costs": 0, "simulationMode": [null, null, null, null, null], "rewards": [1, 1, -2, 7, -31], "path": ["0", "0", "1", "2", "3", "4", "5"], "rt": [1867, 394, 368, 262, 549], "actions": ["up", "up", "up", "right", "up"], "actionTimes": [5947, 6844, 7943, 8710, 9766], "queries": {"click": {"state": {"target": [], "time": []}, "edge": {"target": [], "time": []}}, "mouseover": {"state": {"target": [], "time": []}, "edge": {"target": [], "time": []}}, "mouseout": {"state": {"target": ["0"], "time": [3060]}, "edge": {"target": [], "time": []}}}, "displayed_time": "18.09", "trialTime": 19635, "trial_type": "mouselab-mdp", "trial_index": 54, "time_elapsed": 2422134, "internal_node_id": "0.0-4.0-1.0-27.0"}}, {"uniqueid": "w81030643:a71501268", "current_trial": 55, "dateTime": 1691161773662, "trialdata": {"revealed_states": [], "clicked_states": [], "num_clicks_accrued": [0, 0, 0, 0, 0, 0, 0, 0, 0, 0, 0, 0, 0], "stateRewards": ["", -2, -3, 1, -14, 48, -49, 67, -1, -35, -48, 3, -2, 1, -4, -5, 86, -84, 39, 1, 48, 41, -42, -1, -4, 2, -7, 18, -86, 17, 7, -9, 57, -69], "withholdReward": false, "trial_id": "mdp_trial_29", "block": "test", "trialIndex": 36, "score": 29, "costs": 0, "simulationMode": [null, null, null, null, null], "rewards": [-2, 1, -4, -5, 39], "path": ["0", "0", "12", "13", "14", "15", "18"], "rt": [1637, 256, 89, 216, 136], "actions": ["right", "right", "right", "up", "left"], "actionTimes": [3952, 4713, 5296, 6025, 6664], "queries": {"click": {"state": {"target": [], "time": []}, "edge": {"target": [], "time": []}}, "mouseover": {"state": {"target": [], "time": []}, "edge": {"target": [], "time": []}}, "mouseout": {"state": {"target": ["0"], "time": [1734]}, "edge": {"target": [], "time": []}}}, "displayed_time": "16.32", "trialTime": 17865, "trial_type": "mouselab-mdp", "trial_index": 55, "time_elapsed": 2440907, "internal_node_id": "0.0-4.0-1.0-28.0"}}, {"uniqueid": "w81030643:a71501268", "current_trial": 56, "dateTime": 1691161793863, "trialdata": {"revealed_states": [], "clicked_states": [], "num_clicks_accrued": [0, 0, 0, 0, 0, 0, 0, 0, 0, 0, 0, 0, 0], "stateRewards": ["", 2, -1, -2, -5, -47, -57, -33, -11, 31, -18, -72, -2, 1, -4, -8, -46, -53, -50, 15, -85, -9, 39, -2, -2, 1, 14, -1, -8, 53, -12, -41, -74, 62], "withholdReward": false, "trial_id": "mdp_trial_30", "block": "test", "trialIndex": 37, "score": -59, "costs": 0, "simulationMode": [null, null, null, null, null], "rewards": [-2, 1, -4, -8, -46], "path": ["0", "0", "12", "13", "14", "15", "16"], "rt": [1128, 344, 85, 456, 556], "actions": ["right", "right", "right", "up", "up"], "actionTimes": [3355, 4203, 4790, 5746, 6795], "queries": {"click": {"state": {"target": [], "time": []}, "edge": {"target": [], "time": []}}, "mouseover": {"state": {"target": [], "time": []}, "edge": {"target": [], "time": []}}, "mouseout": {"state": {"target": ["0"], "time": [1741]}, "edge": {"target": [], "time": []}}}, "displayed_time": "16.23", "trialTime": 19233, "trial_type": "mouselab-mdp", "trial_index": 56, "time_elapsed": 2461109, "internal_node_id": "0.0-4.0-1.0-29.0"}}, {"uniqueid": "w81030643:a71501268", "current_trial": 57, "dateTime": 1691161812583, "trialdata": {"revealed_states": [], "clicked_states": [], "num_clicks_accrued": [0, 0, 0, 0, 0, 0, 0, 0, 0, 0, 0, 0, 0], "stateRewards": ["", 2, -1, -4, -13, 74, 77, 3, 2, -43, -2, -11, 2, 3, 7, 11, -26, -29, -33, -3, -3, -13, -3, 1, 3, -7, 14, -59, 33, 9, -5, 34, 79, 68], "withholdReward": false, "trial_id": "mdp_trial_31", "block": "test", "trialIndex": 38, "score": 26, "costs": 0, "simulationMode": [null, null, null, null, null], "rewards": [1, 3, -7, -5, 34], "path": ["0", "0", "23", "24", "25", "30", "31"], "rt": [1334, 324, 18, 1181, 279], "actions": ["left", "left", "left", "down", "right"], "actionTimes": [3481, 4314, 4875, 6572, 7353], "queries": {"click": {"state": {"target": [], "time": []}, "edge": {"target": [], "time": []}}, "mouseover": {"state": {"target": [], "time": []}, "edge": {"target": [], "time": []}}, "mouseout": {"state": {"target": ["0"], "time": [1541]}, "edge": {"target": [], "time": []}}}, "displayed_time": "16.16", "trialTime": 17752, "trial_type": "mouselab-mdp", "trial_index": 57, "time_elapsed": 2479828, "internal_node_id": "0.0-4.0-1.0-30.0"}}, {"uniqueid": "w81030643:a71501268", "current_trial": 58, "dateTime": 1691161831425, "trialdata": {"revealed_states": [], "clicked_states": [], "num_clicks_accrued": [0, 0, 0, 0, 0, 0, 0, 0, 0, 0, 0, 0, 0], "stateRewards": ["", -2, -3, -7, 7, -54, -69, -4, -14, -77, 22, 40, -2, -1, 5, 6, -35, 50, -60, 10, -28, 75, 57, 1, -4, -2, 2, 68, 34, -18, 12, 3, -21, -43], "withholdReward": false, "trial_id": "mdp_trial_32", "block": "test", "trialIndex": 39, "score": 31, "costs": 0, "simulationMode": [null, null, null, null, null], "rewards": [1, -4, -2, 2, 34], "path": ["0", "0", "23", "24", "25", "26", "28"], "rt": [1468, 267, 127, 1340, 31], "actions": ["left", "left", "left", "up", "right"], "actionTimes": [4140, 4931, 5556, 7403, 7929], "queries": {"click": {"state": {"target": [], "time": []}, "edge": {"target": [], "time": []}}, "mouseover": {"state": {"target": [], "time": []}, "edge": {"target": [], "time": []}}, "mouseout": {"state": {"target": ["0", "18", "17"], "time": [2128, 10612, 10644]}, "edge": {"target": [], "time": []}}}, "displayed_time": "16.68", "trialTime": 17916, "trial_type": "mouselab-mdp", "trial_index": 58, "time_elapsed": 2498670, "internal_node_id": "0.0-4.0-1.0-31.0"}}, {"uniqueid": "w81030643:a71501268", "current_trial": 59, "dateTime": 1691161851250, "trialdata": {"revealed_states": [], "clicked_states": [], "num_clicks_accrued": [0, 0, 0, 0, 0, 0, 0, 0, 0, 0, 0, 0, 0], "stateRewards": ["", 1, -4, 6, -3, 40, 76, -51, 5, -24, -63, 44, -2, -2, 8, 1, 76, -85, -58, 10, 59, 20, 11, -2, 3, -3, 3, -82, -10, 54, -7, -57, -6, -32], "withholdReward": false, "trial_id": "mdp_trial_33", "block": "test", "trialIndex": 40, "score": 52, "costs": 0, "simulationMode": [null, null, null, null, null], "rewards": [1, -4, 6, 5, 44], "path": ["0", "0", "1", "2", "3", "8", "11"], "rt": [1143, 36, 195, 178, 293], "actions": ["up", "up", "up", "left", "left"], "actionTimes": [4380, 4921, 5630, 6313, 7110], "queries": {"click": {"state": {"target": [], "time": []}, "edge": {"target": [], "time": []}}, "mouseover": {"state": {"target": [], "time": []}, "edge": {"target": [], "time": []}}, "mouseout": {"state": {"target": ["14"], "time": [1796]}, "edge": {"target": [], "time": []}}}, "displayed_time": "17.24", "trialTime": 18781, "trial_type": "mouselab-mdp", "trial_index": 59, "time_elapsed": 2518496, "internal_node_id": "0.0-4.0-1.0-32.0"}}, {"uniqueid": "w81030643:a71501268", "current_trial": 60, "dateTime": 1691161872063, "trialdata": {"revealed_states": [], "clicked_states": [], "num_clicks_accrued": [0, 0, 0, 0, 0, 0, 0, 0, 0, 0, 0, 0, 0], "stateRewards": ["", -2, -3, -5, 8, 27, 11, 43, -6, -24, -87, 69, -2, 1, 1, 9, 19, 48, -37, 9, -14, 45, 62, 1, 2, 1, 16, -81, -41, 22, 4, -6, -63, 47], "withholdReward": false, "trial_id": "mdp_trial_34", "block": "test", "trialIndex": 41, "score": 57, "costs": 0, "simulationMode": [null, null, null, null, null], "rewards": [-2, 1, 1, 9, 48], "path": ["0", "0", "12", "13", "14", "15", "17"], "rt": [795, 80, 238, 1185, 61], "actions": ["right", "right", "right", "up", "right"], "actionTimes": [3376, 3960, 4739, 6477, 7042], "queries": {"click": {"state": {"target": [], "time": []}, "edge": {"target": [], "time": []}}, "mouseover": {"state": {"target": [], "time": []}, "edge": {"target": [], "time": []}}, "mouseout": {"state": {"target": [], "time": []}, "edge": {"target": [], "time": []}}}, "displayed_time": "16.59", "trialTime": 19822, "trial_type": "mouselab-mdp", "trial_index": 60, "time_elapsed": 2539308, "internal_node_id": "0.0-4.0-1.0-33.0"}}, {"uniqueid": "w81030643:a71501268", "current_trial": 61, "dateTime": 1691161890786, "trialdata": {"revealed_states": [], "clicked_states": [], "num_clicks_accrued": [0, 0, 0, 0, 0, 0, 0, 0, 0, 0, 0, 0, 0], "stateRewards": ["", 1, 4, -8, -13, -13, -87, -77, -10, -44, 54, 42, 2, -3, -4, 12, -9, -80, 52, 9, 84, -2, -65, 1, -4, -5, -6, 8, 80, 32, 13, -59, -5, -13], "withholdReward": false, "trial_id": "mdp_trial_35", "block": "test", "trialIndex": 42, "score": -61, "costs": 0, "simulationMode": [null, null, null, null, null], "rewards": [2, -3, -4, 9, -65], "path": ["0", "0", "12", "13", "14", "19", "22"], "rt": [999, 50, 158, 1733, 241], "actions": ["right", "right", "right", "down", "left"], "actionTimes": [3007, 3562, 4231, 6761, 7500], "queries": {"click": {"state": {"target": [], "time": []}, "edge": {"target": [], "time": []}}, "mouseover": {"state": {"target": [], "time": []}, "edge": {"target": [], "time": []}}, "mouseout": {"state": {"target": ["0"], "time": [9645]}, "edge": {"target": [], "time": []}}}, "displayed_time": "16.02", "trialTime": 17720, "trial_type": "mouselab-mdp", "trial_index": 61, "time_elapsed": 2557962, "internal_node_id": "0.0-4.0-1.0-34.0"}}, {"uniqueid": "w81030643:a71501268", "current_trial": 62, "dateTime": 1691161910473, "trialdata": {"revealed_states": [], "clicked_states": [], "num_clicks_accrued": [0, 0, 0, 0, 0, 0, 0, 0, 0, 0, 0, 0, 0], "stateRewards": ["", -1, 1, 3, -8, -23, -15, -14, -11, -23, 58, 68, 1, 3, 5, 12, -17, -41, -7, -10, -4, 82, 10, 1, 4, -4, 11, 73, 55, -55, -1, -86, -86, 54], "withholdReward": false, "trial_id": "mdp_trial_36", "block": "test", "trialIndex": 43, "score": -19, "costs": 0, "simulationMode": [null, null, null, null, null], "rewards": [-1, 1, 3, -8, -14], "path": ["0", "0", "1", "2", "3", "4", "7"], "rt": [1112, 19, 84, 396, 657], "actions": ["up", "up", "up", "right", "down"], "actionTimes": [4447, 4981, 5588, 6500, 7678], "queries": {"click": {"state": {"target": [], "time": []}, "edge": {"target": [], "time": []}}, "mouseover": {"state": {"target": [], "time": []}, "edge": {"target": [], "time": []}}, "mouseout": {"state": {"target": ["0", "0"], "time": [2567, 10402]}, "edge": {"target": [], "time": []}}}, "displayed_time": "17.34", "trialTime": 18689, "trial_type": "mouselab-mdp", "trial_index": 62, "time_elapsed": 2577718, "internal_node_id": "0.0-4.0-1.0-35.0"}}, {"uniqueid": "w81030643:a71501268", "current_trial": 63, "dateTime": 1691161930555, "trialdata": {"revealed_states": [], "clicked_states": [], "num_clicks_accrued": [0, 0, 0, 0, 0, 0, 0, 0, 0, 0, 0, 0, 0], "stateRewards": ["", 2, -1, 8, -2, -16, 69, -39, -7, -13, -27, -86, 2, -2, 2, 13, -34, -16, -20, -5, 19, 81, 32, -2, -1, 2, -14, 20, 80, 58, 4, 70, 12, 73], "withholdReward": false, "trial_id": "mdp_trial_37", "block": "test", "trialIndex": 44, "score": -25, "costs": 0, "simulationMode": [null, null, null, null, null], "rewards": [2, -1, 8, -7, -27], "path": ["0", "0", "1", "2", "3", "8", "10"], "rt": [1476, 215, 544, 361, 411], "actions": ["up", "up", "up", "left", "down"], "actionTimes": [4623, 5338, 6382, 7248, 8168], "queries": {"click": {"state": {"target": [], "time": []}, "edge": {"target": [], "time": []}}, "mouseover": {"state": {"target": [], "time": []}, "edge": {"target": [], "time": []}}, "mouseout": {"state": {"target": ["14"], "time": [1516]}, "edge": {"target": [], "time": []}}}, "displayed_time": "17.15", "trialTime": 18586, "trial_type": "mouselab-mdp", "trial_index": 63, "time_elapsed": 2597800, "internal_node_id": "0.0-4.0-1.0-36.0"}}, {"uniqueid": "w81030643:a71501268", "current_trial": 64, "dateTime": 1691161950587, "trialdata": {"revealed_states": [], "clicked_states": [], "num_clicks_accrued": [0, 0, 0, 0, 0, 0, 0, 0, 0, 0, 0, 0, 0], "stateRewards": ["", 1, 2, -3, -5, 66, -50, -47, -5, 1, 28, -27, 1, 1, -1, -6, 37, -25, 56, 1, -82, -66, -40, -1, -4, -7, 15, -61, -23, 26, 10, 14, -56, 29], "withholdReward": false, "trial_id": "mdp_trial_38", "block": "test", "trialIndex": 45, "score": -64, "costs": 0, "simulationMode": [null, null, null, null, null], "rewards": [1, 1, -1, 1, -66], "path": ["0", "0", "12", "13", "14", "19", "21"], "rt": [1487, 48, 11, 396, 511], "actions": ["right", "right", "right", "down", "down"], "actionTimes": [3824, 4367, 4912, 5847, 6865], "queries": {"click": {"state": {"target": [], "time": []}, "edge": {"target": [], "time": []}}, "mouseover": {"state": {"target": [], "time": []}, "edge": {"target": [], "time": []}}, "mouseout": {"state": {"target": ["0"], "time": [1800]}, "edge": {"target": [], "time": []}}}, "displayed_time": "16.34", "trialTime": 18982, "trial_type": "mouselab-mdp", "trial_index": 64, "time_elapsed": 2617832, "internal_node_id": "0.0-4.0-1.0-37.0"}}, {"uniqueid": "w81030643:a71501268", "current_trial": 65, "dateTime": 1691161973197, "trialdata": {"revealed_states": [], "clicked_states": [], "num_clicks_accrued": [0, 0, 0, 0, 0, 0, 0, 0, 0, 0, 0, 0, 0], "stateRewards": ["", -1, 3, -4, -14, 78, 67, 2, 13, -32, 28, 39, -2, 1, -4, -4, -4, -42, -86, 11, 64, -29, -32, -1, -4, 2, -7, 5, 68, -61, 2, -21, 85, 50], "withholdReward": false, "trial_id": "mdp_trial_39", "block": "test", "trialIndex": 46, "score": 58, "costs": 0, "simulationMode": [null, null, null, null, null], "rewards": [-1, -4, 2, -7, 68], "path": ["0", "0", "23", "24", "25", "26", "28"], "rt": [1232, 203, 183, 1157, 32], "actions": ["left", "left", "left", "up", "right"], "actionTimes": [5963, 6663, 7345, 9002, 9542], "queries": {"click": {"state": {"target": [], "time": []}, "edge": {"target": [], "time": []}}, "mouseover": {"state": {"target": [], "time": []}, "edge": {"target": [], "time": []}}, "mouseout": {"state": {"target": ["0", "15"], "time": [1401, 11592]}, "edge": {"target": [], "time": []}}}, "displayed_time": "18.76", "trialTime": 21500, "trial_type": "mouselab-mdp", "trial_index": 65, "time_elapsed": 2640443, "internal_node_id": "0.0-4.0-1.0-38.0"}}, {"uniqueid": "w81030643:a71501268", "current_trial": 66, "dateTime": 1691161994317, "trialdata": {"revealed_states": [], "clicked_states": [], "num_clicks_accrued": [0, 0, 0, 0, 0, 0, 0, 0, 0, 0, 0, 0, 0], "stateRewards": ["", -1, 2, 7, 8, 75, 67, -11, 6, 52, -17, 38, -1, 4, -8, 14, 74, -37, -17, -12, 52, 55, 71, -2, -1, -5, 2, 21, 6, -88, -14, 64, -61, -47], "withholdReward": false, "trial_id": "mdp_trial_40", "block": "test", "trialIndex": 47, "score": 0, "costs": 0, "simulationMode": [null, null, null, null, null], "rewards": [-2, -1, -5, 2, 6], "path": ["0", "0", "23", "24", "25", "26", "28"], "rt": [1129, 10, 868, 56, 387], "actions": ["left", "left", "left", "up", "right"], "actionTimes": [4482, 4997, 6404, 6958, 7873], "queries": {"click": {"state": {"target": [], "time": []}, "edge": {"target": [], "time": []}}, "mouseover": {"state": {"target": [], "time": []}, "edge": {"target": [], "time": []}}, "mouseout": {"state": {"target": ["20", "14", "13", "12", "0", "0", "0", "15", "17"], "time": [1430, 1464, 1482, 1503, 1547, 1931, 9433, 9467, 9491]}, "edge": {"target": [], "time": []}}}, "displayed_time": "17.36", "trialTime": 19961, "trial_type": "mouselab-mdp", "trial_index": 66, "time_elapsed": 2661563, "internal_node_id": "0.0-4.0-1.0-39.0"}}, {"uniqueid": "w81030643:a71501268", "current_trial": 67, "dateTime": 1691162055936, "trialdata": {"rt": 61117, "response": {"Q0": "$-16 to 16", "Q1": "$-32 to $32", "Q2": "$-16 to $16", "Q3": "The cost for clicking on nodes varied between nodes.", "Q4": "Neither motivated nor unmotivated"}, "question_order": [0, 1, 2, 3, 4], "trial_id": "final_quiz_control", "trial_type": "survey-multi-choice", "trial_index": 67, "time_elapsed": 2723181, "internal_node_id": "0.0-4.0-2.0"}}, {"uniqueid": "w81030643:a71501268", "current_trial": 68, "dateTime": 1691162239566, "trialdata": {"rt": 182941, "response": {"Q0": "I tried to use less nodes so I don't have to move the spider a lot.", "Q1": "No, I tried to stick to the same strategy throughout the game.", "Q2": "It was a bit challenging as I did not want to use the node inspector as that would deduct from my score and I didn't feel good about losing points."}, "trial_id": "self_report_control", "trial_type": "survey-text", "trial_index": 68, "time_elapsed": 2906811, "internal_node_id": "0.0-4.0-3.0"}}, {"uniqueid": "w81030643:a71501268", "current_trial": 69, "dateTime": 1691162273334, "trialdata": {"rt": 33454, "response": {"gender": "female", "age": "25", "colorblind": "0", "effort": "0"}, "trial_type": "survey-html-form", "trial_index": 69, "time_elapsed": 2940579, "internal_node_id": "0.0-4.0-4.0"}}, {"uniqueid": "w81030643:a71501268", "current_trial": 70, "dateTime": 1691162367257, "trialdata": {"rt": 93888, "response": {"Q0": "The instructions on playing the game still got me a little bit worked up.", "Q1": "No I've never participated.", "Q2": ""}, "trial_type": "survey-text", "trial_index": 70, "time_elapsed": 3034503, "internal_node_id": "0.0-4.0-5.0"}}, {"uniqueid": "w81030643:a71501268", "current_trial": 71, "dateTime": 1691162371478, "trialdata": {"rt": 2875, "stimulus": "Press 'Finish HIT' in order to reach the completion code. Once the data has been saved, you will receive the code either in this window or in the original browser window where you started the experiment.\n", "response": 0, "trial_type": "html-button-response", "trial_index": 71, "time_elapsed": 3038723, "internal_node_id": "0.0-5.0"}}, {"uniqueid": "w81030643:a71501268", "current_trial": 72, "dateTime": 1691162372570, "trialdata": {"success": true, "trial_type": "fullscreen", "trial_index": 72, "time_elapsed": 3039816, "internal_node_id": "0.0-6.0"}}], "questiondata": {"params": {"CODE": "C6DMOQA6", "MIN_TIME": 14, "inspectCost": 1, "startTime": "Fri Aug 04 2023 16:28:36 GMT+0200 (Central European Summer Time)", "bonusRate": 0.002, "variance": "1_2_4_8_44", "branching": "31123"}}, "eventdata": [{"eventtype": "initialized", "value": null, "timestamp": 1691159315276, "interval": 0}, {"eventtype": "window_resize", "value": [1024, 654], "timestamp": 1691159315277, "interval": 1}, {"eventtype": "window_resize", "value": [1024, 654], "timestamp": 1691159315977, "interval": 700}, {"eventtype": "focus", "value": "off", "timestamp": 1691159333576, "interval": 17599}, {"eventtype": "focus", "value": "on", "timestamp": 1691159335466, "interval": 1890}, {"eventtype": "window_resize", "value": [1366, 768], "timestamp": 1691159341029, "interval": 5563}, {"eventtype": "focus", "value": "off", "timestamp": 1691159795720, "interval": 454691}, {"eventtype": "focus", "value": "on", "timestamp": 1691159797449, "interval": 1729}, {"eventtype": "focus", "value": "off", "timestamp": 1691160066503, "interval": 269054}, {"eventtype": "focus", "value": "on", "timestamp": 1691160066503, "interval": 0}, {"eventtype": "window_resize", "value": [1024, 654], "timestamp": 1691160066726, "interval": 223}, {"eventtype": "window_resize", "value": [1366, 768], "timestamp": 1691160069095, "interval": 2369}, {"eventtype": "focus", "value": "off", "timestamp": 1691160198872, "interval": 129777}, {"eventtype": "focus", "value": "on", "timestamp": 1691160198873, "interval": 1}, {"eventtype": "window_resize", "value": [1024, 654], "timestamp": 1691160199086, "interval": 213}, {"eventtype": "window_resize", "value": [1366, 768], "timestamp": 1691160202350, "interval": 3264}, {"eventtype": "focus", "value": "off", "timestamp": 1691160481209, "interval": 278859}, {"eventtype": "focus", "value": "on", "timestamp": 1691160481211, "interval": 2}, {"eventtype": "window_resize", "value": [1024, 654], "timestamp": 1691160481429, "interval": 218}, {"eventtype": "window_resize", "value": [1366, 768], "timestamp": 1691160483190, "interval": 1761}, {"eventtype": "focus", "value": "off", "timestamp": 1691160543693, "interval": 60503}, {"eventtype": "focus", "value": "on", "timestamp": 1691160545570, "interval": 1877}, {"eventtype": "focus", "value": "off", "timestamp": 1691160973734, "interval": 428164}, {"eventtype": "focus", "value": "on", "timestamp": 1691160976123, "interval": 2389}], "useragent": "Mozilla/5.0 (Windows NT 10.0; Win64; x64) AppleWebKit/537.36 (KHTML, like Gecko) Chrome/115.0.0.0 Safari/537.36", "mode": "live", "id": "w81030643:a71501268", "status": "user data saved", "Beginhit": "2023-08-04 14:27:53.550966", "Beginexp": "2023-08-04 14:29:01.836858", "Endhit": "2023-08-04 15:19:39.416283", "psiturkStatus": 3, "browser": "<redacted>", "platform": "windows", "language": "en-ZA"}