{"condition": 0, "counterbalance": 0, "assignmentId": "a42640966", "workerId": "w86804730", "hitId": "h46180676", "currenttrial": 62, "bonus": 0, "data": [{"uniqueid": "w86804730:a42640966", "current_trial": 0, "dateTime": 1693834878152, "trialdata": {"success": true, "trial_type": "fullscreen", "trial_index": 0, "time_elapsed": 7327, "internal_node_id": "0.0-0.0"}}, {"uniqueid": "w86804730:a42640966", "current_trial": 1, "dateTime": 1693834898346, "trialdata": {"view_history": [{"page_index": 0, "viewing_time": 20164}], "rt": 20168, "trial_id": "exp_instructions_misaligned", "trial_type": "instructions", "trial_index": 1, "time_elapsed": 27522, "internal_node_id": "0.0-1.0"}}, {"uniqueid": "w86804730:a42640966", "current_trial": 2, "dateTime": 1693835032431, "trialdata": {"view_history": [{"page_index": 0, "viewing_time": 47099}, {"page_index": 1, "viewing_time": 42519}, {"page_index": 2, "viewing_time": 18333}, {"page_index": 3, "viewing_time": 26119}], "rt": 134071, "trial_id": "mouselab_instructions_1_misaligned", "trial_type": "instructions", "trial_index": 2, "time_elapsed": 161607, "internal_node_id": "0.0-2.0-1.0"}}, {"uniqueid": "w86804730:a42640966", "current_trial": 3, "dateTime": 1693835072100, "trialdata": {"revealed_states": [], "clicked_states": ["1", "12"], "num_clicks_accrued": [0, 0, 0, 0, 0, 0, 0, 0, 0, 0, 0, 0, 0], "stateRewards": ["", -10, -10, -10, 10, 10, -10, 10, -10, 10, -10, -10, 10, 10, 10, 10, -10, 10, 10, -10, -10, -10, -10, 10, 10, 10, 10, -10, -10, -10, 10, -10, -10, -10], "withholdReward": false, "trial_id": "practice_1", "block": "test", "trialIndex": 0, "score": 32.5, "costs": -1, "simulationMode": [null, null, null, null, null], "rewards": [10, 10, 10, 10, -10], "path": ["0", "0", "12", "13", "14", "15", "16"], "rt": [13596, 1241, 7112, 300, 333], "actions": ["right", "right", "right", "up", "up"], "actionTimes": [18580, 20337, 27953, 28760, 29620], "queries": {"click": {"state": {"target": ["1", "12"], "time": [12590, 15793]}, "edge": {"target": [], "time": []}}, "mouseover": {"state": {"target": ["12", "1", "12", "23", "24", "23"], "time": [7669, 8923, 14612, 16614, 16676, 16986]}, "edge": {"target": [], "time": []}}, "mouseout": {"state": {"target": ["0", "12", "1", "12", "23", "24", "23", "18", "15"], "time": [7230, 8344, 13914, 16594, 16637, 16918, 34975, 35031, 35070]}, "edge": {"target": [], "time": []}}}, "displayed_time": "30.15", "trialTime": 38480, "trial_type": "mouselab-mdp", "trial_index": 3, "time_elapsed": 201274, "internal_node_id": "0.0-2.0-2.0-0.0"}}, {"uniqueid": "w86804730:a42640966", "current_trial": 4, "dateTime": 1693835093291, "trialdata": {"revealed_states": [], "clicked_states": [], "num_clicks_accrued": [0, 0, 0, 0, 0, 0, 0, 0, 0, 0, 0, 0, 0], "stateRewards": ["", 10, -10, 10, -10, -10, -10, -10, -10, 10, -10, -10, -10, 10, 10, -10, 10, 10, 10, 10, -10, 10, -10, -10, 10, 10, -10, -10, -10, -10, 10, 10, -10, 10], "withholdReward": false, "trial_id": "practice_2", "block": "test", "trialIndex": 1, "score": -6.5, "costs": 0, "simulationMode": [null, null, null, null, null], "rewards": [-10, 10, 10, -10, -10], "path": ["0", "0", "23", "24", "25", "26", "27"], "rt": [1538, 3562, 2094, 215, 411], "actions": ["left", "left", "left", "up", "up"], "actionTimes": [7169, 11246, 13898, 14613, 15529], "queries": {"click": {"state": {"target": [], "time": []}, "edge": {"target": [], "time": []}}, "mouseover": {"state": {"target": [], "time": []}, "edge": {"target": [], "time": []}}, "mouseout": {"state": {"target": ["21", "22", "0", "0"], "time": [3851, 3922, 4281, 8663]}, "edge": {"target": [], "time": []}}}, "displayed_time": "16.05", "trialTime": 20491, "trial_type": "mouselab-mdp", "trial_index": 4, "time_elapsed": 222465, "internal_node_id": "0.0-2.0-2.0-1.0"}}, {"uniqueid": "w86804730:a42640966", "current_trial": 5, "dateTime": 1693835129993, "trialdata": {"view_history": [{"page_index": 0, "viewing_time": 23083}, {"page_index": 1, "viewing_time": 13600}], "rt": 36684, "trial_id": "mouselab_instructions_2_misaligned", "trial_type": "instructions", "trial_index": 5, "time_elapsed": 259170, "internal_node_id": "0.0-2.0-3.0"}}, {"uniqueid": "w86804730:a42640966", "current_trial": 6, "dateTime": 1693835187013, "trialdata": {"rt": 56998, "response": {"Q0": "The cost for clicking on nodes may vary between nodes.", "Q1": "The better I perform the higher my bonus will be.", "Q2": "No, the amount of cash at each node of the web may be different each time.", "Q3": "To get the highest total score.", "Q4": "Any time during the round.", "Q5": "3 seconds"}, "question_order": [0, 1, 2, 3, 4, 5], "correct": {"Q0": "The cost for clicking on nodes may vary between nodes.", "Q1": "The better I perform the higher my bonus will be.", "Q2": "No, the amount of cash at each node of the web may be different each time.", "Q3": "To get the highest total score.", "Q4": "Only before moving the spider.", "Q5": "3 seconds"}, "trial_id": "mouselab_quiz_misaligned", "trial_type": "survey-multi-choice", "trial_index": 6, "time_elapsed": 316190, "internal_node_id": "0.0-2.0-4.0"}}, {"uniqueid": "w86804730:a42640966", "current_trial": 7, "dateTime": 1693835200877, "trialdata": {"success": true, "trial_type": "fullscreen", "trial_index": 7, "time_elapsed": 330053, "internal_node_id": "0.0-2.1-0.1-0.1"}}, {"uniqueid": "w86804730:a42640966", "current_trial": 8, "dateTime": 1693835213859, "trialdata": {"view_history": [{"page_index": 0, "viewing_time": 4536}, {"page_index": 1, "viewing_time": 4128}, {"page_index": 2, "viewing_time": 1896}, {"page_index": 3, "viewing_time": 2412}], "rt": 12974, "trial_id": "mouselab_instructions_1_misaligned", "trial_type": "instructions", "trial_index": 8, "time_elapsed": 343035, "internal_node_id": "0.0-2.1-1.1"}}, {"uniqueid": "w86804730:a42640966", "current_trial": 9, "dateTime": 1693835229582, "trialdata": {"revealed_states": [], "clicked_states": [], "num_clicks_accrued": [0, 0, 0, 0, 0, 0, 0, 0, 0, 0, 0, 0, 0], "stateRewards": ["", -10, -10, -10, 10, 10, -10, 10, -10, 10, -10, -10, 10, 10, 10, 10, -10, 10, 10, -10, -10, -10, -10, 10, 10, 10, 10, -10, -10, -10, 10, -10, -10, -10], "withholdReward": false, "trial_id": "practice_1", "block": "test", "trialIndex": 2, "score": 33.5, "costs": 0, "simulationMode": [null, null, null, null, null], "rewards": [10, 10, 10, 10, -10], "path": ["0", "0", "12", "13", "14", "15", "16"], "rt": [2124, 928, 568, 1064, 84], "actions": ["right", "right", "right", "up", "up"], "actionTimes": [6314, 7789, 8877, 10498, 11139], "queries": {"click": {"state": {"target": [], "time": []}, "edge": {"target": [], "time": []}}, "mouseover": {"state": {"target": [], "time": []}, "edge": {"target": [], "time": []}}, "mouseout": {"state": {"target": ["0"], "time": [2179]}, "edge": {"target": [], "time": []}}}, "displayed_time": "11.67", "trialTime": 15231, "trial_type": "mouselab-mdp", "trial_index": 9, "time_elapsed": 358757, "internal_node_id": "0.0-2.1-2.1-0.1"}}, {"uniqueid": "w86804730:a42640966", "current_trial": 10, "dateTime": 1693835243430, "trialdata": {"revealed_states": [], "clicked_states": [], "num_clicks_accrued": [0, 0, 0, 0, 0, 0, 0, 0, 0, 0, 0, 0, 0], "stateRewards": ["", 10, -10, 10, -10, -10, -10, -10, -10, 10, -10, -10, -10, 10, 10, -10, 10, 10, 10, 10, -10, 10, -10, -10, 10, 10, -10, -10, -10, -10, 10, 10, -10, 10], "withholdReward": false, "trial_id": "practice_2", "block": "test", "trialIndex": 3, "score": -6.5, "costs": 0, "simulationMode": [null, null, null, null, null], "rewards": [10, -10, 10, -10, -10], "path": ["0", "0", "1", "2", "3", "4", "6"], "rt": [2094, 565, 367, 2, 1386], "actions": ["up", "up", "up", "right", "right"], "actionTimes": [5696, 6768, 7674, 8195, 10105], "queries": {"click": {"state": {"target": [], "time": []}, "edge": {"target": [], "time": []}}, "mouseover": {"state": {"target": [], "time": []}, "edge": {"target": [], "time": []}}, "mouseout": {"state": {"target": ["13", "0", "0", "12", "14"], "time": [2088, 2157, 11674, 11722, 11765]}, "edge": {"target": [], "time": []}}}, "displayed_time": "10.61", "trialTime": 13214, "trial_type": "mouselab-mdp", "trial_index": 10, "time_elapsed": 372603, "internal_node_id": "0.0-2.1-2.1-1.1"}}, {"uniqueid": "w86804730:a42640966", "current_trial": 11, "dateTime": 1693835253113, "trialdata": {"view_history": [{"page_index": 0, "viewing_time": 4795}, {"page_index": 1, "viewing_time": 4869}], "rt": 9667, "trial_id": "mouselab_instructions_2_misaligned", "trial_type": "instructions", "trial_index": 11, "time_elapsed": 382290, "internal_node_id": "0.0-2.1-3.1"}}, {"uniqueid": "w86804730:a42640966", "current_trial": 12, "dateTime": 1693835308410, "trialdata": {"rt": 55273, "response": {"Q0": "The cost for clicking on nodes may vary between nodes.", "Q1": "The better I perform the higher my bonus will be.", "Q2": "No, the amount of cash at each node of the web may be different each time.", "Q3": "To get the highest total score.", "Q4": "Only before moving the spider.", "Q5": "3 seconds"}, "question_order": [0, 1, 2, 3, 4, 5], "correct": {"Q0": "The cost for clicking on nodes may vary between nodes.", "Q1": "The better I perform the higher my bonus will be.", "Q2": "No, the amount of cash at each node of the web may be different each time.", "Q3": "To get the highest total score.", "Q4": "Only before moving the spider.", "Q5": "3 seconds"}, "trial_id": "mouselab_quiz_misaligned", "trial_type": "survey-multi-choice", "trial_index": 12, "time_elapsed": 437586, "internal_node_id": "0.0-2.1-4.1"}}, {"uniqueid": "w86804730:a42640966", "current_trial": 13, "dateTime": 1693835317083, "trialdata": {"rt": 8632, "response": {"Q0": "No"}, "question_order": [0], "trial_id": "repeat_check", "trial_type": "survey-multi-choice", "trial_index": 13, "time_elapsed": 446259, "internal_node_id": "0.0-4.0-0.0"}}, {"uniqueid": "w86804730:a42640966", "current_trial": 14, "dateTime": 1693835352085, "trialdata": {"rt": 34973, "stimulus": "\n<h1> Get ready to start the game! </h1>\n\nThank you for reading the instructions. Get ready start with the 40 rounds of this game.\n<br><br>\nIf you need to take a break, feel free to take one after the end of a round, before continuing to the next one.\n<br><br>\nRemember, the more money the spider gets, the bigger your bonus will be!\n<br><br>\n<div style='text-align: center;'>Press <code>space</code> to begin.</div>\n\n<br><br>\n(If, at any point, the <code>space</code> key does not take you to the next page, click once on the text and try again.)", "response": " ", "trial_id": "mdp_ready", "trial_type": "html-keyboard-response", "trial_index": 14, "time_elapsed": 481262, "internal_node_id": "0.0-6.0-0.0"}}, {"uniqueid": "w86804730:a42640966", "current_trial": 15, "dateTime": 1693835372747, "trialdata": {"revealed_states": [], "clicked_states": [], "num_clicks_accrued": [0, 0, 0, 0, 0, 0, 0, 0, 0, 0, 0, 0, 0], "stateRewards": ["", 1, -2, 4, 7, -43, -83, -60, -5, -86, -80, 83, -1, -2, 6, 11, -15, 21, 13, 9, 29, -49, 11, -1, 4, -6, -11, 87, 40, 63, -8, -39, -11, 62], "withholdReward": false, "trial_id": "mdp_trial_1", "block": "test", "trialIndex": 4, "score": -37, "costs": 0, "simulationMode": [null, null, null, null, null], "rewards": [-1, -2, 6, 9, -49], "path": ["0", "0", "12", "13", "14", "19", "21"], "rt": [2517, 1277, 921, 406, 366], "actions": ["right", "right", "right", "down", "down"], "actionTimes": [5975, 7777, 9213, 10161, 11087], "queries": {"click": {"state": {"target": [], "time": []}, "edge": {"target": [], "time": []}}, "mouseover": {"state": {"target": [], "time": []}, "edge": {"target": [], "time": []}}, "mouseout": {"state": {"target": ["2", "1", "0"], "time": [1590, 1657, 2283]}, "edge": {"target": [], "time": []}}}, "displayed_time": "17.46", "trialTime": 20138, "trial_type": "mouselab-mdp", "trial_index": 15, "time_elapsed": 501921, "internal_node_id": "0.0-6.0-1.0-0.0"}}, {"uniqueid": "w86804730:a42640966", "current_trial": 16, "dateTime": 1693835395505, "trialdata": {"revealed_states": [], "clicked_states": [], "num_clicks_accrued": [0, 0, 0, 0, 0, 0, 0, 0, 0, 0, 0, 0, 0], "stateRewards": ["", -2, -3, -5, 8, 27, 11, 43, -6, -24, -87, 69, -2, 1, 1, 9, 19, 48, -37, 9, -14, 45, 62, 1, 2, 1, 16, -81, -41, 22, 4, -6, -63, 47], "withholdReward": false, "trial_id": "mdp_trial_2", "block": "test", "trialIndex": 5, "score": -21, "costs": 0, "simulationMode": [null, null, null, null, null], "rewards": [1, 2, 1, 16, -41], "path": ["0", "0", "23", "24", "25", "26", "28"], "rt": [8352, 1313, 835, 928, 769], "actions": ["left", "left", "left", "up", "right"], "actionTimes": [12406, 14216, 15550, 17033, 18342], "queries": {"click": {"state": {"target": [], "time": []}, "edge": {"target": [], "time": []}}, "mouseover": {"state": {"target": ["12", "12"], "time": [4592, 6600]}, "edge": {"target": [], "time": []}}, "mouseout": {"state": {"target": ["20", "0", "0", "12", "12"], "time": [1656, 2051, 4581, 4613, 8831]}, "edge": {"target": [], "time": []}}}, "displayed_time": "18.90", "trialTime": 21287, "trial_type": "mouselab-mdp", "trial_index": 16, "time_elapsed": 524680, "internal_node_id": "0.0-6.0-1.0-1.0"}}, {"uniqueid": "w86804730:a42640966", "current_trial": 17, "dateTime": 1693835415880, "trialdata": {"revealed_states": [], "clicked_states": ["1", "23"], "num_clicks_accrued": [0, 0, 0, 0, 0, 0, 0, 0, 0, 0, 0, 0, 0], "stateRewards": ["", -2, 3, -1, 2, -72, 63, 20, -1, 62, -66, 39, -2, 3, -6, 14, 22, 47, 1, 8, -49, -1, -41, 2, 2, -6, -16, -64, -60, -34, 16, 54, 22, -7], "withholdReward": false, "trial_id": "mdp_trial_3", "block": "test", "trialIndex": 6, "score": -81.5, "costs": 0.5, "simulationMode": [null, null, null, null, null], "rewards": [2, 2, -6, -16, -64], "path": ["0", "0", "23", "24", "25", "26", "27"], "rt": [4224, 1267, 2957, 1093, 525], "actions": ["left", "left", "left", "up", "up"], "actionTimes": [7223, 9025, 12493, 14107, 15210], "queries": {"click": {"state": {"target": ["1", "23"], "time": [4223, 6273]}, "edge": {"target": [], "time": []}}, "mouseover": {"state": {"target": ["1", "23"], "time": [3795, 5654]}, "edge": {"target": [], "time": []}}, "mouseout": {"state": {"target": ["1", "23", "25", "10", "6"], "time": [5506, 10790, 16598, 16672, 16766]}, "edge": {"target": [], "time": []}}}, "displayed_time": "17.00", "trialTime": 19604, "trial_type": "mouselab-mdp", "trial_index": 17, "time_elapsed": 545055, "internal_node_id": "0.0-6.0-1.0-2.0"}}, {"uniqueid": "w86804730:a42640966", "current_trial": 18, "dateTime": 1693835436979, "trialdata": {"revealed_states": [], "clicked_states": [], "num_clicks_accrued": [0, 0, 0, 0, 0, 0, 0, 0, 0, 0, 0, 0, 0], "stateRewards": ["", 2, -1, 8, -2, -16, 69, -39, -7, -13, -27, -86, 2, -2, 2, 13, -34, -16, -20, -5, 19, 81, 32, -2, -1, 2, -14, 20, 80, 58, 4, 70, 12, 73], "withholdReward": false, "trial_id": "mdp_trial_4", "block": "test", "trialIndex": 7, "score": -19, "costs": 0, "simulationMode": [null, null, null, null, null], "rewards": [2, -2, 2, 13, -34], "path": ["0", "0", "12", "13", "14", "15", "16"], "rt": [1602, 798, 961, 663, 721], "actions": ["right", "right", "right", "up", "up"], "actionTimes": [6308, 7647, 9144, 10332, 11603], "queries": {"click": {"state": {"target": [], "time": []}, "edge": {"target": [], "time": []}}, "mouseover": {"state": {"target": [], "time": []}, "edge": {"target": [], "time": []}}, "mouseout": {"state": {"target": ["16", "13", "12", "0", "0", "0", "18"], "time": [1123, 2206, 2891, 3020, 3340, 12732, 12824]}, "edge": {"target": [], "time": []}}}, "displayed_time": "18.71", "trialTime": 20159, "trial_type": "mouselab-mdp", "trial_index": 18, "time_elapsed": 566152, "internal_node_id": "0.0-6.0-1.0-3.0"}}, {"uniqueid": "w86804730:a42640966", "current_trial": 19, "dateTime": 1693835457463, "trialdata": {"revealed_states": [], "clicked_states": [], "num_clicks_accrued": [0, 0, 0, 0, 0, 0, 0, 0, 0, 0, 0, 0, 0], "stateRewards": ["", -2, 4, 3, 5, -61, 4, 30, 1, -47, 83, 10, 1, 4, 7, -14, 19, -74, -83, 6, -2, -2, -65, -1, -2, 4, -11, 12, -1, -68, 11, -38, -28, 66], "withholdReward": false, "trial_id": "mdp_trial_5", "block": "test", "trialIndex": 8, "score": -51, "costs": 0, "simulationMode": [null, null, null, null, null], "rewards": [-2, 4, 3, 5, -61], "path": ["0", "0", "1", "2", "3", "4", "5"], "rt": [540, 468, 640, 361, 198], "actions": ["up", "up", "up", "right", "up"], "actionTimes": [4639, 5649, 6834, 7699, 8420], "queries": {"click": {"state": {"target": [], "time": []}, "edge": {"target": [], "time": []}}, "mouseover": {"state": {"target": [], "time": []}, "edge": {"target": [], "time": []}}, "mouseout": {"state": {"target": ["11", "3", "23", "0", "18"], "time": [2250, 2437, 2800, 9301, 9370]}, "edge": {"target": [], "time": []}}}, "displayed_time": "18.10", "trialTime": 19920, "trial_type": "mouselab-mdp", "trial_index": 19, "time_elapsed": 586638, "internal_node_id": "0.0-6.0-1.0-4.0"}}, {"uniqueid": "w86804730:a42640966", "current_trial": 20, "dateTime": 1693835476620, "trialdata": {"revealed_states": [], "clicked_states": [], "num_clicks_accrued": [0, 0, 0, 0, 0, 0, 0, 0, 0, 0, 0, 0, 0], "stateRewards": ["", 1, -1, 8, -3, 38, 85, -20, -4, 8, 23, 73, 2, -4, 6, -13, 44, 7, -28, -11, -77, 45, -69, 1, -1, -7, -11, 75, -51, -87, 7, 36, -53, -26], "withholdReward": false, "trial_id": "mdp_trial_6", "block": "test", "trialIndex": 9, "score": 77, "costs": 0, "simulationMode": [null, null, null, null, null], "rewards": [1, -1, 8, -4, 73], "path": ["0", "0", "1", "2", "3", "8", "11"], "rt": [1488, 356, 3239, 293, 232], "actions": ["up", "up", "up", "left", "left"], "actionTimes": [3840, 4755, 8523, 9355, 10168], "queries": {"click": {"state": {"target": [], "time": []}, "edge": {"target": [], "time": []}}, "mouseover": {"state": {"target": [], "time": []}, "edge": {"target": [], "time": []}}, "mouseout": {"state": {"target": ["0", "10", "8", "3"], "time": [6357, 6725, 7033, 11257]}, "edge": {"target": [], "time": []}}}, "displayed_time": "16.35", "trialTime": 18594, "trial_type": "mouselab-mdp", "trial_index": 20, "time_elapsed": 605794, "internal_node_id": "0.0-6.0-1.0-5.0"}}, {"uniqueid": "w86804730:a42640966", "current_trial": 21, "dateTime": 1693835497206, "trialdata": {"revealed_states": [], "clicked_states": [], "num_clicks_accrued": [0, 0, 0, 0, 0, 0, 0, 0, 0, 0, 0, 0, 0], "stateRewards": ["", 2, -3, -8, 14, -7, -51, 73, 2, 36, 36, -43, -1, 3, -4, 1, 6, 87, -65, 15, 61, -42, -83, -1, 3, -2, -7, 30, -48, 35, 13, 26, 60, 78], "withholdReward": false, "trial_id": "mdp_trial_7", "block": "test", "trialIndex": 10, "score": 29, "costs": 0, "simulationMode": [null, null, null, null, null], "rewards": [2, -3, -8, 2, 36], "path": ["0", "0", "1", "2", "3", "8", "10"], "rt": [2506, 356, 632, 325, 169], "actions": ["up", "up", "up", "left", "down"], "actionTimes": [5863, 6794, 7927, 8797, 9527], "queries": {"click": {"state": {"target": [], "time": []}, "edge": {"target": [], "time": []}}, "mouseover": {"state": {"target": [], "time": []}, "edge": {"target": [], "time": []}}, "mouseout": {"state": {"target": ["13", "12", "0", "12"], "time": [1497, 1600, 10380, 10416]}, "edge": {"target": [], "time": []}}}, "displayed_time": "17.36", "trialTime": 20020, "trial_type": "mouselab-mdp", "trial_index": 21, "time_elapsed": 626381, "internal_node_id": "0.0-6.0-1.0-6.0"}}, {"uniqueid": "w86804730:a42640966", "current_trial": 22, "dateTime": 1693835516860, "trialdata": {"revealed_states": [], "clicked_states": [], "num_clicks_accrued": [0, 0, 0, 0, 0, 0, 0, 0, 0, 0, 0, 0, 0], "stateRewards": ["", 1, -4, -4, 8, 1, -79, 68, -10, -79, 8, -74, -1, -3, -6, 14, 43, 23, 9, 5, -51, 63, 61, -2, 4, 6, -10, 69, -32, 57, 15, -80, -80, -77], "withholdReward": false, "trial_id": "mdp_trial_8", "block": "test", "trialIndex": 11, "score": 55, "costs": 0, "simulationMode": [null, null, null, null, null], "rewards": [-2, 4, 6, -10, 57], "path": ["0", "0", "23", "24", "25", "26", "29"], "rt": [4201, 550, 528, 352, 420], "actions": ["left", "left", "left", "up", "left"], "actionTimes": [7944, 9008, 10092, 10974, 11926], "queries": {"click": {"state": {"target": [], "time": []}, "edge": {"target": [], "time": []}}, "mouseover": {"state": {"target": [], "time": []}, "edge": {"target": [], "time": []}}, "mouseout": {"state": {"target": ["20", "31"], "time": [1551, 2012]}, "edge": {"target": [], "time": []}}}, "displayed_time": "17.75", "trialTime": 19098, "trial_type": "mouselab-mdp", "trial_index": 22, "time_elapsed": 646034, "internal_node_id": "0.0-6.0-1.0-7.0"}}, {"uniqueid": "w86804730:a42640966", "current_trial": 23, "dateTime": 1693835536453, "trialdata": {"revealed_states": [], "clicked_states": [], "num_clicks_accrued": [0, 0, 0, 0, 0, 0, 0, 0, 0, 0, 0, 0, 0], "stateRewards": ["", -1, 2, -2, 13, -56, -28, 10, 14, 53, -80, -29, 1, -3, -3, -14, 14, 9, -40, -9, 18, 18, 48, 1, 1, 1, -9, 64, -39, -9, 7, -52, -78, 7], "withholdReward": false, "trial_id": "mdp_trial_9", "block": "test", "trialIndex": 12, "score": 4, "costs": 0, "simulationMode": [null, null, null, null, null], "rewards": [1, -3, -3, -9, 18], "path": ["0", "0", "12", "13", "14", "19", "20"], "rt": [2340, 513, 342, 310, 46], "actions": ["right", "right", "right", "down", "right"], "actionTimes": [5371, 6408, 7267, 8118, 8693], "queries": {"click": {"state": {"target": [], "time": []}, "edge": {"target": [], "time": []}}, "mouseover": {"state": {"target": [], "time": []}, "edge": {"target": [], "time": []}}, "mouseout": {"state": {"target": ["19", "0", "18"], "time": [1133, 2091, 10561]}, "edge": {"target": [], "time": []}}}, "displayed_time": "17.03", "trialTime": 19014, "trial_type": "mouselab-mdp", "trial_index": 23, "time_elapsed": 665628, "internal_node_id": "0.0-6.0-1.0-8.0"}}, {"uniqueid": "w86804730:a42640966", "current_trial": 24, "dateTime": 1693835556008, "trialdata": {"revealed_states": [], "clicked_states": [], "num_clicks_accrued": [0, 0, 0, 0, 0, 0, 0, 0, 0, 0, 0, 0, 0], "stateRewards": ["", -2, -4, -2, -13, -15, 87, -19, -6, -80, 30, 12, 1, 1, -8, 2, 55, 56, 15, 11, -68, -7, 55, -2, 3, -3, -3, 48, 62, 4, 1, -3, 69, -33], "withholdReward": false, "trial_id": "mdp_trial_10", "block": "test", "trialIndex": 13, "score": -40, "costs": 0, "simulationMode": [null, null, null, null, null], "rewards": [-2, -4, -2, -13, -19], "path": ["0", "0", "1", "2", "3", "4", "7"], "rt": [743, 307, 440, 337, 302], "actions": ["up", "up", "up", "right", "down"], "actionTimes": [3486, 4338, 5293, 6146, 6975], "queries": {"click": {"state": {"target": [], "time": []}, "edge": {"target": [], "time": []}}, "mouseover": {"state": {"target": [], "time": []}, "edge": {"target": [], "time": []}}, "mouseout": {"state": {"target": ["25", "24", "22", "0", "17", "24", "30"], "time": [1136, 1169, 1468, 9087, 17730, 17822, 18056]}, "edge": {"target": [], "time": []}}}, "displayed_time": "16.75", "trialTime": 18955, "trial_type": "mouselab-mdp", "trial_index": 24, "time_elapsed": 685182, "internal_node_id": "0.0-6.0-1.0-9.0"}}, {"uniqueid": "w86804730:a42640966", "current_trial": 25, "dateTime": 1693835574292, "trialdata": {"revealed_states": [], "clicked_states": [], "num_clicks_accrued": [0, 0, 0, 0, 0, 0, 0, 0, 0, 0, 0, 0, 0], "stateRewards": ["", 2, -4, -4, 13, -80, 62, 13, -11, 57, -13, -44, 1, 4, 3, -4, -29, -88, 15, 16, -58, 68, -45, -1, -3, -1, -9, -44, -86, -19, -7, -36, 59, 66], "withholdReward": false, "trial_id": "mdp_trial_11", "block": "test", "trialIndex": 14, "score": -30, "costs": 0, "simulationMode": [null, null, null, null, null], "rewards": [2, -4, -4, -11, -13], "path": ["0", "0", "1", "2", "3", "8", "10"], "rt": [440, 251, 93, 334, 137], "actions": ["up", "up", "up", "left", "down"], "actionTimes": [2783, 3548, 4191, 5044, 5726], "queries": {"click": {"state": {"target": [], "time": []}, "edge": {"target": [], "time": []}}, "mouseover": {"state": {"target": [], "time": []}, "edge": {"target": [], "time": []}}, "mouseout": {"state": {"target": ["0"], "time": [8283]}, "edge": {"target": [], "time": []}}}, "displayed_time": "16.35", "trialTime": 17728, "trial_type": "mouselab-mdp", "trial_index": 25, "time_elapsed": 703467, "internal_node_id": "0.0-6.0-1.0-10.0"}}, {"uniqueid": "w86804730:a42640966", "current_trial": 26, "dateTime": 1693835593528, "trialdata": {"revealed_states": [], "clicked_states": [], "num_clicks_accrued": [0, 0, 0, 0, 0, 0, 0, 0, 0, 0, 0, 0, 0], "stateRewards": ["", -2, -4, 2, 10, -17, 18, 73, 11, -32, 23, -13, -2, -4, 7, 12, -25, 66, -23, 15, 40, -76, -9, 1, 2, -7, -5, -20, 24, 3, -5, 16, -73, 70], "withholdReward": false, "trial_id": "mdp_trial_12", "block": "test", "trialIndex": 15, "score": 30, "costs": 0, "simulationMode": [null, null, null, null, null], "rewards": [-2, -4, 2, 11, 23], "path": ["0", "0", "1", "2", "3", "8", "10"], "rt": [756, 266, 218, 215, 111], "actions": ["up", "up", "up", "left", "down"], "actionTimes": [3481, 4266, 5030, 5765, 6398], "queries": {"click": {"state": {"target": [], "time": []}, "edge": {"target": [], "time": []}}, "mouseover": {"state": {"target": [], "time": []}, "edge": {"target": [], "time": []}}, "mouseout": {"state": {"target": ["30", "0"], "time": [1488, 7535]}, "edge": {"target": [], "time": []}}}, "displayed_time": "16.73", "trialTime": 18677, "trial_type": "mouselab-mdp", "trial_index": 26, "time_elapsed": 722702, "internal_node_id": "0.0-6.0-1.0-11.0"}}, {"uniqueid": "w86804730:a42640966", "current_trial": 27, "dateTime": 1693835612935, "trialdata": {"revealed_states": [], "clicked_states": [], "num_clicks_accrued": [0, 0, 0, 0, 0, 0, 0, 0, 0, 0, 0, 0, 0], "stateRewards": ["", 2, 3, -1, 6, 44, -4, -59, -14, -3, 64, 16, 1, -3, 3, 6, 3, 49, 19, 3, -49, -14, -86, 1, 2, -3, -8, -33, 14, 32, -13, -77, -47, -67], "withholdReward": false, "trial_id": "mdp_trial_13", "block": "test", "trialIndex": 16, "score": 6, "costs": 0, "simulationMode": [null, null, null, null, null], "rewards": [2, 3, -1, -14, 16], "path": ["0", "0", "1", "2", "3", "8", "11"], "rt": [1446, 253, 110, 286, 15], "actions": ["up", "up", "up", "left", "left"], "actionTimes": [4185, 4982, 5642, 6426, 6990], "queries": {"click": {"state": {"target": [], "time": []}, "edge": {"target": [], "time": []}}, "mouseover": {"state": {"target": [], "time": []}, "edge": {"target": [], "time": []}}, "mouseout": {"state": {"target": ["17", "13", "12", "0", "2"], "time": [949, 1016, 1317, 7963, 8115]}, "edge": {"target": [], "time": []}}}, "displayed_time": "16.74", "trialTime": 18844, "trial_type": "mouselab-mdp", "trial_index": 27, "time_elapsed": 742109, "internal_node_id": "0.0-6.0-1.0-12.0"}}, {"uniqueid": "w86804730:a42640966", "current_trial": 28, "dateTime": 1693835633840, "trialdata": {"revealed_states": [], "clicked_states": [], "num_clicks_accrued": [0, 0, 0, 0, 0, 0, 0, 0, 0, 0, 0, 0, 0], "stateRewards": ["", 2, 3, -2, -8, -8, -41, 74, 15, -23, -80, 1, 1, 3, 3, -15, -63, -78, 67, 13, 75, -41, 86, 2, -2, 6, -3, -8, -49, 50, -6, 83, 74, 80], "withholdReward": false, "trial_id": "mdp_trial_14", "block": "test", "trialIndex": 17, "score": -5, "costs": 0, "simulationMode": [null, null, null, null, null], "rewards": [2, 3, -2, 15, -23], "path": ["0", "0", "1", "2", "3", "8", "9"], "rt": [6380, 368, 300, 28, 149], "actions": ["up", "up", "up", "left", "up"], "actionTimes": [11050, 11922, 12771, 13305, 13953], "queries": {"click": {"state": {"target": [], "time": []}, "edge": {"target": [], "time": []}}, "mouseover": {"state": {"target": [], "time": []}, "edge": {"target": [], "time": []}}, "mouseout": {"state": {"target": ["19", "0"], "time": [3289, 15118]}, "edge": {"target": [], "time": []}}}, "displayed_time": "18.67", "trialTime": 20224, "trial_type": "mouselab-mdp", "trial_index": 28, "time_elapsed": 763014, "internal_node_id": "0.0-6.0-1.0-13.0"}}, {"uniqueid": "w86804730:a42640966", "current_trial": 29, "dateTime": 1693835663171, "trialdata": {"revealed_states": [], "clicked_states": [], "num_clicks_accrued": [0, 0, 0, 0, 0, 0, 0, 0, 0, 0, 0, 0, 0], "stateRewards": ["", -1, -3, -7, -4, -85, -70, 79, 8, 84, -66, 42, 2, -2, -3, -16, -54, -66, 68, -3, 21, -14, 7, -2, -1, -3, -8, 75, 80, 86, -7, -84, 73, -16], "withholdReward": false, "trial_id": "mdp_trial_15", "block": "test", "trialIndex": 18, "score": 81, "costs": 0, "simulationMode": [null, null, null, null, null], "rewards": [-1, -3, -7, 8, 84], "path": ["0", "0", "1", "2", "3", "8", "9"], "rt": [326, 60, 6, 681, 363], "actions": ["up", "up", "up", "left", "up"], "actionTimes": [3090, 3672, 4216, 5441, 6338], "queries": {"click": {"state": {"target": [], "time": []}, "edge": {"target": [], "time": []}}, "mouseover": {"state": {"target": [], "time": []}, "edge": {"target": [], "time": []}}, "mouseout": {"state": {"target": ["17", "15", "23", "0", "0", "12"], "time": [664, 712, 1512, 1842, 7404, 7466]}, "edge": {"target": [], "time": []}}}, "displayed_time": "16.77", "trialTime": 28774, "trial_type": "mouselab-mdp", "trial_index": 29, "time_elapsed": 792345, "internal_node_id": "0.0-6.0-1.0-14.0"}}, {"uniqueid": "w86804730:a42640966", "current_trial": 30, "dateTime": 1693835685156, "trialdata": {"revealed_states": [], "clicked_states": [], "num_clicks_accrued": [0, 0, 0, 0, 0, 0, 0, 0, 0, 0, 0, 0, 0], "stateRewards": ["", 2, -3, -5, 5, 11, -9, -33, 6, 67, 6, -30, -1, -2, -6, 13, 55, 13, 72, -14, 75, 21, -66, -2, -4, 6, 15, -1, -35, 60, 2, 51, -73, 12], "withholdReward": false, "trial_id": "mdp_trial_16", "block": "test", "trialIndex": 19, "score": 6, "costs": 0, "simulationMode": [null, null, null, null, null], "rewards": [2, -3, -5, 6, 6], "path": ["0", "0", "1", "2", "3", "8", "10"], "rt": [3916, 9, 500, 20, 3], "actions": ["up", "up", "up", "left", "down"], "actionTimes": [6957, 7547, 8602, 9163, 9738], "queries": {"click": {"state": {"target": [], "time": []}, "edge": {"target": [], "time": []}}, "mouseover": {"state": {"target": [], "time": []}, "edge": {"target": [], "time": []}}, "mouseout": {"state": {"target": ["19", "29", "26", "23", "0", "18"], "time": [923, 1323, 1378, 1819, 11034, 11084]}, "edge": {"target": [], "time": []}}}, "displayed_time": "17.04", "trialTime": 21365, "trial_type": "mouselab-mdp", "trial_index": 30, "time_elapsed": 814330, "internal_node_id": "0.0-6.0-1.0-15.0"}}, {"uniqueid": "w86804730:a42640966", "current_trial": 31, "dateTime": 1693835704736, "trialdata": {"revealed_states": [], "clicked_states": [], "num_clicks_accrued": [0, 0, 0, 0, 0, 0, 0, 0, 0, 0, 0, 0, 0], "stateRewards": ["", -2, 1, -8, 12, -65, -79, 16, 7, -80, -17, -45, -2, 2, -5, -2, -85, 23, -4, -7, 48, 27, -76, 2, 3, 5, 2, 43, 71, -13, 7, -49, 59, -31], "withholdReward": false, "trial_id": "mdp_trial_17", "block": "test", "trialIndex": 20, "score": -19, "costs": 0, "simulationMode": [null, null, null, null, null], "rewards": [-2, 1, -8, 7, -17], "path": ["0", "0", "1", "2", "3", "8", "10"], "rt": [324, 100, 2062, 7, 22], "actions": ["up", "up", "up", "left", "down"], "actionTimes": [3527, 4125, 6723, 7266, 7814], "queries": {"click": {"state": {"target": [], "time": []}, "edge": {"target": [], "time": []}}, "mouseover": {"state": {"target": [], "time": []}, "edge": {"target": [], "time": []}}, "mouseout": {"state": {"target": ["30", "29", "26", "23", "0", "1", "3"], "time": [1413, 1741, 1785, 2010, 5577, 5776, 8897]}, "edge": {"target": [], "time": []}}}, "displayed_time": "17.20", "trialTime": 18971, "trial_type": "mouselab-mdp", "trial_index": 31, "time_elapsed": 833910, "internal_node_id": "0.0-6.0-1.0-16.0"}}, {"uniqueid": "w86804730:a42640966", "current_trial": 32, "dateTime": 1693835723889, "trialdata": {"revealed_states": [], "clicked_states": ["1"], "num_clicks_accrued": [0, 0, 0, 0, 0, 0, 0, 0, 0, 0, 0, 0, 0], "stateRewards": ["", 1, 1, -5, 8, -6, 45, 16, -6, -7, -22, -38, -1, -4, 8, -11, -16, 21, -45, -15, -59, -32, 42, -1, 3, 6, 11, -7, 34, -27, -8, 85, 43, -9], "withholdReward": false, "trial_id": "mdp_trial_18", "block": "test", "trialIndex": 21, "score": 21.25, "costs": 0.25, "simulationMode": [null, null, null, null, null], "rewards": [1, 1, -5, 8, 16], "path": ["0", "0", "1", "2", "3", "4", "7"], "rt": [2977, 812, 466, 724, 248], "actions": ["up", "up", "up", "right", "down"], "actionTimes": [6071, 7384, 8392, 9614, 10416], "queries": {"click": {"state": {"target": ["1"], "time": [5235]}, "edge": {"target": [], "time": []}}, "mouseover": {"state": {"target": ["1"], "time": [4767]}, "edge": {"target": [], "time": []}}, "mouseout": {"state": {"target": ["0", "0", "1", "7"], "time": [1426, 3948, 6001, 12250]}, "edge": {"target": [], "time": []}}}, "displayed_time": "17.10", "trialTime": 18453, "trial_type": "mouselab-mdp", "trial_index": 32, "time_elapsed": 853063, "internal_node_id": "0.0-6.0-1.0-17.0"}}, {"uniqueid": "w86804730:a42640966", "current_trial": 33, "dateTime": 1693835742119, "trialdata": {"revealed_states": [], "clicked_states": ["12"], "num_clicks_accrued": [0, 0, 0, 0, 0, 0, 0, 0, 0, 0, 0, 0, 0], "stateRewards": ["", -2, 3, 8, -9, 59, 41, -50, -1, 82, 66, 33, 2, -2, 7, 8, 1, -38, 12, -16, 24, -37, 67, 1, 4, -2, 5, 35, -83, 28, 8, -27, 69, -64], "withholdReward": false, "trial_id": "mdp_trial_19", "block": "test", "trialIndex": 22, "score": 27.25, "costs": 0.25, "simulationMode": [null, null, null, null, null], "rewards": [2, -2, 7, 8, 12], "path": ["0", "0", "12", "13", "14", "15", "18"], "rt": [2035, 207, 496, 155, 147], "actions": ["right", "right", "right", "up", "left"], "actionTimes": [4244, 4958, 6008, 6708, 7392], "queries": {"click": {"state": {"target": ["12"], "time": [3509]}, "edge": {"target": [], "time": []}}, "mouseover": {"state": {"target": ["12"], "time": [3097]}, "edge": {"target": [], "time": []}}, "mouseout": {"state": {"target": ["19", "0", "12"], "time": [913, 2933, 9232]}, "edge": {"target": [], "time": []}}}, "displayed_time": "16.21", "trialTime": 17645, "trial_type": "mouselab-mdp", "trial_index": 33, "time_elapsed": 871294, "internal_node_id": "0.0-6.0-1.0-18.0"}}, {"uniqueid": "w86804730:a42640966", "current_trial": 34, "dateTime": 1693835759908, "trialdata": {"revealed_states": [], "clicked_states": ["23"], "num_clicks_accrued": [0, 0, 0, 0, 0, 0, 0, 0, 0, 0, 0, 0, 0], "stateRewards": ["", 1, 1, 1, -3, -7, -1, -41, -10, 20, -72, -63, 1, -4, -2, 2, -66, 30, -84, -2, 49, 23, 71, -1, -4, 4, -12, 67, 5, 18, -16, 88, 56, -5], "withholdReward": false, "trial_id": "mdp_trial_20", "block": "test", "trialIndex": 23, "score": 5.25, "costs": 0.25, "simulationMode": [null, null, null, null, null], "rewards": [-1, -4, 4, -12, 18], "path": ["0", "0", "23", "24", "25", "26", "29"], "rt": [1836, 710, 617, 412, 619], "actions": ["left", "left", "left", "up", "left"], "actionTimes": [3757, 4963, 6115, 7043, 8197], "queries": {"click": {"state": {"target": ["23"], "time": [2907]}, "edge": {"target": [], "time": []}}, "mouseover": {"state": {"target": ["23"], "time": [2386]}, "edge": {"target": [], "time": []}}, "mouseout": {"state": {"target": ["19", "24", "23", "0", "23", "0"], "time": [479, 788, 906, 2311, 3105, 10167]}, "edge": {"target": [], "time": []}}}, "displayed_time": "15.92", "trialTime": 17183, "trial_type": "mouselab-mdp", "trial_index": 34, "time_elapsed": 889083, "internal_node_id": "0.0-6.0-1.0-19.0"}}, {"uniqueid": "w86804730:a42640966", "current_trial": 35, "dateTime": 1693835778513, "trialdata": {"revealed_states": [], "clicked_states": ["12"], "num_clicks_accrued": [0, 0, 0, 0, 0, 0, 0, 0, 0, 0, 0, 0, 0], "stateRewards": ["", -1, 3, 1, -7, 56, 76, 57, 3, 11, -9, 14, 1, -2, 2, 8, -77, -3, 79, -5, 88, 24, -66, -2, -1, 7, -7, -30, 14, -76, 11, -36, 28, -6], "withholdReward": false, "trial_id": "mdp_trial_21", "block": "test", "trialIndex": 24, "score": 88.25, "costs": 0.25, "simulationMode": [null, null, null, null, null], "rewards": [1, -2, 2, 8, 79], "path": ["0", "0", "12", "13", "14", "15", "18"], "rt": [1971, 257, 404, 49, 118], "actions": ["right", "right", "right", "up", "left"], "actionTimes": [4377, 5150, 6055, 6648, 7304], "queries": {"click": {"state": {"target": ["12"], "time": [3502]}, "edge": {"target": [], "time": []}}, "mouseover": {"state": {"target": ["12"], "time": [3079]}, "edge": {"target": [], "time": []}}, "mouseout": {"state": {"target": ["0", "12", "15", "17"], "time": [2662, 3725, 13396, 13480]}, "edge": {"target": [], "time": []}}}, "displayed_time": "16.41", "trialTime": 17985, "trial_type": "mouselab-mdp", "trial_index": 35, "time_elapsed": 907687, "internal_node_id": "0.0-6.0-1.0-20.0"}}, {"uniqueid": "w86804730:a42640966", "current_trial": 36, "dateTime": 1693835796811, "trialdata": {"revealed_states": [], "clicked_states": ["12"], "num_clicks_accrued": [0, 0, 0, 0, 0, 0, 0, 0, 0, 0, 0, 0, 0], "stateRewards": ["", -2, -4, 6, 14, -34, 49, 36, -8, -3, 32, -4, 1, -2, 1, -8, -20, -71, -57, -7, -86, -62, -16, -2, -3, -5, 11, 23, -21, 53, 5, -5, 85, 73], "withholdReward": false, "trial_id": "mdp_trial_22", "block": "test", "trialIndex": 25, "score": -22.75, "costs": 0.25, "simulationMode": [null, null, null, null, null], "rewards": [1, -2, 1, -7, -16], "path": ["0", "0", "12", "13", "14", "19", "22"], "rt": [1831, 174, 778, 252, 191], "actions": ["right", "right", "right", "down", "left"], "actionTimes": [4030, 4737, 6045, 6836, 7550], "queries": {"click": {"state": {"target": ["12"], "time": [3148]}, "edge": {"target": [], "time": []}}, "mouseover": {"state": {"target": ["12"], "time": [2563]}, "edge": {"target": [], "time": []}}, "mouseout": {"state": {"target": ["17", "2", "10", "12"], "time": [555, 621, 684, 8602]}, "edge": {"target": [], "time": []}}}, "displayed_time": "16.20", "trialTime": 17732, "trial_type": "mouselab-mdp", "trial_index": 36, "time_elapsed": 925984, "internal_node_id": "0.0-6.0-1.0-21.0"}}, {"uniqueid": "w86804730:a42640966", "current_trial": 37, "dateTime": 1693835815023, "trialdata": {"revealed_states": [], "clicked_states": ["1", "23"], "num_clicks_accrued": [0, 0, 0, 0, 0, 0, 0, 0, 0, 0, 0, 0, 0], "stateRewards": ["", -1, 4, -5, 9, 29, -75, -42, -16, 24, -28, -41, 2, -3, 1, 10, 60, 47, 55, -1, -53, 22, -40, 2, -3, -6, 4, -26, 44, 54, 15, -76, 42, 14], "withholdReward": false, "trial_id": "mdp_trial_23", "block": "test", "trialIndex": 26, "score": 50.5, "costs": 0.5, "simulationMode": [null, null, null, null, null], "rewards": [2, -3, -6, 15, 42], "path": ["0", "0", "23", "24", "25", "30", "32"], "rt": [3543, 423, 200, 142, 179], "actions": ["left", "left", "left", "down", "down"], "actionTimes": [5636, 6588, 7345, 8049, 8768], "queries": {"click": {"state": {"target": ["1", "23"], "time": [2830, 4857]}, "edge": {"target": [], "time": []}}, "mouseover": {"state": {"target": ["1", "23"], "time": [2117, 4332]}, "edge": {"target": [], "time": []}}, "mouseout": {"state": {"target": ["12", "0", "1"], "time": [393, 2115, 4063]}, "edge": {"target": [], "time": []}}}, "displayed_time": "16.10", "trialTime": 17603, "trial_type": "mouselab-mdp", "trial_index": 37, "time_elapsed": 944198, "internal_node_id": "0.0-6.0-1.0-22.0"}}, {"uniqueid": "w86804730:a42640966", "current_trial": 38, "dateTime": 1693835832696, "trialdata": {"revealed_states": [], "clicked_states": ["1", "12", "23"], "num_clicks_accrued": [0, 0, 0, 0, 0, 0, 0, 0, 0, 0, 0, 0, 0], "stateRewards": ["", -1, -2, 4, 9, 10, -75, 39, 16, -43, 88, -19, -1, 1, 2, 4, -31, 10, 73, 12, 41, -64, -81, -2, 2, -6, 1, -81, -1, -26, 3, -59, -3, -20], "withholdReward": false, "trial_id": "mdp_trial_24", "block": "test", "trialIndex": 27, "score": -5.25, "costs": 0.75, "simulationMode": [null, null, null, null, null], "rewards": [-2, 2, -6, 1, -1], "path": ["0", "0", "23", "24", "25", "26", "28"], "rt": [6480, 419, 277, 148, 209], "actions": ["left", "left", "left", "up", "right"], "actionTimes": [8389, 9340, 10124, 10833, 11593], "queries": {"click": {"state": {"target": ["1", "12", "23"], "time": [3013, 4974, 6676]}, "edge": {"target": [], "time": []}}, "mouseover": {"state": {"target": ["1", "12", "23"], "time": [2517, 4450, 6299]}, "edge": {"target": [], "time": []}}, "mouseout": {"state": {"target": ["23", "0", "1", "1", "12", "23"], "time": [779, 2383, 3880, 4317, 5183, 14365]}, "edge": {"target": [], "time": []}}}, "displayed_time": "15.92", "trialTime": 17076, "trial_type": "mouselab-mdp", "trial_index": 38, "time_elapsed": 961871, "internal_node_id": "0.0-6.0-1.0-23.0"}}, {"uniqueid": "w86804730:a42640966", "current_trial": 39, "dateTime": 1693835851453, "trialdata": {"revealed_states": [], "clicked_states": ["1"], "num_clicks_accrued": [0, 0, 0, 0, 0, 0, 0, 0, 0, 0, 0, 0, 0], "stateRewards": ["", 1, 4, -8, -13, -13, -87, -77, -10, -44, 54, 42, 2, -3, -4, 12, -9, -80, 52, 9, 84, -2, -65, 1, -4, -5, -6, 8, 80, 32, 13, -59, -5, -13], "withholdReward": false, "trial_id": "mdp_trial_25", "block": "test", "trialIndex": 28, "score": -92.75, "costs": 0.25, "simulationMode": [null, null, null, null, null], "rewards": [1, 4, -8, -13, -77], "path": ["0", "0", "1", "2", "3", "4", "7"], "rt": [2944, 364, 171, 101, 214], "actions": ["up", "up", "up", "right", "down"], "actionTimes": [5544, 6417, 7104, 7738, 8460], "queries": {"click": {"state": {"target": ["1"], "time": [4777]}, "edge": {"target": [], "time": []}}, "mouseover": {"state": {"target": ["1", "1", "1"], "time": [3156, 3532, 4148]}, "edge": {"target": [], "time": []}}, "mouseout": {"state": {"target": ["20", "0", "1", "1", "1"], "time": [870, 3018, 3347, 3583, 10103]}, "edge": {"target": [], "time": []}}}, "displayed_time": "16.60", "trialTime": 18135, "trial_type": "mouselab-mdp", "trial_index": 39, "time_elapsed": 980628, "internal_node_id": "0.0-6.0-1.0-24.0"}}, {"uniqueid": "w86804730:a42640966", "current_trial": 40, "dateTime": 1693835869553, "trialdata": {"revealed_states": [], "clicked_states": ["1", "2", "3"], "num_clicks_accrued": [0, 0, 0, 0, 0, 0, 0, 0, 0, 0, 0, 0, 0], "stateRewards": ["", -2, -1, -6, -14, -55, 78, -13, 11, 14, -71, 59, 2, 2, 6, -6, 9, 38, 14, 7, 85, 11, 68, 1, -4, -1, -3, -63, -85, 9, -2, 63, -86, -10], "withholdReward": false, "trial_id": "mdp_trial_26", "block": "test", "trialIndex": 29, "score": 55.95, "costs": -1.0499999999999998, "simulationMode": [null, null, null, null, null], "rewards": [1, -4, -1, -2, 63], "path": ["0", "0", "23", "24", "25", "30", "31"], "rt": [5738, 425, 464, 298, 355], "actions": ["left", "left", "left", "down", "right"], "actionTimes": [7917, 8866, 9862, 10675, 11546], "queries": {"click": {"state": {"target": ["1", "2", "3"], "time": [3361, 5370, 6608]}, "edge": {"target": [], "time": []}}, "mouseover": {"state": {"target": ["1", "2", "1", "2", "3", "23"], "time": [2443, 2533, 2844, 4809, 6156, 7516]}, "edge": {"target": [], "time": []}}, "mouseout": {"state": {"target": ["0", "1", "2", "1", "2", "3"], "time": [713, 2497, 2752, 4709, 5943, 7128]}, "edge": {"target": [], "time": []}}}, "displayed_time": "16.18", "trialTime": 17492, "trial_type": "mouselab-mdp", "trial_index": 40, "time_elapsed": 998728, "internal_node_id": "0.0-6.0-1.0-25.0"}}, {"uniqueid": "w86804730:a42640966", "current_trial": 41, "dateTime": 1693835887430, "trialdata": {"revealed_states": [], "clicked_states": ["23", "12", "13"], "num_clicks_accrued": [0, 0, 0, 0, 0, 0, 0, 0, 0, 0, 0, 0, 0], "stateRewards": ["", 2, -1, 5, 6, 10, 86, 55, 10, -45, 63, -71, 1, -2, 5, -8, -50, -72, 36, 15, 61, 12, 33, -1, -4, 6, 5, 79, -56, -21, -16, -87, 60, -81], "withholdReward": false, "trial_id": "mdp_trial_27", "block": "test", "trialIndex": 30, "score": -75.85, "costs": 0.15000000000000002, "simulationMode": [null, null, null, null, null], "rewards": [1, -2, 5, -8, -72], "path": ["0", "0", "12", "13", "14", "15", "17"], "rt": [4863, 338, 365, 55, 733], "actions": ["right", "right", "right", "up", "right"], "actionTimes": [6932, 7788, 8689, 9283, 10543], "queries": {"click": {"state": {"target": ["23", "12", "13"], "time": [3674, 5138, 6260]}, "edge": {"target": [], "time": []}}, "mouseover": {"state": {"target": ["1", "23", "0", "12", "13"], "time": [2182, 3169, 4264, 4719, 5678]}, "edge": {"target": [], "time": []}}, "mouseout": {"state": {"target": ["23", "0", "12", "1", "23", "0", "12", "12", "13"], "time": [484, 534, 780, 2920, 4218, 4424, 5368, 5665, 12992]}, "edge": {"target": [], "time": []}}}, "displayed_time": "16.07", "trialTime": 17296, "trial_type": "mouselab-mdp", "trial_index": 41, "time_elapsed": 1016604, "internal_node_id": "0.0-6.0-1.0-26.0"}}, {"uniqueid": "w86804730:a42640966", "current_trial": 42, "dateTime": 1693835905265, "trialdata": {"revealed_states": [], "clicked_states": ["1"], "num_clicks_accrued": [0, 0, 0, 0, 0, 0, 0, 0, 0, 0, 0, 0, 0], "stateRewards": ["", 1, 2, 2, -15, -84, 28, -26, 13, 31, 86, 30, -2, 1, -1, -8, 66, -40, -1, -10, -32, 57, -17, 1, 2, -2, 9, -23, 77, 85, 12, -32, -62, -35], "withholdReward": false, "trial_id": "mdp_trial_28", "block": "test", "trialIndex": 31, "score": -93.75, "costs": 0.25, "simulationMode": [null, null, null, null, null], "rewards": [1, 2, 2, -15, -84], "path": ["0", "0", "1", "2", "3", "4", "5"], "rt": [2276, 182, 165, 77, 215], "actions": ["up", "up", "up", "right", "up"], "actionTimes": [4412, 5109, 5774, 6369, 7109], "queries": {"click": {"state": {"target": ["1"], "time": [3587]}, "edge": {"target": [], "time": []}}, "mouseover": {"state": {"target": ["1"], "time": [2974]}, "edge": {"target": [], "time": []}}, "mouseout": {"state": {"target": ["20", "19", "0", "24", "1", "16"], "time": [709, 766, 826, 1031, 3784, 10782]}, "edge": {"target": [], "time": []}}}, "displayed_time": "16.14", "trialTime": 17202, "trial_type": "mouselab-mdp", "trial_index": 42, "time_elapsed": 1034440, "internal_node_id": "0.0-6.0-1.0-27.0"}}, {"uniqueid": "w86804730:a42640966", "current_trial": 43, "dateTime": 1693835923294, "trialdata": {"revealed_states": [], "clicked_states": ["1", "23", "12"], "num_clicks_accrued": [0, 0, 0, 0, 0, 0, 0, 0, 0, 0, 0, 0, 0], "stateRewards": ["", -1, -3, 1, 13, -64, -29, 12, -4, -33, 50, 56, 2, -3, 4, 11, -64, -58, -55, 12, 47, 38, -25, -2, 2, 5, -15, 85, 7, 84, 10, 8, 57, 26], "withholdReward": false, "trial_id": "mdp_trial_29", "block": "test", "trialIndex": 32, "score": -49.25, "costs": 0.75, "simulationMode": [null, null, null, null, null], "rewards": [2, -3, 4, 11, -64], "path": ["0", "0", "12", "13", "14", "15", "16"], "rt": [3886, 178, 191, 151, 243], "actions": ["right", "right", "right", "up", "up"], "actionTimes": [6076, 6819, 7536, 8211, 8975], "queries": {"click": {"state": {"target": ["1", "23", "12"], "time": [3280, 4516, 5627]}, "edge": {"target": [], "time": []}}, "mouseover": {"state": {"target": ["1", "1", "23", "0", "12"], "time": [2541, 2819, 3929, 5041, 5160]}, "edge": {"target": [], "time": []}}, "mouseout": {"state": {"target": ["15", "18", "12", "0", "1", "1", "23", "0", "12"], "time": [391, 491, 525, 832, 2620, 3800, 4978, 5101, 12252]}, "edge": {"target": [], "time": []}}}, "displayed_time": "16.20", "trialTime": 17395, "trial_type": "mouselab-mdp", "trial_index": 43, "time_elapsed": 1052469, "internal_node_id": "0.0-6.0-1.0-28.0"}}, {"uniqueid": "w86804730:a42640966", "current_trial": 44, "dateTime": 1693835943450, "trialdata": {"revealed_states": [], "clicked_states": ["12", "23", "1"], "num_clicks_accrued": [0, 0, 0, 0, 0, 0, 0, 0, 0, 0, 0, 0, 0], "stateRewards": ["", -2, 2, -2, -7, -50, -62, -45, 7, 36, -24, -72, -1, -1, 8, -1, -67, 20, -52, 2, 35, -50, 80, -1, 1, 6, -6, -70, 6, 88, 8, -47, 74, -19], "withholdReward": false, "trial_id": "mdp_trial_30", "block": "test", "trialIndex": 33, "score": -70.25, "costs": 0.75, "simulationMode": [null, null, null, null, null], "rewards": [-2, 2, -2, -7, -62], "path": ["0", "0", "1", "2", "3", "4", "6"], "rt": [6702, 319, 85, 7, 718], "actions": ["up", "up", "up", "right", "right"], "actionTimes": [10174, 11020, 11663, 12205, 13475], "queries": {"click": {"state": {"target": ["12", "23", "1"], "time": [5993, 7718, 9409]}, "edge": {"target": [], "time": []}}, "mouseover": {"state": {"target": ["12", "12", "12", "24", "23", "1"], "time": [3997, 4465, 5412, 7021, 7203, 8787]}, "edge": {"target": [], "time": []}}, "mouseout": {"state": {"target": ["0", "0", "12", "12", "12", "24", "23"], "time": [2111, 2669, 4317, 4530, 6816, 7102, 7955]}, "edge": {"target": [], "time": []}}}, "displayed_time": "17.47", "trialTime": 19580, "trial_type": "mouselab-mdp", "trial_index": 44, "time_elapsed": 1072625, "internal_node_id": "0.0-6.0-1.0-29.0"}}, {"uniqueid": "w86804730:a42640966", "current_trial": 45, "dateTime": 1693835963340, "trialdata": {"revealed_states": [], "clicked_states": [], "num_clicks_accrued": [0, 0, 0, 0, 0, 0, 0, 0, 0, 0, 0, 0, 0], "stateRewards": ["", 1, 1, 6, -14, -40, 37, 16, -13, 33, -68, 49, 2, 4, 3, 6, 55, 27, 32, 10, -65, 20, -87, 2, 1, -6, -5, -42, 12, 29, -8, 16, 76, -33], "withholdReward": false, "trial_id": "mdp_trial_31", "block": "test", "trialIndex": 34, "score": -73, "costs": 0, "simulationMode": [null, null, null, null, null], "rewards": [1, 1, 6, -13, -68], "path": ["0", "0", "1", "2", "3", "8", "10"], "rt": [449, 551, 112, 47, 635], "actions": ["up", "up", "up", "left", "down"], "actionTimes": [4217, 5306, 5936, 6508, 7671], "queries": {"click": {"state": {"target": [], "time": []}, "edge": {"target": [], "time": []}}, "mouseover": {"state": {"target": [], "time": []}, "edge": {"target": [], "time": []}}, "mouseout": {"state": {"target": ["1"], "time": [522]}, "edge": {"target": [], "time": []}}}, "displayed_time": "17.77", "trialTime": 19273, "trial_type": "mouselab-mdp", "trial_index": 45, "time_elapsed": 1092514, "internal_node_id": "0.0-6.0-1.0-30.0"}}, {"uniqueid": "w86804730:a42640966", "current_trial": 46, "dateTime": 1693835988905, "trialdata": {"revealed_states": [], "clicked_states": [], "num_clicks_accrued": [0, 0, 0, 0, 0, 0, 0, 0, 0, 0, 0, 0, 0], "stateRewards": ["", -2, -4, -2, 10, -8, -15, -47, 7, -84, 53, 5, -1, 2, -7, 3, 83, 31, 47, -1, 30, -8, 69, 2, -4, -1, 8, -7, 12, -8, -8, -13, 30, -84], "withholdReward": false, "trial_id": "mdp_trial_32", "block": "test", "trialIndex": 35, "score": -45, "costs": 0, "simulationMode": [null, null, null, null, null], "rewards": [-2, -4, -2, 10, -47], "path": ["0", "0", "1", "2", "3", "4", "7"], "rt": [4358, 167, 9, 7, 459], "actions": ["up", "up", "up", "right", "down"], "actionTimes": [5934, 6655, 7184, 7733, 8709], "queries": {"click": {"state": {"target": [], "time": []}, "edge": {"target": [], "time": []}}, "mouseover": {"state": {"target": ["1"], "time": [4392]}, "edge": {"target": [], "time": []}}, "mouseout": {"state": {"target": ["0"], "time": [1097]}, "edge": {"target": [], "time": []}}}, "displayed_time": "15.58", "trialTime": 24931, "trial_type": "mouselab-mdp", "trial_index": 46, "time_elapsed": 1118080, "internal_node_id": "0.0-6.0-1.0-31.0"}}, {"uniqueid": "w86804730:a42640966", "current_trial": 47, "dateTime": 1693836015389, "trialdata": {"revealed_states": [], "clicked_states": [], "num_clicks_accrued": [0, 0, 0, 0, 0, 0, 0, 0, 0, 0, 0, 0, 0], "stateRewards": ["", 2, -1, -3, 16, -3, -16, -62, -1, 13, -26, 43, -1, 4, 3, -9, -54, -37, -3, -12, -71, -68, -57, 1, -3, 2, -9, 2, -2, -9, -11, 84, -52, 55], "withholdReward": false, "trial_id": "mdp_trial_33", "block": "test", "trialIndex": 36, "score": 40, "costs": 0, "simulationMode": [null, null, null, null, null], "rewards": [2, -1, -3, -1, 43], "path": ["0", "0", "1", "2", "3", "8", "11"], "rt": [2467, 133, 355, 59, 10], "actions": ["up", "up", "up", "left", "left"], "actionTimes": [12782, 13431, 14326, 14924, 15466], "queries": {"click": {"state": {"target": [], "time": []}, "edge": {"target": [], "time": []}}, "mouseover": {"state": {"target": [], "time": []}, "edge": {"target": [], "time": []}}, "mouseout": {"state": {"target": ["1", "0", "0"], "time": [8908, 9121, 19562]}, "edge": {"target": [], "time": []}}}, "displayed_time": "24.32", "trialTime": 25845, "trial_type": "mouselab-mdp", "trial_index": 47, "time_elapsed": 1144563, "internal_node_id": "0.0-6.0-1.0-32.0"}}, {"uniqueid": "w86804730:a42640966", "current_trial": 48, "dateTime": 1693836034498, "trialdata": {"revealed_states": [], "clicked_states": [], "num_clicks_accrued": [0, 0, 0, 0, 0, 0, 0, 0, 0, 0, 0, 0, 0], "stateRewards": ["", 1, 4, 5, 8, -55, -11, 8, 16, -37, 77, -22, -2, 3, -8, -10, 45, 87, -67, 4, 17, -33, -22, -1, -3, 7, 6, -39, -85, 75, -1, 7, -48, 45], "withholdReward": false, "trial_id": "mdp_trial_34", "block": "test", "trialIndex": 37, "score": -37, "costs": 0, "simulationMode": [null, null, null, null, null], "rewards": [1, 4, 5, 8, -55], "path": ["0", "0", "1", "2", "3", "4", "5"], "rt": [722, 35, 94, 62, 48], "actions": ["up", "up", "up", "right", "up"], "actionTimes": [3936, 4494, 5100, 5717, 6307], "queries": {"click": {"state": {"target": [], "time": []}, "edge": {"target": [], "time": []}}, "mouseover": {"state": {"target": [], "time": []}, "edge": {"target": [], "time": []}}, "mouseout": {"state": {"target": ["15", "18", "12", "24", "23", "0"], "time": [1214, 1425, 1485, 1720, 2029, 13975]}, "edge": {"target": [], "time": []}}}, "displayed_time": "17.22", "trialTime": 18461, "trial_type": "mouselab-mdp", "trial_index": 48, "time_elapsed": 1163672, "internal_node_id": "0.0-6.0-1.0-33.0"}}, {"uniqueid": "w86804730:a42640966", "current_trial": 49, "dateTime": 1693836054008, "trialdata": {"revealed_states": [], "clicked_states": [], "num_clicks_accrued": [0, 0, 0, 0, 0, 0, 0, 0, 0, 0, 0, 0, 0], "stateRewards": ["", -2, 3, -1, -9, 44, 48, -37, -3, 71, -39, 87, -1, 3, -4, 4, -21, 59, -15, -8, -1, 28, -38, 2, 4, 4, 8, -85, -72, -63, 14, 58, 63, -46], "withholdReward": false, "trial_id": "mdp_trial_35", "block": "test", "trialIndex": 38, "score": 87, "costs": 0, "simulationMode": [null, null, null, null, null], "rewards": [2, 4, 4, 14, 63], "path": ["0", "0", "23", "24", "25", "30", "32"], "rt": [1068, 310, 130, 103, 191], "actions": ["left", "left", "left", "down", "down"], "actionTimes": [4576, 5427, 6115, 6822, 7530], "queries": {"click": {"state": {"target": [], "time": []}, "edge": {"target": [], "time": []}}, "mouseover": {"state": {"target": [], "time": []}, "edge": {"target": [], "time": []}}, "mouseout": {"state": {"target": ["14", "13", "12", "29", "26", "0"], "time": [1238, 1409, 1457, 1622, 1804, 10947]}, "edge": {"target": [], "time": []}}}, "displayed_time": "17.51", "trialTime": 18895, "trial_type": "mouselab-mdp", "trial_index": 49, "time_elapsed": 1183182, "internal_node_id": "0.0-6.0-1.0-34.0"}}, {"uniqueid": "w86804730:a42640966", "current_trial": 50, "dateTime": 1693836072600, "trialdata": {"revealed_states": [], "clicked_states": [], "num_clicks_accrued": [0, 0, 0, 0, 0, 0, 0, 0, 0, 0, 0, 0, 0], "stateRewards": ["", -2, -1, -1, 5, -54, -87, 35, 2, -8, 20, -22, 1, 3, 6, 13, -75, -32, -55, -3, 56, 62, -22, -1, -4, -1, -7, -51, 84, 70, 7, -15, 5, 55], "withholdReward": false, "trial_id": "mdp_trial_36", "block": "test", "trialIndex": 39, "score": -9, "costs": 0, "simulationMode": [null, null, null, null, null], "rewards": [1, 3, 6, 13, -32], "path": ["0", "0", "12", "13", "14", "15", "17"], "rt": [1189, 96, 146, 202, 274], "actions": ["right", "right", "right", "up", "right"], "actionTimes": [4047, 4686, 5351, 6121, 6935], "queries": {"click": {"state": {"target": [], "time": []}, "edge": {"target": [], "time": []}}, "mouseover": {"state": {"target": [], "time": []}, "edge": {"target": [], "time": []}}, "mouseout": {"state": {"target": ["12", "23", "23", "0"], "time": [1222, 1414, 1507, 11800]}, "edge": {"target": [], "time": []}}}, "displayed_time": "16.89", "trialTime": 17956, "trial_type": "mouselab-mdp", "trial_index": 50, "time_elapsed": 1201775, "internal_node_id": "0.0-6.0-1.0-35.0"}}, {"uniqueid": "w86804730:a42640966", "current_trial": 51, "dateTime": 1693836090925, "trialdata": {"revealed_states": [], "clicked_states": [], "num_clicks_accrued": [0, 0, 0, 0, 0, 0, 0, 0, 0, 0, 0, 0, 0], "stateRewards": ["", 1, 2, -5, 14, 54, -14, -25, 16, -5, -87, 78, -1, 1, 3, -3, 52, 53, 53, -10, 73, -69, -48, 2, 3, 1, 8, -62, -7, 85, 7, 82, 52, -28], "withholdReward": false, "trial_id": "mdp_trial_37", "block": "test", "trialIndex": 40, "score": -48, "costs": 0, "simulationMode": [null, null, null, null, null], "rewards": [2, 3, 1, 8, -62], "path": ["0", "0", "23", "24", "25", "26", "27"], "rt": [516, 247, 135, 371, 134], "actions": ["left", "left", "left", "up", "up"], "actionTimes": [2526, 3311, 3989, 4903, 5565], "queries": {"click": {"state": {"target": [], "time": []}, "edge": {"target": [], "time": []}}, "mouseover": {"state": {"target": [], "time": []}, "edge": {"target": [], "time": []}}, "mouseout": {"state": {"target": ["18", "12"], "time": [354, 637]}, "edge": {"target": [], "time": []}}}, "displayed_time": "16.01", "trialTime": 17424, "trial_type": "mouselab-mdp", "trial_index": 51, "time_elapsed": 1220099, "internal_node_id": "0.0-6.0-1.0-36.0"}}, {"uniqueid": "w86804730:a42640966", "current_trial": 52, "dateTime": 1693836108024, "trialdata": {"revealed_states": [], "clicked_states": [], "num_clicks_accrued": [0, 0, 0, 0, 0, 0, 0, 0, 0, 0, 0, 0, 0], "stateRewards": ["", -2, -1, -5, 10, -36, -70, 68, -9, 86, 71, -10, 2, -4, 7, -7, 66, 44, -66, -13, -69, 43, 15, -2, 2, 6, -13, 62, 57, 50, -10, -69, 42, -72], "withholdReward": false, "trial_id": "mdp_trial_38", "block": "test", "trialIndex": 41, "score": 38, "costs": 0, "simulationMode": [null, null, null, null, null], "rewards": [-2, 2, 6, -10, 42], "path": ["0", "0", "23", "24", "25", "30", "32"], "rt": [604, 211, 228, 200, 195], "actions": ["left", "left", "left", "down", "down"], "actionTimes": [1823, 2556, 3332, 4039, 4732], "queries": {"click": {"state": {"target": [], "time": []}, "edge": {"target": [], "time": []}}, "mouseover": {"state": {"target": [], "time": []}, "edge": {"target": [], "time": []}}, "mouseout": {"state": {"target": ["0", "26", "28", "0", "12"], "time": [8399, 10170, 10252, 10362, 10750]}, "edge": {"target": [], "time": []}}}, "displayed_time": "15.22", "trialTime": 16427, "trial_type": "mouselab-mdp", "trial_index": 52, "time_elapsed": 1237199, "internal_node_id": "0.0-6.0-1.0-37.0"}}, {"uniqueid": "w86804730:a42640966", "current_trial": 53, "dateTime": 1693836126195, "trialdata": {"revealed_states": [], "clicked_states": [], "num_clicks_accrued": [0, 0, 0, 0, 0, 0, 0, 0, 0, 0, 0, 0, 0], "stateRewards": ["", 2, 4, -5, 7, 81, 35, 6, 11, 14, -72, 42, -1, 2, 3, -7, -77, -44, -40, -15, -85, 51, -32, -2, -1, -5, 7, -74, 47, 52, 16, -49, 48, -46], "withholdReward": false, "trial_id": "mdp_trial_39", "block": "test", "trialIndex": 42, "score": -43, "costs": 0, "simulationMode": [null, null, null, null, null], "rewards": [-1, 2, 3, -15, -32], "path": ["0", "0", "12", "13", "14", "19", "22"], "rt": [2096, 263, 218, 62, 108], "actions": ["right", "right", "right", "down", "left"], "actionTimes": [4170, 4963, 5730, 6324, 6944], "queries": {"click": {"state": {"target": [], "time": []}, "edge": {"target": [], "time": []}}, "mouseover": {"state": {"target": [], "time": []}, "edge": {"target": [], "time": []}}, "mouseout": {"state": {"target": [], "time": []}, "edge": {"target": [], "time": []}}}, "displayed_time": "16.08", "trialTime": 17513, "trial_type": "mouselab-mdp", "trial_index": 53, "time_elapsed": 1255370, "internal_node_id": "0.0-6.0-1.0-38.0"}}, {"uniqueid": "w86804730:a42640966", "current_trial": 54, "dateTime": 1693836143690, "trialdata": {"revealed_states": [], "clicked_states": [], "num_clicks_accrued": [0, 0, 0, 0, 0, 0, 0, 0, 0, 0, 0, 0, 0], "stateRewards": ["", 1, 1, 5, 6, -29, -7, 3, -16, 9, -46, 65, -1, 4, -1, -16, -63, -77, -87, 8, 80, -50, 43, -1, -1, -5, 5, -38, -71, -62, 9, 81, -50, -52], "withholdReward": false, "trial_id": "mdp_trial_40", "block": "test", "trialIndex": 43, "score": 56, "costs": 0, "simulationMode": [null, null, null, null, null], "rewards": [1, 1, 5, -16, 65], "path": ["0", "0", "1", "2", "3", "8", "11"], "rt": [1303, 145, 265, 86, 50], "actions": ["up", "up", "up", "left", "left"], "actionTimes": [2860, 3570, 4392, 5014, 5583], "queries": {"click": {"state": {"target": [], "time": []}, "edge": {"target": [], "time": []}}, "mouseover": {"state": {"target": [], "time": []}, "edge": {"target": [], "time": []}}, "mouseout": {"state": {"target": [], "time": []}, "edge": {"target": [], "time": []}}}, "displayed_time": "15.56", "trialTime": 16763, "trial_type": "mouselab-mdp", "trial_index": 54, "time_elapsed": 1272863, "internal_node_id": "0.0-6.0-1.0-39.0"}}, {"uniqueid": "w86804730:a42640966", "current_trial": 55, "dateTime": 1693836210909, "trialdata": {"rt": 67190, "response": {"Q0": "$-2 to $2", "Q1": "$-4 to $4", "Q2": "$-16 to $16", "Q3": "The cost for clicking on nodes varied between nodes.", "Q4": "Slightly motivated"}, "question_order": [0, 1, 2, 3, 4], "trial_id": "final_quiz_control", "trial_type": "survey-multi-choice", "trial_index": 55, "time_elapsed": 1340082, "internal_node_id": "0.0-6.0-2.0"}}, {"uniqueid": "w86804730:a42640966", "current_trial": 56, "dateTime": 1693836273580, "trialdata": {"rt": 62507, "response": {"Q0": "Making strategic moves", "Q1": "Yes, i did not click on nodes that were previously negative", "Q2": "It was not difficult"}, "trial_id": "self_report_control", "trial_type": "survey-text", "trial_index": 56, "time_elapsed": 1402757, "internal_node_id": "0.0-6.0-3.0"}}, {"uniqueid": "w86804730:a42640966", "current_trial": 57, "dateTime": 1693836447583, "trialdata": {"rt": 173980, "response": {"Q0": "Agree", "Q1": "Neither disagree nor agree", "Q2": "Agree", "Q3": "Agree", "Q4": "Agree", "Q5": "Agree", "Q6": "Disagree"}, "question_order": [0, 1, 2, 3, 4, 5, 6], "trial_id": "self_report_2", "trial_type": "survey-multi-choice", "trial_index": 57, "time_elapsed": 1576759, "internal_node_id": "0.0-6.0-4.0"}}, {"uniqueid": "w86804730:a42640966", "current_trial": 58, "dateTime": 1693836494457, "trialdata": {"rt": 46842, "response": {"gender": "female", "age": "23", "colorblind": "0", "effort": "1"}, "trial_type": "survey-html-form", "trial_index": 58, "time_elapsed": 1623634, "internal_node_id": "0.0-6.0-5.0"}}, {"uniqueid": "w86804730:a42640966", "current_trial": 59, "dateTime": 1693836538559, "trialdata": {"rt": 44065, "response": {"Q0": "no", "Q1": "No, i did not participate in any other web of cash HIT before", "Q2": "No"}, "trial_type": "survey-text", "trial_index": 59, "time_elapsed": 1667735, "internal_node_id": "0.0-6.0-6.0"}}, {"uniqueid": "w86804730:a42640966", "current_trial": 60, "dateTime": 1693836599064, "trialdata": {"rt": 60480, "stimulus": "<h1>Completion Code Instructions (1/2)</h1>\n<br><br><br><br>\nYou have reached the end of the experiment! The completion code consists of two parts: (1) a code with 2 characters (2) a code with 6 characters. On this page, you will receive the second part of the code. The first part of the completion code will be on the next page.\n<br><br>\nThe second part of your completion code is: <b>EWEK22</b>\n<br><br>\nPlease note this down. Then, press 'Next' in order to find the first part of your completion code. Once the data has been saved, you will receive this code either in this window or in the original browser window where you started the experiment.\n <br><br>\n<h2 style='color: red;'>Note: this is <strong>NOT</strong> the full completion code. Copy this down and click 'Next' to get the full completion code on the next page.</h2>", "response": 0, "trial_type": "html-button-response", "trial_index": 60, "time_elapsed": 1728240, "internal_node_id": "0.0-6.0-7.0"}}, {"uniqueid": "w86804730:a42640966", "current_trial": 61, "dateTime": 1693836600082, "trialdata": {"success": true, "trial_type": "fullscreen", "trial_index": 61, "time_elapsed": 1729259, "internal_node_id": "0.0-7.0"}}], "questiondata": {"params": {"CODE": "C6DMOQA6", "MIN_TIME": 14, "inspectCost": 1, "startTime": "Mon Sep 04 2023 15:41:08 GMT+0200 (South Africa Standard Time)", "bonusRate": 0.002, "variance": "1_2_4_8_44", "branching": "31123"}}, "eventdata": [{"eventtype": "initialized", "value": null, "timestamp": 1693834867845, "interval": 0}, {"eventtype": "window_resize", "value": [1024, 654], "timestamp": 1693834867845, "interval": 0}, {"eventtype": "window_resize", "value": [1024, 654], "timestamp": 1693834868445, "interval": 600}, {"eventtype": "window_resize", "value": [1366, 768], "timestamp": 1693834877492, "interval": 9047}, {"eventtype": "focus", "value": "off", "timestamp": 1693835197614, "interval": 320122}, {"eventtype": "focus", "value": "on", "timestamp": 1693835197615, "interval": 1}, {"eventtype": "window_resize", "value": [1024, 654], "timestamp": 1693835197933, "interval": 318}, {"eventtype": "window_resize", "value": [1366, 768], "timestamp": 1693835200275, "interval": 2342}, {"eventtype": "window_resize", "value": [1024, 654], "timestamp": 1693836599468, "interval": 1399193}], "useragent": "Mozilla/5.0 (Windows NT 10.0; Win64; x64) AppleWebKit/537.36 (KHTML, like Gecko) Chrome/116.0.0.0 Safari/537.36", "mode": "live", "id": "w86804730:a42640966", "status": "user data saved", "Beginhit": "2023-09-04 13:41:03.574761", "Beginexp": "2023-09-04 13:41:17.410193", "Endhit": "2023-09-04 14:10:00.408672", "psiturkStatus": 3, "browser": "<redacted>", "platform": "windows", "language": "en-US"}