{"condition": 0, "counterbalance": 0, "assignmentId": "a84532244", "workerId": "w97026551", "hitId": "h87750818", "currenttrial": 61, "bonus": 0, "data": [{"uniqueid": "w97026551:a84532244", "current_trial": 0, "dateTime": 1691070847847, "trialdata": {"success": true, "trial_type": "fullscreen", "trial_index": 0, "time_elapsed": 3004, "internal_node_id": "0.0-0.0"}}, {"uniqueid": "w97026551:a84532244", "current_trial": 1, "dateTime": 1691070924305, "trialdata": {"view_history": [{"page_index": 0, "viewing_time": 76456}], "rt": 76456, "trial_id": "exp_instructions_control", "trial_type": "instructions", "trial_index": 1, "time_elapsed": 79462, "internal_node_id": "0.0-1.0"}}, {"uniqueid": "w97026551:a84532244", "current_trial": 2, "dateTime": 1691070928175, "trialdata": {"success": true, "trial_type": "fullscreen", "trial_index": 2, "time_elapsed": 83332, "internal_node_id": "0.0-2.0-0.0"}}, {"uniqueid": "w97026551:a84532244", "current_trial": 3, "dateTime": 1691071186041, "trialdata": {"view_history": [{"page_index": 0, "viewing_time": 61587}, {"page_index": 1, "viewing_time": 122680}, {"page_index": 2, "viewing_time": 23160}, {"page_index": 3, "viewing_time": 50438}], "rt": 257865, "trial_id": "mouselab_instructions_1_control", "trial_type": "instructions", "trial_index": 3, "time_elapsed": 341198, "internal_node_id": "0.0-2.0-1.0"}}, {"uniqueid": "w97026551:a84532244", "current_trial": 4, "dateTime": 1691071222791, "trialdata": {"revealed_states": [], "clicked_states": ["27", "29", "26", "28", "25", "12", "1", "2", "13", "14", "15", "18", "16", "17", "19", "21"], "num_clicks_accrued": [0, 0, 0, 0, 0, 0, 0, 0, 0, 0, 0, 0, 0], "stateRewards": ["", -10, -10, 10, 10, 10, -10, -10, -10, 10, 10, 10, -10, -10, 10, -10, 10, 10, 10, -10, 10, 10, -10, -10, 10, -10, -10, 10, 10, -10, 10, -10, -10, -10], "withholdReward": false, "trial_id": "practice_1", "block": "test", "trialIndex": 0, "score": -14.5, "costs": -8, "simulationMode": [null, null, null, null, null], "rewards": [-10, 10, -10, 10, -10], "path": ["0", "0", "23", "24", "25", "30", "33"], "rt": [28369, 298, 455, 860, 149], "actions": ["left", "left", "left", "down", "left"], "actionTimes": [29941, 30729, 31703, 33075, 33730], "queries": {"click": {"state": {"target": ["27", "29", "26", "28", "25", "12", "1", "2", "13", "14", "15", "18", "16", "17", "19", "21"], "time": [3490, 4518, 6709, 8633, 10539, 12971, 14236, 15376, 17237, 18442, 19554, 20572, 21873, 22963, 24205, 25273]}, "edge": {"target": [], "time": []}}, "mouseover": {"state": {"target": ["28", "26", "27", "26", "29", "26", "28", "26", "28", "25", "24", "24", "23", "24", "30", "0", "12", "1", "2", "18", "14", "13", "14", "15", "18", "18", "16", "17", "19", "21", "12", "0", "23", "23"], "time": [2498, 2516, 2814, 3831, 3948, 4781, 5515, 6382, 7930, 9464, 11130, 11514, 11797, 12013, 12230, 12547, 12831, 13514, 15148, 16580, 16780, 16963, 17732, 18881, 20063, 20346, 20931, 22679, 23613, 24563, 27046, 27196, 27262, 27546]}, "edge": {"target": [], "time": []}}, "mouseout": {"state": {"target": ["12", "12", "0", "0", "28", "26", "27", "27", "26", "29", "26", "28", "26", "28", "25", "24", "24", "23", "24", "30", "0", "12", "1", "2", "18", "14", "13", "13", "14", "15", "18", "18", "16", "16", "17", "19", "21", "12", "0", "23", "23", "23", "24", "25", "31"], "time": [null, 481, 548, 2381, 2515, 2531, 3560, 3815, 3865, 4698, 5482, 6131, 7880, 9298, 11114, 11164, 11747, 11947, 12097, 12464, 12647, 13463, 14698, 16513, 16613, 16797, 17286, 17647, 18814, 20030, 20096, 20896, 21925, 22646, 23413, 24513, 26813, 27179, 27229, 27362, 28163, 30712, 34312, 34579, 34712]}, "edge": {"target": [], "time": []}}}, "displayed_time": "34.23", "trialTime": 36048, "trial_type": "mouselab-mdp", "trial_index": 4, "time_elapsed": 377947, "internal_node_id": "0.0-2.0-2.0-0.0"}}, {"uniqueid": "w97026551:a84532244", "current_trial": 5, "dateTime": 1691071257054, "trialdata": {"revealed_states": [], "clicked_states": [], "num_clicks_accrued": [0, 0, 0, 0, 0, 0, 0, 0, 0, 0, 0, 0, 0], "stateRewards": ["", 10, 10, 10, 10, 10, 10, 10, 10, -10, -10, -10, 10, -10, 10, 10, 10, -10, 10, 10, -10, 10, 10, -10, 10, 10, 10, 10, -10, -10, 10, -10, 10, -10], "withholdReward": false, "trial_id": "practice_2", "block": "test", "trialIndex": 1, "score": 13.5, "costs": 0, "simulationMode": [null, null, null, null, null], "rewards": [10, -10, 10, 10, -10], "path": ["0", "0", "12", "13", "14", "15", "17"], "rt": [15615, 167, 295, 179, 53], "actions": ["right", "right", "right", "up", "right"], "actionTimes": [17306, 17970, 18782, 19481, 20039], "queries": {"click": {"state": {"target": [], "time": []}, "edge": {"target": [], "time": []}}, "mouseover": {"state": {"target": ["31", "31", "25", "26", "27", "23", "24", "25", "30", "33", "30"], "time": [9902, 10401, 10451, 10484, 10518, 11118, 11751, 12235, 12568, 12851, 15367]}, "edge": {"target": [], "time": []}}, "mouseout": {"state": {"target": ["7", "1", "0", "31", "31", "25", "26", "27", "23", "24", "25", "30", "33", "30", "30", "31"], "time": [1101, 1151, 4651, 9918, 10418, 10468, 10501, 10534, 11734, 11818, 12535, 12818, 15335, 21701, 21833, 21850]}, "edge": {"target": [], "time": []}}}, "displayed_time": "20.55", "trialTime": 34118, "trial_type": "mouselab-mdp", "trial_index": 5, "time_elapsed": 412210, "internal_node_id": "0.0-2.0-2.0-1.0"}}, {"uniqueid": "w97026551:a84532244", "current_trial": 6, "dateTime": 1691071342047, "trialdata": {"view_history": [{"page_index": 0, "viewing_time": 73108}, {"page_index": 1, "viewing_time": 11885}], "rt": 84993, "trial_id": "mouselab_instructions_2_control", "trial_type": "instructions", "trial_index": 6, "time_elapsed": 497204, "internal_node_id": "0.0-2.0-3.0"}}, {"uniqueid": "w97026551:a84532244", "current_trial": 7, "dateTime": 1691071414475, "trialdata": {"rt": 72420, "response": {"Q0": "The cost is always $2.", "Q1": "The better I perform the higher my bonus will be.", "Q2": "No, the amount of cash at each node of the web may be different each time.", "Q3": "To get the highest total score.", "Q4": "Only before moving the spider.", "Q5": "3 seconds"}, "question_order": [0, 1, 2, 3, 4, 5], "correct": {"Q0": "The cost for clicking on nodes may vary between nodes.", "Q1": "The better I perform the higher my bonus will be.", "Q2": "No, the amount of cash at each node of the web may be different each time.", "Q3": "To get the highest total score.", "Q4": "Only before moving the spider.", "Q5": "3 seconds"}, "trial_id": "mouselab_quiz_control", "trial_type": "survey-multi-choice", "trial_index": 7, "time_elapsed": 569632, "internal_node_id": "0.0-2.0-4.0"}}, {"uniqueid": "w97026551:a84532244", "current_trial": 8, "dateTime": 1691071421352, "trialdata": {"success": true, "trial_type": "fullscreen", "trial_index": 8, "time_elapsed": 576509, "internal_node_id": "0.0-2.1-0.1"}}, {"uniqueid": "w97026551:a84532244", "current_trial": 9, "dateTime": 1691071622157, "trialdata": {"view_history": [{"page_index": 0, "viewing_time": 53927}, {"page_index": 1, "viewing_time": 82693}, {"page_index": 2, "viewing_time": 31014}, {"page_index": 3, "viewing_time": 33174}], "rt": 200808, "trial_id": "mouselab_instructions_1_control", "trial_type": "instructions", "trial_index": 9, "time_elapsed": 777314, "internal_node_id": "0.0-2.1-1.1"}}, {"uniqueid": "w97026551:a84532244", "current_trial": 10, "dateTime": 1691071642030, "trialdata": {"revealed_states": [], "clicked_states": ["27", "33", "29", "17", "12", "24"], "num_clicks_accrued": [0, 0, 0, 0, 0, 0, 0, 0, 0, 0, 0, 0, 0], "stateRewards": ["", -10, -10, 10, 10, 10, -10, -10, -10, 10, 10, 10, -10, -10, 10, -10, 10, 10, 10, -10, 10, 10, -10, -10, 10, -10, -10, 10, 10, -10, 10, -10, -10, -10], "withholdReward": false, "trial_id": "practice_1", "block": "test", "trialIndex": 2, "score": -9.5, "costs": -3, "simulationMode": [null, null, null, null, null], "rewards": [-10, -10, 10, -10, 10], "path": ["0", "0", "12", "13", "14", "15", "17"], "rt": [13036, 108, 285, 44, 15], "actions": ["right", "right", "right", "up", "right"], "actionTimes": [14420, 15037, 15812, 16355, 16874], "queries": {"click": {"state": {"target": ["27", "33", "29", "17", "12", "24"], "time": [2295, 3321, 5186, 7227, 9669, 12822]}, "edge": {"target": [], "time": []}}, "mouseover": {"state": {"target": ["28", "27", "29", "33", "30", "31", "32", "31", "28", "29", "26", "17", "15", "2", "10", "12", "13", "14", "13", "12", "1", "13", "12", "12", "12", "13", "24", "24", "13", "14"], "time": [1710, 1960, 2877, 2978, 3544, 3562, 3944, 4560, 4643, 4993, 5962, 6693, 8094, 8144, 8162, 8460, 8610, 8776, 8876, 8895, 9110, 9294, 9360, 9410, 9543, 9926, 12376, 12632, 13343, 13460]}, "edge": {"target": [], "time": []}}, "mouseout": {"state": {"target": ["12", "0", "0", "28", "27", "29", "33", "30", "31", "32", "31", "28", "27", "29", "26", "17", "15", "2", "10", "12", "13", "14", "13", "12", "1", "13", "12", "12", "12", "13", "12", "24", "24", "13", "14", "22"], "time": [626, 727, 1677, 1727, 2728, 2927, 3511, 3560, 3578, 4543, 4577, 4710, 4777, 5960, 5977, 8077, 8111, 8160, 8194, 8543, 8643, 8859, 8893, 8910, 9126, 9343, 9376, 9444, 9910, 12061, 12159, 12476, 13293, 13360, 13893, 18824]}, "edge": {"target": [], "time": []}}}, "displayed_time": "17.38", "trialTime": 19708, "trial_type": "mouselab-mdp", "trial_index": 10, "time_elapsed": 797186, "internal_node_id": "0.0-2.1-2.1-0.1"}}, {"uniqueid": "w97026551:a84532244", "current_trial": 11, "dateTime": 1691071661682, "trialdata": {"revealed_states": [], "clicked_states": ["27", "25", "33", "17", "16"], "num_clicks_accrued": [0, 0, 0, 0, 0, 0, 0, 0, 0, 0, 0, 0, 0], "stateRewards": ["", 10, 10, 10, 10, 10, 10, 10, 10, -10, -10, -10, 10, -10, 10, 10, 10, -10, 10, 10, -10, 10, 10, -10, 10, 10, 10, 10, -10, -10, 10, -10, 10, -10], "withholdReward": false, "trial_id": "practice_2", "block": "test", "trialIndex": 3, "score": 31, "costs": -2.5, "simulationMode": [null, null, null, null, null], "rewards": [10, -10, 10, 10, 10], "path": ["0", "0", "12", "13", "14", "15", "16"], "rt": [9972, 254, 172, 165, 48], "actions": ["right", "right", "right", "up", "up"], "actionTimes": [12666, 13417, 14085, 14777, 15343], "queries": {"click": {"state": {"target": ["27", "25", "33", "17", "16"], "time": [3766, 6079, 7089, 8390, 9896]}, "edge": {"target": [], "time": []}}, "mouseover": {"state": {"target": ["1", "2", "27", "26", "25", "33", "25", "26", "25", "30", "33", "30", "19", "20", "17", "16", "15", "13"], "time": [3060, 3194, 3544, 4344, 4411, 4727, 5544, 5744, 5878, 6544, 6744, 7510, 7760, 7794, 8127, 9027, 10129, 10160]}, "edge": {"target": [], "time": []}}, "mouseout": {"state": {"target": ["12", "0", "1", "2", "27", "26", "25", "33", "25", "26", "25", "30", "33", "30", "19", "20", "17", "16", "15", "13", "24"], "time": [2227, 3029, 3110, 3210, 4179, 4377, 4511, 5527, 5610, 5827, 6394, 6594, 7477, 7544, 7777, 7861, 8501, 10127, 10147, 10193, 16709]}, "edge": {"target": [], "time": []}}}, "displayed_time": "15.88", "trialTime": 19480, "trial_type": "mouselab-mdp", "trial_index": 11, "time_elapsed": 816839, "internal_node_id": "0.0-2.1-2.1-1.1"}}, {"uniqueid": "w97026551:a84532244", "current_trial": 12, "dateTime": 1691071686534, "trialdata": {"view_history": [{"page_index": 0, "viewing_time": 15435}, {"page_index": 1, "viewing_time": 1590}, {"page_index": 0, "viewing_time": 5166}, {"page_index": 1, "viewing_time": 2658}], "rt": 24849, "trial_id": "mouselab_instructions_2_control", "trial_type": "instructions", "trial_index": 12, "time_elapsed": 841691, "internal_node_id": "0.0-2.1-3.1"}}, {"uniqueid": "w97026551:a84532244", "current_trial": 13, "dateTime": 1691071721134, "trialdata": {"rt": 34593, "response": {"Q0": "The cost for clicking on nodes may vary between nodes.", "Q1": "The better I perform the higher my bonus will be.", "Q2": "No, the amount of cash at each node of the web may be different each time.", "Q3": "To get the highest total score.", "Q4": "Only before moving the spider.", "Q5": "3 seconds"}, "question_order": [0, 1, 2, 3, 4, 5], "correct": {"Q0": "The cost for clicking on nodes may vary between nodes.", "Q1": "The better I perform the higher my bonus will be.", "Q2": "No, the amount of cash at each node of the web may be different each time.", "Q3": "To get the highest total score.", "Q4": "Only before moving the spider.", "Q5": "3 seconds"}, "trial_id": "mouselab_quiz_control", "trial_type": "survey-multi-choice", "trial_index": 13, "time_elapsed": 876291, "internal_node_id": "0.0-2.1-4.1"}}, {"uniqueid": "w97026551:a84532244", "current_trial": 14, "dateTime": 1691071737000, "trialdata": {"rt": 15861, "stimulus": "\n<h1> Get ready to start the game! </h1>\n\nThank you for reading the instructions. Get ready start with the 40 rounds of this game.\n<br><br>\nIf you need to take a break, feel free to take one after the end of a round, before continuing to the next one.\n<br><br>\nRemember, the more money the spider gets, the bigger your bonus will be!\n<br><br>\n<div style='text-align: center;'>Press <code>space</code> to begin.</div>\n\n<br><br>\n(If, at any point, the <code>space</code> key does not take you to the next page, click once on the text and try again.)", "response": " ", "trial_id": "mdp_ready", "trial_type": "html-keyboard-response", "trial_index": 14, "time_elapsed": 892157, "internal_node_id": "0.0-4.0-0.0"}}, {"uniqueid": "w97026551:a84532244", "current_trial": 15, "dateTime": 1691071756631, "trialdata": {"revealed_states": [], "clicked_states": ["16", "29", "25"], "num_clicks_accrued": [0, 0, 0, 0, 0, 0, 0, 0, 0, 0, 0, 0, 0], "stateRewards": ["", 1, -1, 1, 13, 31, -56, 72, 2, 41, 5, 63, -2, -3, -2, 3, -71, -26, 52, 13, -31, 24, -67, 2, -2, 5, 4, 66, 43, 72, 9, 86, -26, 44], "withholdReward": false, "trial_id": "mdp_trial_1", "block": "test", "trialIndex": 4, "score": 76.8, "costs": -4.199999999999999, "simulationMode": [null, null, null, null, null], "rewards": [2, -2, 5, 4, 72], "path": ["0", "0", "23", "24", "25", "26", "29"], "rt": [8110, 526, 381, 222, 294], "actions": ["left", "left", "left", "up", "left"], "actionTimes": [10516, 11560, 12448, 13173, 13993], "queries": {"click": {"state": {"target": ["16", "29", "25"], "time": [3250, 5053, 7234]}, "edge": {"target": [], "time": []}}, "mouseover": {"state": {"target": ["18", "16", "1", "28", "29", "26", "25", "26", "27", "26", "25", "24", "30", "24", "23"], "time": [2631, 2734, 4048, 4066, 4348, 5431, 5931, 6499, 6548, 6731, 6832, 7981, 8914, 9332, 9467]}, "edge": {"target": [], "time": []}}, "mouseout": {"state": {"target": ["12", "0", "18", "16", "1", "28", "29", "26", "25", "26", "27", "26", "25", "24", "30", "24"], "time": [1831, 1967, 2648, 3781, 4064, 4081, 5348, 5898, 6465, 6515, 6699, 6781, 7965, 7998, 9265, 9415]}, "edge": {"target": [], "time": []}}}, "displayed_time": "16.41", "trialTime": 19454, "trial_type": "mouselab-mdp", "trial_index": 15, "time_elapsed": 911788, "internal_node_id": "0.0-4.0-1.0-0.0"}}, {"uniqueid": "w97026551:a84532244", "current_trial": 16, "dateTime": 1691071783363, "trialdata": {"revealed_states": [], "clicked_states": ["15", "23", "8", "10"], "num_clicks_accrued": [0, 0, 0, 0, 0, 0, 0, 0, 0, 0, 0, 0, 0], "stateRewards": ["", 2, 3, -2, -8, -8, -41, 74, 15, -23, -80, 1, 1, 3, 3, -15, -63, -78, 67, 13, 75, -41, 86, 2, -2, 6, -3, -8, -49, 50, -6, 83, 74, 80], "withholdReward": false, "trial_id": "mdp_trial_2", "block": "test", "trialIndex": 5, "score": -76.6, "costs": -5.6, "simulationMode": [null, null, null, null, null], "rewards": [1, 3, 3, -15, -63], "path": ["0", "0", "12", "13", "14", "15", "16"], "rt": [18399, 194, 410, 88, 196], "actions": ["right", "right", "right", "up", "up"], "actionTimes": [19992, 20693, 21607, 22186, 22893], "queries": {"click": {"state": {"target": ["15", "23", "8", "10"], "time": [2875, 5563, 9645, 12497]}, "edge": {"target": [], "time": []}}, "mouseover": {"state": {"target": ["12", "15", "15", "14", "19", "12", "12", "13", "14", "13", "12", "23", "1", "2", "3", "3", "2", "2", "3", "8", "11", "3", "4", "3", "10", "10", "1", "26", "29"], "time": [2263, 2348, 2697, 3614, 3730, 3863, 4064, 4082, 4314, 4465, 5032, 5231, 6113, 6280, 6346, 6829, 7482, 7880, 8080, 9347, 10047, 11080, 11296, 11547, 11980, 12168, 13747, 17296, 17380]}, "edge": {"target": [], "time": []}}, "mouseout": {"state": {"target": ["23", "0", "12", "15", "15", "15", "14", "19", "12", "12", "13", "14", "13", "12", "23", "1", "2", "3", "3", "2", "2", "3", "8", "11", "8", "3", "4", "3", "10", "10", "1", "26"], "time": [1004, 2247, 2280, 2530, 2952, 3480, 3630, 3797, 3896, 4080, 4096, 4385, 5031, 5051, 5830, 6247, 6313, 6597, 7148, 7714, 7981, 9180, 9963, 11030, 11063, 11147, 11480, 11597, 12013, 13613, 17023, 17331]}, "edge": {"target": [], "time": []}}}, "displayed_time": "23.40", "trialTime": 26556, "trial_type": "mouselab-mdp", "trial_index": 16, "time_elapsed": 938520, "internal_node_id": "0.0-4.0-1.0-1.0"}}, {"uniqueid": "w97026551:a84532244", "current_trial": 17, "dateTime": 1691071804985, "trialdata": {"revealed_states": [], "clicked_states": ["24", "26", "29", "33"], "num_clicks_accrued": [0, 0, 0, 0, 0, 0, 0, 0, 0, 0, 0, 0, 0], "stateRewards": ["", 2, 4, 7, -6, -76, -81, 2, 5, -66, -3, 36, -2, -4, 6, -2, -69, 4, -49, -6, 67, 38, -67, 2, 1, 1, 6, -68, -21, 52, -16, -16, 6, -70], "withholdReward": false, "trial_id": "mdp_trial_3", "block": "test", "trialIndex": 6, "score": 56.4, "costs": -5.6, "simulationMode": [null, null, null, null, null], "rewards": [2, 1, 1, 6, 52], "path": ["0", "0", "23", "24", "25", "26", "29"], "rt": [11364, 92, 123, 793, 1232], "actions": ["left", "left", "left", "up", "left"], "actionTimes": [13014, 13618, 14249, 15551, 17292], "queries": {"click": {"state": {"target": ["24", "26", "29", "33"], "time": [2412, 4208, 6057, 7816]}, "edge": {"target": [], "time": []}}, "mouseover": {"state": {"target": ["23", "24", "26", "26", "29", "30", "32", "32", "30", "33", "30", "31", "25", "26", "27", "24", "31", "24", "23", "0", "19", "20", "14", "13", "12", "23", "24", "25", "26"], "time": [1809, 2092, 2907, 3260, 4574, 6357, 6407, 6657, 6907, 7240, 8323, 8440, 8957, 9007, 9274, 9774, 9975, 10273, 10790, 10809, 10857, 10974, 11108, 11190, 11240, 11307, 11523, 11724, 11957]}, "edge": {"target": [], "time": []}}, "mouseout": {"state": {"target": ["29", "26", "23", "24", "26", "26", "29", "30", "32", "32", "30", "33", "30", "31", "25", "26", "27", "24", "31", "24", "23", "0", "19", "20", "14", "13", "12", "23", "24", "25", "26"], "time": [794, 824, 1875, 2774, 3043, 4409, 6307, 6391, 6425, 6724, 7124, 8307, 8373, 8907, 8977, 9073, 9625, 9841, 10224, 10458, 10807, 10823, 10891, 11009, 11157, 11224, 11256, 11507, 11540, 11741, 11973]}, "edge": {"target": [], "time": []}}}, "displayed_time": "17.79", "trialTime": 21441, "trial_type": "mouselab-mdp", "trial_index": 17, "time_elapsed": 960141, "internal_node_id": "0.0-4.0-1.0-2.0"}}, {"uniqueid": "w97026551:a84532244", "current_trial": 18, "dateTime": 1691071831498, "trialdata": {"revealed_states": [], "clicked_states": ["1", "6", "4", "2", "24", "29"], "num_clicks_accrued": [0, 0, 0, 0, 0, 0, 0, 0, 0, 0, 0, 0, 0], "stateRewards": ["", 1, -4, 6, -3, 40, 76, -51, 5, -24, -63, 44, -2, -2, 8, 1, 76, -85, -58, 10, 59, 20, 11, -2, 3, -3, 3, -82, -10, 54, -7, -57, -6, -32], "withholdReward": false, "trial_id": "mdp_trial_4", "block": "test", "trialIndex": 7, "score": 67.6, "costs": -8.4, "simulationMode": [null, null, null, null, null], "rewards": [1, -4, 6, -3, 76], "path": ["0", "0", "1", "2", "3", "4", "6"], "rt": [18600, 131, 231, 14, 82], "actions": ["up", "up", "up", "right", "right"], "actionTimes": [20243, 20889, 21639, 22155, 22773], "queries": {"click": {"state": {"target": ["1", "6", "4", "2", "24", "29"], "time": [2735, 5879, 10269, 13340, 15482, 17401]}, "edge": {"target": [], "time": []}}, "mouseover": {"state": {"target": ["1", "14", "19", "21", "2", "10", "8", "3", "4", "6", "4", "6", "15", "20", "15", "16", "17", "16", "4", "7", "4", "4", "1", "10", "2", "2", "3", "2", "7", "13", "0", "0", "23", "24", "23", "28", "26", "29", "26", "28"], "time": [2005, 3020, 3053, 3187, 3703, 3887, 4637, 4787, 4987, 5036, 5303, 5708, 6453, 6669, 6987, 7054, 7620, 8619, 8986, 9554, 9870, 10187, 11222, 11705, 11986, 12220, 12947, 13125, 13676, 13756, 13989, 14306, 14890, 15207, 15839, 16156, 16306, 16656, 17706, 17739]}, "edge": {"target": [], "time": []}}, "mouseout": {"state": {"target": ["26", "28", "7", "18", "12", "1", "14", "19", "21", "1", "2", "10", "8", "3", "4", "6", "4", "6", "15", "20", "15", "16", "17", "16", "4", "7", "4", "4", "1", "10", "2", "2", "3", "2", "7", "13", "0", "0", "23", "24", "23", "28", "26", "29", "26", "28"], "time": [470, 487, 537, 770, 1087, 2813, 3037, 3070, 3303, 3653, 3822, 4571, 4754, 4955, 5021, 5174, 5523, 6387, 6487, 6853, 7019, 7453, 8587, 8636, 9521, 9836, 10072, 10736, 11588, 11953, 12020, 12538, 13057, 13656, 13689, 13773, 14006, 14793, 15040, 15789, 15989, 16172, 16489, 17689, 17722, 24206]}, "edge": {"target": [], "time": []}}}, "displayed_time": "23.29", "trialTime": 26334, "trial_type": "mouselab-mdp", "trial_index": 18, "time_elapsed": 986654, "internal_node_id": "0.0-4.0-1.0-3.0"}}, {"uniqueid": "w97026551:a84532244", "current_trial": 19, "dateTime": 1691071861348, "trialdata": {"revealed_states": [], "clicked_states": ["13", "17", "16", "21", "22", "33"], "num_clicks_accrued": [0, 0, 0, 0, 0, 0, 0, 0, 0, 0, 0, 0, 0], "stateRewards": ["", 2, -4, 7, 3, 23, -42, 4, 7, -81, -33, 7, -2, -4, 5, -1, 50, -57, -14, -13, -14, 44, 55, -2, -2, 5, -2, 33, 1, 57, -13, -7, 58, 87], "withholdReward": false, "trial_id": "mdp_trial_5", "block": "test", "trialIndex": 8, "score": 66.6, "costs": -8.4, "simulationMode": [null, null, null, null, null], "rewards": [-2, -2, 5, -13, 87], "path": ["0", "0", "23", "24", "25", "30", "33"], "rt": [13946, 374, 464, 734, 957], "actions": ["left", "left", "left", "down", "left"], "actionTimes": [21416, 22282, 23256, 24492, 25949], "queries": {"click": {"state": {"target": ["13", "17", "16", "21", "22", "33"], "time": [8331, 10233, 12103, 13932, 15855, 17974]}, "edge": {"target": [], "time": []}}, "mouseover": {"state": {"target": ["12", "13", "14", "13", "13", "14", "15", "17", "16", "15", "19", "21", "21", "22", "31", "33", "33", "30", "31", "0"], "time": [7540, 7590, 7859, 7924, 8175, 8724, 8907, 9008, 10724, 12374, 12423, 12441, 12840, 14441, 16207, 16442, 16708, 18389, 18673, 20646]}, "edge": {"target": [], "time": []}}, "mouseout": {"state": {"target": ["1", "0", "12", "13", "14", "13", "13", "14", "15", "17", "16", "15", "19", "21", "21", "22", "31", "33", "33", "30", "31", "0", "12", "18", "15"], "time": [1807, 2374, 7574, 7624, 7891, 7960, 8414, 8790, 8941, 10590, 12357, 12390, 12440, 12458, 14240, 16057, 16257, 16458, 18356, 18522, 20125, 28439, 28506, 28972, 29089]}, "edge": {"target": [], "time": []}}}, "displayed_time": "26.46", "trialTime": 29671, "trial_type": "mouselab-mdp", "trial_index": 19, "time_elapsed": 1016505, "internal_node_id": "0.0-4.0-1.0-4.0"}}, {"uniqueid": "w97026551:a84532244", "current_trial": 20, "dateTime": 1691071887904, "trialdata": {"revealed_states": [], "clicked_states": ["23", "27", "29", "32", "22", "21", "16", "5", "9"], "num_clicks_accrued": [0, 0, 0, 0, 0, 0, 0, 0, 0, 0, 0, 0, 0], "stateRewards": ["", -2, 2, -5, -6, 10, -66, -58, -10, -11, -63, -70, -1, -4, -5, 7, 66, -64, -43, -3, 45, -37, 4, -2, -2, -6, -4, -30, 33, 43, 15, -32, -65, -59], "withholdReward": false, "trial_id": "mdp_trial_6", "block": "test", "trialIndex": 9, "score": 50.4, "costs": -12.600000000000001, "simulationMode": [null, null, null, null, null], "rewards": [-1, -4, -5, 7, 66], "path": ["0", "0", "12", "13", "14", "15", "16"], "rt": [20132, 109, 196, 131, 122], "actions": ["right", "right", "right", "up", "up"], "actionTimes": [21866, 22487, 23190, 23824, 24450], "queries": {"click": {"state": {"target": ["23", "27", "29", "32", "22", "21", "16", "5", "9"], "time": [2415, 4202, 6142, 8095, 11001, 12997, 14879, 17063, 19322]}, "edge": {"target": [], "time": []}}, "mouseover": {"state": {"target": ["23", "26", "29", "27", "26", "29", "30", "32", "33", "30", "31", "19", "20", "19", "22", "19", "20", "21", "16", "16", "6", "4", "5", "6", "4", "3", "9", "10", "1"], "time": [2165, 2730, 2749, 3230, 4547, 4646, 6564, 6780, 8430, 8963, 9030, 10446, 10464, 10647, 10813, 11380, 11447, 12263, 13229, 13513, 15146, 15330, 15516, 18559, 18709, 18775, 19092, 19692, 21092]}, "edge": {"target": [], "time": []}}, "mouseout": {"state": {"target": ["14", "13", "12", "0", "0", "23", "26", "29", "27", "26", "29", "30", "32", "33", "30", "31", "19", "20", "19", "22", "19", "20", "21", "16", "16", "6", "4", "5", "6", "4", "3", "9", "10"], "time": [632, 697, 747, 797, 2014, 2448, 2747, 2764, 4513, 4613, 6380, 6697, 8330, 8947, 8998, 10405, 10463, 10614, 10764, 11363, 11412, 12163, 13112, 13263, 15063, 15263, 15413, 17759, 18675, 18743, 18842, 19525, 19725]}, "edge": {"target": [], "time": []}}}, "displayed_time": "24.96", "trialTime": 26369, "trial_type": "mouselab-mdp", "trial_index": 20, "time_elapsed": 1043060, "internal_node_id": "0.0-4.0-1.0-5.0"}}, {"uniqueid": "w97026551:a84532244", "current_trial": 21, "dateTime": 1691071907302, "trialdata": {"revealed_states": [], "clicked_states": ["21", "20", "5", "11", "29"], "num_clicks_accrued": [0, 0, 0, 0, 0, 0, 0, 0, 0, 0, 0, 0, 0], "stateRewards": ["", -2, 2, -5, 1, 42, -63, -58, -6, 2, 16, 81, -2, 4, 7, -10, 33, 3, -33, -2, -52, -84, -27, 2, -3, -3, 15, -74, -14, -5, -5, -84, 79, -31], "withholdReward": false, "trial_id": "mdp_trial_7", "block": "test", "trialIndex": 10, "score": 63, "costs": -7, "simulationMode": [null, null, null, null, null], "rewards": [-2, 2, -5, -6, 81], "path": ["0", "0", "1", "2", "3", "8", "11"], "rt": [11993, 701, 379, 161, 220], "actions": ["up", "up", "up", "left", "left"], "actionTimes": [13589, 14806, 15682, 16348, 17074], "queries": {"click": {"state": {"target": ["21", "20", "5", "11", "29"], "time": [2678, 4524, 6736, 8726, 10955]}, "edge": {"target": [], "time": []}}, "mouseover": {"state": {"target": ["12", "13", "21", "22", "19", "20", "17", "17", "5", "9", "9", "11", "29"], "time": [1971, 2071, 2405, 3337, 3770, 3986, 4786, 5103, 6353, 7153, 7603, 8236, 9319]}, "edge": {"target": [], "time": []}}, "mouseout": {"state": {"target": ["1", "12", "13", "21", "22", "19", "20", "17", "17", "5", "9", "9", "11"], "time": [836, 1986, 2104, 3120, 3754, 3820, 4686, 4821, 5986, 7036, 7320, 8069, 9003]}, "edge": {"target": [], "time": []}}}, "displayed_time": "17.59", "trialTime": 19196, "trial_type": "mouselab-mdp", "trial_index": 21, "time_elapsed": 1062459, "internal_node_id": "0.0-4.0-1.0-6.0"}}, {"uniqueid": "w97026551:a84532244", "current_trial": 22, "dateTime": 1691071930467, "trialdata": {"revealed_states": [], "clicked_states": ["23", "25", "33", "27", "31"], "num_clicks_accrued": [0, 0, 0, 0, 0, 0, 0, 0, 0, 0, 0, 0, 0], "stateRewards": ["", 1, 2, -8, 9, 18, -83, -11, 6, -64, -48, 17, -2, -2, -5, -3, -24, -3, -86, -2, 48, -41, -22, -2, 4, 7, 8, 81, 13, -48, 10, 61, 19, 57], "withholdReward": false, "trial_id": "mdp_trial_8", "block": "test", "trialIndex": 11, "score": 91, "costs": -7, "simulationMode": [null, null, null, null, null], "rewards": [-2, 4, 7, 8, 81], "path": ["0", "0", "23", "24", "25", "26", "27"], "rt": [14845, 396, 493, 369, 476], "actions": ["left", "left", "left", "up", "up"], "actionTimes": [16708, 17617, 18613, 19489, 20478], "queries": {"click": {"state": {"target": ["23", "25", "33", "27", "31"], "time": [3321, 5034, 6815, 8615, 10408]}, "edge": {"target": [], "time": []}}, "mouseover": {"state": {"target": ["0", "23", "24", "25", "33", "29", "26", "27", "26", "32", "31", "24", "28", "26", "28", "28"], "time": [2702, 3020, 3751, 4068, 5768, 7135, 7368, 7585, 8835, 9068, 9584, 11451, 11668, 12220, 12434, 12704]}, "edge": {"target": [], "time": []}}, "mouseout": {"state": {"target": ["29", "25", "24", "15", "17", "28", "0", "0", "23", "24", "25", "33", "29", "26", "27", "27", "26", "32", "31", "24", "28", "26", "28", "28"], "time": [569, 618, 634, 751, 785, 1184, 1553, 2752, 3668, 3901, 5285, 7018, 7318, 7484, 8690, 8818, 8868, 9551, 11337, 11485, 11955, 12403, 12451, 12918]}, "edge": {"target": [], "time": []}}}, "displayed_time": "20.99", "trialTime": 22978, "trial_type": "mouselab-mdp", "trial_index": 22, "time_elapsed": 1085624, "internal_node_id": "0.0-4.0-1.0-7.0"}}, {"uniqueid": "w97026551:a84532244", "current_trial": 23, "dateTime": 1691071956234, "trialdata": {"revealed_states": [], "clicked_states": ["2", "5", "11", "14", "17", "21", "32", "31"], "num_clicks_accrued": [0, 0, 0, 0, 0, 0, 0, 0, 0, 0, 0, 0, 0], "stateRewards": ["", 1, 1, -3, 7, 49, 78, 26, -5, 26, 48, -43, -1, -3, 2, -5, 4, -1, -60, 10, -35, 51, 81, -2, 1, -7, -5, -39, -86, -54, 4, -3, 74, 77], "withholdReward": false, "trial_id": "mdp_trial_9", "block": "test", "trialIndex": 12, "score": 58.8, "costs": -11.200000000000001, "simulationMode": [null, null, null, null, null], "rewards": [-2, 1, -7, 4, 74], "path": ["0", "0", "23", "24", "25", "30", "32"], "rt": [18741, 465, 232, 270, 146], "actions": ["left", "left", "left", "down", "down"], "actionTimes": [20315, 21301, 22051, 22823, 23481], "queries": {"click": {"state": {"target": ["2", "5", "11", "14", "17", "21", "32", "31"], "time": [2848, 4597, 6649, 8586, 10457, 12512, 14452, 16746]}, "edge": {"target": [], "time": []}}, "mouseover": {"state": {"target": ["1", "2", "2", "7", "6", "5", "6", "4", "8", "11", "11", "8", "3", "4", "16", "15", "17", "15", "14", "17", "20", "21", "33", "32", "31", "30", "33"], "time": [2165, 2231, 2511, 3364, 3464, 3647, 4980, 5080, 5130, 5149, 5480, 6864, 6883, 6930, 7147, 7197, 7651, 7868, 8168, 8817, 11035, 12269, 13334, 13617, 14667, 16967, 18334]}, "edge": {"target": [], "time": []}}, "mouseout": {"state": {"target": ["13", "12", "1", "2", "2", "7", "6", "5", "6", "4", "8", "11", "11", "8", "3", "4", "16", "15", "17", "15", "14", "17", "20", "21", "21", "33", "32", "31", "30"], "time": [1014, 1064, 2198, 2322, 3348, 3381, 3581, 4830, 5063, 5097, 5147, 5163, 6847, 6881, 6914, 7063, 7164, 7285, 7834, 8118, 8767, 10651, 11952, 12519, 12867, 13400, 14539, 16933, 17134]}, "edge": {"target": [], "time": []}}}, "displayed_time": "23.99", "trialTime": 25575, "trial_type": "mouselab-mdp", "trial_index": 23, "time_elapsed": 1111390, "internal_node_id": "0.0-4.0-1.0-8.0"}}, {"uniqueid": "w97026551:a84532244", "current_trial": 24, "dateTime": 1691071977279, "trialdata": {"revealed_states": [], "clicked_states": ["25", "15", "29", "32", "20"], "num_clicks_accrued": [0, 0, 0, 0, 0, 0, 0, 0, 0, 0, 0, 0, 0], "stateRewards": ["", -1, 3, 1, -11, -22, -36, 19, -5, -70, -52, 50, -2, -4, 4, -2, -41, -83, 29, -2, 22, 10, -6, -2, 3, -2, 14, 54, 44, 77, -9, -65, -37, -40], "withholdReward": false, "trial_id": "mdp_trial_10", "block": "test", "trialIndex": 13, "score": 83, "costs": -7, "simulationMode": [null, null, null, null, null], "rewards": [-2, 3, -2, 14, 77], "path": ["0", "0", "23", "24", "25", "26", "29"], "rt": [13006, 231, 309, 241, 235], "actions": ["left", "left", "left", "up", "left"], "actionTimes": [14494, 15230, 16042, 16807, 17552], "queries": {"click": {"state": {"target": ["25", "15", "29", "32", "20"], "time": [3470, 5608, 7405, 9639, 11518]}, "edge": {"target": [], "time": []}}, "mouseover": {"state": {"target": ["28", "25", "23", "24", "25", "24", "23", "22", "19", "20", "14", "14", "15", "18", "26", "29", "33", "33", "32", "22", "21", "20", "6", "5", "4"], "time": [1967, 2184, 2382, 2732, 3185, 3748, 3782, 4015, 4037, 4082, 4449, 4515, 5433, 5915, 5998, 6032, 7815, 8098, 8864, 10164, 10331, 10481, 11814, 12031, 13365]}, "edge": {"target": [], "time": []}}, "mouseout": {"state": {"target": ["33", "30", "31", "0", "0", "28", "25", "23", "24", "25", "24", "23", "22", "19", "20", "14", "14", "15", "18", "26", "29", "33", "33", "32", "22", "21", "20", "6", "5", "4"], "time": [649, 664, 699, 948, 1699, 2051, 2299, 2484, 3150, 3715, 3765, 3798, 4035, 4048, 4165, 4481, 5282, 5899, 5932, 6015, 7748, 7865, 8815, 9964, 10181, 10431, 11714, 11831, 13298, 13398]}, "edge": {"target": [], "time": []}}}, "displayed_time": "18.05", "trialTime": 20854, "trial_type": "mouselab-mdp", "trial_index": 24, "time_elapsed": 1132436, "internal_node_id": "0.0-4.0-1.0-9.0"}}, {"uniqueid": "w97026551:a84532244", "current_trial": 25, "dateTime": 1691072009166, "trialdata": {"revealed_states": [], "clicked_states": ["11", "7", "17", "21", "22", "33", "29", "9", "28", "5", "6"], "num_clicks_accrued": [0, 0, 0, 0, 0, 0, 0, 0, 0, 0, 0, 0, 0], "stateRewards": ["", 2, 3, -6, -5, -3, 55, 40, 11, 61, 11, 51, 2, -4, -6, 9, -25, 29, -15, -6, 7, -77, -2, -2, -4, 1, 14, -43, -1, 56, -12, -54, 41, -74], "withholdReward": false, "trial_id": "mdp_trial_11", "block": "test", "trialIndex": 14, "score": 55.599999999999994, "costs": -15.400000000000002, "simulationMode": [null, null, null, null, null], "rewards": [2, 3, -6, 11, 61], "path": ["0", "0", "1", "2", "3", "8", "9"], "rt": [25244, 188, 275, 133, 120], "actions": ["up", "up", "up", "left", "up"], "actionTimes": [26525, 27221, 28006, 28646, 29284], "queries": {"click": {"state": {"target": ["11", "7", "17", "21", "22", "33", "29", "9", "28", "5", "6"], "time": [3225, 5250, 7050, 8944, 10997, 12844, 15268, 17229, 19226, 21369, 23508]}, "edge": {"target": [], "time": []}}, "mouseover": {"state": {"target": ["1", "2", "8", "8", "11", "8", "3", "4", "7", "7", "4", "6", "16", "17", "14", "17", "17", "14", "19", "21", "22", "33", "33", "33", "32", "30", "25", "29", "29", "29", "27", "8", "9", "11", "28", "6", "5", "6"], "time": [1698, 1935, 2299, 2848, 3049, 3431, 3465, 3501, 3597, 3881, 5481, 5547, 5764, 5797, 6031, 6181, 6431, 7364, 7464, 7680, 9547, 11414, 11681, 12115, 13331, 14447, 14514, 14630, 14980, 15164, 15613, 15997, 16197, 17583, 17797, 19882, 20482, 23264]}, "edge": {"target": [], "time": []}}, "mouseout": {"state": {"target": ["13", "13", "12", "0", "1", "2", "8", "8", "11", "8", "3", "4", "7", "7", "4", "6", "16", "17", "14", "17", "17", "14", "19", "21", "22", "33", "33", "33", "32", "30", "25", "29", "29", "29", "27", "8", "9", "11", "28", "6", "5", "6"], "time": [647, 814, 881, 1567, 1714, 2264, 2315, 2864, 3249, 3448, 3481, 3565, 3665, 5431, 5497, 5564, 5780, 5831, 6114, 6214, 7331, 7414, 7514, 9147, 11114, 11431, 11732, 13064, 14398, 14480, 14547, 14764, 14997, 15530, 15897, 16013, 17397, 17613, 19330, 20249, 21751, 25063]}, "edge": {"target": [], "time": []}}}, "displayed_time": "29.80", "trialTime": 31691, "trial_type": "mouselab-mdp", "trial_index": 25, "time_elapsed": 1164322, "internal_node_id": "0.0-4.0-1.0-10.0"}}, {"uniqueid": "w97026551:a84532244", "current_trial": 26, "dateTime": 1691072039984, "trialdata": {"revealed_states": [], "clicked_states": ["17", "22", "33", "27", "6", "10", "9", "7", "20", "21", "16"], "num_clicks_accrued": [0, 0, 0, 0, 0, 0, 0, 0, 0, 0, 0, 0, 0], "stateRewards": ["", 1, 1, -7, -9, -44, 24, -83, -15, 44, -24, 72, -2, -3, 4, -5, 57, 55, 29, -11, 22, 12, -25, -1, 2, 7, 12, 33, -8, 47, -4, 8, 50, -4], "withholdReward": false, "trial_id": "mdp_trial_12", "block": "test", "trialIndex": 15, "score": 35.599999999999994, "costs": -15.400000000000002, "simulationMode": [null, null, null, null, null], "rewards": [-2, -3, 4, -5, 57], "path": ["0", "0", "12", "13", "14", "15", "16"], "rt": [24564, 142, 181, 167, 129], "actions": ["right", "right", "right", "up", "up"], "actionTimes": [26589, 27244, 27933, 28603, 29248], "queries": {"click": {"state": {"target": ["17", "22", "33", "27", "6", "10", "9", "7", "20", "21", "16"], "time": [2795, 4529, 6400, 8481, 10389, 12340, 14768, 16811, 19162, 21338, 23868]}, "edge": {"target": [], "time": []}}, "mouseover": {"state": {"target": ["12", "13", "14", "17", "14", "22", "22", "30", "33", "33", "30", "24", "27", "10", "3", "5", "6", "11", "8", "10", "5", "9", "3", "4", "7", "18", "14", "20", "21", "19", "14", "6", "16", "15", "18"], "time": [2235, 2269, 2319, 2622, 3069, 3136, 3419, 4869, 4887, 5169, 6669, 7953, 8352, 9119, 9285, 9552, 9868, 11134, 11318, 11368, 14235, 14568, 15018, 15085, 15185, 18684, 18751, 18921, 21067, 23250, 23269, 23434, 23601, 24217, 24450]}, "edge": {"target": [], "time": []}}, "mouseout": {"state": {"target": ["17", "13", "12", "0", "12", "13", "14", "17", "14", "22", "22", "30", "33", "33", "30", "24", "27", "10", "3", "5", "6", "27", "11", "8", "10", "5", "9", "3", "4", "7", "18", "14", "20", "21", "21", "19", "14", "6", "16", "15"], "time": [1185, 1236, 1385, 2222, 2252, 2286, 2353, 3036, 3103, 3169, 4802, 4885, 4902, 6652, 6685, 8053, 8836, 9135, 9402, 9784, 10651, 10751, 11168, 11334, 12618, 14251, 14985, 15051, 15101, 18652, 18700, 18785, 20118, 22651, 23234, 23267, 23284, 23468, 24134, 24284]}, "edge": {"target": [], "time": []}}}, "displayed_time": "29.75", "trialTime": 30617, "trial_type": "mouselab-mdp", "trial_index": 26, "time_elapsed": 1195140, "internal_node_id": "0.0-4.0-1.0-11.0"}}, {"uniqueid": "w97026551:a84532244", "current_trial": 27, "dateTime": 1691072071979, "trialdata": {"revealed_states": [], "clicked_states": ["29", "17", "16", "21", "20", "31", "32", "9", "10", "7", "5"], "num_clicks_accrued": [0, 0, 0, 0, 0, 0, 0, 0, 0, 0, 0, 0, 0], "stateRewards": ["", 2, 4, -3, 16, -58, 30, -35, 11, -60, 47, 27, -2, -1, -7, -16, 23, -70, 68, -10, -65, -43, -34, -2, 1, 7, 9, -63, 34, -31, -8, -12, -86, 59], "withholdReward": false, "trial_id": "mdp_trial_13", "block": "test", "trialIndex": 16, "score": 45.599999999999994, "costs": -15.400000000000002, "simulationMode": [null, null, null, null, null], "rewards": [2, 4, -3, 11, 47], "path": ["0", "0", "1", "2", "3", "8", "10"], "rt": [26144, 158, 166, 286, 159], "actions": ["up", "up", "up", "left", "down"], "actionTimes": [27398, 28068, 28743, 29547, 30219], "queries": {"click": {"state": {"target": ["29", "17", "16", "21", "20", "31", "32", "9", "10", "7", "5"], "time": [1967, 3868, 5792, 7830, 10593, 12525, 14807, 18267, 20331, 22495, 24644]}, "edge": {"target": [], "time": []}}, "mouseover": {"state": {"target": ["23", "26", "29", "29", "16", "17", "16", "15", "14", "19", "21", "22", "19", "20", "20", "22", "31", "30", "31", "32", "32", "33", "26", "8", "9", "9", "8", "10", "2", "7", "7", "5", "5", "4", "2", "1"], "time": [1468, 1534, 1567, 1803, 2400, 2967, 4317, 6017, 6050, 6084, 6200, 8118, 10102, 10133, 10384, 10783, 10833, 10851, 11233, 12750, 13149, 15149, 17216, 17382, 17745, 18142, 18826, 19425, 20558, 20609, 20925, 22991, 23225, 24908, 25091, 25675]}, "edge": {"target": [], "time": []}}, "mouseout": {"state": {"target": ["18", "0", "23", "26", "29", "29", "16", "17", "16", "15", "14", "19", "21", "22", "19", "20", "20", "22", "31", "30", "31", "32", "32", "33", "26", "8", "9", "9", "8", "10", "2", "7", "7", "5", "5", "4", "2", "1"], "time": [850, 1439, 1483, 1550, 1667, 2316, 2451, 4033, 6001, 6034, 6067, 6117, 8066, 10100, 10116, 10150, 10767, 10800, 10849, 11033, 12699, 12933, 15016, 17166, 17232, 17432, 17844, 18725, 19260, 20542, 20592, 20709, 22641, 23008, 24874, 25008, 25108, 25757]}, "edge": {"target": [], "time": []}}}, "displayed_time": "30.73", "trialTime": 31796, "trial_type": "mouselab-mdp", "trial_index": 27, "time_elapsed": 1227135, "internal_node_id": "0.0-4.0-1.0-12.0"}}, {"uniqueid": "w97026551:a84532244", "current_trial": 28, "dateTime": 1691072099836, "trialdata": {"revealed_states": [], "clicked_states": ["28", "16", "7", "9", "17", "21", "22", "20", "32"], "num_clicks_accrued": [0, 0, 0, 0, 0, 0, 0, 0, 0, 0, 0, 0, 0], "stateRewards": ["", -2, -4, 6, 14, -34, 49, 36, -8, -3, 32, -4, 1, -2, 1, -8, -20, -71, -57, -7, -86, -62, -16, -2, -3, -5, 11, 23, -21, 53, 5, -5, 85, 73], "withholdReward": false, "trial_id": "mdp_trial_14", "block": "test", "trialIndex": 17, "score": 67.4, "costs": -12.600000000000001, "simulationMode": [null, null, null, null, null], "rewards": [-2, -3, -5, 5, 85], "path": ["0", "0", "23", "24", "25", "30", "32"], "rt": [21174, 190, 114, 74, 123], "actions": ["left", "left", "left", "down", "down"], "actionTimes": [22935, 23627, 24251, 24845, 25476], "queries": {"click": {"state": {"target": ["28", "16", "7", "9", "17", "21", "22", "20", "32"], "time": [2851, 5142, 7050, 9328, 12032, 14033, 16013, 18169, 20101]}, "edge": {"target": [], "time": []}}, "mouseover": {"state": {"target": ["27", "28", "23", "13", "18", "15", "16", "6", "4", "7", "2", "10", "8", "9", "8", "10", "2", "16", "17", "20", "21", "22", "19", "20", "20", "19", "31", "32"], "time": [2392, 2705, 3153, 3504, 3920, 4654, 4987, 5469, 5637, 5869, 7303, 7371, 8887, 9219, 11219, 11304, 11485, 11535, 11819, 12936, 13370, 14419, 16252, 16285, 17869, 18386, 18553, 18668]}, "edge": {"target": [], "time": []}}, "mouseout": {"state": {"target": ["12", "12", "27", "28", "23", "13", "18", "15", "16", "6", "4", "7", "2", "10", "8", "9", "8", "10", "2", "7", "16", "17", "20", "21", "22", "19", "20", "20", "19", "31", "32"], "time": [1220, 1320, 2504, 3120, 3170, 3587, 4437, 4838, 5436, 5503, 5669, 7269, 7336, 8720, 9020, 11186, 11253, 11469, 11502, 11519, 11654, 12319, 13169, 14302, 16235, 16268, 16385, 18385, 18401, 18568, 21685]}, "edge": {"target": [], "time": []}}}, "displayed_time": "25.99", "trialTime": 27648, "trial_type": "mouselab-mdp", "trial_index": 28, "time_elapsed": 1254992, "internal_node_id": "0.0-4.0-1.0-13.0"}}, {"uniqueid": "w97026551:a84532244", "current_trial": 29, "dateTime": 1691072118316, "trialdata": {"revealed_states": [], "clicked_states": ["31", "27", "10", "7"], "num_clicks_accrued": [0, 0, 0, 0, 0, 0, 0, 0, 0, 0, 0, 0, 0], "stateRewards": ["", 2, 3, -3, 4, 72, -28, 34, -12, 57, -64, -15, 2, 1, -4, -15, 2, 49, 31, -1, -42, -58, 31, -2, 1, -2, -13, -75, -19, -22, -6, 61, 10, -56], "withholdReward": false, "trial_id": "mdp_trial_15", "block": "test", "trialIndex": 18, "score": 46.4, "costs": -5.6, "simulationMode": [null, null, null, null, null], "rewards": [-2, 1, -2, -6, 61], "path": ["0", "0", "23", "24", "25", "30", "31"], "rt": [11127, 47, 127, 41, 47], "actions": ["left", "left", "left", "down", "right"], "actionTimes": [14085, 14635, 15283, 15830, 16370], "queries": {"click": {"state": {"target": ["31", "27", "10", "7"], "time": [3673, 6109, 8155, 11170]}, "edge": {"target": [], "time": []}}, "mouseover": {"state": {"target": ["31", "24", "27", "11", "27", "10", "2", "7", "7"], "time": [3442, 4187, 4337, 4454, 4739, 7903, 10639, 10771, 10976]}, "edge": {"target": [], "time": []}}, "mouseout": {"state": {"target": ["0", "31", "24", "27", "11", "27", "10", "2", "7", "7"], "time": [3155, 4137, 4239, 4421, 4621, 6213, 10638, 10704, 10787, 11262]}, "edge": {"target": [], "time": []}}}, "displayed_time": "16.96", "trialTime": 18266, "trial_type": "mouselab-mdp", "trial_index": 29, "time_elapsed": 1273473, "internal_node_id": "0.0-4.0-1.0-14.0"}}, {"uniqueid": "w97026551:a84532244", "current_trial": 30, "dateTime": 1691072144208, "trialdata": {"revealed_states": [], "clicked_states": ["6", "10", "22", "17", "18", "16", "20", "33"], "num_clicks_accrued": [0, 0, 0, 0, 0, 0, 0, 0, 0, 0, 0, 0, 0], "stateRewards": ["", 1, -2, 4, 7, -43, -83, -60, -5, -86, -80, 83, -1, -2, 6, 11, -15, 21, 13, 9, 29, -49, 11, -1, 4, -6, -11, 87, 40, 63, -8, -39, -11, 62], "withholdReward": false, "trial_id": "mdp_trial_16", "block": "test", "trialIndex": 19, "score": 39.8, "costs": -11.200000000000001, "simulationMode": [null, null, null, null, null], "rewards": [-1, 4, -6, -8, 62], "path": ["0", "0", "23", "24", "25", "30", "33"], "rt": [19139, 180, 597, 193, 183], "actions": ["left", "left", "left", "down", "left"], "actionTimes": [20823, 21508, 22608, 23302, 23994], "queries": {"click": {"state": {"target": ["6", "10", "22", "17", "18", "16", "20", "33"], "time": [2887, 5228, 7089, 9180, 11446, 13955, 15888, 17891]}, "edge": {"target": [], "time": []}}, "mouseover": {"state": {"target": ["6", "6", "5", "9", "9", "8", "10", "1", "19", "21", "21", "22", "20", "17", "16", "16", "15", "18", "14", "20", "15", "16", "20", "19", "22", "30", "33", "32"], "time": [2011, 2811, 3560, 3943, 4193, 4777, 4977, 5526, 5593, 5611, 6044, 6392, 8428, 8628, 9642, 10727, 11150, 11311, 12042, 12226, 13392, 13778, 14810, 16128, 16168, 16559, 16675, 18143]}, "edge": {"target": [], "time": []}}, "mouseout": {"state": {"target": ["12", "0", "6", "6", "5", "9", "9", "8", "10", "1", "19", "21", "21", "22", "20", "17", "16", "16", "15", "18", "14", "20", "15", "16", "20", "19", "22", "30", "33"], "time": [1093, 1460, 2077, 3443, 3910, 3960, 4744, 4830, 5493, 5543, 5609, 5626, 6093, 7310, 8445, 9543, 9759, 11026, 11211, 12009, 12093, 13376, 13409, 14176, 16111, 16166, 16178, 16642, 18125]}, "edge": {"target": [], "time": []}}}, "displayed_time": "24.49", "trialTime": 25691, "trial_type": "mouselab-mdp", "trial_index": 30, "time_elapsed": 1299365, "internal_node_id": "0.0-4.0-1.0-15.0"}}, {"uniqueid": "w97026551:a84532244", "current_trial": 31, "dateTime": 1691072167665, "trialdata": {"revealed_states": [], "clicked_states": ["2", "6", "10", "11", "5", "33", "32"], "num_clicks_accrued": [0, 0, 0, 0, 0, 0, 0, 0, 0, 0, 0, 0, 0], "stateRewards": ["", 1, 2, -3, -6, 50, -7, 7, -7, -80, 21, -1, 2, 2, 4, -1, 33, 84, 1, 14, -53, 81, 6, -2, -2, -3, -9, -87, -38, -59, -5, -74, -3, -71], "withholdReward": false, "trial_id": "mdp_trial_17", "block": "test", "trialIndex": 20, "score": 34.2, "costs": -9.8, "simulationMode": [null, null, null, null, null], "rewards": [1, 2, -3, -6, 50], "path": ["0", "0", "1", "2", "3", "4", "5"], "rt": [17248, 85, 240, 25, 151], "actions": ["up", "up", "up", "right", "up"], "actionTimes": [18693, 19279, 20031, 20569, 21256], "queries": {"click": {"state": {"target": ["2", "6", "10", "11", "5", "33", "32"], "time": [2055, 4405, 6816, 9173, 11680, 14537, 16782]}, "edge": {"target": [], "time": []}}, "mouseover": {"state": {"target": ["1", "2", "7", "7", "4", "6", "7", "10", "10", "10", "2", "7", "5", "11", "8", "5", "4", "4", "5", "2", "33", "33", "33", "30", "32"], "time": [1706, 1807, 2489, 2839, 2939, 3055, 4689, 5572, 6255, 6757, 7789, 7855, 8072, 9006, 9455, 9505, 11106, 11421, 11540, 11988, 12105, 12355, 12539, 14821, 15093]}, "edge": {"target": [], "time": []}}, "mouseout": {"state": {"target": ["32", "12", "13", "15", "1", "2", "7", "7", "4", "6", "7", "10", "10", "10", "2", "7", "5", "11", "8", "5", "4", "4", "5", "5", "2", "33", "33", "33", "30", "32"], "time": [573, 655, 671, 839, 1756, 2472, 2506, 2856, 2955, 4672, 4705, 5672, 6455, 7723, 7822, 7872, 8605, 9438, 9471, 11072, 11139, 11488, 11776, 11955, 12005, 12122, 12389, 14788, 14838, 17021]}, "edge": {"target": [], "time": []}}}, "displayed_time": "21.77", "trialTime": 23246, "trial_type": "mouselab-mdp", "trial_index": 31, "time_elapsed": 1322822, "internal_node_id": "0.0-4.0-1.0-16.0"}}, {"uniqueid": "w97026551:a84532244", "current_trial": 32, "dateTime": 1691072186069, "trialdata": {"revealed_states": [], "clicked_states": ["17", "21", "31", "29", "10"], "num_clicks_accrued": [0, 0, 0, 0, 0, 0, 0, 0, 0, 0, 0, 0, 0], "stateRewards": ["", 2, -4, 4, 9, 69, 9, -75, 12, -86, 66, 25, -1, 3, 2, -13, -88, -3, 1, 4, -69, 49, -84, 2, -1, 4, 2, -18, -81, -52, -15, -69, -54, 25], "withholdReward": false, "trial_id": "mdp_trial_18", "block": "test", "trialIndex": 21, "score": 73, "costs": -7, "simulationMode": [null, null, null, null, null], "rewards": [2, -4, 4, 12, 66], "path": ["0", "0", "1", "2", "3", "8", "10"], "rt": [12539, 6, 206, 298, 164], "actions": ["up", "up", "up", "left", "down"], "actionTimes": [13779, 14297, 15014, 15823, 16489], "queries": {"click": {"state": {"target": ["17", "21", "31", "29", "10"], "time": [2027, 4267, 6735, 9056, 10934]}, "edge": {"target": [], "time": []}}, "mouseover": {"state": {"target": ["12", "15", "17", "15", "16", "15", "19", "21", "31", "25", "29", "2", "3", "3", "10", "2", "7"], "time": [1510, 1577, 1827, 2643, 3027, 3310, 3894, 4177, 6596, 8662, 8893, 9876, 9926, 10182, 10243, 11243, 11606]}, "edge": {"target": [], "time": []}}, "mouseout": {"state": {"target": ["0", "0", "12", "15", "17", "15", "16", "15", "19", "21", "31", "31", "25", "29", "2", "3", "3", "10", "2"], "time": [793, 1495, 1527, 1593, 2577, 2927, 3044, 3361, 3944, 4444, 6993, 8529, 8760, 9776, 9909, 9976, 10199, 11222, 11289]}, "edge": {"target": [], "time": []}}}, "displayed_time": "17.01", "trialTime": 18190, "trial_type": "mouselab-mdp", "trial_index": 32, "time_elapsed": 1341226, "internal_node_id": "0.0-4.0-1.0-17.0"}}, {"uniqueid": "w97026551:a84532244", "current_trial": 33, "dateTime": 1691072205409, "trialdata": {"revealed_states": [], "clicked_states": ["7", "3", "29"], "num_clicks_accrued": [0, 0, 0, 0, 0, 0, 0, 0, 0, 0, 0, 0, 0], "stateRewards": ["", -2, -4, 2, 10, -17, 18, 73, 11, -32, 23, -13, -2, -4, 7, 12, -25, 66, -23, 15, 40, -76, -9, 1, 2, -7, -5, -20, 24, 3, -5, 16, -73, 70], "withholdReward": false, "trial_id": "mdp_trial_19", "block": "test", "trialIndex": 22, "score": 74.8, "costs": -4.199999999999999, "simulationMode": [null, null, null, null, null], "rewards": [-2, -4, 2, 10, 73], "path": ["0", "0", "1", "2", "3", "4", "7"], "rt": [11106, 240, 303, 200, 375], "actions": ["up", "up", "up", "right", "down"], "actionTimes": [13898, 14634, 15446, 16160, 17053], "queries": {"click": {"state": {"target": ["7", "3", "29"], "time": [4179, 8475, 11967]}, "edge": {"target": [], "time": []}}, "mouseover": {"state": {"target": ["1", "10", "7", "7", "15", "17", "3", "4", "4", "3", "2", "12", "1", "10", "8", "11", "27", "29"], "time": [3162, 3709, 3759, 4060, 4509, 5026, 7676, 7960, 8193, 8242, 9242, 9392, 10359, 10475, 10592, 10676, 11592, 11789]}, "edge": {"target": [], "time": []}}, "mouseout": {"state": {"target": ["7", "0", "0", "1", "10", "7", "7", "15", "17", "3", "4", "4", "3", "2", "12", "1", "10", "8", "11", "27", "29"], "time": [2042, 2176, 2492, 3266, 3725, 3876, 4460, 4526, 7542, 7943, 7993, 8225, 9226, 9292, 9427, 10376, 10492, 10609, 11559, 11609, 18175]}, "edge": {"target": [], "time": []}}}, "displayed_time": "17.56", "trialTime": 19118, "trial_type": "mouselab-mdp", "trial_index": 33, "time_elapsed": 1360566, "internal_node_id": "0.0-4.0-1.0-18.0"}}, {"uniqueid": "w97026551:a84532244", "current_trial": 34, "dateTime": 1691072223052, "trialdata": {"revealed_states": [], "clicked_states": ["16"], "num_clicks_accrued": [0, 0, 0, 0, 0, 0, 0, 0, 0, 0, 0, 0, 0], "stateRewards": ["", -2, 4, -7, -3, -76, 39, -28, 10, 14, 12, 60, 2, -3, 6, -10, 88, -34, -41, -3, 72, -13, -56, 1, 3, 2, 8, -51, 23, -57, 1, 14, -46, -16], "withholdReward": false, "trial_id": "mdp_trial_20", "block": "test", "trialIndex": 23, "score": 81.6, "costs": -1.4, "simulationMode": [null, null, null, null, null], "rewards": [2, -3, 6, -10, 88], "path": ["0", "0", "12", "13", "14", "15", "16"], "rt": [5099, 227, 286, 158, 118], "actions": ["right", "right", "right", "up", "up"], "actionTimes": [6902, 7641, 8434, 9105, 9732], "queries": {"click": {"state": {"target": ["16"], "time": [2781]}, "edge": {"target": [], "time": []}}, "mouseover": {"state": {"target": ["18", "15", "16", "20", "13", "14"], "time": [2246, 2264, 2612, 3562, 5432, 6031]}, "edge": {"target": [], "time": []}}, "mouseout": {"state": {"target": ["33", "30", "24", "12", "12", "0", "0", "18", "15", "16", "20", "13", "14"], "time": [862, 878, 895, 1045, 1212, 1262, 2212, 2262, 2296, 3062, 5363, 5996, 6279]}, "edge": {"target": [], "time": []}}}, "displayed_time": "15.81", "trialTime": 17431, "trial_type": "mouselab-mdp", "trial_index": 34, "time_elapsed": 1378208, "internal_node_id": "0.0-4.0-1.0-19.0"}}, {"uniqueid": "w97026551:a84532244", "current_trial": 35, "dateTime": 1691072239627, "trialdata": {"revealed_states": [], "clicked_states": ["21", "20", "13", "16"], "num_clicks_accrued": [0, 0, 0, 0, 0, 0, 0, 0, 0, 0, 0, 0, 0], "stateRewards": ["", -1, 3, 1, -7, 56, 76, 57, 3, 11, -9, 14, 1, -2, 2, 8, -77, -3, 79, -5, 88, 24, -66, -2, -1, 7, -7, -30, 14, -76, 11, -36, 28, -6], "withholdReward": false, "trial_id": "mdp_trial_21", "block": "test", "trialIndex": 24, "score": 78.4, "costs": -5.6, "simulationMode": [null, null, null, null, null], "rewards": [1, -2, 2, -5, 88], "path": ["0", "0", "12", "13", "14", "19", "20"], "rt": [10385, 159, 242, 209, 115], "actions": ["right", "right", "right", "down", "right"], "actionTimes": [11861, 12525, 13275, 13991, 14614], "queries": {"click": {"state": {"target": ["21", "20", "13", "16"], "time": [2266, 4349, 7357, 9973]}, "edge": {"target": [], "time": []}}, "mouseover": {"state": {"target": ["19", "20", "21", "20", "19", "33", "0", "12", "13", "15", "16"], "time": [1599, 1616, 2015, 4103, 4481, 5250, 6832, 6850, 6866, 9315, 9550]}, "edge": {"target": [], "time": []}}, "mouseout": {"state": {"target": ["14", "13", "12", "0", "19", "20", "21", "20", "19", "33", "0", "12", "13", "15"], "time": [648, 798, 915, 1549, 1614, 1631, 2498, 4393, 4498, 6798, 6848, 6864, 7422, 9397]}, "edge": {"target": [], "time": []}}}, "displayed_time": "15.48", "trialTime": 16328, "trial_type": "mouselab-mdp", "trial_index": 35, "time_elapsed": 1394783, "internal_node_id": "0.0-4.0-1.0-20.0"}}, {"uniqueid": "w97026551:a84532244", "current_trial": 36, "dateTime": 1691072259939, "trialdata": {"revealed_states": [], "clicked_states": ["33", "27", "17", "5", "21", "20"], "num_clicks_accrued": [0, 0, 0, 0, 0, 0, 0, 0, 0, 0, 0, 0, 0], "stateRewards": ["", -1, 3, 8, 10, -86, 61, -36, 10, 17, -60, 24, -1, -3, 3, 11, 50, 60, 33, -3, -20, 58, -6, 1, -4, -4, 13, -70, -71, 43, 14, 52, 82, -11], "withholdReward": false, "trial_id": "mdp_trial_22", "block": "test", "trialIndex": 25, "score": 61.6, "costs": -8.4, "simulationMode": [null, null, null, null, null], "rewards": [-1, -3, 3, 11, 60], "path": ["0", "0", "12", "13", "14", "15", "17"], "rt": [14384, 150, 100, 87, 76], "actions": ["right", "right", "right", "up", "right"], "actionTimes": [15523, 16187, 16803, 17408, 17995], "queries": {"click": {"state": {"target": ["33", "27", "17", "5", "21", "20"], "time": [2587, 4429, 6322, 8783, 10708, 13149]}, "edge": {"target": [], "time": []}}, "mouseover": {"state": {"target": ["24", "25", "33", "29", "27", "28", "12", "13", "17", "16", "4", "5", "6", "15", "20", "21", "13", "19", "20", "20", "14", "15", "15"], "time": [1719, 1768, 2285, 2802, 3019, 4635, 4702, 4720, 5151, 6501, 6551, 7218, 9218, 9301, 9351, 9618, 11034, 12702, 12751, 12968, 13384, 13434, 13617]}, "edge": {"target": [], "time": []}}, "mouseout": {"state": {"target": ["16", "0", "24", "25", "33", "29", "27", "28", "12", "13", "17", "16", "4", "5", "6", "15", "20", "21", "13", "19", "20", "20", "14", "15", "15", "15", "13"], "time": [602, 1524, 1735, 2235, 2752, 2835, 4589, 4652, 4718, 4735, 6468, 6518, 6602, 9169, 9234, 9318, 9368, 10918, 11235, 12735, 12819, 13332, 13401, 13467, 13717, 19251, 19284]}, "edge": {"target": [], "time": []}}}, "displayed_time": "18.50", "trialTime": 20077, "trial_type": "mouselab-mdp", "trial_index": 36, "time_elapsed": 1415095, "internal_node_id": "0.0-4.0-1.0-21.0"}}, {"uniqueid": "w97026551:a84532244", "current_trial": 37, "dateTime": 1691072279671, "trialdata": {"revealed_states": [], "clicked_states": ["6", "10", "33", "27"], "num_clicks_accrued": [0, 0, 0, 0, 0, 0, 0, 0, 0, 0, 0, 0, 0], "stateRewards": ["", -1, 4, -8, 12, 14, 69, -8, 5, -72, -14, 56, -1, -1, -1, 9, 67, 19, 11, -9, -88, -58, 3, 2, -4, -8, 4, 62, 77, -74, 5, -31, 65, 88], "withholdReward": false, "trial_id": "mdp_trial_23", "block": "test", "trialIndex": 26, "score": 77.4, "costs": -5.6, "simulationMode": [null, null, null, null, null], "rewards": [2, -4, -8, 5, 88], "path": ["0", "0", "23", "24", "25", "30", "33"], "rt": [13539, 220, 166, 103, 176], "actions": ["left", "left", "left", "down", "left"], "actionTimes": [15114, 15836, 16515, 17153, 17841], "queries": {"click": {"state": {"target": ["6", "10", "33", "27"], "time": [2773, 5369, 7605, 11973]}, "edge": {"target": [], "time": []}}, "mouseover": {"state": {"target": ["1", "7", "4", "6", "4", "3", "8", "10", "10", "26", "29", "33", "24", "23", "1", "1", "24", "25", "26", "27", "28", "23", "24"], "time": [1965, 1998, 2083, 2400, 3082, 3181, 4131, 4332, 5189, 5681, 5914, 7515, 8032, 8081, 8197, 10282, 10547, 10766, 11266, 11499, 12431, 12747, 14247]}, "edge": {"target": [], "time": []}}, "mouseout": {"state": {"target": ["0", "23", "1", "7", "4", "6", "4", "3", "8", "10", "10", "26", "29", "33", "24", "23", "1", "1", "24", "25", "26", "27", "28", "23", "24"], "time": [948, 1015, 1981, 2049, 2133, 3049, 3148, 3265, 4264, 4382, 5598, 5881, 7264, 7706, 8047, 8131, 8214, 10314, 10583, 11147, 11431, 12364, 12526, 14214, 14585]}, "edge": {"target": [], "time": []}}}, "displayed_time": "18.35", "trialTime": 19507, "trial_type": "mouselab-mdp", "trial_index": 37, "time_elapsed": 1434828, "internal_node_id": "0.0-4.0-1.0-22.0"}}, {"uniqueid": "w97026551:a84532244", "current_trial": 38, "dateTime": 1691072296721, "trialdata": {"revealed_states": [], "clicked_states": ["5", "3", "11", "21"], "num_clicks_accrued": [0, 0, 0, 0, 0, 0, 0, 0, 0, 0, 0, 0, 0], "stateRewards": ["", -1, 2, -2, 5, 80, -61, -27, 12, 44, -26, -75, -2, -4, 1, -16, 42, -49, -50, 4, -44, 2, 80, -2, -2, 5, -2, 59, 10, 24, 7, -48, -86, -44], "withholdReward": false, "trial_id": "mdp_trial_24", "block": "test", "trialIndex": 27, "score": 78.4, "costs": -5.6, "simulationMode": [null, null, null, null, null], "rewards": [-1, 2, -2, 5, 80], "path": ["0", "0", "1", "2", "3", "4", "5"], "rt": [10997, 150, 107, 153, 115], "actions": ["up", "up", "up", "right", "up"], "actionTimes": [12545, 13187, 13811, 14474, 15104], "queries": {"click": {"state": {"target": ["5", "3", "11", "21"], "time": [2634, 6480, 8289, 10166]}, "edge": {"target": [], "time": []}}, "mouseover": {"state": {"target": ["7", "5", "27", "3", "4", "4", "3", "8", "9", "8", "3", "8", "11", "10", "1", "12", "19", "21", "22"], "time": [2120, 2457, 3453, 5120, 5138, 5471, 5520, 5653, 5855, 6121, 6254, 6720, 6820, 8519, 8586, 8669, 8919, 9337, 10653]}, "edge": {"target": [], "time": []}}, "mouseout": {"state": {"target": ["0", "7", "5", "27", "3", "4", "4", "3", "8", "9", "8", "3", "8", "11", "10", "1", "12", "19", "21"], "time": [1373, 2137, 2803, 5069, 5137, 5170, 5504, 5636, 5736, 6088, 6203, 6653, 6753, 8503, 8553, 8619, 8719, 9287, 10519]}, "edge": {"target": [], "time": []}}}, "displayed_time": "15.62", "trialTime": 16831, "trial_type": "mouselab-mdp", "trial_index": 38, "time_elapsed": 1451878, "internal_node_id": "0.0-4.0-1.0-23.0"}}, {"uniqueid": "w97026551:a84532244", "current_trial": 39, "dateTime": 1691072314787, "trialdata": {"revealed_states": [], "clicked_states": ["17", "21", "31", "29"], "num_clicks_accrued": [0, 0, 0, 0, 0, 0, 0, 0, 0, 0, 0, 0, 0], "stateRewards": ["", -1, -3, 1, 13, -64, -29, 12, -4, -33, 50, 56, 2, -3, 4, 11, -64, -58, -55, 12, 47, 38, -25, -2, 2, 5, -15, 85, 7, 84, 10, 8, 57, 26], "withholdReward": false, "trial_id": "mdp_trial_25", "block": "test", "trialIndex": 28, "score": 68.4, "costs": -5.6, "simulationMode": [null, null, null, null, null], "rewards": [-2, 2, 5, -15, 84], "path": ["0", "0", "23", "24", "25", "26", "29"], "rt": [12273, 103, 111, 94, 121], "actions": ["left", "left", "left", "up", "left"], "actionTimes": [13772, 14386, 15011, 15630, 16270], "queries": {"click": {"state": {"target": ["17", "21", "31", "29"], "time": [2496, 4427, 8228, 10310]}, "edge": {"target": [], "time": []}}, "mouseover": {"state": {"target": ["0", "14", "17", "12", "21", "21", "22", "31", "22", "19", "20", "14", "13", "12", "0", "31", "23", "28", "29", "28", "28", "28", "24"], "time": [1871, 1964, 2132, 2731, 3298, 3631, 4798, 5233, 6481, 6803, 6915, 7331, 7364, 7414, 7465, 8107, 8730, 9498, 9831, 11980, 12399, 12964, 13030]}, "edge": {"target": [], "time": []}}, "mouseout": {"state": {"target": ["22", "22", "14", "17", "18", "0", "14", "17", "12", "21", "21", "22", "31", "22", "19", "20", "14", "13", "12", "0", "31", "23", "28", "29", "28", "28", "28", "24"], "time": [513, 613, 629, 780, 830, 1899, 1981, 2681, 2748, 3314, 4614, 4948, 6431, 6498, 6867, 7265, 7348, 7398, 7431, 7481, 8365, 8797, 9564, 11013, 12165, 12430, 13014, 13047]}, "edge": {"target": [], "time": []}}}, "displayed_time": "16.78", "trialTime": 17825, "trial_type": "mouselab-mdp", "trial_index": 39, "time_elapsed": 1469944, "internal_node_id": "0.0-4.0-1.0-24.0"}}, {"uniqueid": "w97026551:a84532244", "current_trial": 40, "dateTime": 1691072342520, "trialdata": {"revealed_states": [], "clicked_states": ["9", "11", "33", "6", "21", "22", "7", "10", "28"], "num_clicks_accrued": [0, 0, 0, 0, 0, 0, 0, 0, 0, 0, 0, 0, 0], "stateRewards": ["", -1, -3, -7, -7, -76, 30, -49, 11, -70, 56, 2, 1, 4, -3, -14, -59, -83, -25, -9, -21, -67, -73, -2, 4, 4, -9, -11, -32, 60, 9, -87, 22, -64], "withholdReward": false, "trial_id": "mdp_trial_26", "block": "test", "trialIndex": 29, "score": 43.4, "costs": -12.600000000000001, "simulationMode": [null, null, null, null, null], "rewards": [-1, -3, -7, 11, 56], "path": ["0", "0", "1", "2", "3", "8", "10"], "rt": [21132, 47, 245, 797, 291], "actions": ["up", "up", "up", "left", "down"], "actionTimes": [22572, 23130, 23911, 25213, 26024], "queries": {"click": {"state": {"target": ["9", "11", "33", "6", "21", "22", "7", "10", "28"], "time": [2500, 4959, 6797, 9387, 11288, 13476, 15401, 17885, 20566]}, "edge": {"target": [], "time": []}}, "mouseover": {"state": {"target": ["9", "11", "26", "25", "25", "30", "33", "21", "20", "19", "20", "15", "6", "6", "15", "20", "21", "22", "12", "22", "13", "18", "10", "7", "10", "28"], "time": [2317, 4636, 5352, 5554, 5649, 5766, 5900, 7150, 7450, 7599, 7716, 8850, 8983, 9249, 9716, 9815, 10166, 11615, 11649, 13267, 13699, 13732, 14132, 14582, 17715, 20349]}, "edge": {"target": [], "time": []}}, "mouseout": {"state": {"target": ["12", "16", "1", "23", "23", "23", "9", "11", "11", "26", "25", "25", "30", "33", "21", "20", "19", "20", "15", "6", "6", "15", "20", "21", "22", "12", "22", "13", "18", "10", "7", "10", "10"], "time": [234, 666, 734, 817, 933, 984, 4550, 5032, 5183, 5386, 5586, 5733, 5783, 7021, 7168, 7466, 7667, 8800, 8884, 9016, 9682, 9732, 9832, 11582, 11632, 11966, 13557, 13716, 13866, 14266, 15665, 17895, 19299]}, "edge": {"target": [], "time": []}}}, "displayed_time": "26.53", "trialTime": 27495, "trial_type": "mouselab-mdp", "trial_index": 40, "time_elapsed": 1497676, "internal_node_id": "0.0-4.0-1.0-25.0"}}, {"uniqueid": "w97026551:a84532244", "current_trial": 41, "dateTime": 1691072359515, "trialdata": {"revealed_states": [], "clicked_states": ["6", "29", "32"], "num_clicks_accrued": [0, 0, 0, 0, 0, 0, 0, 0, 0, 0, 0, 0, 0], "stateRewards": ["", 2, -2, -8, 9, -20, 55, -58, 14, 42, 2, 36, 1, -3, -5, 5, -58, 57, 60, 16, 57, 30, -70, -2, 1, 3, 10, 59, 23, 77, -13, -26, 88, -72], "withholdReward": false, "trial_id": "mdp_trial_27", "block": "test", "trialIndex": 30, "score": 72.8, "costs": -4.199999999999999, "simulationMode": [null, null, null, null, null], "rewards": [-2, 1, 3, -13, 88], "path": ["0", "0", "23", "24", "25", "30", "32"], "rt": [8823, 117, 183, 43, 130], "actions": ["left", "left", "left", "down", "down"], "actionTimes": [10292, 10922, 11621, 12182, 12835], "queries": {"click": {"state": {"target": ["6", "29", "32"], "time": [2137, 3973, 6838]}, "edge": {"target": [], "time": []}}, "mouseover": {"state": {"target": ["6", "6", "26", "29", "29", "33", "32", "20", "20", "19"], "time": [1754, 2054, 2404, 2753, 3053, 4437, 5286, 7653, 7936, 9436]}, "edge": {"target": [], "time": []}}, "mouseout": {"state": {"target": ["28", "7", "18", "12", "0", "6", "6", "26", "29", "29", "33", "32", "20", "20", "19"], "time": [458, 820, 1003, 1053, 1620, 1854, 2337, 2420, 2819, 4203, 5003, 7020, 7803, 9403, 9453]}, "edge": {"target": [], "time": []}}}, "displayed_time": "15.48", "trialTime": 16745, "trial_type": "mouselab-mdp", "trial_index": 41, "time_elapsed": 1514671, "internal_node_id": "0.0-4.0-1.0-26.0"}}, {"uniqueid": "w97026551:a84532244", "current_trial": 42, "dateTime": 1691072379453, "trialdata": {"revealed_states": [], "clicked_states": ["17", "5", "33", "24"], "num_clicks_accrued": [0, 0, 0, 0, 0, 0, 0, 0, 0, 0, 0, 0, 0], "stateRewards": ["", 1, -2, -3, 14, -42, -87, -37, -11, -50, 33, -44, -2, 4, -7, 13, 48, -75, -66, 12, 23, -2, 82, 1, -4, 3, 12, 51, -15, -26, -11, -52, -29, 82], "withholdReward": false, "trial_id": "mdp_trial_28", "block": "test", "trialIndex": 31, "score": 65.4, "costs": -5.6, "simulationMode": [null, null, null, null, null], "rewards": [1, -4, 3, -11, 82], "path": ["0", "0", "23", "24", "25", "30", "33"], "rt": [10745, 198, 310, 727, 1611], "actions": ["left", "left", "left", "down", "left"], "actionTimes": [12627, 13332, 14177, 15410, 17527], "queries": {"click": {"state": {"target": ["17", "5", "33", "24"], "time": [3204, 5085, 7180, 9978]}, "edge": {"target": [], "time": []}}, "mouseover": {"state": {"target": ["16", "15", "17", "4", "5", "5", "11", "26", "25", "30", "33", "32", "30", "24"], "time": [2717, 2834, 2999, 3699, 4015, 4382, 5399, 5632, 5715, 5949, 6099, 7499, 9282, 9799]}, "edge": {"target": [], "time": []}}, "mouseout": {"state": {"target": ["12", "12", "0", "16", "15", "17", "4", "5", "5", "11", "26", "25", "30", "33", "32", "30", "24"], "time": [815, 1066, 1605, 2750, 2849, 3565, 3782, 4032, 5134, 5549, 5682, 5915, 5982, 7433, 9234, 9351, 10732]}, "edge": {"target": [], "time": []}}}, "displayed_time": "18.03", "trialTime": 19714, "trial_type": "mouselab-mdp", "trial_index": 42, "time_elapsed": 1534609, "internal_node_id": "0.0-4.0-1.0-27.0"}}, {"uniqueid": "w97026551:a84532244", "current_trial": 43, "dateTime": 1691072400271, "trialdata": {"revealed_states": [], "clicked_states": ["9", "6", "18", "20", "33", "4"], "num_clicks_accrued": [0, 0, 0, 0, 0, 0, 0, 0, 0, 0, 0, 0, 0], "stateRewards": ["", -1, 1, 6, -6, 70, 66, 67, -16, -75, -35, 37, -1, 4, 4, -6, 47, -9, 63, 15, 21, -63, 13, 1, 3, -6, 10, 79, -29, 18, -15, 9, -67, -19], "withholdReward": false, "trial_id": "mdp_trial_29", "block": "test", "trialIndex": 32, "score": 57.6, "costs": -8.4, "simulationMode": [null, null, null, null, null], "rewards": [-1, 1, 6, -6, 66], "path": ["0", "0", "1", "2", "3", "4", "6"], "rt": [13531, 111, 125, 145, 120], "actions": ["up", "up", "up", "right", "right"], "actionTimes": [16100, 16708, 17340, 17991, 18617], "queries": {"click": {"state": {"target": ["9", "6", "18", "20", "33", "4"], "time": [3257, 4903, 7219, 9598, 12256, 14191]}, "edge": {"target": [], "time": []}}, "mouseover": {"state": {"target": ["8", "9", "6", "16", "15", "18", "18", "19", "21", "20", "16", "5", "3", "26", "25", "33", "33", "30", "30", "33", "24", "2", "4", "3"], "time": [2596, 3096, 4263, 5446, 5629, 5864, 6215, 7712, 8013, 8262, 9895, 10331, 10357, 10429, 10479, 10562, 10846, 11563, 11729, 12013, 12546, 12862, 13279, 14762]}, "edge": {"target": [], "time": []}}, "mouseout": {"state": {"target": ["12", "13", "18", "1", "10", "11", "2", "1", "0", "8", "9", "6", "16", "15", "18", "18", "19", "21", "20", "16", "5", "3", "26", "25", "33", "33", "30", "30", "33", "24", "2", "4"], "time": [1030, 1446, 1563, 1646, 1715, 1763, 2012, 2029, 2584, 2610, 3563, 5396, 5529, 5797, 5964, 7646, 7764, 8229, 9828, 9912, 10356, 10375, 10462, 10495, 10629, 11553, 11578, 11762, 12479, 12579, 12913, 14445]}, "edge": {"target": [], "time": []}}}, "displayed_time": "19.13", "trialTime": 20580, "trial_type": "mouselab-mdp", "trial_index": 43, "time_elapsed": 1555427, "internal_node_id": "0.0-4.0-1.0-28.0"}}, {"uniqueid": "w97026551:a84532244", "current_trial": 44, "dateTime": 1691072430871, "trialdata": {"revealed_states": [], "clicked_states": ["29", "16", "31", "21", "22", "6", "10", "11", "5", "9"], "num_clicks_accrued": [0, 0, 0, 0, 0, 0, 0, 0, 0, 0, 0, 0, 0], "stateRewards": ["", -1, 1, -5, -6, -78, 47, -13, 12, 48, -88, 20, 2, -3, -2, 13, -20, 37, -57, 14, -38, 30, 31, -2, -2, 8, 2, -23, 78, 28, 12, -74, -88, 8], "withholdReward": false, "trial_id": "mdp_trial_30", "block": "test", "trialIndex": 33, "score": 41, "costs": -14.000000000000002, "simulationMode": [null, null, null, null, null], "rewards": [-1, 1, -5, 12, 48], "path": ["0", "0", "1", "2", "3", "8", "9"], "rt": [24403, 62, 125, 679, 105], "actions": ["up", "up", "up", "left", "up"], "actionTimes": [25741, 26315, 26961, 28148, 28757], "queries": {"click": {"state": {"target": ["29", "16", "31", "21", "22", "6", "10", "11", "5", "9"], "time": [2570, 4462, 6791, 9080, 11398, 13370, 16315, 18647, 20589, 23067]}, "edge": {"target": [], "time": []}}, "mouseover": {"state": {"target": ["0", "23", "24", "25", "29", "26", "28", "13", "14", "17", "16", "16", "15", "12", "32", "31", "21", "22", "22", "13", "6", "7", "7", "2", "10", "11", "8", "3", "5", "6", "16", "16", "7", "8", "9"], "time": [1440, 1722, 1956, 2089, 2256, 2760, 2777, 2839, 2859, 3352, 3573, 3940, 4772, 4838, 5171, 6506, 8888, 11039, 11256, 11655, 12204, 15339, 15821, 16021, 16122, 18286, 19368, 19485, 19756, 21052, 21169, 22418, 22601, 22635, 22870]}, "edge": {"target": [], "time": []}}, "mouseout": {"state": {"target": ["3", "18", "13", "12", "0", "23", "0", "23", "24", "25", "29", "26", "28", "13", "14", "17", "16", "16", "15", "12", "32", "31", "21", "22", "22", "13", "6", "7", "7", "2", "10", "10", "10", "11", "8", "3", "5", "6", "16", "16", "7", "8", "9"], "time": [505, 655, 772, 805, 822, 1039, 1706, 1923, 2041, 2157, 2758, 2775, 2789, 2856, 2874, 3491, 3741, 4738, 4788, 4855, 6439, 8439, 11007, 11112, 11606, 11672, 14821, 15555, 16006, 16071, 16401, 17221, 18219, 19335, 19435, 19501, 20986, 21085, 21252, 22585, 22618, 22651, 24485]}, "edge": {"target": [], "time": []}}}, "displayed_time": "29.27", "trialTime": 30359, "trial_type": "mouselab-mdp", "trial_index": 44, "time_elapsed": 1586028, "internal_node_id": "0.0-4.0-1.0-29.0"}}, {"uniqueid": "w97026551:a84532244", "current_trial": 45, "dateTime": 1691072456529, "trialdata": {"revealed_states": [], "clicked_states": ["16", "21", "13", "33", "32", "27", "17"], "num_clicks_accrued": [0, 0, 0, 0, 0, 0, 0, 0, 0, 0, 0, 0, 0], "stateRewards": ["", -2, 3, -5, -7, 66, 43, -60, -4, -70, -75, 4, -1, 2, 2, -13, 54, 11, -40, -1, 77, 32, 15, -2, 3, -8, -9, -35, 83, -27, 6, -74, -34, 44], "withholdReward": false, "trial_id": "mdp_trial_31", "block": "test", "trialIndex": 34, "score": 34.2, "costs": -9.8, "simulationMode": [null, null, null, null, null], "rewards": [-1, 2, 2, -13, 54], "path": ["0", "0", "12", "13", "14", "15", "16"], "rt": [18860, 190, 165, 65, 128], "actions": ["right", "right", "right", "up", "up"], "actionTimes": [20416, 21116, 21791, 22373, 23020], "queries": {"click": {"state": {"target": ["16", "21", "13", "33", "32", "27", "17"], "time": [2823, 5398, 7712, 10469, 13307, 15639, 17823]}, "edge": {"target": [], "time": []}}, "mouseover": {"state": {"target": ["15", "17", "16", "17", "20", "21", "22", "13", "18", "13", "14", "20", "19", "12", "28", "24", "25", "33", "28", "10", "3", "4", "15", "18", "12", "32", "13", "27", "10", "2", "7", "15", "15", "17"], "time": [2175, 2208, 2644, 3192, 4674, 4941, 5758, 6341, 6391, 6693, 8024, 8225, 9691, 9724, 9791, 9915, 10191, 10308, 11207, 11424, 11508, 11525, 12424, 12457, 12524, 12875, 14107, 15474, 15890, 15925, 15942, 16124, 16839, 17540]}, "edge": {"target": [], "time": []}}, "mouseout": {"state": {"target": ["3", "2", "23", "0", "15", "17", "16", "17", "20", "21", "22", "13", "18", "13", "14", "20", "19", "12", "28", "24", "25", "33", "28", "10", "3", "4", "15", "18", "12", "32", "13", "27", "10", "2", "7", "15", "15", "17"], "time": [742, 775, 1207, 1996, 2191, 2360, 3159, 3208, 4725, 5484, 6325, 6358, 6524, 7991, 8058, 9675, 9707, 9741, 9858, 10041, 10225, 10534, 11258, 11475, 11524, 11541, 12441, 12491, 12558, 13973, 14123, 15715, 15923, 15940, 15956, 16507, 16873, 24407]}, "edge": {"target": [], "time": []}}}, "displayed_time": "23.53", "trialTime": 25408, "trial_type": "mouselab-mdp", "trial_index": 45, "time_elapsed": 1611685, "internal_node_id": "0.0-4.0-1.0-30.0"}}, {"uniqueid": "w97026551:a84532244", "current_trial": 46, "dateTime": 1691072476989, "trialdata": {"revealed_states": [], "clicked_states": ["5", "6", "33", "25", "30"], "num_clicks_accrued": [0, 0, 0, 0, 0, 0, 0, 0, 0, 0, 0, 0, 0], "stateRewards": ["", 2, 3, 6, -12, -29, 12, 87, 4, 35, -30, 67, 2, 3, -5, -9, 44, 69, -8, 1, 45, -8, 28, -2, -1, -8, 11, -12, -5, 81, 9, 87, 82, 88], "withholdReward": false, "trial_id": "mdp_trial_32", "block": "test", "trialIndex": 35, "score": 79, "costs": -7, "simulationMode": [null, null, null, null, null], "rewards": [-2, -1, -8, 9, 88], "path": ["0", "0", "23", "24", "25", "30", "33"], "rt": [12697, 55, 100, 49, 60], "actions": ["left", "left", "left", "down", "left"], "actionTimes": [15399, 15950, 16546, 17110, 17688], "queries": {"click": {"state": {"target": ["5", "6", "33", "25", "30"], "time": [3776, 5610, 7576, 10843, 13538]}, "edge": {"target": [], "time": []}}, "mouseover": {"state": {"target": ["12", "15", "16", "5", "6", "7", "2", "10", "28", "33", "32", "31", "29", "27", "28", "24", "25", "30", "30", "32", "30"], "time": [2817, 2895, 2929, 3594, 5111, 6094, 6127, 6190, 6229, 7093, 8160, 8509, 8727, 9043, 9944, 10195, 10580, 11594, 12644, 12877, 13327]}, "edge": {"target": [], "time": []}}, "mouseout": {"state": {"target": ["14", "13", "12", "0", "12", "15", "16", "5", "6", "7", "2", "10", "28", "33", "32", "31", "29", "27", "28", "24", "25", "30", "30", "32", "30"], "time": [2180, 2227, 2244, 2808, 2844, 2928, 2961, 4694, 6044, 6110, 6171, 6217, 6244, 7893, 8459, 8576, 8776, 9862, 9977, 10428, 11577, 11660, 12827, 13277, 18926]}, "edge": {"target": [], "time": []}}}, "displayed_time": "18.21", "trialTime": 20223, "trial_type": "mouselab-mdp", "trial_index": 46, "time_elapsed": 1632146, "internal_node_id": "0.0-4.0-1.0-31.0"}}, {"uniqueid": "w97026551:a84532244", "current_trial": 47, "dateTime": 1691072498315, "trialdata": {"revealed_states": [], "clicked_states": ["16", "21", "9", "6", "29", "32", "33"], "num_clicks_accrued": [0, 0, 0, 0, 0, 0, 0, 0, 0, 0, 0, 0, 0], "stateRewards": ["", -1, 3, 8, 9, -53, 20, -84, 2, -28, -62, -31, -1, -2, -7, 2, 51, 58, 45, -4, -17, -41, 36, 2, -2, -7, -15, 29, -54, -37, -16, -43, 65, -17], "withholdReward": false, "trial_id": "mdp_trial_33", "block": "test", "trialIndex": 36, "score": 32.2, "costs": -9.8, "simulationMode": [null, null, null, null, null], "rewards": [2, -2, -7, -16, 65], "path": ["0", "0", "23", "24", "25", "30", "32"], "rt": [15813, 160, 147, 51, 134], "actions": ["left", "left", "left", "down", "down"], "actionTimes": [17083, 17743, 18397, 18951, 19599], "queries": {"click": {"state": {"target": ["16", "21", "9", "6", "29", "32", "33"], "time": [2755, 4728, 6573, 8780, 10690, 12568, 15118]}, "edge": {"target": [], "time": []}}, "mouseover": {"state": {"target": ["12", "13", "17", "16", "21", "2", "8", "9", "5", "6", "4", "2", "10", "26", "29", "33", "32", "32", "32", "33", "31"], "time": [1799, 2099, 2298, 2532, 3365, 4932, 5048, 5465, 7465, 8615, 9014, 9065, 9131, 9315, 9464, 11114, 11515, 11715, 12317, 13331, 15776]}, "edge": {"target": [], "time": []}}, "mouseout": {"state": {"target": ["31", "12", "18", "12", "0", "12", "13", "17", "16", "21", "2", "8", "9", "5", "6", "4", "2", "10", "26", "29", "33", "32", "32", "32", "33"], "time": [614, 697, 827, 914, 1766, 2070, 2132, 2315, 3032, 4816, 4981, 5132, 6732, 8382, 8981, 9031, 9098, 9215, 9431, 10965, 11232, 11565, 11765, 13047, 15735]}, "edge": {"target": [], "time": []}}}, "displayed_time": "20.11", "trialTime": 21071, "trial_type": "mouselab-mdp", "trial_index": 47, "time_elapsed": 1653472, "internal_node_id": "0.0-4.0-1.0-32.0"}}, {"uniqueid": "w97026551:a84532244", "current_trial": 48, "dateTime": 1691072525448, "trialdata": {"revealed_states": [], "clicked_states": ["9", "6", "29", "28", "18", "16", "21", "20", "19", "26"], "num_clicks_accrued": [0, 0, 0, 0, 0, 0, 0, 0, 0, 0, 0, 0, 0], "stateRewards": ["", 2, 4, -5, 7, 81, 35, 6, 11, 14, -72, 42, -1, 2, 3, -7, -77, -44, -40, -15, -85, 51, -32, -2, -1, -5, 7, -74, 47, 52, 16, -49, 48, -46], "withholdReward": false, "trial_id": "mdp_trial_34", "block": "test", "trialIndex": 37, "score": 37, "costs": -14.000000000000002, "simulationMode": [null, null, null, null, null], "rewards": [-2, -1, -5, 7, 52], "path": ["0", "0", "23", "24", "25", "26", "29"], "rt": [21710, 94, 87, 7, 66], "actions": ["left", "left", "left", "up", "left"], "actionTimes": [22887, 23492, 24085, 24605, 25180], "queries": {"click": {"state": {"target": ["9", "6", "29", "28", "18", "16", "21", "20", "19", "26"], "time": [1978, 3786, 5549, 8054, 9937, 11934, 13853, 15941, 18523, 21037]}, "edge": {"target": [], "time": []}}, "mouseover": {"state": {"target": ["11", "9", "5", "16", "16", "6", "7", "7", "28", "29", "29", "26", "28", "24", "31", "32", "31", "28", "15", "18", "18", "15", "17", "17", "16", "15", "14", "19", "21", "20", "19", "13", "19", "19", "22", "23", "28", "26"], "time": [1515, 1814, 2314, 2547, 2797, 3063, 4081, 4297, 4464, 4680, 5080, 5780, 5847, 6130, 6180, 6463, 6763, 7831, 8880, 8997, 9230, 10164, 10247, 10614, 11764, 12330, 12380, 12429, 12547, 15415, 16450, 16646, 17113, 18449, 18879, 19367, 19512, 20531]}, "edge": {"target": [], "time": []}}, "mouseout": {"state": {"target": ["31", "23", "11", "9", "5", "16", "16", "6", "7", "7", "28", "29", "29", "26", "28", "24", "31", "32", "31", "28", "15", "18", "18", "15", "17", "17", "16", "15", "14", "19", "21", "20", "19", "13", "19", "19", "22", "23", "28"], "time": [595, 816, 1547, 1990, 2330, 2647, 2980, 3981, 4189, 4330, 4481, 4864, 5747, 5813, 6097, 6164, 6248, 6714, 7531, 8630, 8963, 9030, 10130, 10230, 10280, 11330, 12313, 12363, 12413, 12480, 13923, 16396, 16530, 16847, 18231, 18829, 18996, 19388, 19546]}, "edge": {"target": [], "time": []}}}, "displayed_time": "25.70", "trialTime": 26888, "trial_type": "mouselab-mdp", "trial_index": 48, "time_elapsed": 1680604, "internal_node_id": "0.0-4.0-1.0-33.0"}}, {"uniqueid": "w97026551:a84532244", "current_trial": 49, "dateTime": 1691072544903, "trialdata": {"revealed_states": [], "clicked_states": ["9", "7", "17", "15", "20"], "num_clicks_accrued": [0, 0, 0, 0, 0, 0, 0, 0, 0, 0, 0, 0, 0], "stateRewards": ["", -2, -4, 4, -11, -63, -60, -7, 2, -14, 81, -43, -1, -1, -5, 7, 10, 69, 40, 8, -83, 52, 60, 1, 2, 5, -5, 16, 64, 14, -3, 29, 7, -51], "withholdReward": false, "trial_id": "mdp_trial_35", "block": "test", "trialIndex": 38, "score": 62, "costs": -7, "simulationMode": [null, null, null, null, null], "rewards": [-1, -1, -5, 7, 69], "path": ["0", "0", "12", "13", "14", "15", "17"], "rt": [12330, 613, 156, 502, 104], "actions": ["right", "right", "right", "up", "right"], "actionTimes": [14062, 15196, 15856, 16868, 17487], "queries": {"click": {"state": {"target": ["9", "7", "17", "15", "20"], "time": [2834, 4744, 6615, 9627, 11505]}, "edge": {"target": [], "time": []}}, "mouseover": {"state": {"target": ["5", "9", "9", "16", "7", "17", "13", "18", "15", "21", "19", "14", "15", "20", "20", "19", "19", "14"], "time": [2229, 2513, 2730, 3179, 3896, 5546, 6879, 7079, 7612, 7879, 9111, 9147, 9462, 10145, 10463, 11762, 12295, 12478]}, "edge": {"target": [], "time": []}}, "mouseout": {"state": {"target": ["26", "0", "12", "12", "0", "23", "23", "0", "5", "9", "9", "16", "7", "17", "13", "18", "15", "21", "19", "14", "15", "20", "20", "19", "19"], "time": [495, 546, 562, 795, 812, 828, 995, 1980, 2246, 2546, 3096, 3212, 4929, 6846, 7012, 7179, 7629, 9095, 9145, 9195, 10028, 10229, 11712, 11811, 12411]}, "edge": {"target": [], "time": []}}}, "displayed_time": "18.00", "trialTime": 19194, "trial_type": "mouselab-mdp", "trial_index": 49, "time_elapsed": 1700059, "internal_node_id": "0.0-4.0-1.0-34.0"}}, {"uniqueid": "w97026551:a84532244", "current_trial": 50, "dateTime": 1691072571022, "trialdata": {"revealed_states": [], "clicked_states": ["21", "32", "33", "27", "29", "11", "5", "7", "22"], "num_clicks_accrued": [0, 0, 0, 0, 0, 0, 0, 0, 0, 0, 0, 0, 0], "stateRewards": ["", -2, -4, -2, 10, -8, -15, -47, 7, -84, 53, 5, -1, 2, -7, 3, 83, 31, 47, -1, 30, -8, 69, 2, -4, -1, 8, -7, 12, -8, -8, -13, 30, -84], "withholdReward": false, "trial_id": "mdp_trial_36", "block": "test", "trialIndex": 39, "score": 49.4, "costs": -12.600000000000001, "simulationMode": [null, null, null, null, null], "rewards": [-1, 2, -7, -1, 69], "path": ["0", "0", "12", "13", "14", "19", "22"], "rt": [20302, 117, 81, 14, 98], "actions": ["right", "right", "right", "down", "left"], "actionTimes": [21864, 22490, 23085, 23617, 24235], "queries": {"click": {"state": {"target": ["21", "32", "33", "27", "29", "11", "5", "7", "22"], "time": [2423, 4273, 6140, 8452, 10334, 12816, 14696, 16673, 18715]}, "edge": {"target": [], "time": []}}, "mouseover": {"state": {"target": ["21", "31", "32", "33", "30", "31", "25", "27", "29", "25", "31", "10", "8", "11", "8", "4", "6", "6", "5", "4", "7", "1", "22", "21", "20", "19", "22"], "time": [2170, 2837, 3020, 4636, 6536, 6670, 7603, 8286, 8819, 10684, 11102, 12102, 12237, 12675, 13102, 13152, 13219, 13552, 14284, 15768, 16118, 16969, 17152, 17235, 17668, 17951, 18168]}, "edge": {"target": [], "time": []}}, "mouseout": {"state": {"target": ["14", "13", "12", "0", "21", "31", "32", "33", "30", "31", "25", "27", "29", "25", "31", "10", "8", "11", "8", "4", "6", "6", "5", "4", "7", "1", "22", "21", "20", "19", "22"], "time": [653, 720, 753, 2037, 2670, 2887, 4452, 6519, 6586, 7553, 7619, 8736, 10636, 10721, 12036, 12169, 12470, 13085, 13119, 13169, 13286, 14052, 15685, 15918, 16935, 17069, 17168, 17285, 17885, 18084, 21102]}, "edge": {"target": [], "time": []}}}, "displayed_time": "24.75", "trialTime": 25835, "trial_type": "mouselab-mdp", "trial_index": 50, "time_elapsed": 1726178, "internal_node_id": "0.0-4.0-1.0-35.0"}}, {"uniqueid": "w97026551:a84532244", "current_trial": 51, "dateTime": 1691072587774, "trialdata": {"revealed_states": [], "clicked_states": ["16", "20", "21"], "num_clicks_accrued": [0, 0, 0, 0, 0, 0, 0, 0, 0, 0, 0, 0, 0], "stateRewards": ["", -1, 4, 3, 12, -27, 34, -33, 3, -63, 1, 6, 2, 2, -6, -11, -77, -85, 68, -6, 51, 81, -60, -2, -2, 1, 15, 20, 15, 68, -10, -14, 6, -4], "withholdReward": false, "trial_id": "mdp_trial_37", "block": "test", "trialIndex": 40, "score": 68.8, "costs": -4.199999999999999, "simulationMode": [null, null, null, null, null], "rewards": [2, 2, -6, -6, 81], "path": ["0", "0", "12", "13", "14", "19", "21"], "rt": [7910, 122, 140, 116, 187], "actions": ["right", "right", "right", "down", "down"], "actionTimes": [9180, 9804, 10472, 11098, 11804], "queries": {"click": {"state": {"target": ["16", "20", "21"], "time": [2117, 4008, 6009]}, "edge": {"target": [], "time": []}}, "mouseover": {"state": {"target": ["18", "16", "17", "20", "21", "33"], "time": [1513, 1897, 2880, 3079, 4546, 6696]}, "edge": {"target": [], "time": []}}, "mouseout": {"state": {"target": ["0", "18", "16", "17", "20", "21", "33", "30", "31", "0"], "time": [1479, 1529, 2413, 2995, 4246, 6213, 13295, 13328, 13345, 13395]}, "edge": {"target": [], "time": []}}}, "displayed_time": "15.28", "trialTime": 16499, "trial_type": "mouselab-mdp", "trial_index": 51, "time_elapsed": 1742930, "internal_node_id": "0.0-4.0-1.0-36.0"}}, {"uniqueid": "w97026551:a84532244", "current_trial": 52, "dateTime": 1691072610346, "trialdata": {"revealed_states": [], "clicked_states": ["31", "29", "27", "26", "10", "5", "7", "17"], "num_clicks_accrued": [0, 0, 0, 0, 0, 0, 0, 0, 0, 0, 0, 0, 0], "stateRewards": ["", -1, -3, -6, -2, -7, 80, -45, -3, -38, -72, 76, 2, 1, 7, 4, -62, 14, -74, 14, -87, -21, -88, -2, 1, -7, -10, 66, 56, -76, 10, -29, -72, -70], "withholdReward": false, "trial_id": "mdp_trial_38", "block": "test", "trialIndex": 41, "score": 36.8, "costs": -11.200000000000001, "simulationMode": [null, null, null, null, null], "rewards": [-2, 1, -7, -10, 66], "path": ["0", "0", "23", "24", "25", "26", "27"], "rt": [17199, 119, 167, 87, 114], "actions": ["left", "left", "left", "up", "up"], "actionTimes": [18323, 18939, 19619, 20224, 20850], "queries": {"click": {"state": {"target": ["31", "29", "27", "26", "10", "5", "7", "17"], "time": [1851, 3805, 5733, 8555, 10182, 12254, 14322, 16332]}, "edge": {"target": [], "time": []}}, "mouseover": {"state": {"target": ["0", "31", "24", "29", "29", "32", "30", "29", "27", "11", "26", "10", "10", "2", "4", "5", "4", "7", "18", "17", "13"], "time": [1138, 1655, 2087, 2187, 2504, 3186, 3236, 3554, 4153, 6704, 8338, 8770, 9053, 11385, 11852, 12085, 13518, 14118, 14707, 14901, 16952]}, "edge": {"target": [], "time": []}}, "mouseout": {"state": {"target": ["0", "0", "31", "24", "29", "29", "32", "30", "29", "27", "11", "26", "10", "10", "2", "4", "5", "4", "7", "18", "17"], "time": [670, 1237, 2054, 2104, 2220, 2742, 3220, 3269, 4103, 6037, 8189, 8720, 8786, 11335, 11802, 11936, 13234, 13701, 14668, 14718, 16802]}, "edge": {"target": [], "time": []}}}, "displayed_time": "21.35", "trialTime": 22331, "trial_type": "mouselab-mdp", "trial_index": 52, "time_elapsed": 1765503, "internal_node_id": "0.0-4.0-1.0-37.0"}}, {"uniqueid": "w97026551:a84532244", "current_trial": 53, "dateTime": 1691072634859, "trialdata": {"revealed_states": [], "clicked_states": ["17", "21", "20", "5", "32", "33", "27", "30"], "num_clicks_accrued": [0, 0, 0, 0, 0, 0, 0, 0, 0, 0, 0, 0, 0], "stateRewards": ["", 1, 1, -5, 8, -6, 45, 16, -6, -7, -22, -38, -1, -4, 8, -11, -16, 21, -45, -15, -59, -32, 42, -1, 3, 6, 11, -7, 34, -27, -8, 85, 43, -9], "withholdReward": false, "trial_id": "mdp_trial_39", "block": "test", "trialIndex": 42, "score": 31.799999999999997, "costs": -11.200000000000001, "simulationMode": [null, null, null, null, null], "rewards": [-1, 3, 6, -8, 43], "path": ["0", "0", "23", "24", "25", "30", "32"], "rt": [17981, 88, 88, 22, 80], "actions": ["left", "left", "left", "down", "down"], "actionTimes": [20037, 20627, 21226, 21759, 22368], "queries": {"click": {"state": {"target": ["17", "21", "20", "5", "32", "33", "27", "30"], "time": [2837, 4712, 6520, 8436, 10544, 12499, 15508, 18253]}, "edge": {"target": [], "time": []}}, "mouseover": {"state": {"target": ["12", "17", "21", "21", "20", "14", "4", "5", "6", "2", "28", "25", "33", "32", "33", "30", "31", "30", "25", "26", "27", "24", "31", "31", "30"], "time": [2204, 2641, 3104, 3404, 5220, 6737, 6787, 7572, 8703, 9169, 9219, 9246, 9286, 9536, 10869, 12755, 13370, 14424, 14853, 15002, 15354, 16919, 17452, 17692, 18119]}, "edge": {"target": [], "time": []}}, "mouseout": {"state": {"target": ["13", "0", "12", "17", "21", "21", "20", "14", "4", "5", "6", "2", "28", "25", "33", "32", "33", "30", "31", "30", "25", "26", "27", "24", "31", "31", "30", "30"], "time": [621, 787, 2220, 3037, 3120, 4887, 6703, 6754, 6803, 8636, 9153, 9186, 9244, 9253, 9436, 10720, 12753, 12769, 14305, 14820, 14886, 15054, 16869, 16952, 17525, 17937, 18313, 23539]}, "edge": {"target": [], "time": []}}}, "displayed_time": "22.89", "trialTime": 24247, "trial_type": "mouselab-mdp", "trial_index": 53, "time_elapsed": 1790016, "internal_node_id": "0.0-4.0-1.0-38.0"}}, {"uniqueid": "w97026551:a84532244", "current_trial": 54, "dateTime": 1691072652033, "trialdata": {"revealed_states": [], "clicked_states": ["9", "7", "21", "8"], "num_clicks_accrued": [0, 0, 0, 0, 0, 0, 0, 0, 0, 0, 0, 0, 0], "stateRewards": ["", -2, 2, -1, -6, 22, 6, 6, -5, 70, -42, 65, 1, 3, 5, -6, -67, -9, 3, 14, 7, -62, -13, -2, 4, 1, 16, 42, -21, -52, -8, 32, 53, 81], "withholdReward": false, "trial_id": "mdp_trial_40", "block": "test", "trialIndex": 43, "score": 58.4, "costs": -5.6, "simulationMode": [null, null, null, null, null], "rewards": [-2, 2, -1, -5, 70], "path": ["0", "0", "1", "2", "3", "8", "9"], "rt": [10398, 37, 148, 4, 28], "actions": ["up", "up", "up", "left", "up"], "actionTimes": [12105, 12659, 13304, 13826, 14382], "queries": {"click": {"state": {"target": ["9", "7", "21", "8"], "time": [2842, 6034, 8036, 10318]}, "edge": {"target": [], "time": []}}, "mouseover": {"state": {"target": ["10", "8", "9", "9", "5", "6", "4", "7", "22", "21", "22", "12", "1", "2", "8"], "time": [2038, 2205, 2471, 2690, 3054, 3504, 5572, 5837, 6537, 6905, 8354, 8387, 9420, 9559, 10069]}, "edge": {"target": [], "time": []}}, "mouseout": {"state": {"target": ["13", "15", "16", "0", "10", "8", "9", "9", "5", "6", "4", "7", "22", "21", "22", "12", "1", "2", "8", "2", "1", "12"], "time": [587, 603, 1004, 1872, 2154, 2255, 2523, 2918, 3070, 5440, 5788, 6437, 6554, 8304, 8370, 8437, 9504, 9770, 15753, 15836, 15886, 15953]}, "edge": {"target": [], "time": []}}}, "displayed_time": "15.71", "trialTime": 16907, "trial_type": "mouselab-mdp", "trial_index": 54, "time_elapsed": 1807190, "internal_node_id": "0.0-4.0-1.0-39.0"}}, {"uniqueid": "w97026551:a84532244", "current_trial": 55, "dateTime": 1691072732880, "trialdata": {"rt": 80849, "response": {"Q0": "$-16 to 16", "Q1": "$-16 to $16", "Q2": "$-88 to $88", "Q3": "The cost for clicking on nodes varied between nodes.", "Q4": "Very unmotivated"}, "question_order": [0, 1, 2, 3, 4], "trial_id": "final_quiz_control", "trial_type": "survey-multi-choice", "trial_index": 55, "time_elapsed": 1888037, "internal_node_id": "0.0-4.0-2.0"}}, {"uniqueid": "w97026551:a84532244", "current_trial": 56, "dateTime": 1691073182047, "trialdata": {"rt": 449155, "response": {"Q0": "I used the node checker to figure out where the highest value end node was. If I was lucky to find a high enough value end node after the first few clicks I would stop spending on the checker and go there. I tried not to spend too much on checking node values unless I hadn't found an end node higher than 40 or absolutely necessary (only low value or negative node values found)", "Q1": "I feel like I went in with this strategy from the first go and continued with a similar tactic, sometimes I tried to check the values closer to the end nodes but I found then I was spending too much on checking the values so stopped. A lot of the checking was just based on luck.  ", "Q2": "I feel like luck played a big role and I could not see a better way at making sure I finished with the highest value without continuing with my initial strategy. "}, "trial_id": "self_report_control", "trial_type": "survey-text", "trial_index": 56, "time_elapsed": 2337204, "internal_node_id": "0.0-4.0-3.0"}}, {"uniqueid": "w97026551:a84532244", "current_trial": 57, "dateTime": 1691073198556, "trialdata": {"rt": 16504, "response": {"gender": "male", "age": "32", "colorblind": "0", "effort": "0"}, "trial_type": "survey-html-form", "trial_index": 57, "time_elapsed": 2353712, "internal_node_id": "0.0-4.0-4.0"}}, {"uniqueid": "w97026551:a84532244", "current_trial": 58, "dateTime": 1691073319445, "trialdata": {"rt": 120888, "response": {"Q0": "Not really, just a lot of information first round reading the instructions and I felt like I didnt take it all in initially but once I read through everything again and had the practice rounds it was pretty simple to us and understand.", "Q1": "No I don't believe I have ever done something like this before, it felt pretty unique to me.", "Q2": ""}, "trial_type": "survey-text", "trial_index": 58, "time_elapsed": 2474602, "internal_node_id": "0.0-4.0-5.0"}}, {"uniqueid": "w97026551:a84532244", "current_trial": 59, "dateTime": 1691073321149, "trialdata": {"rt": 1699, "stimulus": "Press 'Finish HIT' in order to reach the completion code. Once the data has been saved, you will receive the code either in this window or in the original browser window where you started the experiment.\n", "response": 0, "trial_type": "html-button-response", "trial_index": 59, "time_elapsed": 2476306, "internal_node_id": "0.0-5.0"}}, {"uniqueid": "w97026551:a84532244", "current_trial": 60, "dateTime": 1691073322157, "trialdata": {"success": true, "trial_type": "fullscreen", "trial_index": 60, "time_elapsed": 2477313, "internal_node_id": "0.0-6.0"}}], "questiondata": {"params": {"CODE": "C6DMOQA6", "MIN_TIME": 14, "inspectCost": 1, "startTime": "Thu Aug 03 2023 15:54:04 GMT+0200 (Midden-Europese zomertijd)", "bonusRate": 0.002, "variance": "1_2_4_8_44", "branching": "31123"}, "final_score": 2225}, "eventdata": [{"eventtype": "initialized", "value": null, "timestamp": 1691070843796, "interval": 0}, {"eventtype": "window_resize", "value": [1024, 767], "timestamp": 1691070843796, "interval": 0}, {"eventtype": "window_resize", "value": [1024, 767], "timestamp": 1691070844124, "interval": 328}, {"eventtype": "window_resize", "value": [1920, 974], "timestamp": 1691070845234, "interval": 1110}, {"eventtype": "window_resize", "value": [1920, 1080], "timestamp": 1691070847064, "interval": 1830}, {"eventtype": "window_resize", "value": [1920, 974], "timestamp": 1691070854118, "interval": 7054}, {"eventtype": "focus", "value": "off", "timestamp": 1691070855251, "interval": 1133}, {"eventtype": "focus", "value": "on", "timestamp": 1691070916347, "interval": 61096}, {"eventtype": "window_resize", "value": [1920, 1080], "timestamp": 1691070918833, "interval": 2486}, {"eventtype": "window_resize", "value": [1920, 974], "timestamp": 1691070944601, "interval": 25768}, {"eventtype": "window_resize", "value": [1920, 1080], "timestamp": 1691070949395, "interval": 4794}, {"eventtype": "focus", "value": "off", "timestamp": 1691071418655, "interval": 469260}, {"eventtype": "focus", "value": "on", "timestamp": 1691071418656, "interval": 1}], "useragent": "Mozilla/5.0 (Windows NT 10.0; Win64; x64) AppleWebKit/537.36 (KHTML, like Gecko) Chrome/115.0.0.0 Safari/537.36", "mode": "live", "id": "w97026551:a84532244", "status": "user data saved", "Beginhit": "2023-08-03 13:54:04.053309", "Beginexp": "2023-08-03 13:54:10.518883", "Endhit": "2023-08-03 14:35:25.369472", "psiturkStatus": 3, "browser": "<redacted>", "platform": "windows", "language": "en-NL"}