{"condition": 0, "counterbalance": 0, "assignmentId": "a21729965", "workerId": "w20539671", "hitId": "h52405528", "currenttrial": 55, "bonus": 0, "data": [{"uniqueid": "w20539671:a21729965", "current_trial": 0, "dateTime": 1693389978378, "trialdata": {"success": true, "trial_type": "fullscreen", "trial_index": 0, "time_elapsed": 40992, "internal_node_id": "0.0-0.0"}}, {"uniqueid": "w20539671:a21729965", "current_trial": 1, "dateTime": 1693389993822, "trialdata": {"view_history": [{"page_index": 0, "viewing_time": 15421}], "rt": 15422, "trial_id": "exp_instructions_control", "trial_type": "instructions", "trial_index": 1, "time_elapsed": 56438, "internal_node_id": "0.0-1.0"}}, {"uniqueid": "w20539671:a21729965", "current_trial": 2, "dateTime": 1693390245662, "trialdata": {"view_history": [{"page_index": 0, "viewing_time": 82766}, {"page_index": 1, "viewing_time": 87648}, {"page_index": 2, "viewing_time": 41000}, {"page_index": 3, "viewing_time": 40424}], "rt": 251838, "trial_id": "mouselab_instructions_1_control", "trial_type": "instructions", "trial_index": 2, "time_elapsed": 308278, "internal_node_id": "0.0-2.0-1.0"}}, {"uniqueid": "w20539671:a21729965", "current_trial": 3, "dateTime": 1693390341722, "trialdata": {"revealed_states": [], "clicked_states": ["23", "24", "1", "12", "13", "18", "14", "22", "19", "20", "21", "15", "17", "16", "2", "7", "4", "6", "5", "3", "8", "10", "11", "9", "28", "26", "27", "29", "25", "30", "32", "31", "33"], "num_clicks_accrued": [0, 0, 0, 0, 0, 0, 0, 0, 0, 0, 0, 0, 0], "stateRewards": ["", -10, -10, 10, 10, -10, 10, -10, -10, 10, 10, 10, -10, 10, -10, -10, -10, 10, -10, -10, -10, -10, -10, -10, -10, 10, 10, 10, 10, 10, 10, 10, -10, 10], "withholdReward": false, "trial_id": "practice_1", "block": "test", "trialIndex": 0, "score": -3, "costs": -16.5, "simulationMode": [null, null, null, null, null], "rewards": [-10, -10, 10, 10, 10], "path": ["0", "0", "23", "24", "25", "26", "27"], "rt": [51906, 411, 269, 236, 227], "actions": ["left", "left", "left", "up", "up"], "actionTimes": [56505, 57453, 58246, 59013, 59774], "queries": {"click": {"state": {"target": ["23", "24", "1", "12", "13", "18", "14", "22", "19", "20", "21", "15", "17", "16", "2", "7", "4", "6", "5", "3", "8", "10", "11", "9", "28", "26", "27", "29", "25", "30", "32", "31", "33"], "time": [5400, 7506, 8738, 9997, 11580, 13071, 14480, 15830, 17688, 19015, 20273, 21652, 22808, 23945, 27873, 29218, 30634, 32090, 33624, 34910, 36379, 37926, 39149, 40384, 42697, 44073, 45456, 47010, 48303, 49821, 51692, 53102, 54282]}, "edge": {"target": [], "time": []}}, "mouseover": {"state": {"target": ["23", "24", "28", "24", "1", "12", "13", "13", "14", "18", "14", "22", "19", "19", "20", "21", "15", "17", "16", "18", "1", "10", "2", "7", "4", "4", "6", "5", "3", "8", "10", "11", "9", "1", "2", "23", "28", "26", "27", "29", "29", "25", "30", "31", "32", "31", "33", "30", "32"], "time": [5002, 5760, 6729, 7178, 8025, 9427, 10561, 11344, 11826, 12296, 13496, 15131, 16406, 17407, 17968, 19573, 20707, 22277, 23240, 24607, 26504, 27421, 27662, 28612, 29647, 30324, 31046, 32384, 34120, 35984, 37064, 38790, 39628, 41655, 41783, 42199, 42467, 43565, 44594, 46063, 46428, 47331, 48905, 50432, 51435, 52037, 53471, 54738, 55789]}, "edge": {"target": [], "time": []}}, "mouseout": {"state": {"target": ["33", "30", "31", "0", "0", "23", "24", "28", "24", "1", "12", "12", "13", "13", "14", "18", "14", "13", "22", "19", "19", "20", "21", "15", "15", "17", "16", "18", "1", "10", "2", "7", "4", "4", "6", "5", "3", "8", "10", "11", "9", "10", "1", "2", "23", "28", "26", "27", "29", "29", "25", "30", "31", "32", "31", "30", "33", "30", "32"], "time": [1088, 1129, 1231, 2651, 4677, 5591, 6614, 7153, 7691, 9192, 10074, 10525, 11094, 11795, 12170, 13396, 14662, 14931, 16065, 17026, 17833, 19267, 20509, 21720, 21936, 23109, 24307, 26205, 26588, 27521, 28043, 29549, 30215, 30881, 32315, 33782, 35318, 36890, 38425, 39320, 40626, 40757, 41763, 41802, 42253, 43059, 44103, 45627, 46327, 47133, 48597, 50099, 51199, 51849, 53273, 53437, 54703, 54771, 60529]}, "edge": {"target": [], "time": []}}}, "displayed_time": "60.32", "trialTime": 95574, "trial_type": "mouselab-mdp", "trial_index": 3, "time_elapsed": 404337, "internal_node_id": "0.0-2.0-2.0-0.0"}}, {"uniqueid": "w20539671:a21729965", "current_trial": 4, "dateTime": 1693390378276, "trialdata": {"revealed_states": [], "clicked_states": ["12", "1", "23", "2", "3", "4", "8", "5", "6", "7"], "num_clicks_accrued": [0, 0, 0, 0, 0, 0, 0, 0, 0, 0, 0, 0, 0], "stateRewards": ["", 10, -10, -10, 10, -10, -10, 10, 10, 10, -10, -10, -10, -10, -10, -10, 10, -10, 10, 10, -10, 10, -10, -10, 10, -10, -10, 10, -10, 10, -10, 10, 10, -10], "withholdReward": false, "trial_id": "practice_2", "block": "test", "trialIndex": 1, "score": 8.5, "costs": -5, "simulationMode": [null, null, null, null, null], "rewards": [10, -10, -10, 10, 10], "path": ["0", "0", "1", "2", "3", "4", "7"], "rt": [17925, 211, 216, 119, 100], "actions": ["up", "up", "up", "right", "down"], "actionTimes": [28222, 28967, 29704, 30343, 30991], "queries": {"click": {"state": {"target": ["12", "1", "23", "2", "3", "4", "8", "5", "6", "7"], "time": [11276, 12754, 14238, 15816, 17433, 18988, 20453, 22444, 24395, 25933]}, "edge": {"target": [], "time": []}}, "mouseover": {"state": {"target": ["0", "12", "1", "23", "0", "2", "3", "4", "6", "8", "6", "5", "7", "6", "7", "3", "8", "10", "2"], "time": [10304, 10673, 11768, 13238, 14537, 14808, 16271, 18142, 19418, 20011, 21048, 22100, 23215, 24032, 24579, 26251, 26419, 27018, 28216]}, "edge": {"target": [], "time": []}}, "mouseout": {"state": {"target": ["22", "12", "0", "12", "12", "1", "23", "0", "1", "2", "3", "4", "6", "4", "3", "8", "3", "4", "6", "5", "4", "7", "6", "7", "3", "8", "10", "2", "0"], "time": [8015, 8340, 10366, 11324, 11534, 12935, 14470, 14569, 14636, 15973, 17706, 19249, 19741, 19776, 19943, 20578, 20711, 20879, 21878, 22615, 22679, 24004, 24546, 26149, 26289, 26683, 28196, 28260, 28652]}, "edge": {"target": [], "time": []}}}, "displayed_time": "31.52", "trialTime": 36304, "trial_type": "mouselab-mdp", "trial_index": 4, "time_elapsed": 440891, "internal_node_id": "0.0-2.0-2.0-1.0"}}, {"uniqueid": "w20539671:a21729965", "current_trial": 5, "dateTime": 1693390494118, "trialdata": {"view_history": [{"page_index": 0, "viewing_time": 106968}, {"page_index": 1, "viewing_time": 8864}], "rt": 115832, "trial_id": "mouselab_instructions_2_control", "trial_type": "instructions", "trial_index": 5, "time_elapsed": 556734, "internal_node_id": "0.0-2.0-3.0"}}, {"uniqueid": "w20539671:a21729965", "current_trial": 6, "dateTime": 1693390527815, "trialdata": {"rt": 33692, "response": {"Q0": "The cost for clicking on nodes may vary between nodes.", "Q1": "The better I perform the higher my bonus will be.", "Q2": "No, the amount of cash at each node of the web may be different each time.", "Q3": "To get the highest total score.", "Q4": "Only before moving the spider.", "Q5": "3 seconds"}, "question_order": [0, 1, 2, 3, 4, 5], "correct": {"Q0": "The cost for clicking on nodes may vary between nodes.", "Q1": "The better I perform the higher my bonus will be.", "Q2": "No, the amount of cash at each node of the web may be different each time.", "Q3": "To get the highest total score.", "Q4": "Only before moving the spider.", "Q5": "3 seconds"}, "trial_id": "mouselab_quiz_control", "trial_type": "survey-multi-choice", "trial_index": 6, "time_elapsed": 590431, "internal_node_id": "0.0-2.0-4.0"}}, {"uniqueid": "w20539671:a21729965", "current_trial": 7, "dateTime": 1693390534806, "trialdata": {"rt": 6984, "response": {"Q0": "No"}, "question_order": [0], "trial_id": "repeat_check", "trial_type": "survey-multi-choice", "trial_index": 7, "time_elapsed": 597422, "internal_node_id": "0.0-4.0-0.0"}}, {"uniqueid": "w20539671:a21729965", "current_trial": 8, "dateTime": 1693390556457, "trialdata": {"rt": 21644, "stimulus": "\n<h1> Get ready to start the game! </h1>\n\nThank you for reading the instructions. Get ready start with the 40 rounds of this game.\n<br><br>\nIf you need to take a break, feel free to take one after the end of a round, before continuing to the next one.\n<br><br>\nRemember, the more money the spider gets, the bigger your bonus will be!\n<br><br>\n<div style='text-align: center;'>Press <code>space</code> to begin.</div>\n\n<br><br>\n(If, at any point, the <code>space</code> key does not take you to the next page, click once on the text and try again.)", "response": " ", "trial_id": "mdp_ready", "trial_type": "html-keyboard-response", "trial_index": 8, "time_elapsed": 619073, "internal_node_id": "0.0-6.0-0.0"}}, {"uniqueid": "w20539671:a21729965", "current_trial": 9, "dateTime": 1693390594381, "trialdata": {"revealed_states": [], "clicked_states": ["23", "1", "12", "13", "18", "15", "14", "16", "17", "19", "20", "21", "22"], "num_clicks_accrued": [0, 0, 0, 0, 0, 0, 0, 0, 0, 0, 0, 0, 0], "stateRewards": ["", -2, -1, -1, 5, -54, -87, 35, 2, -8, 20, -22, 1, 3, 6, 13, -75, -32, -55, -3, 56, 62, -22, -1, -4, -1, -7, -51, 84, 70, 7, -15, 5, 55], "withholdReward": false, "trial_id": "mdp_trial_1", "block": "test", "trialIndex": 2, "score": 50.8, "costs": -18.2, "simulationMode": [null, null, null, null, null], "rewards": [1, 3, 6, -3, 62], "path": ["0", "0", "12", "13", "14", "19", "21"], "rt": [28517, 323, 206, 343, 203], "actions": ["right", "right", "right", "down", "down"], "actionTimes": [31278, 32150, 32898, 33773, 34533], "queries": {"click": {"state": {"target": ["23", "1", "12", "13", "18", "15", "14", "16", "17", "19", "20", "21", "22"], "time": [3770, 5785, 7788, 9934, 11776, 13825, 15982, 18080, 20148, 22923, 24984, 27014, 28592]}, "edge": {"target": [], "time": []}}, "mouseover": {"state": {"target": ["23", "1", "1", "12", "12", "13", "18", "14", "15", "14", "16", "17", "15", "0", "12", "22", "19", "19", "20", "21", "22", "12"], "time": [3324, 4132, 5101, 6231, 6469, 8236, 10669, 12404, 12670, 14238, 16941, 18513, 20347, 21293, 21863, 22165, 22431, 22713, 23350, 25415, 27286, 30192]}, "edge": {"target": [], "time": []}}, "mouseout": {"state": {"target": ["0", "0", "23", "1", "1", "12", "12", "13", "18", "14", "15", "15", "14", "15", "16", "17", "15", "0", "12", "22", "19", "19", "19", "20", "21", "22", "22", "12"], "time": [912, 3205, 3902, 4694, 6095, 6265, 8168, 10472, 12177, 12638, 13874, 14102, 16279, 16640, 18275, 20344, 20444, 21351, 21914, 22182, 22514, 22994, 23219, 25215, 27219, 29323, 29492, 30655]}, "edge": {"target": [], "time": []}}}, "displayed_time": "35.06", "trialTime": 37660, "trial_type": "mouselab-mdp", "trial_index": 9, "time_elapsed": 656995, "internal_node_id": "0.0-6.0-1.0-0.0"}}, {"uniqueid": "w20539671:a21729965", "current_trial": 10, "dateTime": 1693390639222, "trialdata": {"revealed_states": [], "clicked_states": ["23", "1", "12", "24", "25", "26", "30", "32", "31", "33", "27", "29", "28", "13", "17"], "num_clicks_accrued": [0, 0, 0, 0, 0, 0, 0, 0, 0, 0, 0, 0, 0], "stateRewards": ["", -1, 4, -8, 12, 14, 69, -8, 5, -72, -14, 56, -1, -1, -1, 9, 67, 19, 11, -9, -88, -58, 3, 2, -4, -8, 4, 62, 77, -74, 5, -31, 65, 88], "withholdReward": false, "trial_id": "mdp_trial_2", "block": "test", "trialIndex": 3, "score": 62, "costs": -20.999999999999996, "simulationMode": [null, null, null, null, null], "rewards": [2, -4, -8, 5, 88], "path": ["0", "0", "23", "24", "25", "30", "33"], "rt": [34671, 204, 196, 299, 228], "actions": ["left", "left", "left", "down", "left"], "actionTimes": [36268, 37012, 37741, 38580, 39340], "queries": {"click": {"state": {"target": ["23", "1", "12", "24", "25", "26", "30", "32", "31", "33", "27", "29", "28", "13", "17"], "time": [2144, 4212, 6319, 8400, 10484, 12560, 14598, 17358, 19777, 21834, 24299, 26358, 28435, 31024, 33491]}, "edge": {"target": [], "time": []}}, "mouseover": {"state": {"target": ["0", "23", "1", "12", "0", "0", "13", "24", "25", "30", "26", "26", "30", "27", "33", "32", "31", "27", "31", "30", "33", "26", "27", "26", "29", "26", "28", "24", "33", "23", "0", "12", "13", "13", "14", "14", "15", "17", "15", "16", "18", "0"], "time": [1605, 1746, 2501, 4637, 6516, 6946, 7238, 7911, 9107, 10743, 11851, 12202, 12915, 15351, 16894, 17045, 17582, 18557, 19295, 20121, 20424, 22824, 23129, 24558, 25225, 26592, 26825, 28729, 29131, 30193, 30227, 30324, 30491, 30795, 31463, 32726, 33008, 33277, 33766, 33967, 34970, 35036]}, "edge": {"target": [], "time": []}}, "mouseout": {"state": {"target": ["0", "0", "23", "1", "12", "0", "0", "12", "13", "24", "25", "30", "25", "26", "26", "26", "25", "30", "30", "25", "26", "27", "33", "32", "31", "27", "31", "30", "33", "26", "27", "26", "33", "29", "26", "28", "24", "33", "23", "0", "12", "13", "13", "14", "14", "15", "17", "15", "16", "18", "0", "21", "21"], "time": [1101, 1695, 2266, 4436, 6511, 6539, 6977, 7106, 7479, 8674, 10676, 11646, 11710, 12083, 12619, 12743, 12811, 14879, 14980, 15013, 15247, 16844, 16944, 17414, 18190, 19199, 19951, 20189, 22093, 22854, 24459, 24591, 25027, 26559, 26659, 28698, 28759, 30035, 30212, 30291, 30448, 30645, 31365, 32265, 32858, 33199, 33664, 33800, 34941, 35005, 35068, 41039, 42564]}, "edge": {"target": [], "time": []}}}, "displayed_time": "39.88", "trialTime": 44572, "trial_type": "mouselab-mdp", "trial_index": 10, "time_elapsed": 701836, "internal_node_id": "0.0-6.0-1.0-1.0"}}, {"uniqueid": "w20539671:a21729965", "current_trial": 11, "dateTime": 1693390691181, "trialdata": {"revealed_states": [], "clicked_states": ["23", "12", "21", "22", "20", "19", "15", "14", "18", "1", "7", "6", "4", "8", "26", "30", "24", "28"], "num_clicks_accrued": [0, 0, 0, 0, 0, 0, 0, 0, 0, 0, 0, 0, 0], "stateRewards": ["", -2, -1, 3, -3, 71, -58, -21, 7, -10, -75, -37, 2, 4, -1, -12, -79, -29, -48, 3, -41, -10, -30, -1, -2, 1, -15, 13, 66, 22, -1, -42, -86, -55], "withholdReward": false, "trial_id": "mdp_trial_3", "block": "test", "trialIndex": 4, "score": 23.80000000000001, "costs": -25.199999999999992, "simulationMode": [null, null, null, null, null], "rewards": [-1, -2, 1, -15, 66], "path": ["0", "0", "23", "24", "25", "26", "28"], "rt": [43371, 167, 244, 240, 207], "actions": ["left", "left", "left", "up", "right"], "actionTimes": [44530, 45241, 46009, 46777, 47514], "queries": {"click": {"state": {"target": ["23", "12", "21", "22", "20", "19", "15", "14", "18", "1", "7", "6", "4", "8", "26", "30", "24", "28"], "time": [2143, 4720, 7746, 10085, 12178, 14238, 16708, 18798, 21283, 24111, 26590, 28894, 31154, 33321, 35373, 37443, 39565, 41623]}, "edge": {"target": [], "time": []}}, "mouseover": {"state": {"target": ["23", "1", "1", "1", "12", "13", "19", "21", "14", "19", "21", "20", "19", "22", "19", "20", "14", "19", "14", "15", "14", "15", "14", "13", "18", "18", "18", "2", "1", "17", "7", "2", "1", "2", "7", "4", "6", "5", "4", "3", "8", "10", "24", "26", "25", "30", "24", "31", "24", "28", "28", "26", "27", "31"], "time": [1770, 2393, 2691, 3459, 4397, 4956, 5455, 5728, 7012, 7143, 7360, 8460, 9591, 9858, 10329, 10495, 12565, 13063, 14499, 14734, 16163, 16425, 16899, 19034, 19302, 19602, 20402, 21740, 22672, 23210, 23402, 23472, 23771, 24476, 26185, 27086, 27886, 29386, 30313, 31349, 32187, 33684, 33785, 34452, 35627, 35989, 38124, 38921, 39136, 40064, 40759, 41995, 42197, 43067]}, "edge": {"target": [], "time": []}}, "mouseout": {"state": {"target": ["0", "0", "23", "1", "1", "1", "12", "13", "19", "21", "14", "19", "21", "20", "19", "22", "19", "20", "14", "19", "14", "15", "14", "15", "14", "13", "18", "18", "18", "2", "1", "17", "7", "2", "1", "2", "7", "4", "6", "5", "4", "3", "8", "10", "24", "26", "26", "25", "30", "30", "24", "31", "24", "24", "24", "28", "28", "26", "27", "31"], "time": [547, 1208, 2258, 2425, 3126, 4148, 4770, 5133, 5556, 6821, 7092, 7210, 7800, 9368, 9742, 10228, 10362, 12363, 12963, 14322, 14639, 16137, 16370, 16839, 18938, 19235, 19402, 19904, 21571, 22378, 22739, 23338, 23453, 23676, 24347, 26035, 26736, 27613, 28905, 30280, 31193, 31448, 33584, 33718, 33951, 35424, 35623, 35690, 37485, 37653, 38858, 39107, 39603, 39757, 39962, 40591, 41828, 42027, 42697, 44763]}, "edge": {"target": [], "time": []}}}, "displayed_time": "48.07", "trialTime": 51705, "trial_type": "mouselab-mdp", "trial_index": 11, "time_elapsed": 753795, "internal_node_id": "0.0-6.0-1.0-2.0"}}, {"uniqueid": "w20539671:a21729965", "current_trial": 12, "dateTime": 1693390728300, "trialdata": {"revealed_states": [], "clicked_states": ["19", "15", "4", "8", "26", "30", "6", "5", "7", "1", "2", "3"], "num_clicks_accrued": [0, 0, 0, 0, 0, 0, 0, 0, 0, 0, 0, 0, 0], "stateRewards": ["", -1, -3, -6, 14, 41, 18, 63, -14, 80, 21, 17, -2, -4, -2, -5, 13, 70, 8, -4, -64, -10, -20, 2, -1, 4, -1, -17, -55, 42, -7, 47, 54, 15], "withholdReward": false, "trial_id": "mdp_trial_4", "block": "test", "trialIndex": 5, "score": 50.2, "costs": -16.8, "simulationMode": [null, null, null, null, null], "rewards": [-1, -3, -6, 14, 63], "path": ["0", "0", "1", "2", "3", "4", "7"], "rt": [28702, 163, 186, 233, 610], "actions": ["up", "up", "up", "right", "down"], "actionTimes": [30492, 31197, 31917, 32661, 33804], "queries": {"click": {"state": {"target": ["19", "15", "4", "8", "26", "30", "6", "5", "7", "1", "2", "3"], "time": [2824, 5016, 7058, 9320, 11408, 13475, 16632, 19144, 21179, 23204, 26103, 28366]}, "edge": {"target": [], "time": []}}, "mouseover": {"state": {"target": ["12", "22", "19", "14", "15", "4", "4", "3", "8", "26", "25", "30", "24", "2", "3", "4", "6", "5", "4", "1", "4", "5", "4", "7", "1", "2", "3", "2", "4", "7", "4", "7", "7", "3", "7", "7"], "time": [1819, 2157, 2543, 3126, 3628, 5729, 5999, 7399, 7874, 9838, 11671, 11870, 13740, 14305, 15802, 16303, 16333, 16980, 17508, 17911, 18624, 18779, 19311, 19376, 21588, 23515, 23815, 25947, 26455, 26822, 27120, 27553, 27930, 28114, 28556, 30133]}, "edge": {"target": [], "time": []}}, "mouseout": {"state": {"target": ["0", "12", "22", "19", "14", "15", "4", "4", "3", "8", "26", "25", "30", "24", "2", "3", "4", "6", "5", "4", "1", "4", "5", "4", "7", "1", "2", "3", "7", "7", "2", "4", "7", "4", "7", "7", "3", "7", "7", "12", "0", "12"], "time": [1474, 1868, 2360, 3000, 3529, 5296, 5904, 7130, 7631, 9542, 11602, 11803, 13674, 13807, 15676, 16272, 16319, 16807, 17476, 17577, 18542, 18652, 19264, 19344, 21386, 23347, 23681, 23916, 25031, 25412, 26154, 26697, 27020, 27161, 27589, 27948, 28521, 28589, 30357, 34192, 34832, 35227]}, "edge": {"target": [], "time": []}}}, "displayed_time": "34.33", "trialTime": 36780, "trial_type": "mouselab-mdp", "trial_index": 12, "time_elapsed": 790915, "internal_node_id": "0.0-6.0-1.0-3.0"}}, {"uniqueid": "w20539671:a21729965", "current_trial": 13, "dateTime": 1693390774709, "trialdata": {"revealed_states": [], "clicked_states": ["14", "3", "25", "26", "30", "8", "4", "19", "15", "31", "33", "32", "16", "17", "18"], "num_clicks_accrued": [0, 0, 0, 0, 0, 0, 0, 0, 0, 0, 0, 0, 0], "stateRewards": ["", 1, -4, -4, 8, 1, -79, 68, -10, -79, 8, -74, -1, -3, -6, 14, 43, 23, 9, 5, -51, 63, 61, -2, 4, 6, -10, 69, -32, 57, 15, -80, -80, -77], "withholdReward": false, "trial_id": "mdp_trial_5", "block": "test", "trialIndex": 6, "score": 26.000000000000004, "costs": -20.999999999999996, "simulationMode": [null, null, null, null, null], "rewards": [-1, -3, -6, 14, 43], "path": ["0", "0", "12", "13", "14", "15", "16"], "rt": [38446, 196, 251, 146, 227], "actions": ["right", "right", "right", "up", "up"], "actionTimes": [40236, 40971, 41732, 42420, 43171], "queries": {"click": {"state": {"target": ["14", "3", "25", "26", "30", "8", "4", "19", "15", "31", "33", "32", "16", "17", "18"], "time": [4082, 6713, 9022, 12174, 14302, 16307, 18389, 22077, 24253, 27312, 29388, 31500, 33656, 36064, 38118]}, "edge": {"target": [], "time": []}}, "mouseover": {"state": {"target": ["12", "13", "14", "14", "1", "7", "4", "3", "2", "28", "25", "24", "23", "2", "4", "4", "10", "28", "26", "30", "24", "8", "3", "4", "7", "7", "6", "5", "15", "14", "19", "19", "14", "15", "18", "18", "12", "31", "12", "18", "31", "31", "30", "33", "32", "0", "18", "16", "17", "15", "18", "13", "13", "12", "13", "13"], "time": [1894, 2698, 3354, 3918, 4601, 4667, 4934, 6383, 7142, 7939, 8303, 9204, 9544, 10077, 10347, 11281, 11342, 11646, 11693, 12709, 14511, 14946, 16514, 16581, 18615, 20119, 20589, 20950, 21206, 21409, 21445, 21884, 22317, 22553, 24660, 25322, 25497, 26007, 26503, 26701, 26746, 27098, 27664, 28223, 29659, 31795, 32127, 32396, 34235, 36231, 36436, 38334, 38538, 39036, 39504, 39913]}, "edge": {"target": [], "time": []}}, "mouseout": {"state": {"target": ["0", "0", "12", "13", "14", "14", "1", "7", "4", "3", "2", "28", "25", "24", "23", "2", "4", "4", "10", "28", "26", "30", "24", "8", "3", "4", "7", "7", "6", "5", "15", "14", "19", "19", "14", "15", "18", "18", "12", "31", "12", "18", "31", "31", "30", "33", "32", "31", "0", "18", "16", "17", "15", "18", "13", "13", "12", "13", "13", "13", "22"], "time": [883, 1861, 2519, 3204, 3718, 4141, 4634, 4701, 6356, 6935, 7640, 8070, 9171, 9237, 9847, 10145, 10682, 11304, 11404, 11677, 12291, 14476, 14543, 16486, 16549, 18583, 18647, 20326, 20823, 21155, 21290, 21428, 21662, 22143, 22354, 24492, 24790, 25492, 25527, 26467, 26527, 26732, 26772, 27490, 27961, 29559, 31631, 31693, 31929, 32166, 33863, 36204, 36368, 38269, 38369, 38572, 39371, 39670, 40006, 43884, 43910]}, "edge": {"target": [], "time": []}}}, "displayed_time": "43.72", "trialTime": 46123, "trial_type": "mouselab-mdp", "trial_index": 13, "time_elapsed": 837324, "internal_node_id": "0.0-6.0-1.0-4.0"}}, {"uniqueid": "w20539671:a21729965", "current_trial": 14, "dateTime": 1693390808820, "trialdata": {"revealed_states": [], "clicked_states": ["19", "15", "4", "8", "26", "30", "31", "32", "33", "24", "23"], "num_clicks_accrued": [0, 0, 0, 0, 0, 0, 0, 0, 0, 0, 0, 0, 0], "stateRewards": ["", -2, 3, -5, -7, 66, 43, -60, -4, -70, -75, 4, -1, 2, 2, -13, 54, 11, -40, -1, 77, 32, 15, -2, 3, -8, -9, -35, 83, -27, 6, -74, -34, 44], "withholdReward": false, "trial_id": "mdp_trial_6", "block": "test", "trialIndex": 7, "score": 27.599999999999998, "costs": -15.400000000000002, "simulationMode": [null, null, null, null, null], "rewards": [-2, 3, -8, 6, 44], "path": ["0", "0", "23", "24", "25", "30", "33"], "rt": [25260, 148, 213, 222, 240], "actions": ["left", "left", "left", "down", "left"], "actionTimes": [28054, 28756, 29518, 30290, 31044], "queries": {"click": {"state": {"target": ["19", "15", "4", "8", "26", "30", "31", "32", "33", "24", "23"], "time": [4338, 6470, 8496, 10550, 12577, 14516, 17770, 19815, 21898, 23986, 26044]}, "edge": {"target": [], "time": []}}, "mouseover": {"state": {"target": ["12", "13", "14", "19", "14", "15", "15", "18", "6", "4", "8", "26", "25", "30", "23", "23", "24", "25", "31", "32", "33", "25", "24", "23", "30", "30"], "time": [3309, 3548, 3868, 4188, 4947, 5047, 5909, 6944, 7180, 7412, 8854, 11852, 12855, 13588, 14988, 15457, 16848, 17257, 17461, 18121, 20322, 22859, 23058, 24425, 27062, 27371]}, "edge": {"target": [], "time": []}}, "mouseout": {"state": {"target": ["0", "0", "12", "13", "14", "19", "14", "15", "15", "15", "18", "6", "4", "8", "26", "25", "30", "23", "23", "24", "25", "31", "31", "32", "33", "25", "24", "24", "23", "30", "30"], "time": [918, 3072, 3514, 3662, 4005, 4388, 5013, 5212, 6527, 6680, 7044, 7286, 8784, 10789, 12820, 12984, 14752, 15227, 15890, 16964, 17360, 17815, 17919, 19870, 22125, 23024, 24048, 24193, 26197, 27095, 27403]}, "edge": {"target": [], "time": []}}}, "displayed_time": "31.57", "trialTime": 33827, "trial_type": "mouselab-mdp", "trial_index": 14, "time_elapsed": 871434, "internal_node_id": "0.0-6.0-1.0-5.0"}}, {"uniqueid": "w20539671:a21729965", "current_trial": 15, "dateTime": 1693390838909, "trialdata": {"revealed_states": [], "clicked_states": ["12", "19", "15", "4", "30", "18", "16", "17"], "num_clicks_accrued": [0, 0, 0, 0, 0, 0, 0, 0, 0, 0, 0, 0, 0], "stateRewards": ["", -1, -3, -5, -14, -13, -47, 79, 8, -60, -64, 41, -1, 2, 3, 13, -46, 61, -79, -11, -64, -65, 23, 1, -2, 6, -14, 46, 32, 21, 7, 75, -66, 15], "withholdReward": false, "trial_id": "mdp_trial_7", "block": "test", "trialIndex": 8, "score": 66.8, "costs": -11.200000000000001, "simulationMode": [null, null, null, null, null], "rewards": [-1, 2, 3, 13, 61], "path": ["0", "0", "12", "13", "14", "15", "17"], "rt": [21462, 174, 209, 203, 218], "actions": ["right", "right", "right", "up", "right"], "actionTimes": [23932, 24660, 25425, 26178, 26939], "queries": {"click": {"state": {"target": ["12", "19", "15", "4", "30", "18", "16", "17"], "time": [4018, 7055, 9122, 11244, 14602, 16671, 18797, 20841]}, "edge": {"target": [], "time": []}}, "mouseover": {"state": {"target": ["22", "19", "13", "12", "1", "14", "19", "13", "1", "13", "19", "14", "15", "15", "18", "7", "2", "4", "4", "3", "8", "8", "10", "24", "30", "0", "12", "18", "18", "16", "16", "17", "14", "13"], "time": [2666, 3086, 3516, 3858, 4390, 4957, 5156, 5962, 6115, 6398, 6462, 7194, 7387, 7659, 9323, 9724, 9762, 10128, 10663, 11461, 11699, 12471, 13532, 13595, 14369, 14800, 14895, 15297, 15631, 17299, 18132, 19402, 21177, 22469]}, "edge": {"target": [], "time": []}}, "mouseout": {"state": {"target": ["0", "22", "19", "13", "12", "1", "14", "19", "13", "12", "1", "13", "19", "14", "15", "15", "18", "7", "2", "4", "4", "3", "8", "8", "10", "24", "30", "0", "12", "18", "18", "16", "16", "17", "14", "13"], "time": [1641, 2815, 3374, 3607, 4080, 4791, 5025, 5924, 5997, 6033, 6347, 6418, 7161, 7255, 7455, 9290, 9357, 9759, 9993, 10258, 11430, 11527, 12229, 13509, 13550, 13822, 14709, 14862, 14996, 15463, 16724, 17798, 19000, 21041, 21501, 24476]}, "edge": {"target": [], "time": []}}}, "displayed_time": "27.49", "trialTime": 29794, "trial_type": "mouselab-mdp", "trial_index": 15, "time_elapsed": 901523, "internal_node_id": "0.0-6.0-1.0-6.0"}}, {"uniqueid": "w20539671:a21729965", "current_trial": 16, "dateTime": 1693390859305, "trialdata": {"revealed_states": [], "clicked_states": ["19", "15", "20", "22", "21"], "num_clicks_accrued": [0, 0, 0, 0, 0, 0, 0, 0, 0, 0, 0, 0, 0], "stateRewards": ["", 2, -4, -4, 13, -80, 62, 13, -11, 57, -13, -44, 1, 4, 3, -4, -29, -88, 15, 16, -58, 68, -45, -1, -3, -1, -9, -44, -86, -19, -7, -36, 59, 66], "withholdReward": false, "trial_id": "mdp_trial_8", "block": "test", "trialIndex": 9, "score": 85, "costs": -7, "simulationMode": [null, null, null, null, null], "rewards": [1, 4, 3, 16, 68], "path": ["0", "0", "12", "13", "14", "19", "21"], "rt": [12978, 194, 328, 201, 233], "actions": ["right", "right", "right", "down", "down"], "actionTimes": [14333, 15065, 15962, 16699, 17466], "queries": {"click": {"state": {"target": ["19", "15", "20", "22", "21"], "time": [2659, 4749, 6946, 9045, 11137]}, "edge": {"target": [], "time": []}}, "mouseover": {"state": {"target": ["12", "13", "14", "19", "14", "15", "18", "7", "18", "20", "20", "22", "21", "19", "13", "14", "13"], "time": [1634, 1905, 2120, 2385, 2809, 2975, 4977, 5477, 5545, 5845, 6246, 7782, 9349, 11321, 11554, 13297, 13587]}, "edge": {"target": [], "time": []}}, "mouseout": {"state": {"target": ["0", "12", "13", "14", "19", "14", "15", "18", "7", "18", "20", "20", "22", "21", "19", "13", "14", "13"], "time": [1409, 1877, 2054, 2312, 2774, 2875, 4945, 5048, 5511, 5578, 6013, 7083, 9249, 11283, 11420, 11786, 13315, 14923]}, "edge": {"target": [], "time": []}}}, "displayed_time": "17.99", "trialTime": 20088, "trial_type": "mouselab-mdp", "trial_index": 16, "time_elapsed": 921920, "internal_node_id": "0.0-6.0-1.0-7.0"}}, {"uniqueid": "w20539671:a21729965", "current_trial": 17, "dateTime": 1693390882596, "trialdata": {"revealed_states": [], "clicked_states": ["26", "30", "27", "28", "29", "24"], "num_clicks_accrued": [0, 0, 0, 0, 0, 0, 0, 0, 0, 0, 0, 0, 0], "stateRewards": ["", 1, 2, -3, -5, 66, -50, -47, -5, 1, 28, -27, 1, 1, -1, -6, 37, -25, 56, 1, -82, -66, -40, -1, -4, -7, 15, -61, -23, 26, 10, 14, -56, 29], "withholdReward": false, "trial_id": "mdp_trial_9", "block": "test", "trialIndex": 10, "score": 20.6, "costs": -8.4, "simulationMode": [null, null, null, null, null], "rewards": [-1, -4, -7, 15, 26], "path": ["0", "0", "23", "24", "25", "26", "29"], "rt": [15606, 184, 232, 240, 192], "actions": ["left", "left", "left", "up", "left"], "actionTimes": [16977, 17707, 18458, 19226, 19987], "queries": {"click": {"state": {"target": ["26", "30", "27", "28", "29", "24"], "time": [3026, 5171, 7372, 9458, 11560, 14528]}, "edge": {"target": [], "time": []}}, "mouseover": {"state": {"target": ["23", "24", "28", "26", "25", "30", "28", "25", "27", "26", "28", "26", "29", "25", "30", "30", "25", "24", "24", "25", "31"], "time": [2205, 2350, 2539, 2724, 3200, 3407, 5736, 6105, 6571, 7605, 8010, 9615, 9775, 11775, 11979, 12778, 13284, 13938, 14190, 14812, 16019]}, "edge": {"target": [], "time": []}}, "mouseout": {"state": {"target": ["0", "23", "24", "28", "26", "25", "30", "28", "25", "26", "27", "26", "28", "26", "29", "25", "30", "30", "25", "24", "24", "24", "25", "31", "31"], "time": [2184, 2321, 2508, 2552, 3167, 3233, 5403, 6044, 6240, 6337, 7571, 7638, 9582, 9674, 11717, 11875, 12042, 12977, 13917, 13964, 14580, 14747, 14847, 16656, 20774]}, "edge": {"target": [], "time": []}}}, "displayed_time": "20.53", "trialTime": 22881, "trial_type": "mouselab-mdp", "trial_index": 17, "time_elapsed": 945211, "internal_node_id": "0.0-6.0-1.0-8.0"}}, {"uniqueid": "w20539671:a21729965", "current_trial": 18, "dateTime": 1693390903246, "trialdata": {"revealed_states": [], "clicked_states": ["15", "19", "21", "22", "20"], "num_clicks_accrued": [0, 0, 0, 0, 0, 0, 0, 0, 0, 0, 0, 0, 0], "stateRewards": ["", 2, 3, -2, -8, -8, -41, 74, 15, -23, -80, 1, 1, 3, 3, -15, -63, -78, 67, 13, 75, -41, 86, 2, -2, 6, -3, -8, -49, 50, -6, 83, 74, 80], "withholdReward": false, "trial_id": "mdp_trial_10", "block": "test", "trialIndex": 11, "score": 99, "costs": -7, "simulationMode": [null, null, null, null, null], "rewards": [1, 3, 3, 13, 86], "path": ["0", "0", "12", "13", "14", "19", "22"], "rt": [12689, 169, 244, 235, 201], "actions": ["right", "right", "right", "down", "left"], "actionTimes": [15286, 15986, 16764, 17525, 18252], "queries": {"click": {"state": {"target": ["15", "19", "21", "22", "20"], "time": [4245, 6112, 8697, 10856, 13051]}, "edge": {"target": [], "time": []}}, "mouseover": {"state": {"target": ["13", "14", "15", "14", "19", "22", "23", "24", "25", "30", "21", "22", "13", "22", "20", "13"], "time": [2995, 3431, 3782, 4470, 4708, 6538, 6879, 7103, 7572, 7839, 8343, 8904, 9545, 10076, 11514, 14447]}, "edge": {"target": [], "time": []}}, "mouseout": {"state": {"target": ["0", "13", "14", "15", "14", "19", "22", "23", "24", "25", "30", "21", "22", "13", "22", "20", "22", "13"], "time": [2704, 3173, 3565, 4402, 4536, 6477, 6605, 7039, 7204, 7608, 7979, 8821, 9373, 9876, 11007, 13245, 14244, 15612]}, "edge": {"target": [], "time": []}}}, "displayed_time": "18.80", "trialTime": 20340, "trial_type": "mouselab-mdp", "trial_index": 18, "time_elapsed": 965861, "internal_node_id": "0.0-6.0-1.0-9.0"}}, {"uniqueid": "w20539671:a21729965", "current_trial": 19, "dateTime": 1693390921030, "trialdata": {"revealed_states": [], "clicked_states": ["4", "5"], "num_clicks_accrued": [0, 0, 0, 0, 0, 0, 0, 0, 0, 0, 0, 0, 0], "stateRewards": ["", -1, 4, -3, 3, 57, -61, 5, -11, 23, -1, 34, -2, -4, -1, -13, 27, 38, -36, 4, -45, 21, 88, 1, -2, -1, 1, -69, -5, -78, -12, -9, 38, -54], "withholdReward": false, "trial_id": "mdp_trial_11", "block": "test", "trialIndex": 12, "score": 57.2, "costs": -2.8, "simulationMode": [null, null, null, null, null], "rewards": [-1, 4, -3, 3, 57], "path": ["0", "0", "1", "2", "3", "4", "5"], "rt": [7885, 159, 209, 250, 182], "actions": ["up", "up", "up", "right", "up"], "actionTimes": [9624, 10311, 11054, 11830, 12569], "queries": {"click": {"state": {"target": ["4", "5"], "time": [3557, 6674]}, "edge": {"target": [], "time": []}}, "mouseover": {"state": {"target": ["19", "14", "15", "4", "7", "2", "10", "11", "8", "3", "5", "6", "7"], "time": [2504, 2614, 2698, 3387, 3801, 4237, 4369, 4703, 5297, 5971, 6305, 7074, 8112]}, "edge": {"target": [], "time": []}}, "mouseout": {"state": {"target": ["0", "19", "14", "15", "4", "7", "2", "10", "11", "8", "3", "5", "4", "6", "7"], "time": [1932, 2567, 2680, 2966, 3768, 3869, 4269, 4402, 5232, 5956, 5998, 6838, 7007, 7374, 9810]}, "edge": {"target": [], "time": []}}}, "displayed_time": "15.74", "trialTime": 17471, "trial_type": "mouselab-mdp", "trial_index": 19, "time_elapsed": 983644, "internal_node_id": "0.0-6.0-1.0-10.0"}}, {"uniqueid": "w20539671:a21729965", "current_trial": 20, "dateTime": 1693390945564, "trialdata": {"revealed_states": [], "clicked_states": ["15", "14", "16", "18", "17", "20"], "num_clicks_accrued": [0, 0, 0, 0, 0, 0, 0, 0, 0, 0, 0, 0, 0], "stateRewards": ["", -1, -4, -1, -11, 43, 69, 39, 4, 17, -20, -82, -2, -1, 4, 8, -79, 24, -79, 11, 36, 64, 41, 2, 4, -1, 11, -79, -47, 75, -3, 63, -36, -19], "withholdReward": false, "trial_id": "mdp_trial_12", "block": "test", "trialIndex": 13, "score": 39.6, "costs": -8.4, "simulationMode": [null, null, null, null, null], "rewards": [-2, -1, 4, 11, 36], "path": ["0", "0", "12", "13", "14", "19", "20"], "rt": [16618, 193, 228, 258, 243], "actions": ["right", "right", "right", "down", "right"], "actionTimes": [17994, 18738, 19506, 20298, 21097], "queries": {"click": {"state": {"target": ["15", "14", "16", "18", "17", "20"], "time": [2632, 5357, 7675, 9784, 11872, 15273]}, "edge": {"target": [], "time": []}}, "mouseover": {"state": {"target": ["12", "13", "14", "15", "14", "19", "14", "16", "16", "16", "18", "15", "17", "14", "19", "19", "20", "20", "21"], "time": [1691, 1796, 2013, 2366, 2923, 3122, 4997, 5829, 6396, 7343, 8128, 10033, 10255, 12196, 12300, 13623, 14610, 15088, 15933]}, "edge": {"target": [], "time": []}}, "mouseout": {"state": {"target": ["0", "12", "13", "14", "15", "14", "19", "14", "16", "16", "16", "16", "18", "15", "17", "14", "19", "19", "20", "20", "21"], "time": [1653, 1766, 1847, 2230, 2856, 3055, 4955, 5420, 6132, 6795, 7734, 7897, 10004, 10067, 12099, 12265, 12399, 14587, 14632, 15499, 21407]}, "edge": {"target": [], "time": []}}}, "displayed_time": "21.65", "trialTime": 24208, "trial_type": "mouselab-mdp", "trial_index": 20, "time_elapsed": 1008179, "internal_node_id": "0.0-6.0-1.0-11.0"}}, {"uniqueid": "w20539671:a21729965", "current_trial": 21, "dateTime": 1693390978690, "trialdata": {"revealed_states": [], "clicked_states": ["30", "26", "8", "4", "6", "7", "5", "15", "19", "17", "16"], "num_clicks_accrued": [0, 0, 0, 0, 0, 0, 0, 0, 0, 0, 0, 0, 0], "stateRewards": ["", -1, 2, 6, 11, 21, -21, -21, -6, 48, -71, 88, -1, -3, 3, 7, 64, 2, 9, -4, 37, -67, 72, 2, 2, -8, -8, -10, 71, -40, -3, 73, 80, 47], "withholdReward": false, "trial_id": "mdp_trial_13", "block": "test", "trialIndex": 14, "score": 54.599999999999994, "costs": -15.400000000000002, "simulationMode": [null, null, null, null, null], "rewards": [-1, -3, 3, 7, 64], "path": ["0", "0", "12", "13", "14", "15", "16"], "rt": [26525, 87, 207, 205, 260], "actions": ["right", "right", "right", "up", "up"], "actionTimes": [27783, 28403, 29128, 29863, 30646], "queries": {"click": {"state": {"target": ["30", "26", "8", "4", "6", "7", "5", "15", "19", "17", "16"], "time": [2332, 4576, 6624, 8705, 11562, 13656, 15734, 18441, 20666, 22882, 25009]}, "edge": {"target": [], "time": []}}, "mouseover": {"state": {"target": ["31", "30", "24", "26", "10", "2", "3", "3", "8", "3", "4", "18", "15", "6", "6", "7", "4", "5", "4", "18", "15", "15", "14", "19", "16", "14", "17", "16", "18", "18"], "time": [1719, 2053, 2921, 3258, 4825, 4996, 5125, 5457, 5529, 6832, 6894, 9029, 9496, 11105, 11350, 12433, 13866, 14000, 15969, 16140, 16504, 18133, 18641, 18771, 21642, 22214, 22497, 23244, 25278, 25384]}, "edge": {"target": [], "time": []}}, "mouseout": {"state": {"target": ["0", "31", "30", "24", "26", "10", "2", "3", "3", "8", "3", "4", "18", "15", "6", "6", "7", "4", "5", "4", "18", "15", "15", "15", "14", "19", "16", "14", "17", "16", "18", "18", "12"], "time": [889, 1919, 2405, 2956, 4724, 4897, 5025, 5290, 5492, 6829, 6860, 8927, 9061, 10991, 11215, 11732, 13834, 13900, 15935, 16000, 16172, 17907, 18494, 18606, 18737, 20946, 21910, 22359, 23051, 25177, 25311, 30815, 30950]}, "edge": {"target": [], "time": []}}}, "displayed_time": "31.19", "trialTime": 32812, "trial_type": "mouselab-mdp", "trial_index": 21, "time_elapsed": 1041305, "internal_node_id": "0.0-6.0-1.0-12.0"}}, {"uniqueid": "w20539671:a21729965", "current_trial": 22, "dateTime": 1693391010078, "trialdata": {"revealed_states": [], "clicked_states": ["15", "19", "4", "26", "30", "8", "9", "11", "10"], "num_clicks_accrued": [0, 0, 0, 0, 0, 0, 0, 0, 0, 0, 0, 0, 0], "stateRewards": ["", -2, 3, 3, -14, 62, 36, 49, 16, 11, 17, -84, 2, -1, 6, 2, -82, -73, 49, -6, -87, 48, 50, -1, -2, -1, -16, -11, 37, -44, 4, 55, 73, -10], "withholdReward": false, "trial_id": "mdp_trial_14", "block": "test", "trialIndex": 15, "score": 24.4, "costs": -12.600000000000001, "simulationMode": [null, null, null, null, null], "rewards": [-2, 3, 3, 16, 17], "path": ["0", "0", "1", "2", "3", "8", "10"], "rt": [23626, 807, 381, 312, 330], "actions": ["up", "up", "up", "left", "down"], "actionTimes": [24943, 26272, 27190, 28048, 28904], "queries": {"click": {"state": {"target": ["15", "19", "4", "26", "30", "8", "9", "11", "10"], "time": [2580, 4954, 8274, 11610, 13703, 16050, 18704, 20884, 22885]}, "edge": {"target": [], "time": []}}, "mouseover": {"state": {"target": ["12", "13", "14", "15", "13", "19", "22", "24", "28", "1", "18", "4", "3", "4", "7", "7", "8", "26", "8", "2", "1", "24", "30", "28", "8", "9", "8", "24", "24", "31", "31", "9", "10", "11", "10", "10", "2"], "time": [1438, 1656, 1967, 2057, 3571, 4656, 5143, 6950, 7157, 7222, 7287, 7658, 7924, 8041, 8474, 8878, 10429, 11090, 12016, 12344, 12586, 12746, 12912, 13913, 14015, 14148, 14514, 16350, 16885, 17287, 17384, 18490, 18985, 19852, 21228, 21458, 24524]}, "edge": {"target": [], "time": []}}, "mouseout": {"state": {"target": ["0", "12", "13", "14", "15", "13", "19", "22", "24", "28", "1", "18", "4", "3", "4", "7", "7", "8", "26", "8", "2", "1", "24", "30", "28", "8", "9", "8", "8", "24", "24", "31", "31", "9", "10", "11", "10", "10", "2", "1"], "time": [1389, 1471, 1687, 2008, 2739, 4466, 5140, 5174, 7041, 7176, 7248, 7559, 7808, 8008, 8441, 8645, 9014, 10910, 11666, 12248, 12378, 12620, 12847, 13802, 13946, 14080, 14381, 16097, 16217, 16416, 17254, 17321, 18155, 18885, 19586, 21062, 21291, 23124, 25197, 25293]}, "edge": {"target": [], "time": []}}}, "displayed_time": "29.44", "trialTime": 31078, "trial_type": "mouselab-mdp", "trial_index": 22, "time_elapsed": 1072692, "internal_node_id": "0.0-6.0-1.0-13.0"}}, {"uniqueid": "w20539671:a21729965", "current_trial": 23, "dateTime": 1693391099975, "trialdata": {"revealed_states": [], "clicked_states": ["8", "4", "15", "19", "26", "30", "32", "31", "33", "24", "20", "21"], "num_clicks_accrued": [0, 0, 0, 0, 0, 0, 0, 0, 0, 0, 0, 0, 0], "stateRewards": ["", -2, -1, -3, -1, -78, -6, 2, -1, 22, -88, 32, 2, 2, -7, -8, -51, -17, 54, 2, -44, 54, 75, 2, -2, -8, -15, -29, 12, -67, 15, -1, -47, -47], "withholdReward": false, "trial_id": "mdp_trial_15", "block": "test", "trialIndex": 16, "score": 36.2, "costs": -16.8, "simulationMode": [null, null, null, null, null], "rewards": [2, 2, -7, 2, 54], "path": ["0", "0", "12", "13", "14", "19", "21"], "rt": [28086, 231, 237, 164, 254], "actions": ["right", "right", "right", "down", "down"], "actionTimes": [84821, 85590, 86357, 87061, 87844], "queries": {"click": {"state": {"target": ["8", "4", "15", "19", "26", "30", "32", "31", "33", "24", "20", "21"], "time": [57909, 59940, 61952, 63989, 66334, 68453, 71492, 73539, 75620, 77764, 79952, 81988]}, "edge": {"target": [], "time": []}}, "mouseover": {"state": {"target": ["7", "4", "3", "8", "3", "4", "7", "18", "14", "15", "14", "19", "24", "26", "24", "31", "30", "31", "32", "31", "33", "30", "24", "23", "0", "12", "13", "14", "20", "22", "21", "22"], "time": [57118, 57168, 57349, 57516, 58087, 58287, 60194, 60259, 60527, 60627, 62135, 62225, 64393, 64831, 66469, 67136, 67203, 68666, 71191, 71735, 73902, 75873, 76039, 78010, 78176, 78241, 78543, 78710, 79601, 80649, 80877, 82312]}, "edge": {"target": [], "time": []}}, "mouseout": {"state": {"target": ["19", "13", "12", "0", "0", "7", "4", "3", "8", "3", "4", "7", "18", "14", "15", "14", "19", "24", "26", "24", "31", "30", "31", "30", "32", "31", "33", "30", "24", "23", "0", "12", "13", "14", "20", "22", "21", "22"], "time": [55553, 55592, 55803, 55865, 57062, 57150, 57249, 57416, 58055, 58187, 60165, 60230, 60295, 60601, 62099, 62190, 64161, 64429, 66447, 66529, 67169, 68631, 68700, 70946, 71541, 73703, 75805, 75972, 77982, 78145, 78207, 78308, 78647, 79316, 80279, 80684, 82040, 85048]}, "edge": {"target": [], "time": []}}}, "displayed_time": "88.36", "trialTime": 89574, "trial_type": "mouselab-mdp", "trial_index": 23, "time_elapsed": 1162589, "internal_node_id": "0.0-6.0-1.0-14.0"}}, {"uniqueid": "w20539671:a21729965", "current_trial": 24, "dateTime": 1693391118054, "trialdata": {"revealed_states": [], "clicked_states": ["15", "19", "16"], "num_clicks_accrued": [0, 0, 0, 0, 0, 0, 0, 0, 0, 0, 0, 0, 0], "stateRewards": ["", -1, -2, -8, 8, -27, -82, 19, -14, -62, 4, 1, -2, 2, 6, 10, 73, -51, -2, 2, 73, -48, 54, -1, 2, -4, 11, -25, 47, 86, 15, 33, 43, -42], "withholdReward": false, "trial_id": "mdp_trial_16", "block": "test", "trialIndex": 17, "score": 84.8, "costs": -4.199999999999999, "simulationMode": [null, null, null, null, null], "rewards": [-2, 2, 6, 10, 73], "path": ["0", "0", "12", "13", "14", "15", "16"], "rt": [8315, 249, 416, 163, 208], "actions": ["right", "right", "right", "up", "up"], "actionTimes": [10581, 11357, 12328, 13046, 13792], "queries": {"click": {"state": {"target": ["15", "19", "16"], "time": [3497, 5563, 7541]}, "edge": {"target": [], "time": []}}, "mouseover": {"state": {"target": ["12", "13", "14", "15", "14", "19", "13", "17", "16", "18"], "time": [2708, 2800, 3067, 3199, 3631, 3833, 5766, 6367, 7001, 8338]}, "edge": {"target": [], "time": []}}, "mouseout": {"state": {"target": ["0", "0", "12", "13", "14", "15", "14", "19", "13", "17", "15", "16", "18", "12"], "time": [1554, 2365, 2768, 3041, 3150, 3613, 3696, 5613, 5799, 6399, 6867, 7734, 10877, 11212]}, "edge": {"target": [], "time": []}}}, "displayed_time": "16.27", "trialTime": 17693, "trial_type": "mouselab-mdp", "trial_index": 24, "time_elapsed": 1180668, "internal_node_id": "0.0-6.0-1.0-15.0"}}, {"uniqueid": "w20539671:a21729965", "current_trial": 25, "dateTime": 1693391155510, "trialdata": {"revealed_states": [], "clicked_states": ["8", "4", "15", "19", "26", "30", "24", "28", "27", "29", "20", "21", "22", "16"], "num_clicks_accrued": [0, 0, 0, 0, 0, 0, 0, 0, 0, 0, 0, 0, 0], "stateRewards": ["", -2, 2, -5, 1, 42, -63, -58, -6, 2, 16, 81, -2, 4, 7, -10, 33, 3, -33, -2, -52, -84, -27, 2, -3, -3, 15, -74, -14, -5, -5, -84, 79, -31], "withholdReward": false, "trial_id": "mdp_trial_17", "block": "test", "trialIndex": 18, "score": 12.400000000000002, "costs": -19.599999999999998, "simulationMode": [null, null, null, null, null], "rewards": [-2, 4, 7, -10, 33], "path": ["0", "0", "12", "13", "14", "15", "16"], "rt": [31397, 155, 149, 176, 208], "actions": ["right", "right", "right", "up", "up"], "actionTimes": [32599, 33305, 34001, 34720, 35457], "queries": {"click": {"state": {"target": ["8", "4", "15", "19", "26", "30", "24", "28", "27", "29", "20", "21", "22", "16"], "time": [2125, 4210, 6480, 8697, 10837, 13044, 15035, 17108, 19248, 21326, 23745, 25910, 28030, 30128]}, "edge": {"target": [], "time": []}}, "mouseover": {"state": {"target": ["1", "10", "8", "2", "7", "4", "14", "14", "15", "14", "19", "19", "26", "25", "30", "25", "24", "27", "28", "27", "29", "12", "13", "14", "19", "20", "19", "22", "14", "19", "21", "22", "14", "16", "17"], "time": [1290, 1533, 1924, 2256, 2279, 2785, 4617, 4780, 5113, 6647, 6748, 6920, 9486, 11086, 11387, 13257, 14261, 16259, 16627, 17458, 19735, 22101, 22245, 22302, 23304, 23548, 23938, 24134, 24498, 24900, 25234, 26668, 28202, 28736, 30607]}, "edge": {"target": [], "time": []}}, "mouseout": {"state": {"target": ["0", "1", "10", "8", "2", "7", "4", "14", "14", "15", "14", "19", "19", "26", "25", "30", "25", "24", "26", "27", "28", "27", "29", "12", "13", "14", "19", "20", "19", "22", "14", "19", "21", "22", "14", "16", "17", "14", "13"], "time": [1257, 1308, 1693, 2243, 2275, 2509, 4378, 4648, 4982, 6614, 6715, 6848, 8806, 11052, 11252, 13188, 14023, 15074, 15390, 16526, 17220, 19428, 21734, 22239, 22269, 22768, 23529, 23935, 24065, 24168, 24845, 25034, 26035, 28117, 28406, 30338, 32750, 33042, 33141]}, "edge": {"target": [], "time": []}}}, "displayed_time": "35.98", "trialTime": 37112, "trial_type": "mouselab-mdp", "trial_index": 25, "time_elapsed": 1218125, "internal_node_id": "0.0-6.0-1.0-16.0"}}, {"uniqueid": "w20539671:a21729965", "current_trial": 26, "dateTime": 1693391180422, "trialdata": {"revealed_states": [], "clicked_states": ["14", "25", "3", "9", "8", "10"], "num_clicks_accrued": [0, 0, 0, 0, 0, 0, 0, 0, 0, 0, 0, 0, 0], "stateRewards": ["", 2, -2, 7, -11, -76, -65, -23, 16, -58, 30, 81, 1, 2, 7, 14, 9, 55, -2, 6, 11, -15, 31, -1, -1, -3, 2, 15, 2, 46, 15, 18, 45, -34], "withholdReward": false, "trial_id": "mdp_trial_18", "block": "test", "trialIndex": 19, "score": 44.6, "costs": -8.4, "simulationMode": [null, null, null, null, null], "rewards": [2, -2, 7, 16, 30], "path": ["0", "0", "1", "2", "3", "8", "10"], "rt": [18630, 224, 206, 195, 208], "actions": ["up", "up", "up", "left", "down"], "actionTimes": [19616, 20361, 21122, 21872, 22616], "queries": {"click": {"state": {"target": ["14", "25", "3", "9", "8", "10"], "time": [2632, 4975, 7604, 10838, 14091, 16571]}, "edge": {"target": [], "time": []}}, "mouseover": {"state": {"target": ["12", "13", "14", "15", "14", "12", "0", "23", "25", "2", "26", "10", "8", "3", "10", "24", "23", "1", "2", "4", "5", "6", "4", "9", "4", "6", "7", "3", "8", "4", "3", "8", "10", "2", "4", "3", "10", "4", "4", "7", "2"], "time": [1051, 1135, 1455, 1757, 2401, 2817, 2952, 3219, 3486, 5419, 5720, 6121, 6746, 7068, 7822, 8191, 8931, 9023, 9191, 9553, 9794, 9969, 10228, 10603, 11193, 11792, 12427, 12944, 13099, 13323, 13819, 13882, 14395, 14834, 15198, 15704, 15848, 17200, 17575, 18168, 19232]}, "edge": {"target": [], "time": []}}, "mouseout": {"state": {"target": ["0", "12", "13", "14", "15", "14", "12", "0", "23", "25", "2", "26", "10", "8", "3", "10", "24", "23", "1", "2", "4", "5", "6", "4", "9", "3", "4", "6", "7", "3", "8", "4", "3", "8", "10", "2", "4", "3", "10", "4", "4", "7", "2", "23"], "time": [1004, 1101, 1374, 1726, 2384, 2784, 2917, 3018, 3251, 5085, 5659, 6054, 6189, 6966, 7789, 7856, 8858, 8956, 9124, 9224, 9701, 9921, 10077, 10351, 11059, 11160, 11226, 12059, 12853, 13037, 13295, 13659, 13837, 14363, 14498, 14963, 15697, 15732, 16619, 17466, 18137, 19001, 19281, 22980]}, "edge": {"target": [], "time": []}}}, "displayed_time": "23.16", "trialTime": 24560, "trial_type": "mouselab-mdp", "trial_index": 26, "time_elapsed": 1243036, "internal_node_id": "0.0-6.0-1.0-17.0"}}, {"uniqueid": "w20539671:a21729965", "current_trial": 27, "dateTime": 1693391212778, "trialdata": {"revealed_states": [], "clicked_states": ["19", "15", "16", "18", "17", "4", "8", "26", "27", "28"], "num_clicks_accrued": [0, 0, 0, 0, 0, 0, 0, 0, 0, 0, 0, 0, 0], "stateRewards": ["", -2, -3, 7, -13, 60, 9, 37, -6, 37, 20, 1, 2, -2, -8, 6, -80, -31, -10, -7, 70, -65, -44, -1, 1, 7, 6, -11, 73, -85, 16, -21, 47, 34], "withholdReward": false, "trial_id": "mdp_trial_19", "block": "test", "trialIndex": 20, "score": 72, "costs": -14.000000000000002, "simulationMode": [null, null, null, null, null], "rewards": [-1, 1, 7, 6, 73], "path": ["0", "0", "23", "24", "25", "26", "28"], "rt": [25206, 224, 187, 198, 177], "actions": ["left", "left", "left", "up", "right"], "actionTimes": [26831, 27583, 28311, 29059, 29772], "queries": {"click": {"state": {"target": ["19", "15", "16", "18", "17", "4", "8", "26", "27", "28"], "time": [3219, 5427, 8367, 10634, 12686, 15046, 17191, 19290, 22367, 24448]}, "edge": {"target": [], "time": []}}, "mouseover": {"state": {"target": ["13", "14", "19", "2", "18", "15", "18", "10", "3", "4", "16", "13", "14", "18", "15", "17", "4", "4", "2", "8", "8", "26", "25", "30", "27", "27", "28", "26"], "time": [2072, 2347, 2972, 4096, 4433, 4631, 5631, 6033, 6165, 6365, 8076, 8868, 9335, 10449, 11035, 11672, 13673, 13972, 16242, 16576, 16714, 17843, 19544, 19810, 21777, 22117, 22616, 24785]}, "edge": {"target": [], "time": []}}, "mouseout": {"state": {"target": ["0", "13", "14", "19", "2", "18", "15", "18", "10", "3", "4", "16", "13", "14", "18", "15", "17", "18", "4", "4", "2", "8", "8", "26", "25", "30", "26", "27", "27", "28", "26", "25", "31"], "time": [1764, 2284, 2867, 3242, 4370, 4466, 5598, 5664, 6132, 6340, 7855, 8499, 9303, 9904, 10977, 11405, 12837, 13473, 13840, 15242, 16349, 16695, 17413, 19477, 19612, 21434, 21560, 21944, 22513, 24648, 30059, 30159, 30228]}, "edge": {"target": [], "time": []}}}, "displayed_time": "30.33", "trialTime": 32005, "trial_type": "mouselab-mdp", "trial_index": 27, "time_elapsed": 1275393, "internal_node_id": "0.0-6.0-1.0-18.0"}}, {"uniqueid": "w20539671:a21729965", "current_trial": 28, "dateTime": 1693391232335, "trialdata": {"revealed_states": [], "clicked_states": ["19", "21", "22", "20"], "num_clicks_accrued": [0, 0, 0, 0, 0, 0, 0, 0, 0, 0, 0, 0, 0], "stateRewards": ["", -1, -2, 4, 9, 10, -75, 39, 16, -43, 88, -19, -1, 1, 2, 4, -31, 10, 73, 12, 41, -64, -81, -2, 2, -6, 1, -81, -1, -26, 3, -59, -3, -20], "withholdReward": false, "trial_id": "mdp_trial_20", "block": "test", "trialIndex": 21, "score": 49.4, "costs": -5.6, "simulationMode": [null, null, null, null, null], "rewards": [-1, 1, 2, 12, 41], "path": ["0", "0", "12", "13", "14", "19", "20"], "rt": [12881, 135, 243, 181, 172], "actions": ["right", "right", "right", "down", "right"], "actionTimes": [14676, 15348, 16114, 16826, 17515], "queries": {"click": {"state": {"target": ["19", "21", "22", "20"], "time": [3093, 6106, 9126, 11420]}, "edge": {"target": [], "time": []}}, "mouseover": {"state": {"target": ["12", "13", "14", "19", "14", "15", "15", "21", "22", "22", "19", "20", "14", "15", "15", "6", "15", "14"], "time": [2320, 2404, 2635, 2790, 3222, 3323, 3596, 5905, 6995, 8908, 9663, 10233, 11665, 11770, 12108, 13708, 13772, 13952]}, "edge": {"target": [], "time": []}}, "mouseout": {"state": {"target": ["0", "12", "13", "14", "19", "14", "15", "15", "19", "21", "21", "19", "22", "22", "19", "20", "14", "15", "15", "6", "15", "14", "19"], "time": [1805, 2368, 2535, 2685, 3201, 3258, 3457, 5444, 5685, 6162, 6260, 6829, 8190, 9431, 9829, 11597, 11739, 11865, 13326, 13738, 13799, 14902, 16739]}, "edge": {"target": [], "time": []}}}, "displayed_time": "18.05", "trialTime": 19193, "trial_type": "mouselab-mdp", "trial_index": 28, "time_elapsed": 1294951, "internal_node_id": "0.0-6.0-1.0-19.0"}}, {"uniqueid": "w20539671:a21729965", "current_trial": 29, "dateTime": 1693391252865, "trialdata": {"revealed_states": [], "clicked_states": ["8", "4", "7", "5", "6"], "num_clicks_accrued": [0, 0, 0, 0, 0, 0, 0, 0, 0, 0, 0, 0, 0], "stateRewards": ["", 1, -3, 4, 13, -72, 52, 5, 5, -58, 5, 14, 2, 1, 3, -14, -86, -4, 73, 6, -58, -50, 49, 2, -3, -4, 2, 33, -41, 42, -11, 81, 45, 53], "withholdReward": false, "trial_id": "mdp_trial_21", "block": "test", "trialIndex": 22, "score": 60, "costs": -7, "simulationMode": [null, null, null, null, null], "rewards": [1, -3, 4, 13, 52], "path": ["0", "0", "1", "2", "3", "4", "6"], "rt": [13640, 229, 258, 114, 242], "actions": ["up", "up", "up", "right", "right"], "actionTimes": [15356, 16141, 16940, 17587, 18388], "queries": {"click": {"state": {"target": ["8", "4", "7", "5", "6"], "time": [2986, 5165, 8383, 10526, 12717]}, "edge": {"target": [], "time": []}}, "mouseover": {"state": {"target": ["1", "2", "8", "7", "4", "7", "18", "13", "15", "18", "7", "5", "6", "15", "15", "18"], "time": [2195, 2327, 2797, 3529, 4021, 5391, 5558, 5624, 5960, 7658, 8128, 8895, 10796, 13765, 13998, 14840]}, "edge": {"target": [], "time": []}}, "mouseout": {"state": {"target": ["0", "1", "2", "8", "8", "7", "4", "7", "18", "13", "15", "18", "7", "4", "5", "6", "15", "15", "18", "0"], "time": [1988, 2303, 2435, 3037, 3188, 3756, 5358, 5424, 5590, 5858, 7642, 7691, 8507, 8626, 10729, 12932, 13831, 14813, 14860, 18841]}, "edge": {"target": [], "time": []}}}, "displayed_time": "18.94", "trialTime": 20229, "trial_type": "mouselab-mdp", "trial_index": 29, "time_elapsed": 1315479, "internal_node_id": "0.0-6.0-1.0-20.0"}}, {"uniqueid": "w20539671:a21729965", "current_trial": 30, "dateTime": 1693391271297, "trialdata": {"revealed_states": [], "clicked_states": ["8", "9", "10", "11"], "num_clicks_accrued": [0, 0, 0, 0, 0, 0, 0, 0, 0, 0, 0, 0, 0], "stateRewards": ["", 1, -2, -2, 10, -31, -77, 35, 9, -47, 8, 48, -2, 1, -4, -3, -26, -50, 43, -11, 76, -38, 17, 1, -1, 6, 10, 15, -9, 12, -8, 85, 11, -55], "withholdReward": false, "trial_id": "mdp_trial_22", "block": "test", "trialIndex": 23, "score": 48.4, "costs": -5.6, "simulationMode": [null, null, null, null, null], "rewards": [1, -2, -2, 9, 48], "path": ["0", "0", "1", "2", "3", "8", "11"], "rt": [11254, 77, 222, 167, 232], "actions": ["up", "up", "up", "left", "left"], "actionTimes": [13032, 13636, 14383, 15063, 15831], "queries": {"click": {"state": {"target": ["8", "9", "10", "11"], "time": [3030, 6023, 8147, 10268]}, "edge": {"target": [], "time": []}}, "mouseover": {"state": {"target": ["1", "2", "8", "2", "7", "4", "9", "10", "10", "11", "4", "4"], "time": [2058, 2126, 2394, 3279, 4313, 4646, 5708, 6382, 6791, 8517, 10721, 10992]}, "edge": {"target": [], "time": []}}, "mouseout": {"state": {"target": ["0", "1", "2", "8", "2", "7", "4", "9", "8", "10", "10", "11", "4", "4", "1"], "time": [2006, 2108, 2241, 3212, 3311, 4513, 5279, 6215, 6315, 6722, 8316, 10419, 10754, 13112, 13258]}, "edge": {"target": [], "time": []}}}, "displayed_time": "16.37", "trialTime": 18068, "trial_type": "mouselab-mdp", "trial_index": 30, "time_elapsed": 1333912, "internal_node_id": "0.0-6.0-1.0-21.0"}}, {"uniqueid": "w20539671:a21729965", "current_trial": 31, "dateTime": 1693391312110, "trialdata": {"revealed_states": [], "clicked_states": ["19", "15", "4", "8", "5", "7", "6", "26", "27", "28", "29", "30", "24", "32", "31"], "num_clicks_accrued": [0, 0, 0, 0, 0, 0, 0, 0, 0, 0, 0, 0, 0], "stateRewards": ["", -1, 2, -6, 6, -82, -19, -39, -16, -83, 11, -33, -2, -2, 4, -6, -82, -1, -19, -6, -10, -67, -41, -2, 1, -7, 16, -23, -78, -52, 14, 31, -71, 74], "withholdReward": false, "trial_id": "mdp_trial_23", "block": "test", "trialIndex": 24, "score": 16.000000000000004, "costs": -20.999999999999996, "simulationMode": [null, null, null, null, null], "rewards": [-2, 1, -7, 14, 31], "path": ["0", "0", "23", "24", "25", "30", "31"], "rt": [34353, 100, 262, 192, 201], "actions": ["left", "left", "left", "down", "right"], "actionTimes": [35816, 36455, 37216, 37950, 38688], "queries": {"click": {"state": {"target": ["19", "15", "4", "8", "5", "7", "6", "26", "27", "28", "29", "30", "24", "32", "31"], "time": [2323, 4643, 6754, 9162, 11224, 13347, 15428, 17525, 19917, 22020, 24176, 26333, 28957, 31070, 33162]}, "edge": {"target": [], "time": []}}, "mouseover": {"state": {"target": ["19", "14", "15", "4", "8", "7", "5", "4", "7", "6", "2", "28", "26", "25", "30", "25", "27", "28", "26", "29", "25", "30", "24", "31", "24", "32", "31", "33"], "time": [1907, 2547, 2748, 5385, 7187, 9857, 10290, 11491, 12693, 13827, 15794, 15996, 16161, 17763, 18029, 19102, 19304, 20397, 22338, 22767, 24401, 24840, 26707, 27271, 28691, 29417, 31309, 34177]}, "edge": {"target": [], "time": []}}, "mouseout": {"state": {"target": ["0", "19", "14", "15", "4", "8", "8", "7", "4", "5", "4", "7", "6", "2", "28", "26", "25", "30", "25", "26", "27", "28", "26", "29", "25", "30", "24", "31", "30", "24", "24", "32", "31", "33"], "time": [1512, 2514, 2715, 4782, 6986, 9270, 9426, 10093, 10155, 11459, 11543, 13528, 15593, 15860, 16127, 17729, 17895, 19098, 19133, 19198, 20097, 22201, 22473, 24369, 24569, 26369, 27238, 27514, 28293, 29007, 29141, 31241, 33413, 36221]}, "edge": {"target": [], "time": []}}}, "displayed_time": "39.22", "trialTime": 40495, "trial_type": "mouselab-mdp", "trial_index": 31, "time_elapsed": 1374725, "internal_node_id": "0.0-6.0-1.0-22.0"}}, {"uniqueid": "w20539671:a21729965", "current_trial": 32, "dateTime": 1693391337126, "trialdata": {"revealed_states": [], "clicked_states": ["19", "15", "4", "8", "10", "11"], "num_clicks_accrued": [0, 0, 0, 0, 0, 0, 0, 0, 0, 0, 0, 0, 0], "stateRewards": ["", -2, 1, -7, -8, -37, -76, -87, 11, 30, -63, 80, -1, 4, 2, -1, 42, 17, 52, -3, -75, -80, -68, 2, -3, -5, -15, -48, 82, 24, -7, 5, -22, -71], "withholdReward": false, "trial_id": "mdp_trial_24", "block": "test", "trialIndex": 25, "score": 74.6, "costs": -8.4, "simulationMode": [null, null, null, null, null], "rewards": [-2, 1, -7, 11, 80], "path": ["0", "0", "1", "2", "3", "8", "11"], "rt": [16985, 699, 353, 665, 458], "actions": ["up", "up", "up", "left", "left"], "actionTimes": [18104, 19344, 20233, 21417, 22416], "queries": {"click": {"state": {"target": ["19", "15", "4", "8", "10", "11"], "time": [2546, 5379, 8101, 10199, 12944, 15241]}, "edge": {"target": [], "time": []}}, "mouseover": {"state": {"target": ["22", "19", "13", "22", "14", "15", "14", "15", "13", "18", "7", "4", "3", "8", "10", "28", "28", "26", "10", "9", "11", "9", "8"], "time": [1449, 1925, 2890, 3626, 4483, 4616, 4749, 5016, 5659, 6599, 7487, 7747, 8606, 9230, 10431, 10565, 11601, 12206, 12780, 14237, 14982, 16673, 17529]}, "edge": {"target": [], "time": []}}, "mouseout": {"state": {"target": ["0", "22", "19", "13", "22", "14", "15", "14", "15", "15", "13", "18", "7", "4", "3", "8", "10", "28", "28", "26", "10", "8", "9", "11", "9", "8"], "time": [1193, 1567, 2791, 3025, 4186, 4500, 4715, 4973, 5437, 5594, 6096, 7170, 7532, 8362, 9002, 10399, 10464, 11440, 11633, 12540, 12994, 13366, 14502, 15359, 17476, 17578]}, "edge": {"target": [], "time": []}}}, "displayed_time": "22.96", "trialTime": 24647, "trial_type": "mouselab-mdp", "trial_index": 32, "time_elapsed": 1399740, "internal_node_id": "0.0-6.0-1.0-23.0"}}, {"uniqueid": "w20539671:a21729965", "current_trial": 33, "dateTime": 1693391361719, "trialdata": {"revealed_states": [], "clicked_states": ["14", "3", "25", "4", "8", "6"], "num_clicks_accrued": [0, 0, 0, 0, 0, 0, 0, 0, 0, 0, 0, 0, 0], "stateRewards": ["", -2, 3, -1, 2, -72, 63, 20, -1, 62, -66, 39, -2, 3, -6, 14, 22, 47, 1, 8, -49, -1, -41, 2, 2, -6, -16, -64, -60, -34, 16, 54, 22, -7], "withholdReward": false, "trial_id": "mdp_trial_25", "block": "test", "trialIndex": 26, "score": 56.6, "costs": -8.4, "simulationMode": [null, null, null, null, null], "rewards": [-2, 3, -1, 2, 63], "path": ["0", "0", "1", "2", "3", "4", "6"], "rt": [16098, 215, 233, 322, 237], "actions": ["up", "up", "up", "right", "right"], "actionTimes": [19130, 19889, 20675, 21532, 22314], "queries": {"click": {"state": {"target": ["14", "3", "25", "4", "8", "6"], "time": [4542, 6603, 8673, 11614, 13683, 16375]}, "edge": {"target": [], "time": []}}, "mouseover": {"state": {"target": ["13", "14", "13", "7", "3", "10", "28", "25", "31", "31", "10", "3", "4", "3", "8", "5", "6", "5"], "time": [3799, 4107, 4723, 5094, 5356, 6925, 7060, 7359, 8926, 10898, 11046, 11146, 11262, 11832, 12197, 14543, 16028, 16633]}, "edge": {"target": [], "time": []}}, "mouseout": {"state": {"target": ["0", "0", "13", "14", "13", "7", "3", "10", "28", "25", "25", "31", "31", "10", "3", "4", "3", "8", "5", "6", "5"], "time": [2247, 3179, 3968, 4689, 4756, 5290, 6827, 6958, 7157, 8710, 8861, 8963, 10934, 11064, 11212, 11763, 11968, 13967, 15744, 16415, 18815]}, "edge": {"target": [], "time": []}}}, "displayed_time": "22.85", "trialTime": 24212, "trial_type": "mouselab-mdp", "trial_index": 33, "time_elapsed": 1424333, "internal_node_id": "0.0-6.0-1.0-24.0"}}, {"uniqueid": "w20539671:a21729965", "current_trial": 34, "dateTime": 1693391391044, "trialdata": {"revealed_states": [], "clicked_states": ["4", "8", "25", "14", "19", "30", "26", "15", "20"], "num_clicks_accrued": [0, 0, 0, 0, 0, 0, 0, 0, 0, 0, 0, 0, 0], "stateRewards": ["", 1, 1, 7, -11, 80, -20, -53, -14, 3, 31, 27, 2, -1, -8, -10, 33, 41, 86, 9, 78, -37, -13, -1, -2, -6, -8, -80, 75, 4, -16, -49, -74, 24], "withholdReward": false, "trial_id": "mdp_trial_26", "block": "test", "trialIndex": 27, "score": 67.4, "costs": -12.600000000000001, "simulationMode": [null, null, null, null, null], "rewards": [2, -1, -8, 9, 78], "path": ["0", "0", "12", "13", "14", "19", "20"], "rt": [22993, 221, 300, 256, 230], "actions": ["right", "right", "right", "down", "right"], "actionTimes": [24117, 24841, 25685, 26478, 27254], "queries": {"click": {"state": {"target": ["4", "8", "25", "14", "19", "30", "26", "15", "20"], "time": [2245, 4569, 7167, 9358, 11570, 14204, 16403, 18931, 21697]}, "edge": {"target": [], "time": []}}, "mouseover": {"state": {"target": ["1", "3", "4", "2", "2", "8", "24", "25", "23", "0", "12", "13", "14", "22", "22", "19", "22", "33", "30", "30", "25", "26", "24", "28", "15", "14", "17", "20", "22"], "time": [1183, 1773, 1885, 2488, 4026, 4308, 6685, 6902, 7663, 7761, 7827, 7994, 8360, 9794, 10636, 11247, 11772, 12599, 12833, 14046, 14499, 15067, 17207, 17770, 18753, 19940, 20508, 21562, 23464]}, "edge": {"target": [], "time": []}}, "mouseout": {"state": {"target": ["1", "3", "4", "2", "2", "8", "8", "24", "25", "23", "0", "12", "13", "14", "22", "22", "19", "22", "33", "30", "30", "25", "26", "24", "28", "15", "14", "15", "17", "20", "22"], "time": [1317, 1802, 2422, 2523, 4151, 4635, 4757, 6735, 7497, 7726, 7792, 7928, 8127, 9527, 9933, 10931, 11767, 11802, 12732, 13134, 14278, 14566, 16635, 17438, 17837, 19104, 20005, 20305, 21134, 21840, 24782]}, "edge": {"target": [], "time": []}}}, "displayed_time": "27.79", "trialTime": 28948, "trial_type": "mouselab-mdp", "trial_index": 34, "time_elapsed": 1453658, "internal_node_id": "0.0-6.0-1.0-25.0"}}, {"uniqueid": "w20539671:a21729965", "current_trial": 35, "dateTime": 1693391427045, "trialdata": {"revealed_states": [], "clicked_states": ["21", "19", "15", "5", "8", "25", "26", "28", "27", "29", "33"], "num_clicks_accrued": [0, 0, 0, 0, 0, 0, 0, 0, 0, 0, 0, 0, 0], "stateRewards": ["", 1, 4, 7, -16, -84, -6, -46, -12, -7, -49, -26, -1, 2, -4, 2, 22, 37, -64, 1, 88, -13, -10, 1, -4, -2, 5, 2, -10, -34, 9, 66, 55, 38], "withholdReward": false, "trial_id": "mdp_trial_27", "block": "test", "trialIndex": 28, "score": 26.599999999999998, "costs": -15.400000000000002, "simulationMode": [null, null, null, null, null], "rewards": [1, -4, -2, 9, 38], "path": ["0", "0", "23", "24", "25", "30", "33"], "rt": [28769, 743, 235, 254, 234], "actions": ["left", "left", "left", "down", "left"], "actionTimes": [30083, 31359, 32143, 32929, 33689], "queries": {"click": {"state": {"target": ["21", "19", "15", "5", "8", "25", "26", "28", "27", "29", "33"], "time": [2109, 5324, 8184, 11345, 13607, 16079, 18656, 21328, 23465, 25560, 27669]}, "edge": {"target": [], "time": []}}, "mouseover": {"state": {"target": ["22", "19", "21", "13", "14", "14", "20", "14", "19", "15", "15", "15", "7", "4", "4", "5", "4", "3", "8", "26", "25", "26", "28", "26", "30", "30", "28", "27", "26", "29", "33", "30", "32"], "time": [1570, 1714, 1838, 3245, 3613, 4058, 4435, 4955, 5068, 5747, 7000, 7678, 9018, 10368, 10749, 11136, 11552, 12983, 13348, 14689, 15895, 16589, 17715, 18432, 19093, 20033, 21058, 22599, 23865, 24100, 26699, 28136, 29171]}, "edge": {"target": [], "time": []}}, "mouseout": {"state": {"target": ["0", "22", "19", "21", "13", "14", "14", "20", "14", "19", "15", "15", "15", "7", "4", "4", "5", "5", "4", "3", "8", "26", "25", "26", "28", "26", "26", "25", "30", "30", "28", "27", "26", "29", "33", "30", "32"], "time": [1323, 1635, 1738, 2162, 3311, 3881, 4272, 4626, 5013, 5451, 6146, 7468, 8228, 10275, 10525, 11106, 11405, 11517, 12386, 13217, 13820, 15852, 16522, 16857, 18273, 18725, 18927, 19029, 19160, 20887, 21562, 23664, 23931, 26533, 28071, 28203, 29713]}, "edge": {"target": [], "time": []}}}, "displayed_time": "34.21", "trialTime": 35641, "trial_type": "mouselab-mdp", "trial_index": 35, "time_elapsed": 1489659, "internal_node_id": "0.0-6.0-1.0-26.0"}}, {"uniqueid": "w20539671:a21729965", "current_trial": 36, "dateTime": 1693391454095, "trialdata": {"revealed_states": [], "clicked_states": ["14", "19", "15", "3", "25", "20", "21"], "num_clicks_accrued": [0, 0, 0, 0, 0, 0, 0, 0, 0, 0, 0, 0, 0], "stateRewards": ["", 1, 4, -8, -5, -15, -7, 21, 13, -30, 40, -65, 1, 1, 5, -14, 35, 27, -38, -11, 36, -58, -47, -2, 4, -3, 13, -16, -49, 22, 15, -56, -44, -10], "withholdReward": false, "trial_id": "mdp_trial_28", "block": "test", "trialIndex": 29, "score": 22.2, "costs": -9.8, "simulationMode": [null, null, null, null, null], "rewards": [1, 1, 5, -11, 36], "path": ["0", "0", "12", "13", "14", "19", "20"], "rt": [20935, 337, 207, 249, 185], "actions": ["right", "right", "right", "down", "right"], "actionTimes": [22124, 23008, 23743, 24521, 25256], "queries": {"click": {"state": {"target": ["14", "19", "15", "3", "25", "20", "21"], "time": [2196, 5310, 7985, 12261, 14892, 17057, 19589]}, "edge": {"target": [], "time": []}}, "mouseover": {"state": {"target": ["12", "14", "13", "12", "0", "1", "2", "7", "18", "19", "15", "14", "21", "21", "14", "15", "15", "16", "19", "20", "12", "7", "3", "2", "1", "23", "24", "24", "25", "24", "22", "19", "20", "21", "22"], "time": [1245, 1931, 2346, 2381, 3482, 3715, 4212, 4471, 4527, 5050, 5692, 6944, 7044, 7347, 7428, 7528, 7828, 9458, 10364, 10748, 11476, 11727, 12054, 12489, 13228, 13492, 13659, 14268, 14532, 15127, 15294, 15426, 15594, 17663, 21774]}, "edge": {"target": [], "time": []}}, "mouseout": {"state": {"target": ["0", "12", "14", "13", "12", "0", "1", "2", "7", "18", "14", "19", "15", "14", "19", "21", "21", "14", "15", "15", "15", "16", "15", "19", "20", "12", "7", "3", "2", "1", "23", "24", "24", "25", "24", "22", "19", "20", "21", "21", "22", "19"], "time": [1232, 1260, 2327, 2379, 3285, 3517, 4179, 4296, 4487, 4599, 4929, 5331, 6918, 6962, 7027, 7061, 7378, 7445, 7645, 8287, 9219, 10231, 10276, 10428, 11405, 11511, 11820, 12457, 12555, 13326, 13559, 13759, 14359, 15093, 15160, 15363, 15528, 17260, 20202, 21220, 22058, 22571]}, "edge": {"target": [], "time": []}}}, "displayed_time": "25.81", "trialTime": 26657, "trial_type": "mouselab-mdp", "trial_index": 36, "time_elapsed": 1516709, "internal_node_id": "0.0-6.0-1.0-27.0"}}, {"uniqueid": "w20539671:a21729965", "current_trial": 37, "dateTime": 1693391473319, "trialdata": {"revealed_states": [], "clicked_states": ["19", "15", "4", "21", "5"], "num_clicks_accrued": [0, 0, 0, 0, 0, 0, 0, 0, 0, 0, 0, 0, 0], "stateRewards": ["", -1, 2, -2, 5, 80, -61, -27, 12, 44, -26, -75, -2, -4, 1, -16, 42, -49, -50, 4, -44, 2, 80, -2, -2, 5, -2, 59, 10, 24, 7, -48, -86, -44], "withholdReward": false, "trial_id": "mdp_trial_29", "block": "test", "trialIndex": 30, "score": 77, "costs": -7, "simulationMode": [null, null, null, null, null], "rewards": [-1, 2, -2, 5, 80], "path": ["0", "0", "1", "2", "3", "4", "5"], "rt": [12924, 209, 264, 185, 204], "actions": ["up", "up", "up", "right", "up"], "actionTimes": [13981, 14750, 15540, 16260, 16988], "queries": {"click": {"state": {"target": ["19", "15", "4", "21", "5"], "time": [2066, 4344, 6728, 8944, 11087]}, "edge": {"target": [], "time": []}}, "mouseover": {"state": {"target": ["0", "12", "13", "14", "19", "14", "15", "18", "2", "3", "4", "2", "13", "21", "21", "13", "7", "5", "6", "4", "7"], "time": [1113, 1207, 1423, 1691, 1927, 2255, 2424, 4592, 4824, 5127, 5299, 7130, 7270, 7463, 7965, 9298, 9797, 10064, 11369, 13256, 13336]}, "edge": {"target": [], "time": []}}, "mouseout": {"state": {"target": ["0", "0", "12", "13", "14", "19", "14", "15", "18", "2", "3", "4", "2", "13", "21", "21", "13", "7", "4", "5", "6", "4", "7", "1", "0"], "time": [692, 1174, 1296, 1525, 1770, 2204, 2324, 4525, 4624, 4896, 5195, 6793, 7162, 7395, 7496, 9164, 9700, 9830, 9931, 11302, 13217, 13302, 13486, 14368, 17740]}, "edge": {"target": [], "time": []}}}, "displayed_time": "17.51", "trialTime": 18764, "trial_type": "mouselab-mdp", "trial_index": 37, "time_elapsed": 1535933, "internal_node_id": "0.0-6.0-1.0-28.0"}}, {"uniqueid": "w20539671:a21729965", "current_trial": 38, "dateTime": 1693391500318, "trialdata": {"revealed_states": [], "clicked_states": ["14", "25", "3", "5", "6", "7", "9", "11"], "num_clicks_accrued": [0, 0, 0, 0, 0, 0, 0, 0, 0, 0, 0, 0, 0], "stateRewards": ["", 2, -3, 5, -14, -63, -9, -24, -11, -54, -43, 68, 2, -2, -4, 7, -64, 30, 47, 12, -74, 11, 86, 1, -3, 3, 10, -71, -42, -52, -1, -29, -16, 69], "withholdReward": false, "trial_id": "mdp_trial_30", "block": "test", "trialIndex": 31, "score": 49.8, "costs": -11.200000000000001, "simulationMode": [null, null, null, null, null], "rewards": [2, -3, 5, -11, 68], "path": ["0", "0", "1", "2", "3", "8", "11"], "rt": [20727, 194, 185, 104, 223], "actions": ["up", "up", "up", "left", "left"], "actionTimes": [21753, 22483, 23209, 23825, 24578], "queries": {"click": {"state": {"target": ["14", "25", "3", "5", "6", "7", "9", "11"], "time": [2828, 4977, 6959, 10317, 12923, 14959, 17067, 19086]}, "edge": {"target": [], "time": []}}, "mouseover": {"state": {"target": ["13", "14", "15", "14", "13", "23", "24", "25", "2", "4", "3", "23", "24", "26", "2", "4", "5", "4", "7", "2", "2", "6", "7", "2", "8", "9", "8", "11", "10"], "time": [1425, 1771, 2261, 2583, 3002, 3232, 3502, 3732, 5269, 5434, 5634, 7537, 7738, 8439, 9106, 9609, 10036, 10573, 10710, 10806, 11316, 12475, 13376, 15243, 15414, 15844, 17346, 17579, 19519]}, "edge": {"target": [], "time": []}}, "mouseout": {"state": {"target": ["0", "13", "14", "15", "14", "13", "23", "24", "25", "2", "4", "3", "23", "24", "26", "2", "4", "5", "4", "7", "2", "2", "6", "7", "7", "2", "8", "9", "8", "11", "10", "23"], "time": [1146, 1724, 2105, 2560, 2998, 3032, 3468, 3632, 5166, 5301, 5569, 7204, 7636, 7803, 9052, 9138, 9903, 10538, 10606, 10744, 11019, 11374, 13107, 15051, 15211, 15276, 15444, 17280, 17445, 19356, 22188, 25419]}, "edge": {"target": [], "time": []}}}, "displayed_time": "25.09", "trialTime": 26586, "trial_type": "mouselab-mdp", "trial_index": 38, "time_elapsed": 1562932, "internal_node_id": "0.0-6.0-1.0-29.0"}}, {"uniqueid": "w20539671:a21729965", "current_trial": 39, "dateTime": 1693391523894, "trialdata": {"revealed_states": [], "clicked_states": ["19", "15", "26", "28", "27", "29"], "num_clicks_accrued": [0, 0, 0, 0, 0, 0, 0, 0, 0, 0, 0, 0, 0], "stateRewards": ["", 2, -1, 4, -9, -43, 7, 54, -13, 38, -40, -83, -1, 2, -8, -10, 34, -33, 11, -14, -79, 65, 26, 1, 2, 4, 10, 21, 1, 86, 4, -53, 28, -29], "withholdReward": false, "trial_id": "mdp_trial_31", "block": "test", "trialIndex": 32, "score": 94.6, "costs": -8.4, "simulationMode": [null, null, null, null, null], "rewards": [1, 2, 4, 10, 86], "path": ["0", "0", "23", "24", "25", "26", "29"], "rt": [16645, 217, 232, 241, 152], "actions": ["left", "left", "left", "up", "left"], "actionTimes": [17624, 18375, 19128, 19902, 20616], "queries": {"click": {"state": {"target": ["19", "15", "26", "28", "27", "29"], "time": [2331, 4769, 7917, 11021, 13178, 15365]}, "edge": {"target": [], "time": []}}, "mouseover": {"state": {"target": ["12", "14", "19", "14", "15", "4", "3", "8", "28", "24", "25", "26", "25", "30", "24", "28", "27", "29", "26"], "time": [1404, 1545, 1761, 2477, 4286, 6898, 6979, 7010, 7110, 7148, 7464, 7679, 8150, 8320, 10311, 10634, 11679, 13916, 16891]}, "edge": {"target": [], "time": []}}, "mouseout": {"state": {"target": ["0", "12", "14", "19", "14", "15", "4", "3", "8", "28", "24", "25", "26", "25", "30", "24", "28", "27", "29", "26", "24", "31"], "time": [1398, 1419, 1733, 2444, 3040, 4973, 6965, 6995, 7059, 7129, 7399, 7609, 8116, 8245, 10182, 10415, 11079, 13418, 15686, 16929, 21326, 21391]}, "edge": {"target": [], "time": []}}}, "displayed_time": "21.17", "trialTime": 23175, "trial_type": "mouselab-mdp", "trial_index": 39, "time_elapsed": 1586508, "internal_node_id": "0.0-6.0-1.0-30.0"}}, {"uniqueid": "w20539671:a21729965", "current_trial": 40, "dateTime": 1693391539893, "trialdata": {"revealed_states": [], "clicked_states": ["15", "8", "10"], "num_clicks_accrued": [0, 0, 0, 0, 0, 0, 0, 0, 0, 0, 0, 0, 0], "stateRewards": ["", 1, 1, -6, -2, 7, 77, 3, 16, -16, 66, 31, -1, 3, -8, -6, 33, -50, -48, 7, -60, -66, 36, 2, -3, 3, -7, -12, -61, -79, -4, 8, 74, -70], "withholdReward": false, "trial_id": "mdp_trial_32", "block": "test", "trialIndex": 33, "score": 73.8, "costs": -4.199999999999999, "simulationMode": [null, null, null, null, null], "rewards": [1, 1, -6, 16, 66], "path": ["0", "0", "1", "2", "3", "8", "10"], "rt": [10293, 170, 224, 259, 221], "actions": ["up", "up", "up", "left", "down"], "actionTimes": [11238, 11963, 12717, 13492, 14221], "queries": {"click": {"state": {"target": ["15", "8", "10"], "time": [2463, 5484, 8540]}, "edge": {"target": [], "time": []}}, "mouseover": {"state": {"target": ["0", "12", "13", "14", "15", "19", "7", "3", "8", "8", "10", "28", "30", "10", "10", "9"], "time": [952, 1445, 1543, 1778, 1858, 4677, 4877, 4975, 5132, 5358, 5716, 6216, 6818, 7946, 8359, 9422]}, "edge": {"target": [], "time": []}}, "mouseout": {"state": {"target": ["0", "0", "12", "13", "14", "15", "19", "7", "3", "8", "8", "8", "10", "28", "30", "10", "10", "8", "9", "28", "24"], "time": [543, 1371, 1510, 1644, 1797, 2713, 4774, 4924, 5024, 5321, 5581, 5682, 5749, 6490, 7892, 8147, 8718, 9090, 11324, 11522, 11691]}, "edge": {"target": [], "time": []}}}, "displayed_time": "14.95", "trialTime": 15627, "trial_type": "mouselab-mdp", "trial_index": 40, "time_elapsed": 1602507, "internal_node_id": "0.0-6.0-1.0-31.0"}}, {"uniqueid": "w20539671:a21729965", "current_trial": 41, "dateTime": 1693391559352, "trialdata": {"revealed_states": [], "clicked_states": ["19", "8", "9", "11", "10"], "num_clicks_accrued": [0, 0, 0, 0, 0, 0, 0, 0, 0, 0, 0, 0, 0], "stateRewards": ["", 2, 4, -5, 7, 81, 35, 6, 11, 14, -72, 42, -1, 2, 3, -7, -77, -44, -40, -15, -85, 51, -32, -2, -1, -5, 7, -74, 47, 52, 16, -49, 48, -46], "withholdReward": false, "trial_id": "mdp_trial_33", "block": "test", "trialIndex": 34, "score": 47, "costs": -7, "simulationMode": [null, null, null, null, null], "rewards": [2, 4, -5, 11, 42], "path": ["0", "0", "1", "2", "3", "8", "11"], "rt": [13413, 172, 186, 234, 254], "actions": ["up", "up", "up", "left", "left"], "actionTimes": [14737, 15464, 16176, 16956, 17744], "queries": {"click": {"state": {"target": ["19", "8", "9", "11", "10"], "time": [2581, 4893, 8214, 10387, 12482]}, "edge": {"target": [], "time": []}}, "mouseover": {"state": {"target": ["12", "13", "14", "19", "14", "13", "18", "7", "4", "3", "8", "10", "28", "25", "30", "25", "11", "9", "11", "10"], "time": [1736, 1781, 1804, 2211, 2766, 2902, 3034, 3536, 3835, 4365, 4512, 5103, 5203, 5370, 5849, 7454, 7614, 7914, 8773, 10675]}, "edge": {"target": [], "time": []}}, "mouseout": {"state": {"target": ["0", "12", "13", "14", "19", "14", "13", "18", "7", "4", "3", "8", "8", "10", "28", "25", "30", "25", "11", "9", "9", "11", "10", "28", "23"], "time": [944, 1774, 1801, 1826, 2674, 2869, 2934, 3438, 3640, 4350, 4458, 4950, 5071, 5137, 5271, 5679, 7448, 7474, 7660, 8255, 8375, 10576, 13546, 18019, 18055]}, "edge": {"target": [], "time": []}}}, "displayed_time": "18.29", "trialTime": 19088, "trial_type": "mouselab-mdp", "trial_index": 41, "time_elapsed": 1621966, "internal_node_id": "0.0-6.0-1.0-32.0"}}, {"uniqueid": "w20539671:a21729965", "current_trial": 42, "dateTime": 1693391589792, "trialdata": {"revealed_states": [], "clicked_states": ["26", "8", "15", "19", "4", "30", "32", "33", "31"], "num_clicks_accrued": [0, 0, 0, 0, 0, 0, 0, 0, 0, 0, 0, 0, 0], "stateRewards": ["", 1, -1, 8, -3, 38, 85, -20, -4, 8, 23, 73, 2, -4, 6, -13, 44, 7, -28, -11, -77, 45, -69, 1, -1, -7, -11, 75, -51, -87, 7, 36, -53, -26], "withholdReward": false, "trial_id": "mdp_trial_34", "block": "test", "trialIndex": 35, "score": 23.4, "costs": -12.600000000000001, "simulationMode": [null, null, null, null, null], "rewards": [1, -1, -7, 7, 36], "path": ["0", "0", "23", "24", "25", "30", "31"], "rt": [24108, 218, 222, 233, 247], "actions": ["left", "left", "left", "down", "right"], "actionTimes": [25144, 25910, 26678, 27463, 28239], "queries": {"click": {"state": {"target": ["26", "8", "15", "19", "4", "30", "32", "33", "31"], "time": [2537, 4813, 6913, 9348, 11704, 15305, 18084, 20256, 22377]}, "edge": {"target": [], "time": []}}, "mouseover": {"state": {"target": ["24", "25", "26", "25", "24", "30", "28", "10", "8", "2", "15", "13", "22", "22", "19", "4", "2", "3", "10", "8", "9", "28", "25", "30", "24", "2", "3", "9", "3", "4", "1", "24", "32", "33", "30", "31", "1", "7", "4", "6", "23"], "time": [1618, 1897, 2332, 2773, 3071, 3368, 3902, 4101, 4315, 5109, 5868, 7168, 7334, 8833, 9033, 10144, 12048, 12940, 13927, 14197, 14364, 14801, 14846, 15130, 15510, 15743, 15844, 16477, 16682, 16926, 17445, 17478, 17832, 18685, 20454, 20683, 22852, 22918, 23016, 23320, 24529]}, "edge": {"target": [], "time": []}}, "mouseout": {"state": {"target": ["0", "24", "25", "26", "25", "24", "30", "28", "10", "8", "2", "15", "13", "22", "22", "19", "4", "2", "3", "10", "8", "9", "28", "25", "30", "24", "2", "3", "9", "3", "4", "1", "24", "32", "33", "30", "31", "1", "7", "4", "6", "23"], "time": [1570, 1665, 2230, 2730, 2935, 3133, 3872, 3942, 4234, 5079, 5200, 7067, 7202, 8370, 8855, 9470, 11974, 12143, 13820, 14169, 14228, 14759, 14818, 14877, 15427, 15643, 15809, 15977, 16647, 16715, 17315, 17463, 17494, 18226, 20426, 20514, 22584, 22885, 22952, 23223, 24488, 24559]}, "edge": {"target": [], "time": []}}}, "displayed_time": "28.80", "trialTime": 30038, "trial_type": "mouselab-mdp", "trial_index": 42, "time_elapsed": 1652405, "internal_node_id": "0.0-6.0-1.0-33.0"}}, {"uniqueid": "w20539671:a21729965", "current_trial": 43, "dateTime": 1693391607585, "trialdata": {"revealed_states": [], "clicked_states": ["3", "14", "5", "6"], "num_clicks_accrued": [0, 0, 0, 0, 0, 0, 0, 0, 0, 0, 0, 0, 0], "stateRewards": ["", 2, -1, 5, 6, 10, 86, 55, 10, -45, 63, -71, 1, -2, 5, -8, -50, -72, 36, 15, 61, 12, 33, -1, -4, 6, 5, 79, -56, -21, -16, -87, 60, -81], "withholdReward": false, "trial_id": "mdp_trial_35", "block": "test", "trialIndex": 36, "score": 92.4, "costs": -5.6, "simulationMode": [null, null, null, null, null], "rewards": [2, -1, 5, 6, 86], "path": ["0", "0", "1", "2", "3", "4", "6"], "rt": [11519, 213, 192, 177, 277], "actions": ["up", "up", "up", "right", "right"], "actionTimes": [12697, 13447, 14191, 14911, 15712], "queries": {"click": {"state": {"target": ["3", "14", "5", "6"], "time": [2548, 4660, 7535, 9772]}, "edge": {"target": [], "time": []}}, "mouseover": {"state": {"target": ["7", "4", "3", "7", "13", "14", "13", "12", "0", "24", "25", "2", "4", "5", "4", "4", "6", "7"], "time": [1243, 1613, 2106, 2747, 3014, 3450, 4791, 4850, 4982, 5250, 5450, 6751, 6783, 7014, 7774, 8489, 8956, 10289]}, "edge": {"target": [], "time": []}}, "mouseout": {"state": {"target": ["12", "7", "4", "3", "7", "13", "14", "13", "12", "0", "24", "25", "2", "4", "5", "5", "4", "4", "6", "7", "1", "0"], "time": [329, 1310, 2071, 2693, 2781, 3349, 4774, 4847, 4914, 5047, 5282, 6721, 6777, 6808, 7583, 7726, 7918, 8654, 9955, 12857, 12956, 16059]}, "edge": {"target": [], "time": []}}}, "displayed_time": "16.23", "trialTime": 17384, "trial_type": "mouselab-mdp", "trial_index": 43, "time_elapsed": 1670199, "internal_node_id": "0.0-6.0-1.0-34.0"}}, {"uniqueid": "w20539671:a21729965", "current_trial": 44, "dateTime": 1693391628519, "trialdata": {"revealed_states": [], "clicked_states": ["3", "14", "6", "5", "7", "9"], "num_clicks_accrued": [0, 0, 0, 0, 0, 0, 0, 0, 0, 0, 0, 0, 0], "stateRewards": ["", 2, 3, 6, -5, -74, -53, 17, -12, 46, 44, 18, -2, 4, 1, -8, 22, -23, -49, 9, -45, 55, 81, 1, -1, -7, -16, -83, -71, -45, 2, 51, 82, 61], "withholdReward": false, "trial_id": "mdp_trial_36", "block": "test", "trialIndex": 37, "score": 36.6, "costs": -8.4, "simulationMode": [null, null, null, null, null], "rewards": [2, 3, 6, -12, 46], "path": ["0", "0", "1", "2", "3", "8", "9"], "rt": [14655, 238, 189, 185, 212], "actions": ["up", "up", "up", "left", "up"], "actionTimes": [15876, 16644, 17364, 18091, 18821], "queries": {"click": {"state": {"target": ["3", "14", "6", "5", "7", "9"], "time": [1956, 4008, 6167, 8309, 10405, 12673]}, "edge": {"target": [], "time": []}}, "mouseover": {"state": {"target": ["2", "3", "7", "13", "14", "13", "12", "0", "2", "6", "4", "5", "4", "7", "2", "9", "8", "11"], "time": [1275, 1584, 2118, 2383, 2590, 4189, 4253, 4426, 4887, 5661, 6337, 7023, 8524, 9027, 10592, 11194, 12962, 13334]}, "edge": {"target": [], "time": []}}, "mouseout": {"state": {"target": ["12", "0", "2", "3", "7", "13", "14", "14", "13", "12", "0", "2", "6", "4", "5", "5", "4", "7", "2", "9", "8", "11", "10", "1"], "time": [611, 1231, 1342, 2092, 2186, 2451, 4054, 4186, 4221, 4323, 4456, 4923, 6309, 6365, 8376, 8491, 8557, 10558, 10626, 12896, 13028, 19112, 19168, 19236]}, "edge": {"target": [], "time": []}}}, "displayed_time": "19.38", "trialTime": 20539, "trial_type": "mouselab-mdp", "trial_index": 44, "time_elapsed": 1691133, "internal_node_id": "0.0-6.0-1.0-35.0"}}, {"uniqueid": "w20539671:a21729965", "current_trial": 45, "dateTime": 1693391648874, "trialdata": {"revealed_states": [], "clicked_states": ["14", "3", "20", "21", "22"], "num_clicks_accrued": [0, 0, 0, 0, 0, 0, 0, 0, 0, 0, 0, 0, 0], "stateRewards": ["", 1, 1, -3, 2, 22, -25, -11, -5, 50, 49, 3, 1, -1, 8, 14, -85, -30, 57, -6, -39, -16, 59, -2, -1, 5, 5, 59, -16, 8, 4, 67, 56, -9], "withholdReward": false, "trial_id": "mdp_trial_37", "block": "test", "trialIndex": 38, "score": 54, "costs": -7, "simulationMode": [null, null, null, null, null], "rewards": [1, -1, 8, -6, 59], "path": ["0", "0", "12", "13", "14", "19", "22"], "rt": [13544, 158, 162, 209, 164], "actions": ["right", "right", "right", "down", "left"], "actionTimes": [15674, 16368, 17079, 17784, 18480], "queries": {"click": {"state": {"target": ["14", "3", "20", "21", "22"], "time": [3350, 5423, 8711, 10746, 12808]}, "edge": {"target": [], "time": []}}, "mouseover": {"state": {"target": ["12", "13", "14", "18", "4", "3", "8", "3", "10", "28", "25", "22", "19", "20", "19", "21", "22", "23", "24", "25", "24"], "time": [2627, 2663, 2992, 3526, 3794, 4099, 4451, 4761, 5668, 5831, 6297, 8008, 8292, 8506, 9099, 9298, 11366, 13203, 13303, 13570, 15195]}, "edge": {"target": [], "time": []}}, "mouseout": {"state": {"target": ["0", "12", "13", "14", "18", "4", "3", "8", "3", "10", "28", "25", "22", "19", "20", "19", "21", "21", "22", "23", "24", "25", "24"], "time": [457, 2658, 2706, 3460, 3628, 4006, 4366, 4662, 5630, 5764, 5993, 7947, 8027, 8387, 8897, 9133, 10815, 10899, 13002, 13269, 13469, 15174, 15211]}, "edge": {"target": [], "time": []}}}, "displayed_time": "18.98", "trialTime": 19950, "trial_type": "mouselab-mdp", "trial_index": 45, "time_elapsed": 1711489, "internal_node_id": "0.0-6.0-1.0-36.0"}}, {"uniqueid": "w20539671:a21729965", "current_trial": 46, "dateTime": 1693391665236, "trialdata": {"revealed_states": [], "clicked_states": ["14", "21"], "num_clicks_accrued": [0, 0, 0, 0, 0, 0, 0, 0, 0, 0, 0, 0, 0], "stateRewards": ["", -2, 2, 8, -6, -25, 3, 87, 2, -62, -2, 74, -2, -1, 2, -1, 79, 49, -37, -14, 5, 67, -9, -1, 2, -2, 5, 15, 38, 32, -14, -38, -38, 30], "withholdReward": false, "trial_id": "mdp_trial_38", "block": "test", "trialIndex": 39, "score": 49.2, "costs": -2.8, "simulationMode": [null, null, null, null, null], "rewards": [-2, -1, 2, -14, 67], "path": ["0", "0", "12", "13", "14", "19", "21"], "rt": [6509, 192, 181, 169, 203], "actions": ["right", "right", "right", "down", "down"], "actionTimes": [7631, 8373, 9103, 9814, 10549], "queries": {"click": {"state": {"target": ["14", "21"], "time": [2512, 4796]}, "edge": {"target": [], "time": []}}, "mouseover": {"state": {"target": ["0", "12", "13", "14", "14", "21", "20", "19"], "time": [1131, 1753, 1782, 1810, 2128, 4001, 5304, 6922]}, "edge": {"target": [], "time": []}}, "mouseout": {"state": {"target": ["0", "0", "12", "13", "14", "14", "21", "20", "19"], "time": [491, 1745, 1776, 1803, 1974, 2934, 5001, 6917, 6945]}, "edge": {"target": [], "time": []}}}, "displayed_time": "15.12", "trialTime": 15966, "trial_type": "mouselab-mdp", "trial_index": 46, "time_elapsed": 1727851, "internal_node_id": "0.0-6.0-1.0-37.0"}}, {"uniqueid": "w20539671:a21729965", "current_trial": 47, "dateTime": 1693391699304, "trialdata": {"revealed_states": [], "clicked_states": ["19", "15", "16", "18", "17", "4", "5", "6", "7", "9", "11", "10"], "num_clicks_accrued": [0, 0, 0, 0, 0, 0, 0, 0, 0, 0, 0, 0, 0], "stateRewards": ["", 2, 3, 8, 11, 25, -80, 6, -4, -56, 84, -23, -2, -4, -3, 4, -51, -9, -61, -15, -64, 67, -35, 1, -1, -7, -6, 83, 59, -15, 12, -79, 56, 41], "withholdReward": false, "trial_id": "mdp_trial_39", "block": "test", "trialIndex": 40, "score": 76.2, "costs": -16.8, "simulationMode": [null, null, null, null, null], "rewards": [2, 3, 8, -4, 84], "path": ["0", "0", "1", "2", "3", "8", "10"], "rt": [28119, 171, 230, 264, 203], "actions": ["up", "up", "up", "left", "down"], "actionTimes": [29081, 29794, 30560, 31360, 32113], "queries": {"click": {"state": {"target": ["19", "15", "16", "18", "17", "4", "5", "6", "7", "9", "11", "10"], "time": [1842, 4331, 7053, 9163, 11293, 13387, 15544, 17899, 19977, 22123, 24310, 26401]}, "edge": {"target": [], "time": []}}, "mouseover": {"state": {"target": ["13", "14", "19", "14", "15", "18", "7", "3", "4", "16", "18", "17", "15", "4", "3", "8", "5", "6", "7", "4", "3", "9", "8", "11", "8", "11", "10", "26", "27", "27"], "time": [980, 1128, 1644, 2024, 2326, 4528, 4929, 5195, 5362, 6816, 7664, 9698, 11604, 11734, 13704, 13837, 14638, 16140, 18209, 20309, 20511, 21080, 22378, 22713, 23652, 23976, 24615, 26683, 27188, 27489]}, "edge": {"target": [], "time": []}}, "mouseout": {"state": {"target": ["0", "13", "14", "19", "14", "15", "18", "7", "3", "4", "16", "16", "18", "17", "15", "4", "4", "3", "8", "5", "6", "7", "4", "3", "9", "8", "11", "8", "11", "10", "10", "26", "27", "27", "28", "24", "31"], "time": [646, 1079, 1620, 1964, 2231, 4502, 4594, 4963, 5263, 6574, 7119, 7298, 9399, 11568, 11647, 13455, 13670, 13804, 14338, 15771, 18108, 20243, 20412, 20713, 22312, 22579, 23514, 23926, 24514, 26427, 26546, 26784, 27250, 28540, 32182, 32238, 32288]}, "edge": {"target": [], "time": []}}}, "displayed_time": "32.66", "trialTime": 33641, "trial_type": "mouselab-mdp", "trial_index": 47, "time_elapsed": 1761918, "internal_node_id": "0.0-6.0-1.0-38.0"}}, {"uniqueid": "w20539671:a21729965", "current_trial": 48, "dateTime": 1693391728560, "trialdata": {"revealed_states": [], "clicked_states": ["21", "22", "17", "20", "18", "6", "5", "7", "9", "10"], "num_clicks_accrued": [0, 0, 0, 0, 0, 0, 0, 0, 0, 0, 0, 0, 0], "stateRewards": ["", 1, 4, -4, 14, 35, 51, 19, -13, 54, 78, -74, -2, -1, -3, 13, -11, -42, -73, -15, -24, -3, -69, 2, -1, 5, 16, -27, 73, 58, 9, -60, 5, -60], "withholdReward": false, "trial_id": "mdp_trial_40", "block": "test", "trialIndex": 41, "score": 52, "costs": -14.000000000000002, "simulationMode": [null, null, null, null, null], "rewards": [1, 4, -4, -13, 78], "path": ["0", "0", "1", "2", "3", "8", "10"], "rt": [23057, 171, 209, 129, 168], "actions": ["up", "up", "up", "left", "down"], "actionTimes": [24402, 25109, 25840, 26496, 27200], "queries": {"click": {"state": {"target": ["21", "22", "17", "20", "18", "6", "5", "7", "9", "10"], "time": [2129, 4243, 6235, 8257, 10343, 12447, 15048, 17100, 19918, 22085]}, "edge": {"target": [], "time": []}}, "mouseover": {"state": {"target": ["22", "21", "22", "14", "17", "16", "20", "15", "18", "16", "6", "6", "16", "5", "7", "7", "2", "3", "9", "8", "10", "11"], "time": [1633, 1986, 2945, 4610, 5349, 6910, 7275, 8643, 9012, 10680, 11454, 11848, 13254, 14750, 15819, 16119, 18258, 19250, 19678, 20122, 20961, 22499]}, "edge": {"target": [], "time": []}}, "mouseout": {"state": {"target": ["0", "22", "21", "22", "14", "17", "16", "20", "15", "18", "16", "6", "6", "6", "16", "6", "5", "7", "7", "2", "3", "9", "8", "10", "11", "28", "24"], "time": [1432, 1682, 2193, 4411, 4881, 6512, 7176, 8410, 8785, 10393, 11419, 11483, 12714, 12951, 14390, 14446, 15252, 15952, 17252, 19112, 19431, 20089, 20154, 22291, 24660, 25065, 27364]}, "edge": {"target": [], "time": []}}}, "displayed_time": "27.74", "trialTime": 28847, "trial_type": "mouselab-mdp", "trial_index": 48, "time_elapsed": 1791176, "internal_node_id": "0.0-6.0-1.0-39.0"}}, {"uniqueid": "w20539671:a21729965", "current_trial": 49, "dateTime": 1693391766985, "trialdata": {"rt": 38419, "response": {"Q0": "$-2 to $2", "Q1": "$-16 to $16", "Q2": "$-88 to $88", "Q3": "The cost was always $1.4.", "Q4": "Slightly motivated"}, "question_order": [0, 1, 2, 3, 4], "trial_id": "final_quiz_control", "trial_type": "survey-multi-choice", "trial_index": 49, "time_elapsed": 1829600, "internal_node_id": "0.0-6.0-2.0"}}, {"uniqueid": "w20539671:a21729965", "current_trial": 50, "dateTime": 1693392272281, "trialdata": {"rt": 505287, "response": {"Q0": "I tried to click in as few nodes as possible until I found a satisfactory score. I tried to click first at intersection points, to discard (or choose) larger areas of the web.", "Q1": "At first I clicked close to the starting point, but then I realised that the value of the nodes was much larger (also in negative value) at the farthest points of the web. So then I tried to click at the last intersection points, in order to choose the best path and finally I clicked an all three final points from the last intersection point, to find the node which had the largest value.", "Q2": "It was difficult to see the value of my current points going down as I clicked on the nodes. So at first it prevented me from searching for nodes with the largest values, because I didn't want to pay too much \"clicking fees\". But since the nodes furthest away had rather high values, it was worth trying to find the best path at the cost of clicking more."}, "trial_id": "self_report_control", "trial_type": "survey-text", "trial_index": 50, "time_elapsed": 2334896, "internal_node_id": "0.0-6.0-3.0"}}, {"uniqueid": "w20539671:a21729965", "current_trial": 51, "dateTime": 1693392292096, "trialdata": {"rt": 19806, "response": {"gender": "female", "age": "28", "colorblind": "0", "effort": "0"}, "trial_type": "survey-html-form", "trial_index": 51, "time_elapsed": 2354712, "internal_node_id": "0.0-6.0-4.0"}}, {"uniqueid": "w20539671:a21729965", "current_trial": 52, "dateTime": 1693392344208, "trialdata": {"rt": 52103, "response": {"Q0": "No. Everything was clear.", "Q1": "No, I never participated in a Web of Cash HIT before.", "Q2": ""}, "trial_type": "survey-text", "trial_index": 52, "time_elapsed": 2406824, "internal_node_id": "0.0-6.0-5.0"}}, {"uniqueid": "w20539671:a21729965", "current_trial": 53, "dateTime": 1693392419521, "trialdata": {"rt": 75307, "stimulus": "<h1>Completion Code Instructions (1/2)</h1>\n<br><br><br><br>\nYou have reached the end of the experiment! The completion code consists of two parts: (1) a code with 2 characters (2) a code with 6 characters. On this page, you will receive the second part of the code. The first part of the completion code will be on the next page.\n<br><br>\nThe second part of your completion code is: <b>EWEK22</b>\n<br><br>\nPlease note this down. Then, press 'Finish HIT' in order to find the first part of your completion code. Once the data has been saved, you will receive this code either in this window or in the original browser window where you started the experiment.\n", "response": 0, "trial_type": "html-button-response", "trial_index": 53, "time_elapsed": 2482137, "internal_node_id": "0.0-6.0-6.0"}}, {"uniqueid": "w20539671:a21729965", "current_trial": 54, "dateTime": 1693392420532, "trialdata": {"success": true, "trial_type": "fullscreen", "trial_index": 54, "time_elapsed": 2483148, "internal_node_id": "0.0-7.0"}}], "questiondata": {"params": {"CODE": "C6DMOQA6", "MIN_TIME": 14, "inspectCost": 1, "startTime": "Wed Aug 30 2023 12:05:36 GMT+0200 (Ora legale dell\u2019Europa centrale)", "bonusRate": 0.002, "variance": "1_2_4_8_44", "branching": "31123"}, "final_score": 2084.8}, "eventdata": [{"eventtype": "initialized", "value": null, "timestamp": 1693389936247, "interval": 0}, {"eventtype": "window_resize", "value": [1028, 777], "timestamp": 1693389936247, "interval": 0}, {"eventtype": "window_resize", "value": [1028, 777], "timestamp": 1693389936574, "interval": 327}, {"eventtype": "focus", "value": "off", "timestamp": 1693389941223, "interval": 4649}, {"eventtype": "focus", "value": "on", "timestamp": 1693389975108, "interval": 33885}, {"eventtype": "window_resize", "value": [2560, 1440], "timestamp": 1693389977642, "interval": 2534}, {"eventtype": "focus", "value": "off", "timestamp": 1693390333215, "interval": 355573}, {"eventtype": "focus", "value": "on", "timestamp": 1693390336194, "interval": 2979}, {"eventtype": "focus", "value": "off", "timestamp": 1693390337163, "interval": 969}, {"eventtype": "focus", "value": "on", "timestamp": 1693390341378, "interval": 4215}, {"eventtype": "focus", "value": "off", "timestamp": 1693390345008, "interval": 3630}, {"eventtype": "focus", "value": "on", "timestamp": 1693390349303, "interval": 4295}, {"eventtype": "focus", "value": "off", "timestamp": 1693390406208, "interval": 56905}, {"eventtype": "focus", "value": "on", "timestamp": 1693390409692, "interval": 3484}, {"eventtype": "focus", "value": "off", "timestamp": 1693390414159, "interval": 4467}, {"eventtype": "focus", "value": "on", "timestamp": 1693390446674, "interval": 32515}, {"eventtype": "focus", "value": "off", "timestamp": 1693390448517, "interval": 1843}, {"eventtype": "focus", "value": "on", "timestamp": 1693390452112, "interval": 3595}, {"eventtype": "focus", "value": "off", "timestamp": 1693391012453, "interval": 560341}, {"eventtype": "focus", "value": "on", "timestamp": 1693391052972, "interval": 40519}, {"eventtype": "focus", "value": "off", "timestamp": 1693391790142, "interval": 737170}, {"eventtype": "focus", "value": "on", "timestamp": 1693391793818, "interval": 3676}, {"eventtype": "focus", "value": "off", "timestamp": 1693391794749, "interval": 931}, {"eventtype": "focus", "value": "on", "timestamp": 1693391807001, "interval": 12252}, {"eventtype": "focus", "value": "off", "timestamp": 1693391807710, "interval": 709}, {"eventtype": "focus", "value": "on", "timestamp": 1693391837962, "interval": 30252}, {"eventtype": "focus", "value": "off", "timestamp": 1693391847544, "interval": 9582}, {"eventtype": "focus", "value": "on", "timestamp": 1693391873563, "interval": 26019}, {"eventtype": "focus", "value": "off", "timestamp": 1693391888889, "interval": 15326}, {"eventtype": "focus", "value": "on", "timestamp": 1693391889876, "interval": 987}, {"eventtype": "focus", "value": "off", "timestamp": 1693391953540, "interval": 63664}, {"eventtype": "focus", "value": "on", "timestamp": 1693392012772, "interval": 59232}, {"eventtype": "focus", "value": "off", "timestamp": 1693392226554, "interval": 213782}, {"eventtype": "focus", "value": "on", "timestamp": 1693392247419, "interval": 20865}, {"eventtype": "focus", "value": "off", "timestamp": 1693392396695, "interval": 149276}, {"eventtype": "focus", "value": "on", "timestamp": 1693392403326, "interval": 6631}, {"eventtype": "focus", "value": "off", "timestamp": 1693392407688, "interval": 4362}, {"eventtype": "focus", "value": "on", "timestamp": 1693392417698, "interval": 10010}, {"eventtype": "window_resize", "value": [1028, 777], "timestamp": 1693392419863, "interval": 2165}], "useragent": "Mozilla/5.0 (Windows NT 10.0; Win64; x64) AppleWebKit/537.36 (KHTML, like Gecko) Chrome/116.0.0.0 Safari/537.36", "mode": "live", "id": "w20539671:a21729965", "status": "user data saved", "Beginhit": "2023-08-30 10:05:35.16861", "Beginexp": "2023-08-30 10:06:18.658918", "Endhit": "2023-08-30 10:47:01.344208", "psiturkStatus": 3, "browser": "<redacted>", "platform": "windows", "language": "it-IT"}