{"condition": 0, "counterbalance": 0, "assignmentId": "a64888913", "workerId": "w82237922", "hitId": "h40395867", "currenttrial": 55, "bonus": 0, "data": [{"uniqueid": "w82237922:a64888913", "current_trial": 0, "dateTime": 1691142250166, "trialdata": {"success": true, "trial_type": "fullscreen", "trial_index": 0, "time_elapsed": 10434, "internal_node_id": "0.0-0.0"}}, {"uniqueid": "w82237922:a64888913", "current_trial": 1, "dateTime": 1691142288392, "trialdata": {"view_history": [{"page_index": 0, "viewing_time": 38217}], "rt": 38218, "trial_id": "exp_instructions_control", "trial_type": "instructions", "trial_index": 1, "time_elapsed": 48660, "internal_node_id": "0.0-1.0"}}, {"uniqueid": "w82237922:a64888913", "current_trial": 2, "dateTime": 1691142296696, "trialdata": {"success": true, "trial_type": "fullscreen", "trial_index": 2, "time_elapsed": 56963, "internal_node_id": "0.0-2.0-0.0"}}, {"uniqueid": "w82237922:a64888913", "current_trial": 3, "dateTime": 1691142726513, "trialdata": {"view_history": [{"page_index": 0, "viewing_time": 149772}, {"page_index": 1, "viewing_time": 146565}, {"page_index": 0, "viewing_time": 4484}, {"page_index": 1, "viewing_time": 5130}, {"page_index": 2, "viewing_time": 61743}, {"page_index": 3, "viewing_time": 62132}], "rt": 429825, "trial_id": "mouselab_instructions_1_control", "trial_type": "instructions", "trial_index": 3, "time_elapsed": 486781, "internal_node_id": "0.0-2.0-1.0"}}, {"uniqueid": "w82237922:a64888913", "current_trial": 4, "dateTime": 1691142763695, "trialdata": {"revealed_states": [], "clicked_states": ["12", "13", "14"], "num_clicks_accrued": [0, 0, 0, 0, 0, 0, 0, 0, 0, 0, 0, 0, 0], "stateRewards": ["", 10, -10, 10, -10, 10, -10, 10, 10, 10, 10, -10, 10, 10, 10, -10, 10, 10, -10, 10, 10, -10, -10, 10, -10, -10, -10, -10, 10, -10, 10, -10, 10, 10], "withholdReward": false, "trial_id": "practice_1", "block": "test", "trialIndex": 0, "score": 52, "costs": -1.5, "simulationMode": [null, null, null, null, null], "rewards": [10, 10, 10, 10, 10], "path": ["0", "0", "12", "13", "14", "19", "20"], "rt": [16133, 841, 195, 1263, 2106], "actions": ["right", "right", "right", "down", "right"], "actionTimes": [21805, 23164, 23868, 25653, 28279], "queries": {"click": {"state": {"target": ["12", "13", "14"], "time": [13848, 16829, 19931]}, "edge": {"target": [], "time": []}}, "mouseover": {"state": {"target": ["12", "13", "14"], "time": [12622, 15672, 18555]}, "edge": {"target": [], "time": []}}, "mouseout": {"state": {"target": ["0", "12", "13", "14", "17"], "time": [12139, 15506, 18457, 35631, 35772]}, "edge": {"target": [], "time": []}}}, "displayed_time": "28.79", "trialTime": 36720, "trial_type": "mouselab-mdp", "trial_index": 4, "time_elapsed": 523962, "internal_node_id": "0.0-2.0-2.0-0.0"}}, {"uniqueid": "w82237922:a64888913", "current_trial": 5, "dateTime": 1691142784540, "trialdata": {"revealed_states": [], "clicked_states": [], "num_clicks_accrued": [0, 0, 0, 0, 0, 0, 0, 0, 0, 0, 0, 0, 0], "stateRewards": ["", 10, 10, 10, 10, 10, -10, 10, 10, 10, -10, -10, 10, 10, 10, -10, 10, 10, -10, 10, -10, -10, -10, -10, -10, 10, -10, 10, -10, 10, 10, 10, -10, 10], "withholdReward": false, "trial_id": "practice_2", "block": "test", "trialIndex": 1, "score": -6.5, "costs": 0, "simulationMode": [null, null, null, null, null], "rewards": [-10, -10, 10, -10, 10], "path": ["0", "0", "23", "24", "25", "26", "27"], "rt": [4963, 1549, 2126, 1031, 416], "actions": ["left", "left", "left", "up", "up"], "actionTimes": [8379, 10443, 13083, 14622, 15559], "queries": {"click": {"state": {"target": [], "time": []}, "edge": {"target": [], "time": []}}, "mouseover": {"state": {"target": [], "time": []}, "edge": {"target": [], "time": []}}, "mouseout": {"state": {"target": ["17", "0", "0"], "time": [1640, 1776, 4142]}, "edge": {"target": [], "time": []}}}, "displayed_time": "16.07", "trialTime": 20602, "trial_type": "mouselab-mdp", "trial_index": 5, "time_elapsed": 544807, "internal_node_id": "0.0-2.0-2.0-1.0"}}, {"uniqueid": "w82237922:a64888913", "current_trial": 6, "dateTime": 1691142878778, "trialdata": {"view_history": [{"page_index": 0, "viewing_time": 70174}, {"page_index": 1, "viewing_time": 24057}], "rt": 94232, "trial_id": "mouselab_instructions_2_control", "trial_type": "instructions", "trial_index": 6, "time_elapsed": 639046, "internal_node_id": "0.0-2.0-3.0"}}, {"uniqueid": "w82237922:a64888913", "current_trial": 7, "dateTime": 1691142957937, "trialdata": {"rt": 79150, "response": {"Q0": "The cost for clicking on nodes may vary between nodes.", "Q1": "The better I perform the higher my bonus will be.", "Q2": "No, the amount of cash at each node of the web may be different each time.", "Q3": "To get the highest total score.", "Q4": "Only before moving the spider.", "Q5": "3 seconds"}, "question_order": [0, 1, 2, 3, 4, 5], "correct": {"Q0": "The cost for clicking on nodes may vary between nodes.", "Q1": "The better I perform the higher my bonus will be.", "Q2": "No, the amount of cash at each node of the web may be different each time.", "Q3": "To get the highest total score.", "Q4": "Only before moving the spider.", "Q5": "3 seconds"}, "trial_id": "mouselab_quiz_control", "trial_type": "survey-multi-choice", "trial_index": 7, "time_elapsed": 718205, "internal_node_id": "0.0-2.0-4.0"}}, {"uniqueid": "w82237922:a64888913", "current_trial": 8, "dateTime": 1691143015301, "trialdata": {"rt": 57352, "stimulus": "\n<h1> Get ready to start the game! </h1>\n\nThank you for reading the instructions. Get ready start with the 40 rounds of this game.\n<br><br>\nIf you need to take a break, feel free to take one after the end of a round, before continuing to the next one.\n<br><br>\nRemember, the more money the spider gets, the bigger your bonus will be!\n<br><br>\n<div style='text-align: center;'>Press <code>space</code> to begin.</div>\n\n<br><br>\n(If, at any point, the <code>space</code> key does not take you to the next page, click once on the text and try again.)", "response": " ", "trial_id": "mdp_ready", "trial_type": "html-keyboard-response", "trial_index": 8, "time_elapsed": 775569, "internal_node_id": "0.0-4.0-0.0"}}, {"uniqueid": "w82237922:a64888913", "current_trial": 9, "dateTime": 1691143038345, "trialdata": {"revealed_states": [], "clicked_states": ["23", "24"], "num_clicks_accrued": [0, 0, 0, 0, 0, 0, 0, 0, 0, 0, 0, 0, 0], "stateRewards": ["", -2, -1, -6, -14, -55, 78, -13, 11, 14, -71, 59, 2, 2, 6, -6, 9, 38, 14, 7, 85, 11, 68, 1, -4, -1, -3, -63, -85, 9, -2, 63, -86, -10], "withholdReward": false, "trial_id": "mdp_trial_1", "block": "test", "trialIndex": 2, "score": -94.8, "costs": -2.8, "simulationMode": [null, null, null, null, null], "rewards": [1, -4, -1, -3, -85], "path": ["0", "0", "23", "24", "25", "26", "28"], "rt": [9498, 864, 339, 902, 404], "actions": ["left", "left", "left", "up", "right"], "actionTimes": [12734, 14120, 14978, 16393, 17310], "queries": {"click": {"state": {"target": ["23", "24"], "time": [5873, 8380]}, "edge": {"target": [], "time": []}}, "mouseover": {"state": {"target": ["0", "23", "24"], "time": [5375, 5474, 7406]}, "edge": {"target": [], "time": []}}, "mouseout": {"state": {"target": ["3", "2", "1", "0", "0", "0", "23"], "time": [1103, 1253, 1336, 1490, 2787, 5404, 7320]}, "edge": {"target": [], "time": []}}}, "displayed_time": "17.82", "trialTime": 22789, "trial_type": "mouselab-mdp", "trial_index": 9, "time_elapsed": 798611, "internal_node_id": "0.0-4.0-1.0-0.0"}}, {"uniqueid": "w82237922:a64888913", "current_trial": 10, "dateTime": 1691143060038, "trialdata": {"revealed_states": [], "clicked_states": ["12", "1", "23"], "num_clicks_accrued": [0, 0, 0, 0, 0, 0, 0, 0, 0, 0, 0, 0, 0], "stateRewards": ["", 1, -1, 1, 13, 31, -56, 72, 2, 41, 5, 63, -2, -3, -2, 3, -71, -26, 52, 13, -31, 24, -67, 2, -2, 5, 4, 66, 43, 72, 9, 86, -26, 44], "withholdReward": false, "trial_id": "mdp_trial_2", "block": "test", "trialIndex": 3, "score": 40.8, "costs": -4.199999999999999, "simulationMode": [null, null, null, null, null], "rewards": [1, -1, 1, 13, 31], "path": ["0", "0", "1", "2", "3", "4", "5"], "rt": [7464, 997, 903, 487, 265], "actions": ["up", "up", "up", "right", "up"], "actionTimes": [10581, 12101, 13522, 14526, 15303], "queries": {"click": {"state": {"target": ["12", "1", "23"], "time": [5147, 6676, 9038]}, "edge": {"target": [], "time": []}}, "mouseover": {"state": {"target": ["12", "1", "23"], "time": [4805, 6419, 7568]}, "edge": {"target": [], "time": []}}, "mouseout": {"state": {"target": ["24", "23", "0", "12", "1"], "time": [2304, 2400, 4718, 6269, 7417]}, "edge": {"target": [], "time": []}}}, "displayed_time": "17.12", "trialTime": 21430, "trial_type": "mouselab-mdp", "trial_index": 10, "time_elapsed": 820305, "internal_node_id": "0.0-4.0-1.0-1.0"}}, {"uniqueid": "w82237922:a64888913", "current_trial": 11, "dateTime": 1691143080348, "trialdata": {"revealed_states": [], "clicked_states": ["12", "23", "1"], "num_clicks_accrued": [0, 0, 0, 0, 0, 0, 0, 0, 0, 0, 0, 0, 0], "stateRewards": ["", 2, -3, -2, 14, -4, 85, 46, 15, -28, 41, 31, -1, -1, -1, 5, 62, 79, 57, 12, -73, -64, 86, -1, 1, -3, -5, 68, 11, -32, 8, -80, -21, -56], "withholdReward": false, "trial_id": "mdp_trial_3", "block": "test", "trialIndex": 4, "score": 38.8, "costs": -4.199999999999999, "simulationMode": [null, null, null, null, null, null], "rewards": [2, -3, -2, 15, 31], "path": ["0", "0", "1", "2", "3", "8", "11"], "rt": [6234, 757, 752, 670, 1040, 476], "actions": ["up", "up", "up", "up", "left", "left"], "actionTimes": [8121, 8882, 10155, 11340, 12894, 13883], "queries": {"click": {"state": {"target": ["12", "23", "1"], "time": [3199, 5131, 7177]}, "edge": {"target": [], "time": []}}, "mouseover": {"state": {"target": ["12", "23", "1"], "time": [2857, 4103, 5934]}, "edge": {"target": [], "time": []}}, "mouseout": {"state": {"target": ["23", "0", "12", "23"], "time": [820, 2806, 3769, 5851]}, "edge": {"target": [], "time": []}}}, "displayed_time": "15.90", "trialTime": 20042, "trial_type": "mouselab-mdp", "trial_index": 11, "time_elapsed": 840615, "internal_node_id": "0.0-4.0-1.0-2.0"}}, {"uniqueid": "w82237922:a64888913", "current_trial": 12, "dateTime": 1691143099600, "trialdata": {"revealed_states": [], "clicked_states": [], "num_clicks_accrued": [0, 0, 0, 0, 0, 0, 0, 0, 0, 0, 0, 0, 0], "stateRewards": ["", -2, 1, -7, -8, -37, -76, -87, 11, 30, -63, 80, -1, 4, 2, -1, 42, 17, 52, -3, -75, -80, -68, 2, -3, -5, -15, -48, 82, 24, -7, 5, -22, -71], "withholdReward": false, "trial_id": "mdp_trial_4", "block": "test", "trialIndex": 5, "score": -73, "costs": 0, "simulationMode": [null, null, null, null, null], "rewards": [-1, 4, 2, -3, -75], "path": ["0", "0", "12", "13", "14", "19", "20"], "rt": [1104, 1054, 501, 716, 577], "actions": ["right", "right", "right", "down", "right"], "actionTimes": [3210, 4777, 5792, 7023, 8116], "queries": {"click": {"state": {"target": [], "time": []}, "edge": {"target": [], "time": []}}, "mouseover": {"state": {"target": [], "time": []}, "edge": {"target": [], "time": []}}, "mouseout": {"state": {"target": ["1"], "time": [1373]}, "edge": {"target": [], "time": []}}}, "displayed_time": "16.11", "trialTime": 18963, "trial_type": "mouselab-mdp", "trial_index": 12, "time_elapsed": 859867, "internal_node_id": "0.0-4.0-1.0-3.0"}}, {"uniqueid": "w82237922:a64888913", "current_trial": 13, "dateTime": 1691143118953, "trialdata": {"revealed_states": [], "clicked_states": [], "num_clicks_accrued": [0, 0, 0, 0, 0, 0, 0, 0, 0, 0, 0, 0, 0], "stateRewards": ["", 1, -3, 4, 13, -72, 52, 5, 5, -58, 5, 14, 2, 1, 3, -14, -86, -4, 73, 6, -58, -50, 49, 2, -3, -4, 2, 33, -41, 42, -11, 81, 45, 53], "withholdReward": false, "trial_id": "mdp_trial_5", "block": "test", "trialIndex": 6, "score": 30, "costs": 0, "simulationMode": [null, null, null, null, null], "rewards": [2, -3, -4, 2, 33], "path": ["0", "0", "23", "24", "25", "26", "27"], "rt": [1158, 437, 447, 655, 218], "actions": ["left", "left", "left", "up", "up"], "actionTimes": [3422, 4367, 5327, 6505, 7232], "queries": {"click": {"state": {"target": [], "time": []}, "edge": {"target": [], "time": []}}, "mouseover": {"state": {"target": [], "time": []}, "edge": {"target": [], "time": []}}, "mouseout": {"state": {"target": ["0"], "time": [2054]}, "edge": {"target": [], "time": []}}}, "displayed_time": "16.27", "trialTime": 19058, "trial_type": "mouselab-mdp", "trial_index": 13, "time_elapsed": 879221, "internal_node_id": "0.0-4.0-1.0-4.0"}}, {"uniqueid": "w82237922:a64888913", "current_trial": 14, "dateTime": 1691143137930, "trialdata": {"revealed_states": [], "clicked_states": [], "num_clicks_accrued": [0, 0, 0, 0, 0, 0, 0, 0, 0, 0, 0, 0, 0], "stateRewards": ["", 2, 4, 7, 7, -79, -2, -21, -5, -53, 47, -21, 1, -3, -1, 7, 83, 7, 84, -7, 80, -37, 69, 2, -4, 5, 2, 4, -20, -30, 7, 71, 44, -81], "withholdReward": false, "trial_id": "mdp_trial_6", "block": "test", "trialIndex": 7, "score": 55, "costs": 0, "simulationMode": [null, null, null, null, null], "rewards": [2, 4, 7, -5, 47], "path": ["0", "0", "1", "2", "3", "8", "10"], "rt": [1293, 265, 336, 570, 492], "actions": ["up", "up", "up", "left", "down"], "actionTimes": [3034, 3813, 4667, 5755, 6758], "queries": {"click": {"state": {"target": [], "time": []}, "edge": {"target": [], "time": []}}, "mouseover": {"state": {"target": [], "time": []}, "edge": {"target": [], "time": []}}, "mouseout": {"state": {"target": ["0"], "time": [1530]}, "edge": {"target": [], "time": []}}}, "displayed_time": "15.74", "trialTime": 18671, "trial_type": "mouselab-mdp", "trial_index": 14, "time_elapsed": 898197, "internal_node_id": "0.0-4.0-1.0-5.0"}}, {"uniqueid": "w82237922:a64888913", "current_trial": 15, "dateTime": 1691143159073, "trialdata": {"revealed_states": [], "clicked_states": [], "num_clicks_accrued": [0, 0, 0, 0, 0, 0, 0, 0, 0, 0, 0, 0, 0], "stateRewards": ["", 2, 3, 6, -5, -74, -53, 17, -12, 46, 44, 18, -2, 4, 1, -8, 22, -23, -49, 9, -45, 55, 81, 1, -1, -7, -16, -83, -71, -45, 2, 51, 82, 61], "withholdReward": false, "trial_id": "mdp_trial_7", "block": "test", "trialIndex": 8, "score": -47, "costs": 0, "simulationMode": [null, null, null, null, null], "rewards": [2, 3, 6, -5, -53], "path": ["0", "0", "1", "2", "3", "4", "6"], "rt": [1334, 314, 652, 334, 712], "actions": ["up", "up", "up", "right", "right"], "actionTimes": [3182, 4017, 5186, 6034, 7262], "queries": {"click": {"state": {"target": [], "time": []}, "edge": {"target": [], "time": []}}, "mouseover": {"state": {"target": [], "time": []}, "edge": {"target": [], "time": []}}, "mouseout": {"state": {"target": ["0"], "time": [1640]}, "edge": {"target": [], "time": []}}}, "displayed_time": "15.86", "trialTime": 20827, "trial_type": "mouselab-mdp", "trial_index": 15, "time_elapsed": 919340, "internal_node_id": "0.0-4.0-1.0-6.0"}}, {"uniqueid": "w82237922:a64888913", "current_trial": 16, "dateTime": 1691143179687, "trialdata": {"revealed_states": [], "clicked_states": [], "num_clicks_accrued": [0, 0, 0, 0, 0, 0, 0, 0, 0, 0, 0, 0, 0], "stateRewards": ["", 2, -3, -8, 14, -7, -51, 73, 2, 36, 36, -43, -1, 3, -4, 1, 6, 87, -65, 15, 61, -42, -83, -1, 3, -2, -7, 30, -48, 35, 13, 26, 60, 78], "withholdReward": false, "trial_id": "mdp_trial_8", "block": "test", "trialIndex": 9, "score": 74, "costs": 0, "simulationMode": [null, null, null, null, null], "rewards": [-1, 3, -4, 15, 61], "path": ["0", "0", "12", "13", "14", "19", "20"], "rt": [3883, 1415, 2332, 765, 602], "actions": ["right", "right", "right", "down", "right"], "actionTimes": [6015, 7947, 10797, 12080, 13200], "queries": {"click": {"state": {"target": [], "time": []}, "edge": {"target": [], "time": []}}, "mouseover": {"state": {"target": ["0"], "time": [4884]}, "edge": {"target": [], "time": []}}, "mouseout": {"state": {"target": ["0", "0", "12", "14"], "time": [1918, 5001, 9348, 9837]}, "edge": {"target": [], "time": []}}}, "displayed_time": "16.14", "trialTime": 20310, "trial_type": "mouselab-mdp", "trial_index": 16, "time_elapsed": 939954, "internal_node_id": "0.0-4.0-1.0-7.0"}}, {"uniqueid": "w82237922:a64888913", "current_trial": 17, "dateTime": 1691143201629, "trialdata": {"revealed_states": [], "clicked_states": [], "num_clicks_accrued": [0, 0, 0, 0, 0, 0, 0, 0, 0, 0, 0, 0, 0], "stateRewards": ["", -2, -4, 4, -11, -63, -60, -7, 2, -14, 81, -43, -1, -1, -5, 7, 10, 69, 40, 8, -83, 52, 60, 1, 2, 5, -5, 16, 64, 14, -3, 29, 7, -51], "withholdReward": false, "trial_id": "mdp_trial_9", "block": "test", "trialIndex": 10, "score": -76, "costs": 0, "simulationMode": [null, null, null, null, null], "rewards": [-2, -4, 4, -11, -63], "path": ["0", "0", "1", "2", "3", "4", "5"], "rt": [1474, 513, 368, 383, 480], "actions": ["up", "up", "up", "right", "up"], "actionTimes": [5487, 6531, 7432, 8345, 9336], "queries": {"click": {"state": {"target": [], "time": []}, "edge": {"target": [], "time": []}}, "mouseover": {"state": {"target": [], "time": []}, "edge": {"target": [], "time": []}}, "mouseout": {"state": {"target": ["14", "13", "12", "0"], "time": [1955, 2035, 2585, 3269]}, "edge": {"target": [], "time": []}}}, "displayed_time": "18.02", "trialTime": 21624, "trial_type": "mouselab-mdp", "trial_index": 17, "time_elapsed": 961896, "internal_node_id": "0.0-4.0-1.0-8.0"}}, {"uniqueid": "w82237922:a64888913", "current_trial": 18, "dateTime": 1691143220895, "trialdata": {"revealed_states": [], "clicked_states": [], "num_clicks_accrued": [0, 0, 0, 0, 0, 0, 0, 0, 0, 0, 0, 0, 0], "stateRewards": ["", 1, 2, 2, -15, -84, 28, -26, 13, 31, 86, 30, -2, 1, -1, -8, 66, -40, -1, -10, -32, 57, -17, 1, 2, -2, 9, -23, 77, 85, 12, -32, -62, -35], "withholdReward": false, "trial_id": "mdp_trial_10", "block": "test", "trialIndex": 11, "score": -11, "costs": 0, "simulationMode": [null, null, null, null, null], "rewards": [-2, 1, -1, -8, -1], "path": ["0", "0", "12", "13", "14", "15", "18"], "rt": [1158, 499, 535, 251, 435], "actions": ["right", "right", "right", "up", "left"], "actionTimes": [3248, 4274, 5319, 6083, 7035], "queries": {"click": {"state": {"target": [], "time": []}, "edge": {"target": [], "time": []}}, "mouseover": {"state": {"target": [], "time": []}, "edge": {"target": [], "time": []}}, "mouseout": {"state": {"target": ["0"], "time": [1885]}, "edge": {"target": [], "time": []}}}, "displayed_time": "16.09", "trialTime": 18953, "trial_type": "mouselab-mdp", "trial_index": 18, "time_elapsed": 981163, "internal_node_id": "0.0-4.0-1.0-9.0"}}, {"uniqueid": "w82237922:a64888913", "current_trial": 19, "dateTime": 1691143238510, "trialdata": {"revealed_states": [], "clicked_states": [], "num_clicks_accrued": [0, 0, 0, 0, 0, 0, 0, 0, 0, 0, 0, 0, 0], "stateRewards": ["", -2, -1, 3, -3, 71, -58, -21, 7, -10, -75, -37, 2, 4, -1, -12, -79, -29, -48, 3, -41, -10, -30, -1, -2, 1, -15, 13, 66, 22, -1, -42, -86, -55], "withholdReward": false, "trial_id": "mdp_trial_11", "block": "test", "trialIndex": 12, "score": -22, "costs": 0, "simulationMode": [null, null, null, null, null], "rewards": [2, 4, -1, 3, -30], "path": ["0", "0", "12", "13", "14", "19", "22"], "rt": [2074, 1051, 511, 1443, 1378], "actions": ["right", "right", "right", "down", "left"], "actionTimes": [3472, 5043, 6068, 8036, 9935], "queries": {"click": {"state": {"target": [], "time": []}, "edge": {"target": [], "time": []}}, "mouseover": {"state": {"target": ["0"], "time": [1875]}, "edge": {"target": [], "time": []}}, "mouseout": {"state": {"target": ["0"], "time": [1155]}, "edge": {"target": [], "time": []}}}, "displayed_time": "15.40", "trialTime": 17276, "trial_type": "mouselab-mdp", "trial_index": 19, "time_elapsed": 998777, "internal_node_id": "0.0-4.0-1.0-10.0"}}, {"uniqueid": "w82237922:a64888913", "current_trial": 20, "dateTime": 1691143259961, "trialdata": {"revealed_states": [], "clicked_states": [], "num_clicks_accrued": [0, 0, 0, 0, 0, 0, 0, 0, 0, 0, 0, 0, 0], "stateRewards": ["", 1, 1, -7, -9, -44, 24, -83, -15, 44, -24, 72, -2, -3, 4, -5, 57, 55, 29, -11, 22, 12, -25, -1, 2, 7, 12, 33, -8, 47, -4, 8, 50, -4], "withholdReward": false, "trial_id": "mdp_trial_12", "block": "test", "trialIndex": 13, "score": -44, "costs": 0, "simulationMode": [null, null, null, null, null], "rewards": [1, 1, -7, -15, -24], "path": ["0", "0", "1", "2", "3", "8", "10"], "rt": [2241, 208, 309, 206, 1210], "actions": ["up", "up", "up", "left", "down"], "actionTimes": [4178, 4903, 5724, 6451, 8173], "queries": {"click": {"state": {"target": [], "time": []}, "edge": {"target": [], "time": []}}, "mouseover": {"state": {"target": [], "time": []}, "edge": {"target": [], "time": []}}, "mouseout": {"state": {"target": [], "time": []}, "edge": {"target": [], "time": []}}}, "displayed_time": "15.95", "trialTime": 21132, "trial_type": "mouselab-mdp", "trial_index": 20, "time_elapsed": 1020228, "internal_node_id": "0.0-4.0-1.0-11.0"}}, {"uniqueid": "w82237922:a64888913", "current_trial": 21, "dateTime": 1691143278069, "trialdata": {"revealed_states": [], "clicked_states": [], "num_clicks_accrued": [0, 0, 0, 0, 0, 0, 0, 0, 0, 0, 0, 0, 0], "stateRewards": ["", 1, -2, -2, 10, -31, -77, 35, 9, -47, 8, 48, -2, 1, -4, -3, -26, -50, 43, -11, 76, -38, 17, 1, -1, 6, 10, 15, -9, 12, -8, 85, 11, -55], "withholdReward": false, "trial_id": "mdp_trial_13", "block": "test", "trialIndex": 14, "score": 7, "costs": 0, "simulationMode": [null, null, null, null, null], "rewards": [1, -1, 6, 10, -9], "path": ["0", "0", "23", "24", "25", "26", "28"], "rt": [1445, 395, 442, 621, 436], "actions": ["left", "left", "left", "up", "right"], "actionTimes": [2674, 3588, 4553, 5699, 6647], "queries": {"click": {"state": {"target": [], "time": []}, "edge": {"target": [], "time": []}}, "mouseover": {"state": {"target": [], "time": []}, "edge": {"target": [], "time": []}}, "mouseout": {"state": {"target": ["0"], "time": [1241]}, "edge": {"target": [], "time": []}}}, "displayed_time": "15.24", "trialTime": 17755, "trial_type": "mouselab-mdp", "trial_index": 21, "time_elapsed": 1038337, "internal_node_id": "0.0-4.0-1.0-12.0"}}, {"uniqueid": "w82237922:a64888913", "current_trial": 22, "dateTime": 1691143296172, "trialdata": {"revealed_states": [], "clicked_states": [], "num_clicks_accrued": [0, 0, 0, 0, 0, 0, 0, 0, 0, 0, 0, 0, 0], "stateRewards": ["", 2, -4, 4, 9, 69, 9, -75, 12, -86, 66, 25, -1, 3, 2, -13, -88, -3, 1, 4, -69, 49, -84, 2, -1, 4, 2, -18, -81, -52, -15, -69, -54, 25], "withholdReward": false, "trial_id": "mdp_trial_14", "block": "test", "trialIndex": 15, "score": 15, "costs": 0, "simulationMode": [null, null, null, null, null], "rewards": [2, -1, 4, -15, 25], "path": ["0", "0", "23", "24", "25", "30", "33"], "rt": [1288, 324, 419, 526, 524], "actions": ["left", "left", "left", "down", "left"], "actionTimes": [3753, 4592, 5532, 6572, 7604], "queries": {"click": {"state": {"target": [], "time": []}, "edge": {"target": [], "time": []}}, "mouseover": {"state": {"target": [], "time": []}, "edge": {"target": [], "time": []}}, "mouseout": {"state": {"target": ["0"], "time": [2259]}, "edge": {"target": [], "time": []}}}, "displayed_time": "16.47", "trialTime": 17761, "trial_type": "mouselab-mdp", "trial_index": 22, "time_elapsed": 1056439, "internal_node_id": "0.0-4.0-1.0-13.0"}}, {"uniqueid": "w82237922:a64888913", "current_trial": 23, "dateTime": 1691143315044, "trialdata": {"revealed_states": [], "clicked_states": [], "num_clicks_accrued": [0, 0, 0, 0, 0, 0, 0, 0, 0, 0, 0, 0, 0], "stateRewards": ["", 1, 1, -2, 7, -31, -6, 76, 1, -36, -16, -53, 2, 1, 7, 13, -47, -10, 47, -7, 72, 46, -56, -2, -2, -2, 11, -80, 44, 38, 16, 67, 85, -78], "withholdReward": false, "trial_id": "mdp_trial_15", "block": "test", "trialIndex": 16, "score": 95, "costs": 0, "simulationMode": [null, null, null, null, null], "rewards": [-2, -2, -2, 16, 85], "path": ["0", "0", "23", "24", "25", "30", "32"], "rt": [1328, 312, 623, 299, 298], "actions": ["left", "left", "left", "down", "down"], "actionTimes": [2926, 3751, 4898, 5707, 6524], "queries": {"click": {"state": {"target": [], "time": []}, "edge": {"target": [], "time": []}}, "mouseover": {"state": {"target": [], "time": []}, "edge": {"target": [], "time": []}}, "mouseout": {"state": {"target": ["0"], "time": [1371]}, "edge": {"target": [], "time": []}}}, "displayed_time": "15.60", "trialTime": 18527, "trial_type": "mouselab-mdp", "trial_index": 23, "time_elapsed": 1075311, "internal_node_id": "0.0-4.0-1.0-14.0"}}, {"uniqueid": "w82237922:a64888913", "current_trial": 24, "dateTime": 1691143335159, "trialdata": {"revealed_states": [], "clicked_states": [], "num_clicks_accrued": [0, 0, 0, 0, 0, 0, 0, 0, 0, 0, 0, 0, 0], "stateRewards": ["", 2, 3, -6, -5, -3, 55, 40, 11, 61, 11, 51, 2, -4, -6, 9, -25, 29, -15, -6, 7, -77, -2, -2, -4, 1, 14, -43, -1, 56, -12, -54, 41, -74], "withholdReward": false, "trial_id": "mdp_trial_16", "block": "test", "trialIndex": 17, "score": -34, "costs": 0, "simulationMode": [null, null, null, null, null], "rewards": [-2, -4, 1, 14, -43], "path": ["0", "0", "23", "24", "25", "26", "27"], "rt": [3548, 243, 239, 159, 981], "actions": ["left", "left", "left", "up", "up"], "actionTimes": [5219, 5972, 6724, 7406, 8895], "queries": {"click": {"state": {"target": [], "time": []}, "edge": {"target": [], "time": []}}, "mouseover": {"state": {"target": [], "time": []}, "edge": {"target": [], "time": []}}, "mouseout": {"state": {"target": ["0"], "time": [1441]}, "edge": {"target": [], "time": []}}}, "displayed_time": "15.68", "trialTime": 19765, "trial_type": "mouselab-mdp", "trial_index": 24, "time_elapsed": 1095426, "internal_node_id": "0.0-4.0-1.0-15.0"}}, {"uniqueid": "w82237922:a64888913", "current_trial": 25, "dateTime": 1691143353382, "trialdata": {"revealed_states": [], "clicked_states": [], "num_clicks_accrued": [0, 0, 0, 0, 0, 0, 0, 0, 0, 0, 0, 0, 0], "stateRewards": ["", -1, -2, 8, -6, -79, -6, 87, 9, -5, -66, -38, 2, 2, 5, -6, -82, 74, 85, -8, 67, -30, -15, 1, -2, -2, -2, 87, 64, 49, 7, 2, -38, -9], "withholdReward": false, "trial_id": "mdp_trial_17", "block": "test", "trialIndex": 18, "score": -7, "costs": 0, "simulationMode": [null, null, null, null, null], "rewards": [-1, -2, 8, -6, -6], "path": ["0", "0", "1", "2", "3", "4", "6"], "rt": [944, 308, 206, 287, 776], "actions": ["up", "up", "up", "right", "right"], "actionTimes": [2673, 3496, 4211, 5010, 6298], "queries": {"click": {"state": {"target": [], "time": []}, "edge": {"target": [], "time": []}}, "mouseover": {"state": {"target": [], "time": []}, "edge": {"target": [], "time": []}}, "mouseout": {"state": {"target": ["0"], "time": [1513]}, "edge": {"target": [], "time": []}}}, "displayed_time": "15.74", "trialTime": 17845, "trial_type": "mouselab-mdp", "trial_index": 25, "time_elapsed": 1113649, "internal_node_id": "0.0-4.0-1.0-16.0"}}, {"uniqueid": "w82237922:a64888913", "current_trial": 26, "dateTime": 1691143372226, "trialdata": {"revealed_states": [], "clicked_states": [], "num_clicks_accrued": [0, 0, 0, 0, 0, 0, 0, 0, 0, 0, 0, 0, 0], "stateRewards": ["", -1, -3, -3, 1, -38, 2, -53, -2, -1, -81, 70, -1, 1, -5, -9, 46, 15, 35, -1, -22, 38, 59, -2, 4, -8, 13, 1, -83, -43, 4, 76, 13, 48], "withholdReward": false, "trial_id": "mdp_trial_18", "block": "test", "trialIndex": 19, "score": 1, "costs": 0, "simulationMode": [null, null, null, null, null], "rewards": [-1, 1, -5, -9, 15], "path": ["0", "0", "12", "13", "14", "15", "17"], "rt": [702, 262, 210, 229, 347], "actions": ["right", "right", "right", "up", "right"], "actionTimes": [1800, 2570, 3300, 4038, 4904], "queries": {"click": {"state": {"target": [], "time": []}, "edge": {"target": [], "time": []}}, "mouseover": {"state": {"target": [], "time": []}, "edge": {"target": [], "time": []}}, "mouseout": {"state": {"target": ["0"], "time": [863]}, "edge": {"target": [], "time": []}}}, "displayed_time": "15.10", "trialTime": 18460, "trial_type": "mouselab-mdp", "trial_index": 26, "time_elapsed": 1132493, "internal_node_id": "0.0-4.0-1.0-17.0"}}, {"uniqueid": "w82237922:a64888913", "current_trial": 27, "dateTime": 1691143389695, "trialdata": {"revealed_states": [], "clicked_states": [], "num_clicks_accrued": [0, 0, 0, 0, 0, 0, 0, 0, 0, 0, 0, 0, 0], "stateRewards": ["", -1, -3, -6, 14, 41, 18, 63, -14, 80, 21, 17, -2, -4, -2, -5, 13, 70, 8, -4, -64, -10, -20, 2, -1, 4, -1, -17, -55, 42, -7, 47, 54, 15], "withholdReward": false, "trial_id": "mdp_trial_19", "block": "test", "trialIndex": 20, "score": -5, "costs": 0, "simulationMode": [null, null, null, null, null], "rewards": [-2, -4, -2, -5, 8], "path": ["0", "0", "12", "13", "14", "15", "18"], "rt": [1093, 234, 246, 283, 578], "actions": ["right", "right", "right", "up", "left"], "actionTimes": [2395, 3145, 3908, 4718, 5807], "queries": {"click": {"state": {"target": [], "time": []}, "edge": {"target": [], "time": []}}, "mouseover": {"state": {"target": [], "time": []}, "edge": {"target": [], "time": []}}, "mouseout": {"state": {"target": ["0"], "time": [1081]}, "edge": {"target": [], "time": []}}}, "displayed_time": "15.30", "trialTime": 17100, "trial_type": "mouselab-mdp", "trial_index": 27, "time_elapsed": 1149962, "internal_node_id": "0.0-4.0-1.0-18.0"}}, {"uniqueid": "w82237922:a64888913", "current_trial": 28, "dateTime": 1691143409525, "trialdata": {"revealed_states": [], "clicked_states": [], "num_clicks_accrued": [0, 0, 0, 0, 0, 0, 0, 0, 0, 0, 0, 0, 0], "stateRewards": ["", -1, 1, -5, -6, -78, 47, -13, 12, 48, -88, 20, 2, -3, -2, 13, -20, 37, -57, 14, -38, 30, 31, -2, -2, 8, 2, -23, 78, 28, 12, -74, -88, 8], "withholdReward": false, "trial_id": "mdp_trial_20", "block": "test", "trialIndex": 21, "score": 36, "costs": 0, "simulationMode": [null, null, null, null, null], "rewards": [-1, 1, -5, -6, 47], "path": ["0", "0", "1", "2", "3", "4", "6"], "rt": [1838, 219, 203, 318, 633], "actions": ["up", "up", "up", "right", "right"], "actionTimes": [3344, 4076, 4792, 5623, 6771], "queries": {"click": {"state": {"target": [], "time": []}, "edge": {"target": [], "time": []}}, "mouseover": {"state": {"target": [], "time": []}, "edge": {"target": [], "time": []}}, "mouseout": {"state": {"target": ["0"], "time": [1251]}, "edge": {"target": [], "time": []}}}, "displayed_time": "15.51", "trialTime": 19456, "trial_type": "mouselab-mdp", "trial_index": 28, "time_elapsed": 1169793, "internal_node_id": "0.0-4.0-1.0-19.0"}}, {"uniqueid": "w82237922:a64888913", "current_trial": 29, "dateTime": 1691143429004, "trialdata": {"revealed_states": [], "clicked_states": [], "num_clicks_accrued": [0, 0, 0, 0, 0, 0, 0, 0, 0, 0, 0, 0, 0], "stateRewards": ["", 1, 2, 3, 16, 63, -25, 16, -4, -14, 82, -66, -1, -3, -3, -11, -14, 19, 46, 3, -34, -82, 66, -2, -3, 4, -5, -63, 77, -37, -1, -45, -41, 84], "withholdReward": false, "trial_id": "mdp_trial_21", "block": "test", "trialIndex": 22, "score": -12, "costs": 0, "simulationMode": [null, null, null, null, null], "rewards": [1, 2, 3, -4, -14], "path": ["0", "0", "1", "2", "3", "8", "9"], "rt": [731, 221, 202, 658, 220], "actions": ["up", "up", "up", "left", "up"], "actionTimes": [2410, 3147, 3864, 5034, 5763], "queries": {"click": {"state": {"target": [], "time": []}, "edge": {"target": [], "time": []}}, "mouseover": {"state": {"target": [], "time": []}, "edge": {"target": [], "time": []}}, "mouseout": {"state": {"target": ["0"], "time": [1446]}, "edge": {"target": [], "time": []}}}, "displayed_time": "15.68", "trialTime": 19106, "trial_type": "mouselab-mdp", "trial_index": 29, "time_elapsed": 1189271, "internal_node_id": "0.0-4.0-1.0-20.0"}}, {"uniqueid": "w82237922:a64888913", "current_trial": 30, "dateTime": 1691143448318, "trialdata": {"revealed_states": [], "clicked_states": [], "num_clicks_accrued": [0, 0, 0, 0, 0, 0, 0, 0, 0, 0, 0, 0, 0], "stateRewards": ["", -2, 1, -7, 9, 8, 25, 61, -7, -17, 69, -81, 1, 4, -4, -11, 16, 67, 44, 3, 6, -45, -54, -2, 3, 6, -11, -15, 32, -47, 3, -39, -6, -88], "withholdReward": false, "trial_id": "mdp_trial_22", "block": "test", "trialIndex": 23, "score": 54, "costs": 0, "simulationMode": [null, null, null, null, null], "rewards": [-2, 1, -7, -7, 69], "path": ["0", "0", "1", "2", "3", "8", "10"], "rt": [1756, 293, 224, 886, 954], "actions": ["up", "up", "up", "left", "down"], "actionTimes": [3463, 4272, 5003, 6402, 7867], "queries": {"click": {"state": {"target": [], "time": []}, "edge": {"target": [], "time": []}}, "mouseover": {"state": {"target": [], "time": []}, "edge": {"target": [], "time": []}}, "mouseout": {"state": {"target": ["0"], "time": [1470]}, "edge": {"target": [], "time": []}}}, "displayed_time": "15.72", "trialTime": 18942, "trial_type": "mouselab-mdp", "trial_index": 30, "time_elapsed": 1208586, "internal_node_id": "0.0-4.0-1.0-21.0"}}, {"uniqueid": "w82237922:a64888913", "current_trial": 31, "dateTime": 1691143468941, "trialdata": {"revealed_states": [], "clicked_states": [], "num_clicks_accrued": [0, 0, 0, 0, 0, 0, 0, 0, 0, 0, 0, 0, 0], "stateRewards": ["", -2, 2, -1, -6, 22, 6, 6, -5, 70, -42, 65, 1, 3, 5, -6, -67, -9, 3, 14, 7, -62, -13, -2, 4, 1, 16, 42, -21, -52, -8, 32, 53, 81], "withholdReward": false, "trial_id": "mdp_trial_23", "block": "test", "trialIndex": 24, "score": 27, "costs": 0, "simulationMode": [null, null, null, null, null], "rewards": [-2, 4, 1, -8, 32], "path": ["0", "0", "23", "24", "25", "30", "31"], "rt": [1315, 544, 531, 307, 718], "actions": ["left", "left", "left", "down", "right"], "actionTimes": [2916, 3968, 5020, 5848, 7078], "queries": {"click": {"state": {"target": [], "time": []}, "edge": {"target": [], "time": []}}, "mouseover": {"state": {"target": [], "time": []}, "edge": {"target": [], "time": []}}, "mouseout": {"state": {"target": ["0"], "time": [810]}, "edge": {"target": [], "time": []}}}, "displayed_time": "15.60", "trialTime": 20259, "trial_type": "mouselab-mdp", "trial_index": 31, "time_elapsed": 1229208, "internal_node_id": "0.0-4.0-1.0-22.0"}}, {"uniqueid": "w82237922:a64888913", "current_trial": 32, "dateTime": 1691143487743, "trialdata": {"revealed_states": [], "clicked_states": [], "num_clicks_accrued": [0, 0, 0, 0, 0, 0, 0, 0, 0, 0, 0, 0, 0], "stateRewards": ["", -1, 2, 5, -6, 13, -64, -47, 8, -79, -80, -33, 1, 2, -2, -16, 56, -71, -10, 3, 29, 44, 85, -1, 4, 5, 4, -36, -56, 19, 8, 52, -13, -2], "withholdReward": false, "trial_id": "mdp_trial_24", "block": "test", "trialIndex": 25, "score": 14, "costs": 0, "simulationMode": [null, null, null, null, null], "rewards": [-1, 4, 5, 8, -2], "path": ["0", "0", "23", "24", "25", "30", "33"], "rt": [2208, 294, 290, 358, 734], "actions": ["left", "left", "left", "down", "left"], "actionTimes": [3444, 4252, 5065, 5934, 7177], "queries": {"click": {"state": {"target": [], "time": []}, "edge": {"target": [], "time": []}}, "mouseover": {"state": {"target": [], "time": []}, "edge": {"target": [], "time": []}}, "mouseout": {"state": {"target": ["0"], "time": [598]}, "edge": {"target": [], "time": []}}}, "displayed_time": "15.24", "trialTime": 18428, "trial_type": "mouselab-mdp", "trial_index": 32, "time_elapsed": 1248010, "internal_node_id": "0.0-4.0-1.0-23.0"}}, {"uniqueid": "w82237922:a64888913", "current_trial": 33, "dateTime": 1691143506095, "trialdata": {"revealed_states": [], "clicked_states": [], "num_clicks_accrued": [0, 0, 0, 0, 0, 0, 0, 0, 0, 0, 0, 0, 0], "stateRewards": ["", 2, 4, 4, -8, -36, -33, 38, 16, -51, 57, 57, 1, 3, 4, -6, 45, 68, 87, 1, 63, 24, -55, -2, 2, -6, -13, -63, -50, 8, 2, 80, 6, 60], "withholdReward": false, "trial_id": "mdp_trial_25", "block": "test", "trialIndex": 26, "score": -69, "costs": 0, "simulationMode": [null, null, null, null, null], "rewards": [-2, 2, -6, -13, -50], "path": ["0", "0", "23", "24", "25", "26", "28"], "rt": [1306, 228, 241, 412, 264], "actions": ["left", "left", "left", "up", "right"], "actionTimes": [3006, 3753, 4516, 5437, 6223], "queries": {"click": {"state": {"target": [], "time": []}, "edge": {"target": [], "time": []}}, "mouseover": {"state": {"target": [], "time": []}, "edge": {"target": [], "time": []}}, "mouseout": {"state": {"target": [], "time": []}, "edge": {"target": [], "time": []}}}, "displayed_time": "15.71", "trialTime": 17965, "trial_type": "mouselab-mdp", "trial_index": 33, "time_elapsed": 1266362, "internal_node_id": "0.0-4.0-1.0-24.0"}}, {"uniqueid": "w82237922:a64888913", "current_trial": 34, "dateTime": 1691143525506, "trialdata": {"revealed_states": [], "clicked_states": [], "num_clicks_accrued": [0, 0, 0, 0, 0, 0, 0, 0, 0, 0, 0, 0, 0], "stateRewards": ["", -1, -2, -8, 8, -27, -82, 19, -14, -62, 4, 1, -2, 2, 6, 10, 73, -51, -2, 2, 73, -48, 54, -1, 2, -4, 11, -25, 47, 86, 15, 33, 43, -42], "withholdReward": false, "trial_id": "mdp_trial_26", "block": "test", "trialIndex": 27, "score": 14, "costs": 0, "simulationMode": [null, null, null, null, null], "rewards": [-2, 2, 6, 10, -2], "path": ["0", "0", "12", "13", "14", "15", "18"], "rt": [1618, 256, 194, 415, 190], "actions": ["right", "right", "right", "up", "left"], "actionTimes": [3281, 4052, 4774, 5716, 6429], "queries": {"click": {"state": {"target": [], "time": []}, "edge": {"target": [], "time": []}}, "mouseover": {"state": {"target": [], "time": []}, "edge": {"target": [], "time": []}}, "mouseout": {"state": {"target": [], "time": []}, "edge": {"target": [], "time": []}}}, "displayed_time": "15.67", "trialTime": 19028, "trial_type": "mouselab-mdp", "trial_index": 34, "time_elapsed": 1285773, "internal_node_id": "0.0-4.0-1.0-25.0"}}, {"uniqueid": "w82237922:a64888913", "current_trial": 35, "dateTime": 1691143543613, "trialdata": {"revealed_states": [], "clicked_states": [], "num_clicks_accrued": [0, 0, 0, 0, 0, 0, 0, 0, 0, 0, 0, 0, 0], "stateRewards": ["", -2, 1, -3, -16, -39, -52, 30, -7, -41, -59, 11, 2, 1, 8, 2, -11, -26, -42, -13, 87, -59, -48, -1, -1, -1, 16, -79, 31, 50, -1, -84, 34, -82], "withholdReward": false, "trial_id": "mdp_trial_27", "block": "test", "trialIndex": 28, "score": 2, "costs": 0, "simulationMode": [null, null, null, null, null], "rewards": [2, 1, 8, 2, -11], "path": ["0", "0", "12", "13", "14", "15", "16"], "rt": [1010, 144, 183, 171, 235], "actions": ["right", "right", "right", "up", "up"], "actionTimes": [2471, 3134, 3826, 4513, 5260], "queries": {"click": {"state": {"target": [], "time": []}, "edge": {"target": [], "time": []}}, "mouseover": {"state": {"target": [], "time": []}, "edge": {"target": [], "time": []}}, "mouseout": {"state": {"target": [], "time": []}, "edge": {"target": [], "time": []}}}, "displayed_time": "15.47", "trialTime": 17699, "trial_type": "mouselab-mdp", "trial_index": 35, "time_elapsed": 1303880, "internal_node_id": "0.0-4.0-1.0-26.0"}}, {"uniqueid": "w82237922:a64888913", "current_trial": 36, "dateTime": 1691143561449, "trialdata": {"revealed_states": [], "clicked_states": [], "num_clicks_accrued": [0, 0, 0, 0, 0, 0, 0, 0, 0, 0, 0, 0, 0], "stateRewards": ["", -2, 3, -1, -9, 44, 48, -37, -3, 71, -39, 87, -1, 3, -4, 4, -21, 59, -15, -8, -1, 28, -38, 2, 4, 4, 8, -85, -72, -63, 14, 58, 63, -46], "withholdReward": false, "trial_id": "mdp_trial_28", "block": "test", "trialIndex": 29, "score": -67, "costs": 0, "simulationMode": [null, null, null, null, null], "rewards": [2, 4, 4, 8, -85], "path": ["0", "0", "23", "24", "25", "26", "27"], "rt": [1604, 136, 222, 114, 229], "actions": ["left", "left", "left", "up", "up"], "actionTimes": [2572, 3230, 3964, 4591, 5340], "queries": {"click": {"state": {"target": [], "time": []}, "edge": {"target": [], "time": []}}, "mouseover": {"state": {"target": [], "time": []}, "edge": {"target": [], "time": []}}, "mouseout": {"state": {"target": [], "time": []}, "edge": {"target": [], "time": []}}}, "displayed_time": "14.97", "trialTime": 17436, "trial_type": "mouselab-mdp", "trial_index": 36, "time_elapsed": 1321716, "internal_node_id": "0.0-4.0-1.0-27.0"}}, {"uniqueid": "w82237922:a64888913", "current_trial": 37, "dateTime": 1691143579904, "trialdata": {"revealed_states": [], "clicked_states": [], "num_clicks_accrued": [0, 0, 0, 0, 0, 0, 0, 0, 0, 0, 0, 0, 0], "stateRewards": ["", -1, -3, 4, -10, -5, 79, -87, -2, 53, 29, -20, -2, -1, -5, 10, 27, 86, 46, -16, -29, 40, 3, 2, 4, -1, -6, 37, 79, -29, 7, 86, -62, 29], "withholdReward": false, "trial_id": "mdp_trial_29", "block": "test", "trialIndex": 30, "score": -97, "costs": 0, "simulationMode": [null, null, null, null, null], "rewards": [-1, -3, 4, -10, -87], "path": ["0", "0", "1", "2", "3", "4", "7"], "rt": [781, 211, 263, 204, 308], "actions": ["up", "up", "up", "right", "down"], "actionTimes": [2084, 2808, 3592, 4316, 5137], "queries": {"click": {"state": {"target": [], "time": []}, "edge": {"target": [], "time": []}}, "mouseover": {"state": {"target": [], "time": []}, "edge": {"target": [], "time": []}}, "mouseout": {"state": {"target": [], "time": []}, "edge": {"target": [], "time": []}}}, "displayed_time": "15.31", "trialTime": 18045, "trial_type": "mouselab-mdp", "trial_index": 37, "time_elapsed": 1340171, "internal_node_id": "0.0-4.0-1.0-28.0"}}, {"uniqueid": "w82237922:a64888913", "current_trial": 38, "dateTime": 1691143598564, "trialdata": {"revealed_states": [], "clicked_states": [], "num_clicks_accrued": [0, 0, 0, 0, 0, 0, 0, 0, 0, 0, 0, 0, 0], "stateRewards": ["", -1, 1, 3, -8, -23, -15, -14, -11, -23, 58, 68, 1, 3, 5, 12, -17, -41, -7, -10, -4, 82, 10, 1, 4, -4, 11, 73, 55, -55, -1, -86, -86, 54], "withholdReward": false, "trial_id": "mdp_trial_30", "block": "test", "trialIndex": 31, "score": -28, "costs": 0, "simulationMode": [null, null, null, null, null], "rewards": [-1, 1, 3, -8, -23], "path": ["0", "0", "1", "2", "3", "4", "5"], "rt": [751, 169, 251, 203, 116], "actions": ["up", "up", "up", "right", "up"], "actionTimes": [1955, 2637, 3403, 4119, 4751], "queries": {"click": {"state": {"target": [], "time": []}, "edge": {"target": [], "time": []}}, "mouseover": {"state": {"target": [], "time": []}, "edge": {"target": [], "time": []}}, "mouseout": {"state": {"target": [], "time": []}, "edge": {"target": [], "time": []}}}, "displayed_time": "15.21", "trialTime": 18261, "trial_type": "mouselab-mdp", "trial_index": 38, "time_elapsed": 1358831, "internal_node_id": "0.0-4.0-1.0-29.0"}}, {"uniqueid": "w82237922:a64888913", "current_trial": 39, "dateTime": 1691143617903, "trialdata": {"revealed_states": [], "clicked_states": [], "num_clicks_accrued": [0, 0, 0, 0, 0, 0, 0, 0, 0, 0, 0, 0, 0], "stateRewards": ["", -2, 3, -5, -7, 66, 43, -60, -4, -70, -75, 4, -1, 2, 2, -13, 54, 11, -40, -1, 77, 32, 15, -2, 3, -8, -9, -35, 83, -27, 6, -74, -34, 44], "withholdReward": false, "trial_id": "mdp_trial_31", "block": "test", "trialIndex": 32, "score": -78, "costs": 0, "simulationMode": [null, null, null, null, null], "rewards": [-2, 3, -5, -4, -70], "path": ["0", "0", "1", "2", "3", "8", "9"], "rt": [2673, 184, 244, 180, 202], "actions": ["up", "up", "up", "left", "up"], "actionTimes": [4949, 5654, 6418, 7116, 7841], "queries": {"click": {"state": {"target": [], "time": []}, "edge": {"target": [], "time": []}}, "mouseover": {"state": {"target": [], "time": []}, "edge": {"target": [], "time": []}}, "mouseout": {"state": {"target": [], "time": []}, "edge": {"target": [], "time": []}}}, "displayed_time": "16.28", "trialTime": 18853, "trial_type": "mouselab-mdp", "trial_index": 39, "time_elapsed": 1378170, "internal_node_id": "0.0-4.0-1.0-30.0"}}, {"uniqueid": "w82237922:a64888913", "current_trial": 40, "dateTime": 1691143637143, "trialdata": {"revealed_states": [], "clicked_states": [], "num_clicks_accrued": [0, 0, 0, 0, 0, 0, 0, 0, 0, 0, 0, 0, 0], "stateRewards": ["", -2, -3, -3, 9, 79, 67, 22, -15, -56, 27, -85, -2, 4, -4, -15, -20, -32, 60, 15, 71, 57, 17, 1, 2, -8, 15, -37, -81, 82, 15, 21, -3, 2], "withholdReward": false, "trial_id": "mdp_trial_32", "block": "test", "trialIndex": 33, "score": -49, "costs": 0, "simulationMode": [null, null, null, null, null], "rewards": [-2, 4, -4, -15, -32], "path": ["0", "0", "12", "13", "14", "15", "17"], "rt": [1268, 579, 945, 420, 1086], "actions": ["right", "right", "right", "up", "right"], "actionTimes": [3334, 4432, 5898, 6841, 8440], "queries": {"click": {"state": {"target": [], "time": []}, "edge": {"target": [], "time": []}}, "mouseover": {"state": {"target": [], "time": []}, "edge": {"target": [], "time": []}}, "mouseout": {"state": {"target": [], "time": []}, "edge": {"target": [], "time": []}}}, "displayed_time": "16.07", "trialTime": 18843, "trial_type": "mouselab-mdp", "trial_index": 40, "time_elapsed": 1397410, "internal_node_id": "0.0-4.0-1.0-31.0"}}, {"uniqueid": "w82237922:a64888913", "current_trial": 41, "dateTime": 1691143653909, "trialdata": {"revealed_states": [], "clicked_states": [], "num_clicks_accrued": [0, 0, 0, 0, 0, 0, 0, 0, 0, 0, 0, 0, 0], "stateRewards": ["", -2, -3, 8, -4, -30, 31, 69, 9, 66, 87, 64, -2, 2, 8, 5, 47, 16, -39, -8, -54, 51, -19, 1, -2, -2, -11, -25, -26, 43, -9, 19, -84, 86], "withholdReward": false, "trial_id": "mdp_trial_33", "block": "test", "trialIndex": 34, "score": -39, "costs": 0, "simulationMode": [null, null, null, null, null], "rewards": [1, -2, -2, -11, -25], "path": ["0", "0", "23", "24", "25", "26", "27"], "rt": [1029, 274, 183, 187, 300], "actions": ["left", "left", "left", "up", "up"], "actionTimes": [2265, 3075, 3772, 4475, 5287], "queries": {"click": {"state": {"target": [], "time": []}, "edge": {"target": [], "time": []}}, "mouseover": {"state": {"target": [], "time": []}, "edge": {"target": [], "time": []}}, "mouseout": {"state": {"target": [], "time": []}, "edge": {"target": [], "time": []}}}, "displayed_time": "15.24", "trialTime": 16342, "trial_type": "mouselab-mdp", "trial_index": 41, "time_elapsed": 1414177, "internal_node_id": "0.0-4.0-1.0-32.0"}}, {"uniqueid": "w82237922:a64888913", "current_trial": 42, "dateTime": 1691143672121, "trialdata": {"revealed_states": [], "clicked_states": [], "num_clicks_accrued": [0, 0, 0, 0, 0, 0, 0, 0, 0, 0, 0, 0, 0], "stateRewards": ["", 2, -3, -5, 5, 11, -9, -33, 6, 67, 6, -30, -1, -2, -6, 13, 55, 13, 72, -14, 75, 21, -66, -2, -4, 6, 15, -1, -35, 60, 2, 51, -73, 12], "withholdReward": false, "trial_id": "mdp_trial_34", "block": "test", "trialIndex": 35, "score": 67, "costs": 0, "simulationMode": [null, null, null, null, null], "rewards": [2, -3, -5, 6, 67], "path": ["0", "0", "1", "2", "3", "8", "9"], "rt": [1505, 1279, 781, 1025, 952], "actions": ["up", "up", "up", "left", "up"], "actionTimes": [2431, 4223, 5523, 7068, 8528], "queries": {"click": {"state": {"target": [], "time": []}, "edge": {"target": [], "time": []}}, "mouseover": {"state": {"target": [], "time": []}, "edge": {"target": [], "time": []}}, "mouseout": {"state": {"target": [], "time": []}, "edge": {"target": [], "time": []}}}, "displayed_time": "14.93", "trialTime": 17761, "trial_type": "mouselab-mdp", "trial_index": 42, "time_elapsed": 1432389, "internal_node_id": "0.0-4.0-1.0-33.0"}}, {"uniqueid": "w82237922:a64888913", "current_trial": 43, "dateTime": 1691143690619, "trialdata": {"revealed_states": [], "clicked_states": [], "num_clicks_accrued": [0, 0, 0, 0, 0, 0, 0, 0, 0, 0, 0, 0, 0], "stateRewards": ["", -1, 3, 1, -11, -22, -36, 19, -5, -70, -52, 50, -2, -4, 4, -2, -41, -83, 29, -2, 22, 10, -6, -2, 3, -2, 14, 54, 44, 77, -9, -65, -37, -40], "withholdReward": false, "trial_id": "mdp_trial_35", "block": "test", "trialIndex": 36, "score": -47, "costs": 0, "simulationMode": [null, null, null, null, null], "rewards": [-2, 3, -2, -9, -37], "path": ["0", "0", "23", "24", "25", "30", "32"], "rt": [1232, 288, 543, 525, 625], "actions": ["left", "left", "left", "down", "down"], "actionTimes": [2877, 3683, 4737, 5773, 6920], "queries": {"click": {"state": {"target": [], "time": []}, "edge": {"target": [], "time": []}}, "mouseover": {"state": {"target": [], "time": []}, "edge": {"target": [], "time": []}}, "mouseout": {"state": {"target": [], "time": []}, "edge": {"target": [], "time": []}}}, "displayed_time": "15.64", "trialTime": 18061, "trial_type": "mouselab-mdp", "trial_index": 43, "time_elapsed": 1450886, "internal_node_id": "0.0-4.0-1.0-34.0"}}, {"uniqueid": "w82237922:a64888913", "current_trial": 44, "dateTime": 1691143711036, "trialdata": {"revealed_states": [], "clicked_states": [], "num_clicks_accrued": [0, 0, 0, 0, 0, 0, 0, 0, 0, 0, 0, 0, 0], "stateRewards": ["", 1, 1, -5, 10, -31, 73, 14, -8, -23, 63, -70, -1, 2, 8, 7, 25, -59, 27, -10, -40, -71, -15, -2, 3, -8, -5, -19, 77, -34, 7, 67, 63, 19], "withholdReward": false, "trial_id": "mdp_trial_36", "block": "test", "trialIndex": 37, "score": -43, "costs": 0, "simulationMode": [null, null, null, null, null], "rewards": [-1, 2, 8, 7, -59], "path": ["0", "0", "12", "13", "14", "15", "17"], "rt": [851, 214, 222, 681, 1422], "actions": ["right", "right", "right", "up", "right"], "actionTimes": [2164, 2885, 3626, 4819, 6760], "queries": {"click": {"state": {"target": [], "time": []}, "edge": {"target": [], "time": []}}, "mouseover": {"state": {"target": [], "time": []}, "edge": {"target": [], "time": []}}, "mouseout": {"state": {"target": [], "time": []}, "edge": {"target": [], "time": []}}}, "displayed_time": "15.31", "trialTime": 19986, "trial_type": "mouselab-mdp", "trial_index": 44, "time_elapsed": 1471303, "internal_node_id": "0.0-4.0-1.0-35.0"}}, {"uniqueid": "w82237922:a64888913", "current_trial": 45, "dateTime": 1691143728864, "trialdata": {"revealed_states": [], "clicked_states": [], "num_clicks_accrued": [0, 0, 0, 0, 0, 0, 0, 0, 0, 0, 0, 0, 0], "stateRewards": ["", -1, -4, -1, -5, -28, -23, -15, -15, -38, 59, -87, 2, 2, -5, 9, -55, -39, -71, -6, 85, -85, -11, -1, -2, 5, -10, 1, 25, 41, -4, 69, -35, 86], "withholdReward": false, "trial_id": "mdp_trial_37", "block": "test", "trialIndex": 38, "score": -108, "costs": 0, "simulationMode": [null, null, null, null, null], "rewards": [-1, -4, -1, -15, -87], "path": ["0", "0", "1", "2", "3", "8", "11"], "rt": [1366, 156, 181, 292, 573], "actions": ["up", "up", "up", "left", "left"], "actionTimes": [2405, 3073, 3765, 4575, 5657], "queries": {"click": {"state": {"target": [], "time": []}, "edge": {"target": [], "time": []}}, "mouseover": {"state": {"target": [], "time": []}, "edge": {"target": [], "time": []}}, "mouseout": {"state": {"target": [], "time": []}, "edge": {"target": [], "time": []}}}, "displayed_time": "15.04", "trialTime": 17383, "trial_type": "mouselab-mdp", "trial_index": 45, "time_elapsed": 1489131, "internal_node_id": "0.0-4.0-1.0-36.0"}}, {"uniqueid": "w82237922:a64888913", "current_trial": 46, "dateTime": 1691143748926, "trialdata": {"revealed_states": [], "clicked_states": [], "num_clicks_accrued": [0, 0, 0, 0, 0, 0, 0, 0, 0, 0, 0, 0, 0], "stateRewards": ["", 2, -3, -4, -1, 25, -16, 16, 10, -71, -20, -55, 1, 3, -4, -9, 1, 32, 11, -6, 32, -50, -41, -1, 4, 4, -8, 7, -81, 70, 2, -52, 45, -10], "withholdReward": false, "trial_id": "mdp_trial_38", "block": "test", "trialIndex": 39, "score": 54, "costs": 0, "simulationMode": [null, null, null, null, null], "rewards": [-1, 4, 4, 2, 45], "path": ["0", "0", "23", "24", "25", "30", "32"], "rt": [719, 295, 232, 173, 741], "actions": ["left", "left", "left", "down", "down"], "actionTimes": [1852, 2672, 3424, 4116, 5366], "queries": {"click": {"state": {"target": [], "time": []}, "edge": {"target": [], "time": []}}, "mouseover": {"state": {"target": [], "time": []}, "edge": {"target": [], "time": []}}, "mouseout": {"state": {"target": [], "time": []}, "edge": {"target": [], "time": []}}}, "displayed_time": "15.14", "trialTime": 19589, "trial_type": "mouselab-mdp", "trial_index": 46, "time_elapsed": 1509193, "internal_node_id": "0.0-4.0-1.0-37.0"}}, {"uniqueid": "w82237922:a64888913", "current_trial": 47, "dateTime": 1691143767394, "trialdata": {"revealed_states": [], "clicked_states": [], "num_clicks_accrued": [0, 0, 0, 0, 0, 0, 0, 0, 0, 0, 0, 0, 0], "stateRewards": ["", 1, -1, 4, 5, -32, 18, 20, 6, -88, -74, 9, -2, 1, -2, -14, 34, -77, -38, -1, 80, -36, 73, 2, 3, -8, 10, -48, -73, -71, -11, -22, 20, 54], "withholdReward": false, "trial_id": "mdp_trial_39", "block": "test", "trialIndex": 40, "score": 69, "costs": 0, "simulationMode": [null, null, null, null, null], "rewards": [-2, 1, -2, -1, 73], "path": ["0", "0", "12", "13", "14", "19", "22"], "rt": [693, 426, 532, 336, 582], "actions": ["right", "right", "right", "down", "left"], "actionTimes": [2849, 3787, 4828, 5682, 6800], "queries": {"click": {"state": {"target": [], "time": []}, "edge": {"target": [], "time": []}}, "mouseover": {"state": {"target": [], "time": []}, "edge": {"target": [], "time": []}}, "mouseout": {"state": {"target": [], "time": []}, "edge": {"target": [], "time": []}}}, "displayed_time": "16.16", "trialTime": 18027, "trial_type": "mouselab-mdp", "trial_index": 47, "time_elapsed": 1527662, "internal_node_id": "0.0-4.0-1.0-38.0"}}, {"uniqueid": "w82237922:a64888913", "current_trial": 48, "dateTime": 1691143785043, "trialdata": {"revealed_states": [], "clicked_states": [], "num_clicks_accrued": [0, 0, 0, 0, 0, 0, 0, 0, 0, 0, 0, 0, 0], "stateRewards": ["", -1, -3, -6, -2, -7, 80, -45, -3, -38, -72, 76, 2, 1, 7, 4, -62, 14, -74, 14, -87, -21, -88, -2, 1, -7, -10, 66, 56, -76, 10, -29, -72, -70], "withholdReward": false, "trial_id": "mdp_trial_40", "block": "test", "trialIndex": 41, "score": -63, "costs": 0, "simulationMode": [null, null, null, null, null], "rewards": [2, 1, 7, 14, -87], "path": ["0", "0", "12", "13", "14", "19", "20"], "rt": [1311, 146, 268, 377, 237], "actions": ["right", "right", "right", "down", "right"], "actionTimes": [2903, 3569, 4357, 5253, 6012], "queries": {"click": {"state": {"target": [], "time": []}, "edge": {"target": [], "time": []}}, "mouseover": {"state": {"target": [], "time": []}, "edge": {"target": [], "time": []}}, "mouseout": {"state": {"target": [], "time": []}, "edge": {"target": [], "time": []}}}, "displayed_time": "15.60", "trialTime": 17222, "trial_type": "mouselab-mdp", "trial_index": 48, "time_elapsed": 1545310, "internal_node_id": "0.0-4.0-1.0-39.0"}}, {"uniqueid": "w82237922:a64888913", "current_trial": 49, "dateTime": 1691143850887, "trialdata": {"rt": 65835, "response": {"Q0": "$-16 to 16", "Q1": "$-16 to $16", "Q2": "$-88 to $88", "Q3": "The cost for clicking on nodes varied between nodes.", "Q4": "Slightly motivated"}, "question_order": [0, 1, 2, 3, 4], "trial_id": "final_quiz_control", "trial_type": "survey-multi-choice", "trial_index": 49, "time_elapsed": 1611155, "internal_node_id": "0.0-4.0-2.0"}}, {"uniqueid": "w82237922:a64888913", "current_trial": 50, "dateTime": 1691144012078, "trialdata": {"rt": 161176, "response": {"Q0": "To figure out a method of calculating and deduction.", "Q1": "I tried to improve but it didn't work for me.", "Q2": "Quite difficult as 3 seconds was too short after inspecting the node."}, "trial_id": "self_report_control", "trial_type": "survey-text", "trial_index": 50, "time_elapsed": 1772346, "internal_node_id": "0.0-4.0-3.0"}}, {"uniqueid": "w82237922:a64888913", "current_trial": 51, "dateTime": 1691144073152, "trialdata": {"rt": 61067, "response": {"gender": "female", "age": "51", "colorblind": "0", "effort": "3"}, "trial_type": "survey-html-form", "trial_index": 51, "time_elapsed": 1833420, "internal_node_id": "0.0-4.0-4.0"}}, {"uniqueid": "w82237922:a64888913", "current_trial": 52, "dateTime": 1691144187815, "trialdata": {"rt": 114652, "response": {"Q0": "The length of time after inspecting the node to moving the spider was too short to calculate a method.", "Q1": "I have not.", "Q2": ""}, "trial_type": "survey-text", "trial_index": 52, "time_elapsed": 1948083, "internal_node_id": "0.0-4.0-5.0"}}, {"uniqueid": "w82237922:a64888913", "current_trial": 53, "dateTime": 1691144202310, "trialdata": {"rt": 14486, "stimulus": "Press 'Finish HIT' in order to reach the completion code. Once the data has been saved, you will receive the code either in this window or in the original browser window where you started the experiment.\n", "response": 0, "trial_type": "html-button-response", "trial_index": 53, "time_elapsed": 1962577, "internal_node_id": "0.0-5.0"}}, {"uniqueid": "w82237922:a64888913", "current_trial": 54, "dateTime": 1691144203322, "trialdata": {"success": true, "trial_type": "fullscreen", "trial_index": 54, "time_elapsed": 1963589, "internal_node_id": "0.0-6.0"}}], "questiondata": {"params": {"CODE": "C6DMOQA6", "MIN_TIME": 14, "inspectCost": 1, "startTime": "Fri Aug 04 2023 10:43:59 GMT+0100 (British Summer Time)", "bonusRate": 0.002, "variance": "1_2_4_8_44", "branching": "31123"}, "final_score": -420.2}, "eventdata": [{"eventtype": "initialized", "value": null, "timestamp": 1691142238704, "interval": 0}, {"eventtype": "window_resize", "value": [1440, 815], "timestamp": 1691142238704, "interval": 0}, {"eventtype": "window_resize", "value": [1440, 815], "timestamp": 1691142239035, "interval": 331}, {"eventtype": "window_resize", "value": [1440, 900], "timestamp": 1691142249373, "interval": 10338}, {"eventtype": "window_resize", "value": [1440, 815], "timestamp": 1691144202537, "interval": 1953164}], "useragent": "Mozilla/5.0 (Macintosh; Intel Mac OS X 10_15_7) AppleWebKit/537.36 (KHTML, like Gecko) Chrome/115.0.0.0 Safari/537.36", "mode": "live", "id": "w82237922:a64888913", "status": "user data saved", "Beginhit": "2023-08-04 09:43:57.082375", "Beginexp": "2023-08-04 09:44:10.217944", "Endhit": "2023-08-04 10:16:43.74558", "psiturkStatus": 3, "browser": "<redacted>", "platform": "macos", "language": "en-GB", "excludeReason": "noeffort"}