{"condition": 0, "counterbalance": 0, "assignmentId": "a37633019", "workerId": "w83022416", "hitId": "h26686719", "currenttrial": 55, "bonus": 0, "data": [{"uniqueid": "w83022416:a37633019", "current_trial": 0, "dateTime": 1691070977061, "trialdata": {"success": true, "trial_type": "fullscreen", "trial_index": 0, "time_elapsed": 9405, "internal_node_id": "0.0-0.0"}}, {"uniqueid": "w83022416:a37633019", "current_trial": 1, "dateTime": 1691071055276, "trialdata": {"view_history": [{"page_index": 0, "viewing_time": 78197}], "rt": 78199, "trial_id": "exp_instructions_control", "trial_type": "instructions", "trial_index": 1, "time_elapsed": 87622, "internal_node_id": "0.0-1.0"}}, {"uniqueid": "w83022416:a37633019", "current_trial": 2, "dateTime": 1691071065247, "trialdata": {"success": true, "trial_type": "fullscreen", "trial_index": 2, "time_elapsed": 97593, "internal_node_id": "0.0-2.0-0.0"}}, {"uniqueid": "w83022416:a37633019", "current_trial": 3, "dateTime": 1691071637287, "trialdata": {"view_history": [{"page_index": 0, "viewing_time": 159221}, {"page_index": 1, "viewing_time": 156308}, {"page_index": 2, "viewing_time": 110672}, {"page_index": 3, "viewing_time": 145831}], "rt": 572033, "trial_id": "mouselab_instructions_1_control", "trial_type": "instructions", "trial_index": 3, "time_elapsed": 669632, "internal_node_id": "0.0-2.0-1.0"}}, {"uniqueid": "w83022416:a37633019", "current_trial": 4, "dateTime": 1691071687436, "trialdata": {"revealed_states": [], "clicked_states": ["12"], "num_clicks_accrued": [0, 0, 0, 0, 0, 0, 0, 0, 0, 0, 0, 0, 0], "stateRewards": ["", -10, 10, 10, 10, -10, 10, -10, 10, -10, 10, -10, 10, 10, 10, 10, 10, -10, 10, -10, -10, 10, -10, -10, -10, -10, 10, 10, 10, -10, -10, -10, -10, 10], "withholdReward": false, "trial_id": "practice_1", "block": "test", "trialIndex": 0, "score": 13, "costs": -0.5, "simulationMode": [null, null, null, null, null], "rewards": [-10, 10, 10, 10, -10], "path": ["0", "0", "1", "2", "3", "8", "11"], "rt": [18700, 8961, 487, 2022, 320], "actions": ["up", "up", "up", "left", "left"], "actionTimes": [22922, 32407, 33432, 35968, 36818], "queries": {"click": {"state": {"target": ["12"], "time": [9924]}, "edge": {"target": [], "time": []}}, "mouseover": {"state": {"target": ["12", "12", "0", "23", "0", "0"], "time": [8956, 9271, 13756, 15223, 17922, 20854]}, "edge": {"target": [], "time": []}}, "mouseout": {"state": {"target": ["0", "12", "12", "0", "23", "0", "0", "1", "2", "7", "15"], "time": [8926, 9138, 13312, 14414, 17818, 18759, 27754, 27889, 42576, 42620, 42737]}, "edge": {"target": [], "time": []}}}, "displayed_time": "37.34", "trialTime": 48984, "trial_type": "mouselab-mdp", "trial_index": 4, "time_elapsed": 719780, "internal_node_id": "0.0-2.0-2.0-0.0"}}, {"uniqueid": "w83022416:a37633019", "current_trial": 5, "dateTime": 1691071715194, "trialdata": {"revealed_states": [], "clicked_states": ["23"], "num_clicks_accrued": [0, 0, 0, 0, 0, 0, 0, 0, 0, 0, 0, 0, 0], "stateRewards": ["", -10, 10, 10, 10, -10, 10, 10, 10, 10, -10, -10, -10, 10, -10, -10, 10, -10, -10, 10, 10, -10, -10, 10, -10, -10, 10, -10, -10, 10, 10, 10, 10, 10], "withholdReward": false, "trial_id": "practice_2", "block": "test", "trialIndex": 1, "score": -27, "costs": -0.5, "simulationMode": [null, null, null, null, null], "rewards": [-10, 10, -10, -10, -10], "path": ["0", "0", "12", "13", "14", "15", "17"], "rt": [9003, 520, 1534, 1203, 826], "actions": ["right", "right", "right", "up", "right"], "actionTimes": [13509, 14547, 16616, 18343, 19684], "queries": {"click": {"state": {"target": ["23"], "time": [7785]}, "edge": {"target": [], "time": []}}, "mouseover": {"state": {"target": ["23", "12"], "time": [6285, 11316]}, "edge": {"target": [], "time": []}}, "mouseout": {"state": {"target": ["0", "23", "12", "18", "15"], "time": [6033, 10772, 22923, 22983, 23003]}, "edge": {"target": [], "time": []}}}, "displayed_time": "20.21", "trialTime": 27272, "trial_type": "mouselab-mdp", "trial_index": 5, "time_elapsed": 747538, "internal_node_id": "0.0-2.0-2.0-1.0"}}, {"uniqueid": "w83022416:a37633019", "current_trial": 6, "dateTime": 1691071795973, "trialdata": {"view_history": [{"page_index": 0, "viewing_time": 65476}, {"page_index": 1, "viewing_time": 15290}], "rt": 80766, "trial_id": "mouselab_instructions_2_control", "trial_type": "instructions", "trial_index": 6, "time_elapsed": 828319, "internal_node_id": "0.0-2.0-3.0"}}, {"uniqueid": "w83022416:a37633019", "current_trial": 7, "dateTime": 1691071899255, "trialdata": {"rt": 103275, "response": {"Q0": "The cost for clicking on nodes may vary between nodes.", "Q1": "The better I perform the higher my bonus will be.", "Q2": "No, the amount of cash at each node of the web may be different each time.", "Q3": "To get the highest total score.", "Q4": "Only before moving the spider.", "Q5": "3 seconds"}, "question_order": [0, 1, 2, 3, 4, 5], "correct": {"Q0": "The cost for clicking on nodes may vary between nodes.", "Q1": "The better I perform the higher my bonus will be.", "Q2": "No, the amount of cash at each node of the web may be different each time.", "Q3": "To get the highest total score.", "Q4": "Only before moving the spider.", "Q5": "3 seconds"}, "trial_id": "mouselab_quiz_control", "trial_type": "survey-multi-choice", "trial_index": 7, "time_elapsed": 931601, "internal_node_id": "0.0-2.0-4.0"}}, {"uniqueid": "w83022416:a37633019", "current_trial": 8, "dateTime": 1691072021557, "trialdata": {"rt": 122288, "stimulus": "\n<h1> Get ready to start the game! </h1>\n\nThank you for reading the instructions. Get ready start with the 40 rounds of this game.\n<br><br>\nIf you need to take a break, feel free to take one after the end of a round, before continuing to the next one.\n<br><br>\nRemember, the more money the spider gets, the bigger your bonus will be!\n<br><br>\n<div style='text-align: center;'>Press <code>space</code> to begin.</div>\n\n<br><br>\n(If, at any point, the <code>space</code> key does not take you to the next page, click once on the text and try again.)", "response": " ", "trial_id": "mdp_ready", "trial_type": "html-keyboard-response", "trial_index": 8, "time_elapsed": 1053903, "internal_node_id": "0.0-4.0-0.0"}}, {"uniqueid": "w83022416:a37633019", "current_trial": 9, "dateTime": 1691072059481, "trialdata": {"revealed_states": [], "clicked_states": [], "num_clicks_accrued": [0, 0, 0, 0, 0, 0, 0, 0, 0, 0, 0, 0, 0], "stateRewards": ["", 2, 4, 4, -8, -36, -33, 38, 16, -51, 57, 57, 1, 3, 4, -6, 45, 68, 87, 1, 63, 24, -55, -2, 2, -6, -13, -63, -50, 8, 2, 80, 6, 60], "withholdReward": false, "trial_id": "mdp_trial_1", "block": "test", "trialIndex": 2, "score": 76, "costs": 0, "simulationMode": [null, null, null, null, null], "rewards": [-2, 2, -6, 2, 80], "path": ["0", "0", "23", "24", "25", "30", "31"], "rt": [18079, 2670, 677, 1335, 1394], "actions": ["left", "left", "left", "down", "right"], "actionTimes": [22243, 25435, 26625, 28485, 30398], "queries": {"click": {"state": {"target": [], "time": []}, "edge": {"target": [], "time": []}}, "mouseover": {"state": {"target": ["1", "23", "23", "0", "12", "13", "12", "0", "23", "23"], "time": [7375, 8225, 15630, 17341, 17379, 17443, 17674, 19856, 19908, 20163]}, "edge": {"target": [], "time": []}}, "mouseout": {"state": {"target": ["3", "2", "1", "0", "1", "23", "23", "0", "12", "13", "12", "0", "23", "23", "18", "15"], "time": [1759, 1842, 1915, 7075, 8008, 15500, 17330, 17366, 17395, 17564, 19816, 19884, 19974, 32558, 32623, 32642]}, "edge": {"target": [], "time": []}}}, "displayed_time": "30.93", "trialTime": 37433, "trial_type": "mouselab-mdp", "trial_index": 9, "time_elapsed": 1091826, "internal_node_id": "0.0-4.0-1.0-0.0"}}, {"uniqueid": "w83022416:a37633019", "current_trial": 10, "dateTime": 1691072110432, "trialdata": {"revealed_states": [], "clicked_states": [], "num_clicks_accrued": [0, 0, 0, 0, 0, 0, 0, 0, 0, 0, 0, 0, 0], "stateRewards": ["", -2, -4, -2, 10, -8, -15, -47, 7, -84, 53, 5, -1, 2, -7, 3, 83, 31, 47, -1, 30, -8, 69, 2, -4, -1, 8, -7, 12, -8, -8, -13, 30, -84], "withholdReward": false, "trial_id": "mdp_trial_2", "block": "test", "trialIndex": 3, "score": -6, "costs": 0, "simulationMode": [null, null, null, null, null], "rewards": [-2, -4, -2, 10, -8], "path": ["0", "0", "1", "2", "3", "4", "5"], "rt": [23255, 1924, 3345, 1343, 958], "actions": ["up", "up", "up", "right", "up"], "actionTimes": [28924, 31370, 35240, 37104, 38587], "queries": {"click": {"state": {"target": [], "time": []}, "edge": {"target": [], "time": []}}, "mouseover": {"state": {"target": ["23", "1", "12"], "time": [10022, 14205, 26311]}, "edge": {"target": [], "time": []}}, "mouseout": {"state": {"target": ["12", "0", "23", "1", "12", "22", "19", "20"], "time": [3955, 9812, 13612, 26255, 26375, 42493, 42536, 42557]}, "edge": {"target": [], "time": []}}}, "displayed_time": "39.11", "trialTime": 50434, "trial_type": "mouselab-mdp", "trial_index": 10, "time_elapsed": 1142776, "internal_node_id": "0.0-4.0-1.0-1.0"}}, {"uniqueid": "w83022416:a37633019", "current_trial": 11, "dateTime": 1691072165110, "trialdata": {"revealed_states": [], "clicked_states": [], "num_clicks_accrued": [0, 0, 0, 0, 0, 0, 0, 0, 0, 0, 0, 0, 0], "stateRewards": ["", -2, -1, 3, -3, 71, -58, -21, 7, -10, -75, -37, 2, 4, -1, -12, -79, -29, -48, 3, -41, -10, -30, -1, -2, 1, -15, 13, 66, 22, -1, -42, -86, -55], "withholdReward": false, "trial_id": "mdp_trial_3", "block": "test", "trialIndex": 4, "score": -58, "costs": 0, "simulationMode": [null, null, null, null, null], "rewards": [-1, -2, 1, -1, -55], "path": ["0", "0", "23", "24", "25", "30", "33"], "rt": [26599, 9340, 386, 262, 3286], "actions": ["left", "left", "left", "down", "left"], "actionTimes": [30957, 40813, 41730, 42519, 46324], "queries": {"click": {"state": {"target": [], "time": []}, "edge": {"target": [], "time": []}}, "mouseover": {"state": {"target": ["0", "1", "12", "13", "12", "23"], "time": [15733, 17772, 20171, 21588, 23598, 25747]}, "edge": {"target": [], "time": []}}, "mouseout": {"state": {"target": ["0", "0", "1", "12", "13", "12", "23", "23", "24", "23", "15"], "time": [15384, 16051, 19271, 21413, 23522, 25307, 32816, 33936, 48898, 48934, 48982]}, "edge": {"target": [], "time": []}}}, "displayed_time": "46.84", "trialTime": 54110, "trial_type": "mouselab-mdp", "trial_index": 11, "time_elapsed": 1197455, "internal_node_id": "0.0-4.0-1.0-2.0"}}, {"uniqueid": "w83022416:a37633019", "current_trial": 12, "dateTime": 1691072189696, "trialdata": {"revealed_states": [], "clicked_states": [], "num_clicks_accrued": [0, 0, 0, 0, 0, 0, 0, 0, 0, 0, 0, 0, 0], "stateRewards": ["", 2, -3, -2, 14, -4, 85, 46, 15, -28, 41, 31, -1, -1, -1, 5, 62, 79, 57, 12, -73, -64, 86, -1, 1, -3, -5, 68, 11, -32, 8, -80, -21, -56], "withholdReward": false, "trial_id": "mdp_trial_4", "block": "test", "trialIndex": 5, "score": 43, "costs": 0, "simulationMode": [null, null, null, null, null], "rewards": [2, -3, -2, 15, 31], "path": ["0", "0", "1", "2", "3", "8", "11"], "rt": [2420, 489, 493, 1030, 710], "actions": ["up", "up", "up", "left", "left"], "actionTimes": [7405, 8465, 9480, 11034, 12276], "queries": {"click": {"state": {"target": [], "time": []}, "edge": {"target": [], "time": []}}, "mouseover": {"state": {"target": [], "time": []}, "edge": {"target": [], "time": []}}, "mouseout": {"state": {"target": ["28", "0", "23", "28", "11"], "time": [3729, 15061, 15226, 15377, 16811]}, "edge": {"target": [], "time": []}}}, "displayed_time": "18.99", "trialTime": 24011, "trial_type": "mouselab-mdp", "trial_index": 12, "time_elapsed": 1222040, "internal_node_id": "0.0-4.0-1.0-3.0"}}, {"uniqueid": "w83022416:a37633019", "current_trial": 13, "dateTime": 1691072233887, "trialdata": {"revealed_states": [], "clicked_states": [], "num_clicks_accrued": [0, 0, 0, 0, 0, 0, 0, 0, 0, 0, 0, 0, 0], "stateRewards": ["", 2, 4, -5, 7, 81, 35, 6, 11, 14, -72, 42, -1, 2, 3, -7, -77, -44, -40, -15, -85, 51, -32, -2, -1, -5, 7, -74, 47, 52, 16, -49, 48, -46], "withholdReward": false, "trial_id": "mdp_trial_5", "block": "test", "trialIndex": 6, "score": -75, "costs": 0, "simulationMode": [null, null, null, null, null], "rewards": [-2, -1, -5, 7, -74], "path": ["0", "0", "23", "24", "25", "26", "27"], "rt": [25643, 372, 653, 1004, 446], "actions": ["left", "left", "left", "up", "up"], "actionTimes": [32325, 33216, 34408, 35993, 36974], "queries": {"click": {"state": {"target": [], "time": []}, "edge": {"target": [], "time": []}}, "mouseover": {"state": {"target": ["23"], "time": [8466]}, "edge": {"target": [], "time": []}}, "mouseout": {"state": {"target": ["20", "19", "12", "0", "23"], "time": [3365, 3481, 5268, 5534, 38761]}, "edge": {"target": [], "time": []}}}, "displayed_time": "37.49", "trialTime": 43595, "trial_type": "mouselab-mdp", "trial_index": 13, "time_elapsed": 1266231, "internal_node_id": "0.0-4.0-1.0-4.0"}}, {"uniqueid": "w83022416:a37633019", "current_trial": 14, "dateTime": 1691072268823, "trialdata": {"revealed_states": [], "clicked_states": [], "num_clicks_accrued": [0, 0, 0, 0, 0, 0, 0, 0, 0, 0, 0, 0, 0], "stateRewards": ["", -1, -3, 1, -4, -48, -63, -49, -2, -84, -19, 65, 2, -2, -2, -12, -4, 59, 9, 6, 75, 69, -13, -1, -3, -3, -2, -37, -68, -36, 13, 32, 18, -14], "withholdReward": false, "trial_id": "mdp_trial_6", "block": "test", "trialIndex": 7, "score": 73, "costs": 0, "simulationMode": [null, null, null, null, null], "rewards": [2, -2, -2, 6, 69], "path": ["0", "0", "12", "13", "14", "19", "21"], "rt": [10988, 8193, 422, 1023, 900], "actions": ["right", "right", "right", "down", "down"], "actionTimes": [14015, 22736, 23680, 25232, 26660], "queries": {"click": {"state": {"target": [], "time": []}, "edge": {"target": [], "time": []}}, "mouseover": {"state": {"target": ["12"], "time": [5686]}, "edge": {"target": [], "time": []}}, "mouseout": {"state": {"target": ["0", "12", "13", "14"], "time": [5652, 15948, 20175, 20286]}, "edge": {"target": [], "time": []}}}, "displayed_time": "27.18", "trialTime": 34103, "trial_type": "mouselab-mdp", "trial_index": 14, "time_elapsed": 1301167, "internal_node_id": "0.0-4.0-1.0-5.0"}}, {"uniqueid": "w83022416:a37633019", "current_trial": 15, "dateTime": 1691072299632, "trialdata": {"revealed_states": [], "clicked_states": [], "num_clicks_accrued": [0, 0, 0, 0, 0, 0, 0, 0, 0, 0, 0, 0, 0], "stateRewards": ["", 1, 1, -6, -2, 7, 77, 3, 16, -16, 66, 31, -1, 3, -8, -6, 33, -50, -48, 7, -60, -66, 36, 2, -3, 3, -7, -12, -61, -79, -4, 8, 74, -70], "withholdReward": false, "trial_id": "mdp_trial_7", "block": "test", "trialIndex": 8, "score": -4, "costs": 0, "simulationMode": [null, null, null, null, null], "rewards": [1, 1, -6, 16, -16], "path": ["0", "0", "1", "2", "3", "8", "9"], "rt": [3114, 958, 1060, 1720, 1085], "actions": ["up", "up", "up", "left", "up"], "actionTimes": [14532, 16019, 17604, 19851, 21460], "queries": {"click": {"state": {"target": [], "time": []}, "edge": {"target": [], "time": []}}, "mouseover": {"state": {"target": [], "time": []}, "edge": {"target": [], "time": []}}, "mouseout": {"state": {"target": ["0", "12", "13"], "time": [24474, 24517, 24538]}, "edge": {"target": [], "time": []}}}, "displayed_time": "25.42", "trialTime": 30199, "trial_type": "mouselab-mdp", "trial_index": 15, "time_elapsed": 1331976, "internal_node_id": "0.0-4.0-1.0-6.0"}}, {"uniqueid": "w83022416:a37633019", "current_trial": 16, "dateTime": 1691072349163, "trialdata": {"revealed_states": [], "clicked_states": ["23"], "num_clicks_accrued": [0, 0, 0, 0, 0, 0, 0, 0, 0, 0, 0, 0, 0], "stateRewards": ["", -2, 4, -7, -3, -76, 39, -28, 10, 14, 12, 60, 2, -3, 6, -10, 88, -34, -41, -3, 72, -13, -56, 1, 3, 2, 8, -51, 23, -57, 1, 14, -46, -16], "withholdReward": false, "trial_id": "mdp_trial_8", "block": "test", "trialIndex": 9, "score": 35.6, "costs": -1.4, "simulationMode": [null, null, null, null, null], "rewards": [1, 3, 2, 8, 23], "path": ["0", "0", "23", "24", "25", "26", "28"], "rt": [15218, 880, 653, 1293, 2532], "actions": ["left", "left", "left", "up", "right"], "actionTimes": [17945, 19360, 20552, 22360, 25428], "queries": {"click": {"state": {"target": ["23"], "time": [4334]}, "edge": {"target": [], "time": []}}, "mouseover": {"state": {"target": ["23", "1", "0", "0"], "time": [3780, 8119, 16298, 16615]}, "edge": {"target": [], "time": []}}, "mouseout": {"state": {"target": ["0", "23", "1", "0", "0", "12", "13"], "time": [1945, 7430, 16236, 16320, 27819, 27880, 27913]}, "edge": {"target": [], "time": []}}}, "displayed_time": "25.95", "trialTime": 48911, "trial_type": "mouselab-mdp", "trial_index": 16, "time_elapsed": 1381507, "internal_node_id": "0.0-4.0-1.0-7.0"}}, {"uniqueid": "w83022416:a37633019", "current_trial": 17, "dateTime": 1691072390653, "trialdata": {"revealed_states": [], "clicked_states": [], "num_clicks_accrued": [0, 0, 0, 0, 0, 0, 0, 0, 0, 0, 0, 0, 0], "stateRewards": ["", -2, 2, -5, -6, 10, -66, -58, -10, -11, -63, -70, -1, -4, -5, 7, 66, -64, -43, -3, 45, -37, 4, -2, -2, -6, -4, -30, 33, 43, 15, -32, -65, -59], "withholdReward": false, "trial_id": "mdp_trial_9", "block": "test", "trialIndex": 10, "score": -85, "costs": 0, "simulationMode": [null, null, null, null, null], "rewards": [-2, 2, -5, -10, -70], "path": ["0", "0", "1", "2", "3", "8", "11"], "rt": [16800, 1224, 3714, 1200, 415], "actions": ["up", "up", "up", "left", "left"], "actionTimes": [24331, 26074, 30315, 32032, 32965], "queries": {"click": {"state": {"target": [], "time": []}, "edge": {"target": [], "time": []}}, "mouseover": {"state": {"target": ["1", "1", "12"], "time": [11146, 11525, 16892]}, "edge": {"target": [], "time": []}}, "mouseout": {"state": {"target": ["17", "7", "0", "1", "1", "12", "20"], "time": [3698, 4030, 11047, 11168, 16493, 20877, 36801]}, "edge": {"target": [], "time": []}}}, "displayed_time": "33.48", "trialTime": 40817, "trial_type": "mouselab-mdp", "trial_index": 17, "time_elapsed": 1422997, "internal_node_id": "0.0-4.0-1.0-8.0"}}, {"uniqueid": "w83022416:a37633019", "current_trial": 18, "dateTime": 1691072413420, "trialdata": {"revealed_states": [], "clicked_states": [], "num_clicks_accrued": [0, 0, 0, 0, 0, 0, 0, 0, 0, 0, 0, 0, 0], "stateRewards": ["", 1, -3, 4, 13, -72, 52, 5, 5, -58, 5, 14, 2, 1, 3, -14, -86, -4, 73, 6, -58, -50, 49, 2, -3, -4, 2, 33, -41, 42, -11, 81, 45, 53], "withholdReward": false, "trial_id": "mdp_trial_10", "block": "test", "trialIndex": 11, "score": -12, "costs": 0, "simulationMode": [null, null, null, null, null], "rewards": [2, 1, 3, -14, -4], "path": ["0", "0", "12", "13", "14", "15", "17"], "rt": [3765, 932, 2361, 486, 246], "actions": ["right", "right", "right", "up", "right"], "actionTimes": [7864, 9331, 12225, 13242, 14018], "queries": {"click": {"state": {"target": [], "time": []}, "edge": {"target": [], "time": []}}, "mouseover": {"state": {"target": [], "time": []}, "edge": {"target": [], "time": []}}, "mouseout": {"state": {"target": ["0", "22", "19", "20"], "time": [18033, 19179, 19200, 19221]}, "edge": {"target": [], "time": []}}}, "displayed_time": "18.10", "trialTime": 22112, "trial_type": "mouselab-mdp", "trial_index": 18, "time_elapsed": 1445766, "internal_node_id": "0.0-4.0-1.0-9.0"}}, {"uniqueid": "w83022416:a37633019", "current_trial": 19, "dateTime": 1691072448984, "trialdata": {"revealed_states": [], "clicked_states": [], "num_clicks_accrued": [0, 0, 0, 0, 0, 0, 0, 0, 0, 0, 0, 0, 0], "stateRewards": ["", -2, 3, -5, -7, 66, 43, -60, -4, -70, -75, 4, -1, 2, 2, -13, 54, 11, -40, -1, 77, 32, 15, -2, 3, -8, -9, -35, 83, -27, 6, -74, -34, 44], "withholdReward": false, "trial_id": "mdp_trial_11", "block": "test", "trialIndex": 12, "score": 34, "costs": 0, "simulationMode": [null, null, null, null, null], "rewards": [-1, 2, 2, -1, 32], "path": ["0", "0", "12", "13", "14", "19", "21"], "rt": [18328, 2013, 760, 482, 413], "actions": ["right", "right", "right", "down", "down"], "actionTimes": [21097, 23629, 24914, 25935, 26862], "queries": {"click": {"state": {"target": [], "time": []}, "edge": {"target": [], "time": []}}, "mouseover": {"state": {"target": ["18", "12", "12"], "time": [5844, 5926, 6314]}, "edge": {"target": [], "time": []}}, "mouseout": {"state": {"target": ["2", "1", "0", "18", "12", "12", "22", "19"], "time": [1244, 1359, 5494, 5876, 5962, 29627, 29826, 29846]}, "edge": {"target": [], "time": []}}}, "displayed_time": "27.38", "trialTime": 34920, "trial_type": "mouselab-mdp", "trial_index": 19, "time_elapsed": 1481328, "internal_node_id": "0.0-4.0-1.0-10.0"}}, {"uniqueid": "w83022416:a37633019", "current_trial": 20, "dateTime": 1691072473616, "trialdata": {"revealed_states": [], "clicked_states": [], "num_clicks_accrued": [0, 0, 0, 0, 0, 0, 0, 0, 0, 0, 0, 0, 0], "stateRewards": ["", -2, 4, 3, 5, -61, 4, 30, 1, -47, 83, 10, 1, 4, 7, -14, 19, -74, -83, 6, -2, -2, -65, -1, -2, 4, -11, 12, -1, -68, 11, -38, -28, 66], "withholdReward": false, "trial_id": "mdp_trial_12", "block": "test", "trialIndex": 13, "score": 40, "costs": 0, "simulationMode": [null, null, null, null, null], "rewards": [-2, 4, 3, 5, 30], "path": ["0", "0", "1", "2", "3", "4", "7"], "rt": [3711, 569, 762, 1135, 280], "actions": ["up", "up", "up", "right", "down"], "actionTimes": [8224, 9341, 10624, 12281, 13076], "queries": {"click": {"state": {"target": [], "time": []}, "edge": {"target": [], "time": []}}, "mouseover": {"state": {"target": [], "time": []}, "edge": {"target": [], "time": []}}, "mouseout": {"state": {"target": ["20", "19", "22", "0", "12", "13"], "time": [2442, 2690, 3092, 19942, 19976, 19987]}, "edge": {"target": [], "time": []}}}, "displayed_time": "18.52", "trialTime": 23985, "trial_type": "mouselab-mdp", "trial_index": 20, "time_elapsed": 1505961, "internal_node_id": "0.0-4.0-1.0-11.0"}}, {"uniqueid": "w83022416:a37633019", "current_trial": 21, "dateTime": 1691072502937, "trialdata": {"revealed_states": [], "clicked_states": [], "num_clicks_accrued": [0, 0, 0, 0, 0, 0, 0, 0, 0, 0, 0, 0, 0], "stateRewards": ["", -1, 2, -6, 6, -82, -19, -39, -16, -83, 11, -33, -2, -2, 4, -6, -82, -1, -19, -6, -10, -67, -41, -2, 1, -7, 16, -23, -78, -52, 14, 31, -71, 74], "withholdReward": false, "trial_id": "mdp_trial_13", "block": "test", "trialIndex": 14, "score": -88, "costs": 0, "simulationMode": [null, null, null, null, null], "rewards": [-2, -2, 4, -6, -82], "path": ["0", "0", "12", "13", "14", "15", "16"], "rt": [13544, 630, 512, 612, 110], "actions": ["right", "right", "right", "up", "up"], "actionTimes": [17610, 18754, 19787, 20919, 21549], "queries": {"click": {"state": {"target": [], "time": []}, "edge": {"target": [], "time": []}}, "mouseover": {"state": {"target": [], "time": []}, "edge": {"target": [], "time": []}}, "mouseout": {"state": {"target": ["0"], "time": [23383]}, "edge": {"target": [], "time": []}}}, "displayed_time": "22.07", "trialTime": 28636, "trial_type": "mouselab-mdp", "trial_index": 21, "time_elapsed": 1535281, "internal_node_id": "0.0-4.0-1.0-12.0"}}, {"uniqueid": "w83022416:a37633019", "current_trial": 22, "dateTime": 1691072542078, "trialdata": {"revealed_states": [], "clicked_states": [], "num_clicks_accrued": [0, 0, 0, 0, 0, 0, 0, 0, 0, 0, 0, 0, 0], "stateRewards": ["", -1, -3, 3, 5, 56, 39, 50, -1, -80, 33, -46, 1, -2, -6, -8, 87, 48, 54, -11, -20, -64, -54, -2, 3, -7, -3, 12, 88, 35, -16, -46, -70, -3], "withholdReward": false, "trial_id": "mdp_trial_14", "block": "test", "trialIndex": 15, "score": -68, "costs": 0, "simulationMode": [null, null, null, null, null], "rewards": [-2, 3, -7, -16, -46], "path": ["0", "0", "23", "24", "25", "30", "31"], "rt": [19832, 2698, 2221, 1437, 1042], "actions": ["left", "left", "left", "down", "right"], "actionTimes": [22978, 26216, 28956, 30921, 32493], "queries": {"click": {"state": {"target": [], "time": []}, "edge": {"target": [], "time": []}}, "mouseover": {"state": {"target": ["0", "0", "0", "1", "23", "23", "0", "12", "0"], "time": [4493, 6260, 6917, 8497, 15608, 15875, 17442, 17525, 19160]}, "edge": {"target": [], "time": []}}, "mouseout": {"state": {"target": ["0", "0", "0", "0", "1", "23", "23", "0", "12", "0"], "time": [4131, 4699, 6296, 7192, 15546, 15629, 17412, 17492, 19097, 19559]}, "edge": {"target": [], "time": []}}}, "displayed_time": "33.02", "trialTime": 38424, "trial_type": "mouselab-mdp", "trial_index": 22, "time_elapsed": 1574423, "internal_node_id": "0.0-4.0-1.0-13.0"}}, {"uniqueid": "w83022416:a37633019", "current_trial": 23, "dateTime": 1691072578547, "trialdata": {"revealed_states": [], "clicked_states": [], "num_clicks_accrued": [0, 0, 0, 0, 0, 0, 0, 0, 0, 0, 0, 0, 0], "stateRewards": ["", 1, 1, -5, 8, -6, 45, 16, -6, -7, -22, -38, -1, -4, 8, -11, -16, 21, -45, -15, -59, -32, 42, -1, 3, 6, 11, -7, 34, -27, -8, 85, 43, -9], "withholdReward": false, "trial_id": "mdp_trial_15", "block": "test", "trialIndex": 16, "score": -53, "costs": 0, "simulationMode": [null, null, null, null, null], "rewards": [-1, -4, 8, -11, -45], "path": ["0", "0", "12", "13", "14", "15", "18"], "rt": [2812, 2888, 1627, 561, 878], "actions": ["right", "right", "right", "up", "left"], "actionTimes": [11531, 14949, 17104, 18197, 19613], "queries": {"click": {"state": {"target": [], "time": []}, "edge": {"target": [], "time": []}}, "mouseover": {"state": {"target": [], "time": []}, "edge": {"target": [], "time": []}}, "mouseout": {"state": {"target": ["0"], "time": [7723]}, "edge": {"target": [], "time": []}}}, "displayed_time": "22.72", "trialTime": 35806, "trial_type": "mouselab-mdp", "trial_index": 23, "time_elapsed": 1610892, "internal_node_id": "0.0-4.0-1.0-14.0"}}, {"uniqueid": "w83022416:a37633019", "current_trial": 24, "dateTime": 1691072613864, "trialdata": {"revealed_states": [], "clicked_states": [], "num_clicks_accrued": [0, 0, 0, 0, 0, 0, 0, 0, 0, 0, 0, 0, 0], "stateRewards": ["", 2, 3, 8, 11, 25, -80, 6, -4, -56, 84, -23, -2, -4, -3, 4, -51, -9, -61, -15, -64, 67, -35, 1, -1, -7, -6, 83, 59, -15, 12, -79, 56, 41], "withholdReward": false, "trial_id": "mdp_trial_16", "block": "test", "trialIndex": 17, "score": -14, "costs": 0, "simulationMode": [null, null, null, null, null], "rewards": [2, 3, 8, -4, -23], "path": ["0", "0", "1", "2", "3", "8", "11"], "rt": [18853, 1165, 677, 1076, 293], "actions": ["up", "up", "up", "left", "left"], "actionTimes": [21154, 22860, 24081, 25685, 26526], "queries": {"click": {"state": {"target": [], "time": []}, "edge": {"target": [], "time": []}}, "mouseover": {"state": {"target": ["1", "23", "0", "12"], "time": [6431, 12149, 15000, 15256]}, "edge": {"target": [], "time": []}}, "mouseout": {"state": {"target": ["0", "12", "20", "19", "0", "0", "1", "23", "0", "12", "19", "20"], "time": [165, 198, 249, 1064, 1185, 6183, 12106, 14971, 15065, 30271, 30310, 30332]}, "edge": {"target": [], "time": []}}}, "displayed_time": "27.05", "trialTime": 34589, "trial_type": "mouselab-mdp", "trial_index": 24, "time_elapsed": 1646208, "internal_node_id": "0.0-4.0-1.0-15.0"}}, {"uniqueid": "w83022416:a37633019", "current_trial": 25, "dateTime": 1691072644796, "trialdata": {"revealed_states": [], "clicked_states": ["12"], "num_clicks_accrued": [0, 0, 0, 0, 0, 0, 0, 0, 0, 0, 0, 0, 0], "stateRewards": ["", 2, -1, 1, 10, -52, 86, -22, -2, -14, -63, 38, 1, 3, 7, -8, 11, -32, -27, 9, -71, 40, -87, -2, -1, 5, -7, 12, 31, -57, 13, 86, -58, 29], "withholdReward": false, "trial_id": "mdp_trial_17", "block": "test", "trialIndex": 18, "score": -52.4, "costs": -1.4, "simulationMode": [null, null, null, null, null], "rewards": [1, 3, 7, 9, -71], "path": ["0", "0", "12", "13", "14", "19", "20"], "rt": [6963, 9474, 757, 920, 381], "actions": ["right", "right", "right", "down", "right"], "actionTimes": [10357, 20357, 21645, 23086, 23995], "queries": {"click": {"state": {"target": ["12"], "time": [5025]}, "edge": {"target": [], "time": []}}, "mouseover": {"state": {"target": ["12", "1", "1"], "time": [4480, 7291, 7626]}, "edge": {"target": [], "time": []}}, "mouseout": {"state": {"target": ["0", "12", "1", "1", "22"], "time": [4281, 7230, 7341, 8947, 12162]}, "edge": {"target": [], "time": []}}}, "displayed_time": "24.54", "trialTime": 30166, "trial_type": "mouselab-mdp", "trial_index": 25, "time_elapsed": 1677141, "internal_node_id": "0.0-4.0-1.0-16.0"}}, {"uniqueid": "w83022416:a37633019", "current_trial": 26, "dateTime": 1691072669250, "trialdata": {"revealed_states": [], "clicked_states": [], "num_clicks_accrued": [0, 0, 0, 0, 0, 0, 0, 0, 0, 0, 0, 0, 0], "stateRewards": ["", -2, -3, 4, 1, 33, -53, 15, 9, -12, 61, -6, -2, 4, 6, -11, 47, -43, -7, -11, 46, 23, -28, -1, -1, 3, -10, 11, 76, -76, 10, 18, -38, 87], "withholdReward": false, "trial_id": "mdp_trial_18", "block": "test", "trialIndex": 19, "score": 33, "costs": 0, "simulationMode": [null, null, null, null, null], "rewards": [-2, -3, 4, 1, 33], "path": ["0", "0", "1", "2", "3", "4", "5"], "rt": [4333, 739, 446, 1066, 248], "actions": ["up", "up", "up", "right", "up"], "actionTimes": [6768, 8032, 8996, 10581, 11365], "queries": {"click": {"state": {"target": [], "time": []}, "edge": {"target": [], "time": []}}, "mouseover": {"state": {"target": ["1"], "time": [3643]}, "edge": {"target": [], "time": []}}, "mouseout": {"state": {"target": ["13", "12", "0"], "time": [894, 973, 3413]}, "edge": {"target": [], "time": []}}}, "displayed_time": "16.44", "trialTime": 23722, "trial_type": "mouselab-mdp", "trial_index": 26, "time_elapsed": 1701594, "internal_node_id": "0.0-4.0-1.0-17.0"}}, {"uniqueid": "w83022416:a37633019", "current_trial": 27, "dateTime": 1691072711029, "trialdata": {"revealed_states": [], "clicked_states": [], "num_clicks_accrued": [0, 0, 0, 0, 0, 0, 0, 0, 0, 0, 0, 0, 0], "stateRewards": ["", -1, -4, -1, -11, 43, 69, 39, 4, 17, -20, -82, -2, -1, 4, 8, -79, 24, -79, 11, 36, 64, 41, 2, 4, -1, 11, -79, -47, 75, -3, 63, -36, -19], "withholdReward": false, "trial_id": "mdp_trial_19", "block": "test", "trialIndex": 20, "score": 91, "costs": 0, "simulationMode": [null, null, null, null, null], "rewards": [2, 4, -1, 11, 75], "path": ["0", "0", "23", "24", "25", "26", "29"], "rt": [21766, 330, 1085, 2170, 850], "actions": ["left", "left", "left", "up", "left"], "actionTimes": [24974, 25818, 27414, 30113, 31493], "queries": {"click": {"state": {"target": [], "time": []}, "edge": {"target": [], "time": []}}, "mouseover": {"state": {"target": ["23", "24", "23", "1", "12", "12"], "time": [11918, 14265, 16229, 16601, 18347, 18603]}, "edge": {"target": [], "time": []}}, "mouseout": {"state": {"target": ["1", "23", "24", "23", "1", "12", "12", "12", "19", "20"], "time": [1849, 14052, 16203, 16281, 18303, 18429, 23903, 36551, 36628, 36651]}, "edge": {"target": [], "time": []}}}, "displayed_time": "32.02", "trialTime": 41062, "trial_type": "mouselab-mdp", "trial_index": 27, "time_elapsed": 1743374, "internal_node_id": "0.0-4.0-1.0-18.0"}}, {"uniqueid": "w83022416:a37633019", "current_trial": 28, "dateTime": 1691072768743, "trialdata": {"revealed_states": [], "clicked_states": ["23"], "num_clicks_accrued": [0, 0, 0, 0, 0, 0, 0, 0, 0, 0, 0, 0, 0], "stateRewards": ["", -2, 2, -1, -6, 22, 6, 6, -5, 70, -42, 65, 1, 3, 5, -6, -67, -9, 3, 14, 7, -62, -13, -2, 4, 1, 16, 42, -21, -52, -8, 32, 53, 81], "withholdReward": false, "trial_id": "mdp_trial_20", "block": "test", "trialIndex": 21, "score": -7.4, "costs": -1.4, "simulationMode": [null, null, null, null, null], "rewards": [1, 3, 5, -6, -9], "path": ["0", "0", "12", "13", "14", "15", "17"], "rt": [7591, 2078, 1675, 3591, 1194], "actions": ["right", "right", "right", "up", "right"], "actionTimes": [36150, 38750, 40948, 45063, 46783], "queries": {"click": {"state": {"target": ["23"], "time": [30348]}, "edge": {"target": [], "time": []}}, "mouseover": {"state": {"target": ["23", "23", "0"], "time": [29422, 29781, 33514]}, "edge": {"target": [], "time": []}}, "mouseout": {"state": {"target": ["20", "19", "0", "0", "23", "23", "0", "12", "22", "21"], "time": [4700, 4749, 27218, 29388, 29575, 33454, 33597, 52969, 53031, 53129]}, "edge": {"target": [], "time": []}}}, "displayed_time": "47.31", "trialTime": 56980, "trial_type": "mouselab-mdp", "trial_index": 28, "time_elapsed": 1801087, "internal_node_id": "0.0-4.0-1.0-19.0"}}, {"uniqueid": "w83022416:a37633019", "current_trial": 29, "dateTime": 1691072847505, "trialdata": {"revealed_states": [], "clicked_states": [], "num_clicks_accrued": [0, 0, 0, 0, 0, 0, 0, 0, 0, 0, 0, 0, 0], "stateRewards": ["", 2, 1, -3, 7, 46, 11, -36, 16, 71, 5, 1, 2, -2, -8, -3, -4, 6, 55, 7, 68, -54, 2, 1, 1, 6, -6, 42, -4, -84, -11, -65, 63, 25], "withholdReward": false, "trial_id": "mdp_trial_21", "block": "test", "trialIndex": 22, "score": -55, "costs": 0, "simulationMode": [null, null, null, null, null], "rewards": [2, -2, -8, 7, -54], "path": ["0", "0", "12", "13", "14", "19", "21"], "rt": [17597, 3988, 24616, 813, 283], "actions": ["right", "right", "right", "down", "down"], "actionTimes": [41518, 46032, 71185, 72531, 73361], "queries": {"click": {"state": {"target": [], "time": []}, "edge": {"target": [], "time": []}}, "mouseover": {"state": {"target": ["1", "23", "23", "12"], "time": [28823, 32603, 32842, 34668]}, "edge": {"target": [], "time": []}}, "mouseout": {"state": {"target": ["19", "12", "23", "0", "1", "23", "23", "12", "0", "22", "19"], "time": [3326, 3387, 3821, 28610, 32542, 32721, 34304, 76782, 77057, 77216, 77265]}, "edge": {"target": [], "time": []}}}, "displayed_time": "73.89", "trialTime": 77936, "trial_type": "mouselab-mdp", "trial_index": 29, "time_elapsed": 1879849, "internal_node_id": "0.0-4.0-1.0-20.0"}}, {"uniqueid": "w83022416:a37633019", "current_trial": 30, "dateTime": 1691072876084, "trialdata": {"revealed_states": [], "clicked_states": ["1", "23", "12"], "num_clicks_accrued": [0, 0, 0, 0, 0, 0, 0, 0, 0, 0, 0, 0, 0], "stateRewards": ["", -1, 1, -5, -6, -78, 47, -13, 12, 48, -88, 20, 2, -3, -2, 13, -20, 37, -57, 14, -38, 30, 31, -2, -2, 8, 2, -23, 78, 28, 12, -74, -88, 8], "withholdReward": false, "trial_id": "mdp_trial_22", "block": "test", "trialIndex": 23, "score": 42.8, "costs": -4.199999999999999, "simulationMode": [null, null, null, null, null], "rewards": [2, -3, -2, 13, 37], "path": ["0", "0", "12", "13", "14", "15", "17"], "rt": [11929, 2102, 463, 910, 526], "actions": ["right", "right", "right", "up", "right"], "actionTimes": [14243, 16873, 17868, 19297, 20357], "queries": {"click": {"state": {"target": ["1", "23", "12"], "time": [3888, 7497, 10664]}, "edge": {"target": [], "time": []}}, "mouseover": {"state": {"target": ["1", "23", "0", "12"], "time": [3127, 6827, 9928, 10011]}, "edge": {"target": [], "time": []}}, "mouseout": {"state": {"target": ["19", "22", "12", "12", "0", "1", "23", "0", "12", "20"], "time": [772, 828, 915, 1282, 3061, 6535, 9886, 9976, 24209, 24292]}, "edge": {"target": [], "time": []}}}, "displayed_time": "20.89", "trialTime": 27861, "trial_type": "mouselab-mdp", "trial_index": 30, "time_elapsed": 1908428, "internal_node_id": "0.0-4.0-1.0-21.0"}}, {"uniqueid": "w83022416:a37633019", "current_trial": 31, "dateTime": 1691072904275, "trialdata": {"revealed_states": [], "clicked_states": [], "num_clicks_accrued": [0, 0, 0, 0, 0, 0, 0, 0, 0, 0, 0, 0, 0], "stateRewards": ["", -2, -3, 7, -13, 60, 9, 37, -6, 37, 20, 1, 2, -2, -8, 6, -80, -31, -10, -7, 70, -65, -44, -1, 1, 7, 6, -11, 73, -85, 16, -21, 47, 34], "withholdReward": false, "trial_id": "mdp_trial_23", "block": "test", "trialIndex": 24, "score": -3, "costs": 0, "simulationMode": [null, null, null, null, null], "rewards": [-2, -3, 7, -6, 1], "path": ["0", "0", "1", "2", "3", "8", "11"], "rt": [7599, 577, 593, 1253, 4599], "actions": ["up", "up", "up", "left", "left"], "actionTimes": [12674, 13779, 14910, 16696, 21817], "queries": {"click": {"state": {"target": [], "time": []}, "edge": {"target": [], "time": []}}, "mouseover": {"state": {"target": ["0", "1"], "time": [9131, 9895]}, "edge": {"target": [], "time": []}}, "mouseout": {"state": {"target": ["20", "0", "0", "1", "15", "17"], "time": [2659, 9027, 9228, 23876, 23964, 23985]}, "edge": {"target": [], "time": []}}}, "displayed_time": "22.34", "trialTime": 27321, "trial_type": "mouselab-mdp", "trial_index": 31, "time_elapsed": 1936620, "internal_node_id": "0.0-4.0-1.0-22.0"}}, {"uniqueid": "w83022416:a37633019", "current_trial": 32, "dateTime": 1691072942360, "trialdata": {"revealed_states": [], "clicked_states": [], "num_clicks_accrued": [0, 0, 0, 0, 0, 0, 0, 0, 0, 0, 0, 0, 0], "stateRewards": ["", -1, -4, 8, 8, -68, 47, 24, -7, -61, 49, -69, -1, -1, 8, -7, 42, 1, -45, -11, 10, -63, -6, 1, 4, 6, -16, 79, -37, -58, -12, 81, 18, -53], "withholdReward": false, "trial_id": "mdp_trial_24", "block": "test", "trialIndex": 25, "score": 58, "costs": 0, "simulationMode": [null, null, null, null, null], "rewards": [-1, -4, 8, 8, 47], "path": ["0", "0", "1", "2", "3", "4", "6"], "rt": [2627, 2021, 2694, 768, 252], "actions": ["up", "up", "up", "right", "right"], "actionTimes": [22708, 25256, 28490, 29786, 30568], "queries": {"click": {"state": {"target": [], "time": []}, "edge": {"target": [], "time": []}}, "mouseover": {"state": {"target": [], "time": []}, "edge": {"target": [], "time": []}}, "mouseout": {"state": {"target": ["0", "0", "12"], "time": [19174, 35074, 35158]}, "edge": {"target": [], "time": []}}}, "displayed_time": "34.10", "trialTime": 37276, "trial_type": "mouselab-mdp", "trial_index": 32, "time_elapsed": 1974705, "internal_node_id": "0.0-4.0-1.0-23.0"}}, {"uniqueid": "w83022416:a37633019", "current_trial": 33, "dateTime": 1691072968209, "trialdata": {"revealed_states": [], "clicked_states": [], "num_clicks_accrued": [0, 0, 0, 0, 0, 0, 0, 0, 0, 0, 0, 0, 0], "stateRewards": ["", -1, 2, 5, -6, 13, -64, -47, 8, -79, -80, -33, 1, 2, -2, -16, 56, -71, -10, 3, 29, 44, 85, -1, 4, 5, 4, -36, -56, 19, 8, 52, -13, -2], "withholdReward": false, "trial_id": "mdp_trial_25", "block": "test", "trialIndex": 26, "score": -44, "costs": 0, "simulationMode": [null, null, null, null, null], "rewards": [-1, 4, 5, 4, -56], "path": ["0", "0", "23", "24", "25", "26", "28"], "rt": [4445, 1863, 1312, 1206, 2656], "actions": ["left", "left", "left", "up", "right"], "actionTimes": [11816, 14203, 16045, 17792, 20975], "queries": {"click": {"state": {"target": [], "time": []}, "edge": {"target": [], "time": []}}, "mouseover": {"state": {"target": [], "time": []}, "edge": {"target": [], "time": []}}, "mouseout": {"state": {"target": ["17", "15", "18", "12"], "time": [5247, 5298, 5359, 5643]}, "edge": {"target": [], "time": []}}}, "displayed_time": "21.52", "trialTime": 25060, "trial_type": "mouselab-mdp", "trial_index": 33, "time_elapsed": 2000553, "internal_node_id": "0.0-4.0-1.0-24.0"}}, {"uniqueid": "w83022416:a37633019", "current_trial": 34, "dateTime": 1691073027765, "trialdata": {"revealed_states": [], "clicked_states": ["1"], "num_clicks_accrued": [0, 0, 0, 0, 0, 0, 0, 0, 0, 0, 0, 0, 0], "stateRewards": ["", 1, -2, -2, 10, -31, -77, 35, 9, -47, 8, 48, -2, 1, -4, -3, -26, -50, 43, -11, 76, -38, 17, 1, -1, 6, 10, 15, -9, 12, -8, 85, 11, -55], "withholdReward": false, "trial_id": "mdp_trial_26", "block": "test", "trialIndex": 27, "score": 40.6, "costs": -1.4, "simulationMode": [null, null, null, null, null], "rewards": [1, -2, -2, 10, 35], "path": ["0", "0", "1", "2", "3", "4", "7"], "rt": [5815, 8387, 13755, 833, 1314], "actions": ["up", "up", "up", "right", "down"], "actionTimes": [11664, 20581, 34870, 36241, 38072], "queries": {"click": {"state": {"target": ["1"], "time": [8413]}, "edge": {"target": [], "time": []}}, "mouseover": {"state": {"target": ["1"], "time": [7920]}, "edge": {"target": [], "time": []}}, "mouseout": {"state": {"target": ["0", "1", "2", "3", "3", "7"], "time": [7611, 14278, 26355, 26471, 57601, 57850]}, "edge": {"target": [], "time": []}}}, "displayed_time": "38.60", "trialTime": 58784, "trial_type": "mouselab-mdp", "trial_index": 34, "time_elapsed": 2060111, "internal_node_id": "0.0-4.0-1.0-25.0"}}, {"uniqueid": "w83022416:a37633019", "current_trial": 35, "dateTime": 1691073064452, "trialdata": {"revealed_states": [], "clicked_states": [], "num_clicks_accrued": [0, 0, 0, 0, 0, 0, 0, 0, 0, 0, 0, 0, 0], "stateRewards": ["", -1, 2, 6, 11, 21, -21, -21, -6, 48, -71, 88, -1, -3, 3, 7, 64, 2, 9, -4, 37, -67, 72, 2, 2, -8, -8, -10, 71, -40, -3, 73, 80, 47], "withholdReward": false, "trial_id": "mdp_trial_27", "block": "test", "trialIndex": 28, "score": -3, "costs": 0, "simulationMode": [null, null, null, null, null], "rewards": [-1, 2, 6, 11, -21], "path": ["0", "0", "1", "2", "3", "4", "7"], "rt": [5259, 3311, 3732, 1137, 853], "actions": ["up", "up", "up", "right", "down"], "actionTimes": [9175, 13013, 17276, 18932, 20334], "queries": {"click": {"state": {"target": [], "time": []}, "edge": {"target": [], "time": []}}, "mouseover": {"state": {"target": [], "time": []}, "edge": {"target": [], "time": []}}, "mouseout": {"state": {"target": ["18", "12", "0"], "time": [2300, 2451, 7005]}, "edge": {"target": [], "time": []}}}, "displayed_time": "20.88", "trialTime": 35885, "trial_type": "mouselab-mdp", "trial_index": 35, "time_elapsed": 2096796, "internal_node_id": "0.0-4.0-1.0-26.0"}}, {"uniqueid": "w83022416:a37633019", "current_trial": 36, "dateTime": 1691073088391, "trialdata": {"revealed_states": [], "clicked_states": [], "num_clicks_accrued": [0, 0, 0, 0, 0, 0, 0, 0, 0, 0, 0, 0, 0], "stateRewards": ["", 2, -2, -8, 9, -20, 55, -58, 14, 42, 2, 36, 1, -3, -5, 5, -58, 57, 60, 16, 57, 30, -70, -2, 1, 3, 10, 59, 23, 77, -13, -26, 88, -72], "withholdReward": false, "trial_id": "mdp_trial_28", "block": "test", "trialIndex": 29, "score": 55, "costs": 0, "simulationMode": [null, null, null, null, null], "rewards": [1, -3, -5, 5, 57], "path": ["0", "0", "12", "13", "14", "15", "17"], "rt": [3511, 4540, 2780, 610, 212], "actions": ["right", "right", "right", "up", "right"], "actionTimes": [5990, 11061, 14364, 15524, 16257], "queries": {"click": {"state": {"target": [], "time": []}, "edge": {"target": [], "time": []}}, "mouseover": {"state": {"target": ["12"], "time": [4490]}, "edge": {"target": [], "time": []}}, "mouseout": {"state": {"target": ["0", "0", "12", "22", "21"], "time": [973, 4156, 19622, 19670, 19693]}, "edge": {"target": [], "time": []}}}, "displayed_time": "16.78", "trialTime": 23132, "trial_type": "mouselab-mdp", "trial_index": 36, "time_elapsed": 2120735, "internal_node_id": "0.0-4.0-1.0-27.0"}}, {"uniqueid": "w83022416:a37633019", "current_trial": 37, "dateTime": 1691073141769, "trialdata": {"revealed_states": [], "clicked_states": ["1", "2"], "num_clicks_accrued": [0, 0, 0, 0, 0, 0, 0, 0, 0, 0, 0, 0, 0], "stateRewards": ["", 1, -1, 1, -14, -10, 67, -28, -11, 72, 40, -65, -1, 1, 1, -2, 8, -55, 34, -10, 61, 33, -15, 2, -4, 7, 4, -75, 63, -21, -16, 61, 19, 21], "withholdReward": false, "trial_id": "mdp_trial_29", "block": "test", "trialIndex": 30, "score": -43.8, "costs": -2.8, "simulationMode": [null, null, null, null, null], "rewards": [1, -1, 1, -14, -28], "path": ["0", "0", "1", "2", "3", "4", "7"], "rt": [14473, 358, 522, 1548, 1040], "actions": ["up", "up", "up", "right", "down"], "actionTimes": [22450, 23338, 24376, 26449, 28126], "queries": {"click": {"state": {"target": ["1", "2"], "time": [10653, 15088]}, "edge": {"target": [], "time": []}}, "mouseover": {"state": {"target": ["1", "2"], "time": [9985, 14272]}, "edge": {"target": [], "time": []}}, "mouseout": {"state": {"target": ["21", "0", "0", "1", "2", "2", "12"], "time": [6127, 6567, 9907, 14207, 15236, 19334, 43348]}, "edge": {"target": [], "time": []}}}, "displayed_time": "28.65", "trialTime": 52608, "trial_type": "mouselab-mdp", "trial_index": 37, "time_elapsed": 2174113, "internal_node_id": "0.0-4.0-1.0-28.0"}}, {"uniqueid": "w83022416:a37633019", "current_trial": 38, "dateTime": 1691073167832, "trialdata": {"revealed_states": [], "clicked_states": [], "num_clicks_accrued": [0, 0, 0, 0, 0, 0, 0, 0, 0, 0, 0, 0, 0], "stateRewards": ["", -2, -2, -3, -6, -15, -11, 41, -12, -63, -76, 2, -2, -3, 8, 9, -36, -2, -18, -16, -32, -85, -17, -2, 1, 5, -16, 82, 35, -88, -1, 80, -82, -20], "withholdReward": false, "trial_id": "mdp_trial_30", "block": "test", "trialIndex": 31, "score": 83, "costs": 0, "simulationMode": [null, null, null, null, null], "rewards": [-2, 1, 5, -1, 80], "path": ["0", "0", "23", "24", "25", "30", "31"], "rt": [2597, 1845, 695, 809, 1371], "actions": ["left", "left", "left", "down", "right"], "actionTimes": [6000, 8392, 9645, 10987, 12890], "queries": {"click": {"state": {"target": [], "time": []}, "edge": {"target": [], "time": []}}, "mouseover": {"state": {"target": [], "time": []}, "edge": {"target": [], "time": []}}, "mouseout": {"state": {"target": ["0", "0", "12", "13"], "time": [2164, 18895, 19179, 19203]}, "edge": {"target": [], "time": []}}}, "displayed_time": "17.40", "trialTime": 25291, "trial_type": "mouselab-mdp", "trial_index": 38, "time_elapsed": 2200177, "internal_node_id": "0.0-4.0-1.0-29.0"}}, {"uniqueid": "w83022416:a37633019", "current_trial": 39, "dateTime": 1691073194393, "trialdata": {"revealed_states": [], "clicked_states": [], "num_clicks_accrued": [0, 0, 0, 0, 0, 0, 0, 0, 0, 0, 0, 0, 0], "stateRewards": ["", -2, -1, -3, -1, -78, -6, 2, -1, 22, -88, 32, 2, 2, -7, -8, -51, -17, 54, 2, -44, 54, 75, 2, -2, -8, -15, -29, 12, -67, 15, -1, -47, -47], "withholdReward": false, "trial_id": "mdp_trial_31", "block": "test", "trialIndex": 32, "score": -62, "costs": 0, "simulationMode": [null, null, null, null, null], "rewards": [2, 2, -7, -8, -51], "path": ["0", "0", "12", "13", "14", "15", "16"], "rt": [11177, 411, 843, 936, 159], "actions": ["right", "right", "right", "up", "up"], "actionTimes": [16923, 17869, 19250, 20717, 21402], "queries": {"click": {"state": {"target": [], "time": []}, "edge": {"target": [], "time": []}}, "mouseover": {"state": {"target": [], "time": []}, "edge": {"target": [], "time": []}}, "mouseout": {"state": {"target": ["31", "23", "0"], "time": [3974, 4242, 23451]}, "edge": {"target": [], "time": []}}}, "displayed_time": "21.92", "trialTime": 25707, "trial_type": "mouselab-mdp", "trial_index": 39, "time_elapsed": 2226737, "internal_node_id": "0.0-4.0-1.0-30.0"}}, {"uniqueid": "w83022416:a37633019", "current_trial": 40, "dateTime": 1691073216151, "trialdata": {"revealed_states": [], "clicked_states": ["23"], "num_clicks_accrued": [0, 0, 0, 0, 0, 0, 0, 0, 0, 0, 0, 0, 0], "stateRewards": ["", -2, 1, 6, -2, -10, -78, -69, 14, -15, 7, -1, 1, -1, -2, 13, 77, 32, 87, 5, -74, 30, -26, 1, 3, 4, 12, 39, 54, -43, 2, 10, 23, 13], "withholdReward": false, "trial_id": "mdp_trial_32", "block": "test", "trialIndex": 33, "score": 18.6, "costs": -1.4, "simulationMode": [null, null, null, null, null], "rewards": [1, 3, 4, 2, 10], "path": ["0", "0", "23", "24", "25", "30", "31"], "rt": [6388, 369, 982, 716, 1352], "actions": ["left", "left", "left", "down", "right"], "actionTimes": [9358, 10270, 11781, 13025, 14911], "queries": {"click": {"state": {"target": ["23"], "time": [5914]}, "edge": {"target": [], "time": []}}, "mouseover": {"state": {"target": ["23"], "time": [5295]}, "edge": {"target": [], "time": []}}, "mouseout": {"state": {"target": ["22", "0", "0", "23", "22", "20"], "time": [1344, 1427, 5134, 7086, 18644, 18663]}, "edge": {"target": [], "time": []}}}, "displayed_time": "16.97", "trialTime": 20959, "trial_type": "mouselab-mdp", "trial_index": 40, "time_elapsed": 2248496, "internal_node_id": "0.0-4.0-1.0-31.0"}}, {"uniqueid": "w83022416:a37633019", "current_trial": 41, "dateTime": 1691073238378, "trialdata": {"revealed_states": [], "clicked_states": [], "num_clicks_accrued": [0, 0, 0, 0, 0, 0, 0, 0, 0, 0, 0, 0, 0], "stateRewards": ["", -1, 2, -7, -12, -62, 12, -13, 5, 77, -71, 83, 1, -4, 7, 15, -42, -87, -4, 5, -25, 44, 88, -1, 4, -5, -8, 14, 51, 8, -5, 83, -24, -19], "withholdReward": false, "trial_id": "mdp_trial_33", "block": "test", "trialIndex": 34, "score": -31, "costs": 0, "simulationMode": [null, null, null, null, null], "rewards": [-1, 2, -7, -12, -13], "path": ["0", "0", "1", "2", "3", "4", "7"], "rt": [2540, 987, 504, 1855, 848], "actions": ["up", "up", "up", "right", "down"], "actionTimes": [6755, 8340, 9378, 11757, 13140], "queries": {"click": {"state": {"target": [], "time": []}, "edge": {"target": [], "time": []}}, "mouseover": {"state": {"target": [], "time": []}, "edge": {"target": [], "time": []}}, "mouseout": {"state": {"target": ["21", "0"], "time": [2696, 2755]}, "edge": {"target": [], "time": []}}}, "displayed_time": "18.22", "trialTime": 21418, "trial_type": "mouselab-mdp", "trial_index": 41, "time_elapsed": 2270723, "internal_node_id": "0.0-4.0-1.0-32.0"}}, {"uniqueid": "w83022416:a37633019", "current_trial": 42, "dateTime": 1691073308132, "trialdata": {"revealed_states": [], "clicked_states": [], "num_clicks_accrued": [0, 0, 0, 0, 0, 0, 0, 0, 0, 0, 0, 0, 0], "stateRewards": ["", -1, -3, -7, -7, -76, 30, -49, 11, -70, 56, 2, 1, 4, -3, -14, -59, -83, -25, -9, -21, -67, -73, -2, 4, 4, -9, -11, -32, 60, 9, -87, 22, -64], "withholdReward": false, "trial_id": "mdp_trial_34", "block": "test", "trialIndex": 35, "score": -95, "costs": 0, "simulationMode": [null, null, null, null, null], "rewards": [1, 4, -3, -14, -83], "path": ["0", "0", "12", "13", "14", "15", "17"], "rt": [2330, 1831, 1077, 595, 2513], "actions": ["right", "right", "right", "up", "right"], "actionTimes": [52519, 54881, 56485, 57610, 60692], "queries": {"click": {"state": {"target": [], "time": []}, "edge": {"target": [], "time": []}}, "mouseover": {"state": {"target": [], "time": []}, "edge": {"target": [], "time": []}}, "mouseout": {"state": {"target": ["0", "0"], "time": [1205, 49112]}, "edge": {"target": [], "time": []}}}, "displayed_time": "64.19", "trialTime": 68898, "trial_type": "mouselab-mdp", "trial_index": 42, "time_elapsed": 2340476, "internal_node_id": "0.0-4.0-1.0-33.0"}}, {"uniqueid": "w83022416:a37633019", "current_trial": 43, "dateTime": 1691073391500, "trialdata": {"revealed_states": [], "clicked_states": [], "num_clicks_accrued": [0, 0, 0, 0, 0, 0, 0, 0, 0, 0, 0, 0, 0], "stateRewards": ["", 1, 1, -7, -9, -44, 24, -83, -15, 44, -24, 72, -2, -3, 4, -5, 57, 55, 29, -11, 22, 12, -25, -1, 2, 7, 12, 33, -8, 47, -4, 8, 50, -4], "withholdReward": false, "trial_id": "mdp_trial_35", "block": "test", "trialIndex": 36, "score": 67, "costs": 0, "simulationMode": [null, null, null, null, null], "rewards": [-1, 2, 7, 12, 47], "path": ["0", "0", "23", "24", "25", "26", "29"], "rt": [7833, 671, 599, 691, 872], "actions": ["left", "left", "left", "up", "left"], "actionTimes": [10096, 11300, 12418, 13642, 15040], "queries": {"click": {"state": {"target": [], "time": []}, "edge": {"target": [], "time": []}}, "mouseover": {"state": {"target": [], "time": []}, "edge": {"target": [], "time": []}}, "mouseout": {"state": {"target": ["0", "12"], "time": [19568, 19761]}, "edge": {"target": [], "time": []}}}, "displayed_time": "16.26", "trialTime": 82503, "trial_type": "mouselab-mdp", "trial_index": 43, "time_elapsed": 2423844, "internal_node_id": "0.0-4.0-1.0-34.0"}}, {"uniqueid": "w83022416:a37633019", "current_trial": 44, "dateTime": 1691073475671, "trialdata": {"revealed_states": [], "clicked_states": [], "num_clicks_accrued": [0, 0, 0, 0, 0, 0, 0, 0, 0, 0, 0, 0, 0], "stateRewards": ["", 2, 3, -6, -5, -3, 55, 40, 11, 61, 11, 51, 2, -4, -6, 9, -25, 29, -15, -6, 7, -77, -2, -2, -4, 1, 14, -43, -1, 56, -12, -54, 41, -74], "withholdReward": false, "trial_id": "mdp_trial_36", "block": "test", "trialIndex": 37, "score": 34, "costs": 0, "simulationMode": [null, null, null, null, null], "rewards": [2, 3, -6, -5, 40], "path": ["0", "0", "1", "2", "3", "4", "7"], "rt": [71887, 854, 529, 989, 265], "actions": ["up", "up", "up", "right", "down"], "actionTimes": [74632, 76012, 77073, 78594, 79383], "queries": {"click": {"state": {"target": [], "time": []}, "edge": {"target": [], "time": []}}, "mouseover": {"state": {"target": ["1"], "time": [72940]}, "edge": {"target": [], "time": []}}, "mouseout": {"state": {"target": ["0", "1", "0"], "time": [72877, 81263, 81407]}, "edge": {"target": [], "time": []}}}, "displayed_time": "79.91", "trialTime": 83283, "trial_type": "mouselab-mdp", "trial_index": 44, "time_elapsed": 2508016, "internal_node_id": "0.0-4.0-1.0-35.0"}}, {"uniqueid": "w83022416:a37633019", "current_trial": 45, "dateTime": 1691073496655, "trialdata": {"revealed_states": [], "clicked_states": [], "num_clicks_accrued": [0, 0, 0, 0, 0, 0, 0, 0, 0, 0, 0, 0, 0], "stateRewards": ["", -2, -1, -4, -15, -14, -67, 32, -3, -59, 63, 31, 2, -1, -7, -15, 71, -66, -27, -3, -54, -39, 72, 2, 1, 1, -13, 77, -40, 35, -9, 35, 75, 57], "withholdReward": false, "trial_id": "mdp_trial_37", "block": "test", "trialIndex": 38, "score": -48, "costs": 0, "simulationMode": [null, null, null, null, null], "rewards": [2, -1, -7, -3, -39], "path": ["0", "0", "12", "13", "14", "19", "21"], "rt": [3327, 1804, 818, 752, 255], "actions": ["right", "right", "right", "down", "down"], "actionTimes": [6236, 8577, 9929, 11206, 12008], "queries": {"click": {"state": {"target": [], "time": []}, "edge": {"target": [], "time": []}}, "mouseover": {"state": {"target": [], "time": []}, "edge": {"target": [], "time": []}}, "mouseout": {"state": {"target": ["0"], "time": [1427]}, "edge": {"target": [], "time": []}}}, "displayed_time": "16.91", "trialTime": 20038, "trial_type": "mouselab-mdp", "trial_index": 45, "time_elapsed": 2529000, "internal_node_id": "0.0-4.0-1.0-36.0"}}, {"uniqueid": "w83022416:a37633019", "current_trial": 46, "dateTime": 1691073548404, "trialdata": {"revealed_states": [], "clicked_states": [], "num_clicks_accrued": [0, 0, 0, 0, 0, 0, 0, 0, 0, 0, 0, 0, 0], "stateRewards": ["", 1, 3, -2, 15, 51, 15, -19, 11, 67, -45, -73, 2, 4, -2, -13, 36, 9, -28, 10, -30, 31, 16, 1, 2, -1, -16, 14, -22, 36, -1, 88, -5, 45], "withholdReward": false, "trial_id": "mdp_trial_38", "block": "test", "trialIndex": 39, "score": -36, "costs": 0, "simulationMode": [null, null, null, null, null], "rewards": [1, 2, -1, -16, -22], "path": ["0", "0", "23", "24", "25", "26", "28"], "rt": [3082, 627, 402, 1763, 1035], "actions": ["left", "left", "left", "up", "right"], "actionTimes": [34226, 35376, 36306, 38622, 40184], "queries": {"click": {"state": {"target": [], "time": []}, "edge": {"target": [], "time": []}}, "mouseover": {"state": {"target": [], "time": []}, "edge": {"target": [], "time": []}}, "mouseout": {"state": {"target": [], "time": []}, "edge": {"target": [], "time": []}}}, "displayed_time": "45.15", "trialTime": 50952, "trial_type": "mouselab-mdp", "trial_index": 46, "time_elapsed": 2580748, "internal_node_id": "0.0-4.0-1.0-37.0"}}, {"uniqueid": "w83022416:a37633019", "current_trial": 47, "dateTime": 1691073585892, "trialdata": {"revealed_states": [], "clicked_states": [], "num_clicks_accrued": [0, 0, 0, 0, 0, 0, 0, 0, 0, 0, 0, 0, 0], "stateRewards": ["", -2, -1, -6, -14, -55, 78, -13, 11, 14, -71, 59, 2, 2, 6, -6, 9, 38, 14, 7, 85, 11, 68, 1, -4, -1, -3, -63, -85, 9, -2, 63, -86, -10], "withholdReward": false, "trial_id": "mdp_trial_39", "block": "test", "trialIndex": 40, "score": 102, "costs": 0, "simulationMode": [null, null, null, null, null], "rewards": [2, 2, 6, 7, 85], "path": ["0", "0", "12", "13", "14", "19", "20"], "rt": [14200, 307, 1034, 2988, 331], "actions": ["right", "right", "right", "down", "right"], "actionTimes": [20319, 21160, 22716, 26226, 27084], "queries": {"click": {"state": {"target": [], "time": []}, "edge": {"target": [], "time": []}}, "mouseover": {"state": {"target": [], "time": []}, "edge": {"target": [], "time": []}}, "mouseout": {"state": {"target": [], "time": []}, "edge": {"target": [], "time": []}}}, "displayed_time": "27.64", "trialTime": 36628, "trial_type": "mouselab-mdp", "trial_index": 47, "time_elapsed": 2618236, "internal_node_id": "0.0-4.0-1.0-38.0"}}, {"uniqueid": "w83022416:a37633019", "current_trial": 48, "dateTime": 1691073616268, "trialdata": {"revealed_states": [], "clicked_states": [], "num_clicks_accrued": [0, 0, 0, 0, 0, 0, 0, 0, 0, 0, 0, 0, 0], "stateRewards": ["", -2, -1, -2, -15, 87, 57, 29, -10, 77, -80, -7, 1, -3, 6, 14, -11, 87, -59, 4, -71, 16, -11, 2, 2, -7, 2, -47, 61, 50, 14, -20, 17, 81], "withholdReward": false, "trial_id": "mdp_trial_40", "block": "test", "trialIndex": 41, "score": -22, "costs": 0, "simulationMode": [null, null, null, null, null], "rewards": [-2, -1, -2, -10, -7], "path": ["0", "0", "1", "2", "3", "8", "11"], "rt": [4669, 1741, 466, 2804, 404], "actions": ["up", "up", "up", "left", "left"], "actionTimes": [14955, 17234, 18245, 21581, 22499], "queries": {"click": {"state": {"target": [], "time": []}, "edge": {"target": [], "time": []}}, "mouseover": {"state": {"target": [], "time": []}, "edge": {"target": [], "time": []}}, "mouseout": {"state": {"target": ["0", "0", "22"], "time": [8690, 26855, 27291]}, "edge": {"target": [], "time": []}}}, "displayed_time": "24.29", "trialTime": 29539, "trial_type": "mouselab-mdp", "trial_index": 48, "time_elapsed": 2648613, "internal_node_id": "0.0-4.0-1.0-39.0"}}, {"uniqueid": "w83022416:a37633019", "current_trial": 49, "dateTime": 1691073717390, "trialdata": {"rt": 101107, "response": {"Q0": "$-2 to $2", "Q1": "$-4 to $4", "Q2": "$-88 to $88", "Q3": "The cost was always $1.4.", "Q4": "Slightly motivated"}, "question_order": [0, 1, 2, 3, 4], "trial_id": "final_quiz_control", "trial_type": "survey-multi-choice", "trial_index": 49, "time_elapsed": 2749736, "internal_node_id": "0.0-4.0-2.0"}}, {"uniqueid": "w83022416:a37633019", "current_trial": 50, "dateTime": 1691073968541, "trialdata": {"rt": 251137, "response": {"Q0": "The node reveal was not working at times so, I used my intuition.", "Q1": "No.", "Q2": "It was very difficult, the unavailability of node reveals."}, "trial_id": "self_report_control", "trial_type": "survey-text", "trial_index": 50, "time_elapsed": 3000887, "internal_node_id": "0.0-4.0-3.0"}}, {"uniqueid": "w83022416:a37633019", "current_trial": 51, "dateTime": 1691074015376, "trialdata": {"rt": 46829, "response": {"gender": "female", "age": "31", "colorblind": "0", "effort": "0"}, "trial_type": "survey-html-form", "trial_index": 51, "time_elapsed": 3047722, "internal_node_id": "0.0-4.0-4.0"}}, {"uniqueid": "w83022416:a37633019", "current_trial": 52, "dateTime": 1691074087316, "trialdata": {"rt": 71932, "response": {"Q0": "how to reveal the node clues.", "Q1": "No.", "Q2": "Great game."}, "trial_type": "survey-text", "trial_index": 52, "time_elapsed": 3119662, "internal_node_id": "0.0-4.0-5.0"}}, {"uniqueid": "w83022416:a37633019", "current_trial": 53, "dateTime": 1691074089822, "trialdata": {"rt": 2499, "stimulus": "Press 'Finish HIT' in order to reach the completion code. Once the data has been saved, you will receive the code either in this window or in the original browser window where you started the experiment.\n", "response": 0, "trial_type": "html-button-response", "trial_index": 53, "time_elapsed": 3122168, "internal_node_id": "0.0-5.0"}}, {"uniqueid": "w83022416:a37633019", "current_trial": 54, "dateTime": 1691074090827, "trialdata": {"success": true, "trial_type": "fullscreen", "trial_index": 54, "time_elapsed": 3123173, "internal_node_id": "0.0-6.0"}}], "questiondata": {"params": {"CODE": "C6DMOQA6", "MIN_TIME": 14, "inspectCost": 1, "startTime": "Thu Aug 03 2023 15:56:04 GMT+0200 (South Africa Standard Time)", "bonusRate": 0.002, "variance": "1_2_4_8_44", "branching": "31123"}, "final_score": -39}, "eventdata": [{"eventtype": "initialized", "value": null, "timestamp": 1691070963654, "interval": 0}, {"eventtype": "window_resize", "value": [1032, 608], "timestamp": 1691070963655, "interval": 1}, {"eventtype": "window_resize", "value": [1032, 608], "timestamp": 1691070964203, "interval": 548}, {"eventtype": "window_resize", "value": [1280, 720], "timestamp": 1691070976360, "interval": 12157}, {"eventtype": "window_resize", "value": [1032, 608], "timestamp": 1691074090331, "interval": 3113971}], "useragent": "Mozilla/5.0 (Windows NT 10.0; Win64; x64) AppleWebKit/537.36 (KHTML, like Gecko) Chrome/115.0.0.0 Safari/537.36", "mode": "live", "id": "w83022416:a37633019", "status": "user data saved", "Beginhit": "2023-08-03 13:55:57.133439", "Beginexp": "2023-08-03 13:56:16.517567", "Endhit": "2023-08-03 14:48:11.535485", "psiturkStatus": 3, "browser": "<redacted>", "platform": "windows", "language": "en-US"}