{"condition": 0, "counterbalance": 0, "assignmentId": "a95980332", "workerId": "w28176366", "hitId": "h74622190", "currenttrial": 55, "bonus": 0, "data": [{"uniqueid": "w28176366:a95980332", "current_trial": 0, "dateTime": 1691142343118, "trialdata": {"success": true, "trial_type": "fullscreen", "trial_index": 0, "time_elapsed": 13042, "internal_node_id": "0.0-0.0"}}, {"uniqueid": "w28176366:a95980332", "current_trial": 1, "dateTime": 1691142366944, "trialdata": {"view_history": [{"page_index": 0, "viewing_time": 23818}], "rt": 23818, "trial_id": "exp_instructions_control", "trial_type": "instructions", "trial_index": 1, "time_elapsed": 36870, "internal_node_id": "0.0-1.0"}}, {"uniqueid": "w28176366:a95980332", "current_trial": 2, "dateTime": 1691142371979, "trialdata": {"success": true, "trial_type": "fullscreen", "trial_index": 2, "time_elapsed": 41905, "internal_node_id": "0.0-2.0-0.0"}}, {"uniqueid": "w28176366:a95980332", "current_trial": 3, "dateTime": 1691142621600, "trialdata": {"view_history": [{"page_index": 0, "viewing_time": 104238}, {"page_index": 1, "viewing_time": 81122}, {"page_index": 2, "viewing_time": 30963}, {"page_index": 3, "viewing_time": 33295}], "rt": 249619, "trial_id": "mouselab_instructions_1_control", "trial_type": "instructions", "trial_index": 3, "time_elapsed": 291526, "internal_node_id": "0.0-2.0-1.0"}}, {"uniqueid": "w28176366:a95980332", "current_trial": 4, "dateTime": 1691142667506, "trialdata": {"revealed_states": [], "clicked_states": ["12", "23"], "num_clicks_accrued": [0, 0, 0, 0, 0, 0, 0, 0, 0, 0, 0, 0, 0], "stateRewards": ["", 10, -10, 10, -10, -10, 10, 10, -10, -10, 10, -10, 10, -10, 10, -10, 10, 10, 10, -10, -10, -10, -10, 10, 10, -10, -10, 10, 10, -10, -10, 10, -10, -10], "withholdReward": false, "trial_id": "practice_1", "block": "test", "trialIndex": 0, "score": 12.5, "costs": -1, "simulationMode": [null, null, null, null, null], "rewards": [10, 10, -10, -10, 10], "path": ["0", "0", "23", "24", "25", "26", "27"], "rt": [8829, 5466, 2351, 3577, 2370], "actions": ["left", "left", "left", "up", "up"], "actionTimes": [9767, 15747, 18596, 22670, 25539], "queries": {"click": {"state": {"target": ["12", "23"], "time": [4219, 7417]}, "edge": {"target": [], "time": []}}, "mouseover": {"state": {"target": ["0", "12", "23"], "time": [2609, 3369, 5369]}, "edge": {"target": [], "time": []}}, "mouseout": {"state": {"target": ["0", "0", "12", "23", "0", "23", "24", "24", "26", "29", "29", "26", "29", "26", "28", "26", "28", "27", "27", "1", "16"], "time": [770, 3291, 4427, 7636, 11345, 11430, 11561, 36807, 37042, 37092, 37541, 37724, 37940, 37990, 38142, 39474, 40271, 40322, 41019, 41851, 42272]}, "edge": {"target": [], "time": []}}}, "displayed_time": "26.05", "trialTime": 43724, "trial_type": "mouselab-mdp", "trial_index": 4, "time_elapsed": 337431, "internal_node_id": "0.0-2.0-2.0-0.0"}}, {"uniqueid": "w28176366:a95980332", "current_trial": 5, "dateTime": 1691142703503, "trialdata": {"revealed_states": [], "clicked_states": ["3"], "num_clicks_accrued": [0, 0, 0, 0, 0, 0, 0, 0, 0, 0, 0, 0, 0], "stateRewards": ["", 10, 10, 10, 10, -10, 10, -10, -10, 10, -10, -10, 10, 10, -10, 10, 10, -10, 10, 10, 10, -10, -10, 10, 10, 10, -10, -10, -10, 10, -10, 10, -10, 10], "withholdReward": false, "trial_id": "practice_2", "block": "test", "trialIndex": 1, "score": 33, "costs": -0.5, "simulationMode": [null, null, null, null, null], "rewards": [10, 10, 10, -10, 10], "path": ["0", "0", "1", "2", "3", "8", "9"], "rt": [8606, 2419, 2106, 3085, 2443], "actions": ["up", "up", "up", "left", "up"], "actionTimes": [12003, 14930, 17547, 21126, 24060], "queries": {"click": {"state": {"target": ["3"], "time": [9092]}, "edge": {"target": [], "time": []}}, "mouseover": {"state": {"target": ["1", "2", "1", "2", "3", "2", "3", "2", "1", "0"], "time": [6734, 6799, 7169, 7453, 7968, 8269, 8552, 10816, 10932, 11116]}, "edge": {"target": [], "time": []}}, "mouseout": {"state": {"target": ["1", "2", "1", "2", "3", "2", "3", "2", "1"], "time": [6766, 7137, 7436, 7935, 8252, 8518, 10782, 10883, 10999]}, "edge": {"target": [], "time": []}}}, "displayed_time": "24.59", "trialTime": 35813, "trial_type": "mouselab-mdp", "trial_index": 5, "time_elapsed": 373428, "internal_node_id": "0.0-2.0-2.0-1.0"}}, {"uniqueid": "w28176366:a95980332", "current_trial": 6, "dateTime": 1691142763367, "trialdata": {"view_history": [{"page_index": 0, "viewing_time": 42631}, {"page_index": 1, "viewing_time": 17225}], "rt": 59857, "trial_id": "mouselab_instructions_2_control", "trial_type": "instructions", "trial_index": 6, "time_elapsed": 433293, "internal_node_id": "0.0-2.0-3.0"}}, {"uniqueid": "w28176366:a95980332", "current_trial": 7, "dateTime": 1691142810616, "trialdata": {"rt": 47243, "response": {"Q0": "The cost for clicking on nodes may vary between nodes.", "Q1": "The better I perform the higher my bonus will be.", "Q2": "No, the amount of cash at each node of the web may be different each time.", "Q3": "To get the highest total score.", "Q4": "Only before moving the spider.", "Q5": "3 seconds"}, "question_order": [0, 1, 2, 3, 4, 5], "correct": {"Q0": "The cost for clicking on nodes may vary between nodes.", "Q1": "The better I perform the higher my bonus will be.", "Q2": "No, the amount of cash at each node of the web may be different each time.", "Q3": "To get the highest total score.", "Q4": "Only before moving the spider.", "Q5": "3 seconds"}, "trial_id": "mouselab_quiz_control", "trial_type": "survey-multi-choice", "trial_index": 7, "time_elapsed": 480541, "internal_node_id": "0.0-2.0-4.0"}}, {"uniqueid": "w28176366:a95980332", "current_trial": 8, "dateTime": 1691142833386, "trialdata": {"rt": 22750, "stimulus": "\n<h1> Get ready to start the game! </h1>\n\nThank you for reading the instructions. Get ready start with the 40 rounds of this game.\n<br><br>\nIf you need to take a break, feel free to take one after the end of a round, before continuing to the next one.\n<br><br>\nRemember, the more money the spider gets, the bigger your bonus will be!\n<br><br>\n<div style='text-align: center;'>Press <code>space</code> to begin.</div>\n\n<br><br>\n(If, at any point, the <code>space</code> key does not take you to the next page, click once on the text and try again.)", "response": " ", "trial_id": "mdp_ready", "trial_type": "html-keyboard-response", "trial_index": 8, "time_elapsed": 503312, "internal_node_id": "0.0-4.0-0.0"}}, {"uniqueid": "w28176366:a95980332", "current_trial": 9, "dateTime": 1691142854365, "trialdata": {"revealed_states": [], "clicked_states": [], "num_clicks_accrued": [0, 0, 0, 0, 0, 0, 0, 0, 0, 0, 0, 0, 0], "stateRewards": ["", 1, 1, -7, -9, -44, 24, -83, -15, 44, -24, 72, -2, -3, 4, -5, 57, 55, 29, -11, 22, 12, -25, -1, 2, 7, 12, 33, -8, 47, -4, 8, 50, -4], "withholdReward": false, "trial_id": "mdp_trial_1", "block": "test", "trialIndex": 2, "score": 51, "costs": 0, "simulationMode": [null, null, null, null, null], "rewards": [-2, -3, 4, -5, 57], "path": ["0", "0", "12", "13", "14", "15", "16"], "rt": [3177, 1616, 851, 1424, 5348], "actions": ["right", "right", "right", "up", "up"], "actionTimes": [6092, 8225, 9576, 11497, 17336], "queries": {"click": {"state": {"target": [], "time": []}, "edge": {"target": [], "time": []}}, "mouseover": {"state": {"target": [], "time": []}, "edge": {"target": [], "time": []}}, "mouseout": {"state": {"target": ["0", "0", "16", "13"], "time": [2178, 12657, 16786, 16849]}, "edge": {"target": [], "time": []}}}, "displayed_time": "17.85", "trialTime": 20797, "trial_type": "mouselab-mdp", "trial_index": 9, "time_elapsed": 524290, "internal_node_id": "0.0-4.0-1.0-0.0"}}, {"uniqueid": "w28176366:a95980332", "current_trial": 10, "dateTime": 1691142874991, "trialdata": {"revealed_states": [], "clicked_states": [], "num_clicks_accrued": [0, 0, 0, 0, 0, 0, 0, 0, 0, 0, 0, 0, 0], "stateRewards": ["", 1, 4, 5, -5, 58, -80, 75, 6, 25, -39, 46, 2, -2, 4, 2, 59, 31, -22, -12, -61, 15, 72, 1, -2, -7, 8, 77, 76, -23, -7, 71, -15, -3], "withholdReward": false, "trial_id": "mdp_trial_2", "block": "test", "trialIndex": 3, "score": -30, "costs": 0, "simulationMode": [null, null, null, null, null], "rewards": [1, -2, -7, -7, -15], "path": ["0", "0", "23", "24", "25", "30", "32"], "rt": [2851, 749, 1438, 509, 389], "actions": ["left", "left", "left", "down", "down"], "actionTimes": [5187, 6447, 8385, 9388, 10284], "queries": {"click": {"state": {"target": [], "time": []}, "edge": {"target": [], "time": []}}, "mouseover": {"state": {"target": [], "time": []}, "edge": {"target": [], "time": []}}, "mouseout": {"state": {"target": ["12"], "time": [1700]}, "edge": {"target": [], "time": []}}}, "displayed_time": "16.34", "trialTime": 20448, "trial_type": "mouselab-mdp", "trial_index": 10, "time_elapsed": 544916, "internal_node_id": "0.0-4.0-1.0-1.0"}}, {"uniqueid": "w28176366:a95980332", "current_trial": 11, "dateTime": 1691142897135, "trialdata": {"revealed_states": [], "clicked_states": ["32"], "num_clicks_accrued": [0, 0, 0, 0, 0, 0, 0, 0, 0, 0, 0, 0, 0], "stateRewards": ["", 2, -1, -1, -9, -81, -30, 55, -6, 78, 25, 62, 2, 4, -1, 9, -85, 1, -19, 1, -60, 12, -34, 1, 4, -1, -13, -24, -16, -83, -8, 16, 43, 9], "withholdReward": false, "trial_id": "mdp_trial_3", "block": "test", "trialIndex": 4, "score": -91.4, "costs": -1.4, "simulationMode": [null, null, null, null, null], "rewards": [2, -1, -1, -9, -81], "path": ["0", "0", "1", "2", "3", "4", "5"], "rt": [5136, 303, 358, 135, 501], "actions": ["up", "up", "up", "right", "up"], "actionTimes": [6501, 7295, 8149, 8792, 9808], "queries": {"click": {"state": {"target": ["32"], "time": [3090]}, "edge": {"target": [], "time": []}}, "mouseover": {"state": {"target": ["32", "32", "31", "0"], "time": [2417, 2600, 4460, 4510]}, "edge": {"target": [], "time": []}}, "mouseout": {"state": {"target": ["0", "32", "32", "31", "0"], "time": [1875, 2466, 4443, 4475, 4526]}, "edge": {"target": [], "time": []}}}, "displayed_time": "15.37", "trialTime": 21941, "trial_type": "mouselab-mdp", "trial_index": 11, "time_elapsed": 567060, "internal_node_id": "0.0-4.0-1.0-2.0"}}, {"uniqueid": "w28176366:a95980332", "current_trial": 12, "dateTime": 1691142920295, "trialdata": {"revealed_states": [], "clicked_states": ["23", "12"], "num_clicks_accrued": [0, 0, 0, 0, 0, 0, 0, 0, 0, 0, 0, 0, 0], "stateRewards": ["", -2, -3, -7, 7, -54, -69, -4, -14, -77, 22, 40, -2, -1, 5, 6, -35, 50, -60, 10, -28, 75, 57, 1, -4, -2, 2, 68, 34, -18, 12, 3, -21, -43], "withholdReward": false, "trial_id": "mdp_trial_4", "block": "test", "trialIndex": 5, "score": 28.2, "costs": -2.8, "simulationMode": [null, null, null, null, null], "rewards": [1, -4, -2, 2, 34], "path": ["0", "0", "23", "24", "25", "26", "28"], "rt": [8125, 1504, 871, 601, 1037], "actions": ["left", "left", "left", "up", "right"], "actionTimes": [10132, 12132, 13497, 14612, 16159], "queries": {"click": {"state": {"target": ["23", "12"], "time": [3622, 6924]}, "edge": {"target": [], "time": []}}, "mouseover": {"state": {"target": ["23", "0", "12"], "time": [3134, 6349, 6398]}, "edge": {"target": [], "time": []}}, "mouseout": {"state": {"target": ["23", "0"], "time": [6335, 6381]}, "edge": {"target": [], "time": []}}}, "displayed_time": "16.67", "trialTime": 22943, "trial_type": "mouselab-mdp", "trial_index": 12, "time_elapsed": 590219, "internal_node_id": "0.0-4.0-1.0-3.0"}}, {"uniqueid": "w28176366:a95980332", "current_trial": 13, "dateTime": 1691142941268, "trialdata": {"revealed_states": [], "clicked_states": ["9", "5"], "num_clicks_accrued": [0, 0, 0, 0, 0, 0, 0, 0, 0, 0, 0, 0, 0], "stateRewards": ["", -1, -3, -6, 14, 41, 18, 63, -14, 80, 21, 17, -2, -4, -2, -5, 13, 70, 8, -4, -64, -10, -20, 2, -1, 4, -1, -17, -55, 42, -7, 47, 54, 15], "withholdReward": false, "trial_id": "mdp_trial_5", "block": "test", "trialIndex": 6, "score": 53.2, "costs": -2.8, "simulationMode": [null, null, null, null, null], "rewards": [-1, -3, -6, -14, 80], "path": ["0", "0", "1", "2", "3", "8", "9"], "rt": [9215, 257, 166, 1117, 114], "actions": ["up", "up", "up", "left", "up"], "actionTimes": [11064, 11833, 12508, 14141, 14754], "queries": {"click": {"state": {"target": ["9", "5"], "time": [4347, 7923]}, "edge": {"target": [], "time": []}}, "mouseover": {"state": {"target": ["8", "11", "9", "3", "2", "7", "4", "5", "5", "3", "2"], "time": [2984, 3255, 3588, 6651, 6731, 6814, 7034, 7067, 7397, 9815, 9839]}, "edge": {"target": [], "time": []}}, "mouseout": {"state": {"target": ["12", "0", "8", "11", "9", "3", "2", "7", "4", "5", "5", "5", "3", "2"], "time": [1156, 1200, 3018, 3571, 6584, 6669, 6748, 7030, 7048, 7097, 8139, 9801, 9832, 9845]}, "edge": {"target": [], "time": []}}}, "displayed_time": "15.85", "trialTime": 20756, "trial_type": "mouselab-mdp", "trial_index": 13, "time_elapsed": 611193, "internal_node_id": "0.0-4.0-1.0-4.0"}}, {"uniqueid": "w28176366:a95980332", "current_trial": 14, "dateTime": 1691142965214, "trialdata": {"revealed_states": [], "clicked_states": ["17", "29"], "num_clicks_accrued": [0, 0, 0, 0, 0, 0, 0, 0, 0, 0, 0, 0, 0], "stateRewards": ["", 1, -4, -6, 11, -20, 8, -30, 1, -38, 88, 42, 2, 3, 5, -12, -8, -74, 30, -8, 67, -19, 42, 2, -1, 4, 13, 50, -68, 2, -8, -15, 87, -46], "withholdReward": false, "trial_id": "mdp_trial_6", "block": "test", "trialIndex": 7, "score": 17.2, "costs": -2.8, "simulationMode": [null, null, null, null, null], "rewards": [2, -1, 4, 13, 2], "path": ["0", "0", "23", "24", "25", "26", "29"], "rt": [8036, 233, 191, 916, 266], "actions": ["left", "left", "left", "up", "left"], "actionTimes": [12243, 12972, 13662, 15091, 15868], "queries": {"click": {"state": {"target": ["17", "29"], "time": [6051, 9166]}, "edge": {"target": [], "time": []}}, "mouseover": {"state": {"target": ["18", "17", "18", "1", "28", "26", "29"], "time": [4913, 5515, 7915, 7957, 8208, 8596, 8624]}, "edge": {"target": [], "time": []}}, "mouseout": {"state": {"target": ["18", "17", "18", "1", "28", "26"], "time": [4933, 7902, 7927, 8075, 8582, 8612]}, "edge": {"target": [], "time": []}}}, "displayed_time": "18.21", "trialTime": 23737, "trial_type": "mouselab-mdp", "trial_index": 14, "time_elapsed": 635139, "internal_node_id": "0.0-4.0-1.0-5.0"}}, {"uniqueid": "w28176366:a95980332", "current_trial": 15, "dateTime": 1691142986565, "trialdata": {"revealed_states": [], "clicked_states": ["7", "10"], "num_clicks_accrued": [0, 0, 0, 0, 0, 0, 0, 0, 0, 0, 0, 0, 0], "stateRewards": ["", -1, -3, -3, 1, -38, 2, -53, -2, -1, -81, 70, -1, 1, -5, -9, 46, 15, 35, -1, -22, 38, 59, -2, 4, -8, 13, 1, -83, -43, 4, 76, 13, 48], "withholdReward": false, "trial_id": "mdp_trial_7", "block": "test", "trialIndex": 8, "score": -6.800000000000001, "costs": -2.8, "simulationMode": [null, null, null, null, null], "rewards": [-1, -3, -3, 1, 2], "path": ["0", "0", "1", "2", "3", "4", "6"], "rt": [8507, 6, 105, 225, 662], "actions": ["up", "up", "up", "right", "right"], "actionTimes": [10716, 11228, 11860, 12597, 13766], "queries": {"click": {"state": {"target": ["7", "10"], "time": [4440, 7411]}, "edge": {"target": [], "time": []}}, "mouseover": {"state": {"target": ["7", "7", "2", "10"], "time": [3597, 3947, 6728, 6809]}, "edge": {"target": [], "time": []}}, "mouseout": {"state": {"target": ["29", "26", "0", "0", "7", "7", "2"], "time": [1259, 1284, 1479, 3548, 3747, 6712, 6759]}, "edge": {"target": [], "time": []}}}, "displayed_time": "16.21", "trialTime": 21128, "trial_type": "mouselab-mdp", "trial_index": 15, "time_elapsed": 656490, "internal_node_id": "0.0-4.0-1.0-6.0"}}, {"uniqueid": "w28176366:a95980332", "current_trial": 16, "dateTime": 1691143012170, "trialdata": {"revealed_states": [], "clicked_states": ["14", "25"], "num_clicks_accrued": [0, 0, 0, 0, 0, 0, 0, 0, 0, 0, 0, 0, 0], "stateRewards": ["", 2, 4, 7, 7, -79, -2, -21, -5, -53, 47, -21, 1, -3, -1, 7, 83, 7, 84, -7, 80, -37, 69, 2, -4, 5, 2, 4, -20, -30, 7, 71, 44, -81], "withholdReward": false, "trial_id": "mdp_trial_8", "block": "test", "trialIndex": 9, "score": -73.8, "costs": -2.8, "simulationMode": [null, null, null, null, null], "rewards": [2, -4, 5, 7, -81], "path": ["0", "0", "23", "24", "25", "30", "33"], "rt": [7950, 431, 173, 5697, 697], "actions": ["left", "left", "left", "down", "left"], "actionTimes": [9738, 10694, 11381, 17588, 18786], "queries": {"click": {"state": {"target": ["14", "25"], "time": [3293, 6631]}, "edge": {"target": [], "time": []}}, "mouseover": {"state": {"target": ["12", "13", "14", "14", "13", "12", "31", "30", "25", "24", "23", "0", "12"], "time": [2382, 2399, 2432, 2716, 5618, 5637, 5679, 5712, 6031, 8164, 8179, 8198, 8225]}, "edge": {"target": [], "time": []}}, "mouseout": {"state": {"target": ["10", "12", "13", "14", "14", "13", "12", "31", "30", "25", "24", "23", "0"], "time": [1035, 2398, 2415, 2465, 5609, 5633, 5649, 5694, 5831, 6845, 8176, 8194, 8209]}, "edge": {"target": [], "time": []}}}, "displayed_time": "19.30", "trialTime": 25339, "trial_type": "mouselab-mdp", "trial_index": 16, "time_elapsed": 682095, "internal_node_id": "0.0-4.0-1.0-7.0"}}, {"uniqueid": "w28176366:a95980332", "current_trial": 17, "dateTime": 1691143034124, "trialdata": {"revealed_states": [], "clicked_states": ["33", "9"], "num_clicks_accrued": [0, 0, 0, 0, 0, 0, 0, 0, 0, 0, 0, 0, 0], "stateRewards": ["", -2, 4, -3, -13, 63, -36, 62, 11, 78, 34, -51, 2, -2, 8, -6, -40, -18, 31, 9, 64, 39, 79, 1, 4, -4, 15, -12, 76, 73, -10, -77, 86, -4], "withholdReward": false, "trial_id": "mdp_trial_9", "block": "test", "trialIndex": 10, "score": 85.2, "costs": -2.8, "simulationMode": [null, null, null, null, null], "rewards": [-2, 4, -3, 11, 78], "path": ["0", "0", "1", "2", "3", "8", "9"], "rt": [8415, 10, 145, 109, 1100], "actions": ["up", "up", "up", "left", "up"], "actionTimes": [11456, 11987, 12653, 13300, 14908], "queries": {"click": {"state": {"target": ["33", "9"], "time": [4872, 7864]}, "edge": {"target": [], "time": []}}, "mouseover": {"state": {"target": ["1", "7", "7", "31", "32", "33", "29", "9"], "time": [3655, 3687, 3804, 3955, 4067, 4317, 6963, 7331]}, "edge": {"target": [], "time": []}}, "mouseout": {"state": {"target": ["12", "1", "7", "7", "31", "32", "33", "29", "9"], "time": [2334, 3671, 3701, 3821, 4018, 4117, 6929, 6980, 10061]}, "edge": {"target": [], "time": []}}}, "displayed_time": "17.04", "trialTime": 21719, "trial_type": "mouselab-mdp", "trial_index": 17, "time_elapsed": 704049, "internal_node_id": "0.0-4.0-1.0-8.0"}}, {"uniqueid": "w28176366:a95980332", "current_trial": 18, "dateTime": 1691143054560, "trialdata": {"revealed_states": [], "clicked_states": ["7", "21"], "num_clicks_accrued": [0, 0, 0, 0, 0, 0, 0, 0, 0, 0, 0, 0, 0], "stateRewards": ["", 1, -1, 1, -14, -10, 67, -28, -11, 72, 40, -65, -1, 1, 1, -2, 8, -55, 34, -10, 61, 33, -15, 2, -4, 7, 4, -75, 63, -21, -16, 61, 19, 21], "withholdReward": false, "trial_id": "mdp_trial_10", "block": "test", "trialIndex": 11, "score": 21.2, "costs": -2.8, "simulationMode": [null, null, null, null, null], "rewards": [-1, 1, 1, -10, 33], "path": ["0", "0", "12", "13", "14", "19", "21"], "rt": [7204, 88, 225, 569, 291], "actions": ["right", "right", "right", "down", "down"], "actionTimes": [8794, 9388, 10124, 11204, 12005], "queries": {"click": {"state": {"target": ["7", "21"], "time": [3150, 6121]}, "edge": {"target": [], "time": []}}, "mouseover": {"state": {"target": ["7", "21", "21"], "time": [2423, 5291, 5657]}, "edge": {"target": [], "time": []}}, "mouseout": {"state": {"target": ["1", "0", "7", "21"], "time": [694, 2326, 5225, 5425]}, "edge": {"target": [], "time": []}}}, "displayed_time": "15.59", "trialTime": 20199, "trial_type": "mouselab-mdp", "trial_index": 18, "time_elapsed": 724485, "internal_node_id": "0.0-4.0-1.0-9.0"}}, {"uniqueid": "w28176366:a95980332", "current_trial": 19, "dateTime": 1691143076418, "trialdata": {"revealed_states": [], "clicked_states": [], "num_clicks_accrued": [0, 0, 0, 0, 0, 0, 0, 0, 0, 0, 0, 0, 0], "stateRewards": ["", 1, 4, -8, -5, -15, -7, 21, 13, -30, 40, -65, 1, 1, 5, -14, 35, 27, -38, -11, 36, -58, -47, -2, 4, -3, 13, -16, -49, 22, 15, -56, -44, -10], "withholdReward": false, "trial_id": "mdp_trial_11", "block": "test", "trialIndex": 12, "score": 20, "costs": 0, "simulationMode": [null, null, null, null, null], "rewards": [1, 1, 5, -14, 27], "path": ["0", "0", "12", "13", "14", "15", "17"], "rt": [6669, 35, 129, 712, 82], "actions": ["right", "right", "right", "up", "right"], "actionTimes": [9388, 9940, 10586, 11815, 12417], "queries": {"click": {"state": {"target": [], "time": []}, "edge": {"target": [], "time": []}}, "mouseover": {"state": {"target": ["12", "13", "14", "17", "17", "14", "13", "12", "0"], "time": [3847, 4094, 4579, 5713, 6095, 7694, 8193, 8405, 8647]}, "edge": {"target": [], "time": []}}, "mouseout": {"state": {"target": ["21", "0", "12", "13", "14", "17", "17", "14", "13", "12"], "time": [1743, 3797, 4080, 4193, 5696, 5745, 7643, 7710, 8389, 8422]}, "edge": {"target": [], "time": []}}}, "displayed_time": "16.72", "trialTime": 21631, "trial_type": "mouselab-mdp", "trial_index": 19, "time_elapsed": 746343, "internal_node_id": "0.0-4.0-1.0-10.0"}}, {"uniqueid": "w28176366:a95980332", "current_trial": 20, "dateTime": 1691143098046, "trialdata": {"revealed_states": [], "clicked_states": ["29", "27"], "num_clicks_accrued": [0, 0, 0, 0, 0, 0, 0, 0, 0, 0, 0, 0, 0], "stateRewards": ["", -1, -1, 7, -15, -43, -21, -84, -9, -45, -66, 2, 1, -2, 2, 8, -27, 44, -52, -5, -84, 11, 53, 1, 4, -4, 16, 83, -82, -15, -16, 68, -43, 81], "withholdReward": false, "trial_id": "mdp_trial_12", "block": "test", "trialIndex": 13, "score": 97.2, "costs": -2.8, "simulationMode": [null, null, null, null, null], "rewards": [1, 4, -4, 16, 83], "path": ["0", "0", "23", "24", "25", "26", "27"], "rt": [6014, 401, 421, 324, 37], "actions": ["left", "left", "left", "up", "up"], "actionTimes": [7706, 8627, 9561, 10397, 10942], "queries": {"click": {"state": {"target": ["29", "27"], "time": [2901, 5349]}, "edge": {"target": [], "time": []}}, "mouseover": {"state": {"target": ["28", "26", "29", "29", "27"], "time": [2016, 2063, 2118, 2447, 4796]}, "edge": {"target": [], "time": []}}, "mouseout": {"state": {"target": ["0", "0", "28", "26", "29", "29"], "time": [650, 731, 2030, 2096, 2148, 4644]}, "edge": {"target": [], "time": []}}}, "displayed_time": "15.69", "trialTime": 21382, "trial_type": "mouselab-mdp", "trial_index": 20, "time_elapsed": 767970, "internal_node_id": "0.0-4.0-1.0-11.0"}}, {"uniqueid": "w28176366:a95980332", "current_trial": 21, "dateTime": 1691143130428, "trialdata": {"revealed_states": [], "clicked_states": ["5", "21"], "num_clicks_accrued": [0, 0, 0, 0, 0, 0, 0, 0, 0, 0, 0, 0, 0], "stateRewards": ["", -1, -3, -7, -4, -85, -70, 79, 8, 84, -66, 42, 2, -2, -3, -16, -54, -66, 68, -3, 21, -14, 7, -2, -1, -3, -8, 75, 80, 86, -7, -84, 73, -16], "withholdReward": false, "trial_id": "mdp_trial_13", "block": "test", "trialIndex": 14, "score": -22.8, "costs": -2.8, "simulationMode": [null, null, null, null, null], "rewards": [2, -2, -3, -3, -14], "path": ["0", "0", "12", "13", "14", "19", "21"], "rt": [9297, 19, 98, 449, 547], "actions": ["right", "right", "right", "down", "down"], "actionTimes": [13469, 13998, 14626, 15594, 16662], "queries": {"click": {"state": {"target": ["5", "21"], "time": [6612, 9517]}, "edge": {"target": [], "time": []}}, "mouseover": {"state": {"target": ["1", "2", "5", "4", "18", "21"], "time": [5422, 5442, 6124, 8606, 8632, 9034]}, "edge": {"target": [], "time": []}}, "mouseout": {"state": {"target": ["27", "1", "0", "1", "2", "5", "4", "18", "21"], "time": [3177, 3239, 5405, 5438, 5456, 8602, 8617, 8649, 9730]}, "edge": {"target": [], "time": []}}}, "displayed_time": "18.17", "trialTime": 32113, "trial_type": "mouselab-mdp", "trial_index": 21, "time_elapsed": 800353, "internal_node_id": "0.0-4.0-1.0-12.0"}}, {"uniqueid": "w28176366:a95980332", "current_trial": 22, "dateTime": 1691143153510, "trialdata": {"revealed_states": [], "clicked_states": ["29", "33"], "num_clicks_accrued": [0, 0, 0, 0, 0, 0, 0, 0, 0, 0, 0, 0, 0], "stateRewards": ["", -2, -3, 1, -14, 48, -49, 67, -1, -35, -48, 3, -2, 1, -4, -5, 86, -84, 39, 1, 48, 41, -42, -1, -4, 2, -7, 18, -86, 17, 7, -9, 57, -69], "withholdReward": false, "trial_id": "mdp_trial_14", "block": "test", "trialIndex": 15, "score": 4.199999999999999, "costs": -2.8, "simulationMode": [null, null, null, null, null], "rewards": [-1, -4, 2, -7, 17], "path": ["0", "0", "23", "24", "25", "26", "29"], "rt": [6988, 132, 112, 263, 101], "actions": ["left", "left", "left", "up", "left"], "actionTimes": [9727, 10371, 11001, 11784, 12405], "queries": {"click": {"state": {"target": ["29", "33"], "time": [4433, 7087]}, "edge": {"target": [], "time": []}}, "mouseover": {"state": {"target": ["26", "29", "33", "30", "31"], "time": [3349, 3949, 6628, 7908, 7939]}, "edge": {"target": [], "time": []}}, "mouseout": {"state": {"target": ["21", "22", "0", "26", "29", "33", "30", "31"], "time": [1033, 1117, 2148, 3367, 6347, 7906, 7923, 7957]}, "edge": {"target": [], "time": []}}}, "displayed_time": "16.74", "trialTime": 22834, "trial_type": "mouselab-mdp", "trial_index": 22, "time_elapsed": 823434, "internal_node_id": "0.0-4.0-1.0-13.0"}}, {"uniqueid": "w28176366:a95980332", "current_trial": 23, "dateTime": 1691143180005, "trialdata": {"revealed_states": [], "clicked_states": ["17"], "num_clicks_accrued": [0, 0, 0, 0, 0, 0, 0, 0, 0, 0, 0, 0, 0], "stateRewards": ["", 2, -1, 4, -9, -43, 7, 54, -13, 38, -40, -83, -1, 2, -8, -10, 34, -33, 11, -14, -79, 65, 26, 1, 2, 4, 10, 21, 1, 86, 4, -53, 28, -29], "withholdReward": false, "trial_id": "mdp_trial_15", "block": "test", "trialIndex": 16, "score": 1.5999999999999996, "costs": -1.4, "simulationMode": [null, null, null, null, null], "rewards": [2, -1, 4, -9, 7], "path": ["0", "0", "1", "2", "3", "4", "6"], "rt": [8626, 540, 216, 89, 1127], "actions": ["up", "up", "up", "right", "right"], "actionTimes": [11949, 13007, 13733, 14339, 15977], "queries": {"click": {"state": {"target": ["17"], "time": [5169]}, "edge": {"target": [], "time": []}}, "mouseover": {"state": {"target": ["0", "12", "13", "14", "17", "13", "12", "26", "29", "23", "0", "12", "1", "2", "3", "5", "2"], "time": [3926, 3950, 4475, 4580, 4696, 6072, 6475, 7772, 7806, 8438, 8471, 8539, 9075, 9304, 9439, 9868, 11085]}, "edge": {"target": [], "time": []}}, "mouseout": {"state": {"target": ["0", "0", "12", "13", "14", "17", "13", "12", "26", "29", "23", "0", "12", "1", "2", "3", "5", "2"], "time": [2929, 3945, 3962, 4508, 4626, 5805, 6172, 7723, 7789, 8405, 8455, 8489, 9004, 9208, 9404, 9841, 11059, 11106]}, "edge": {"target": [], "time": []}}}, "displayed_time": "17.32", "trialTime": 26235, "trial_type": "mouselab-mdp", "trial_index": 23, "time_elapsed": 849931, "internal_node_id": "0.0-4.0-1.0-14.0"}}, {"uniqueid": "w28176366:a95980332", "current_trial": 24, "dateTime": 1691143201619, "trialdata": {"revealed_states": [], "clicked_states": ["10"], "num_clicks_accrued": [0, 0, 0, 0, 0, 0, 0, 0, 0, 0, 0, 0, 0], "stateRewards": ["", 2, -1, 5, 6, 10, 86, 55, 10, -45, 63, -71, 1, -2, 5, -8, -50, -72, 36, 15, 61, 12, 33, -1, -4, 6, 5, 79, -56, -21, -16, -87, 60, -81], "withholdReward": false, "trial_id": "mdp_trial_16", "block": "test", "trialIndex": 17, "score": 77.6, "costs": -1.4, "simulationMode": [null, null, null, null, null], "rewards": [2, -1, 5, 10, 63], "path": ["0", "0", "1", "2", "3", "8", "10"], "rt": [4833, 52, 107, 596, 27], "actions": ["up", "up", "up", "left", "down"], "actionTimes": [7736, 8289, 8926, 10032, 10578], "queries": {"click": {"state": {"target": ["10"], "time": [4678]}, "edge": {"target": [], "time": []}}, "mouseover": {"state": {"target": ["10", "2", "0"], "time": [4272, 6722, 6989]}, "edge": {"target": [], "time": []}}, "mouseout": {"state": {"target": ["1", "12", "0", "10", "2", "0"], "time": [1794, 2025, 2341, 6705, 6756, 7005]}, "edge": {"target": [], "time": []}}}, "displayed_time": "16.91", "trialTime": 21338, "trial_type": "mouselab-mdp", "trial_index": 24, "time_elapsed": 871544, "internal_node_id": "0.0-4.0-1.0-15.0"}}, {"uniqueid": "w28176366:a95980332", "current_trial": 25, "dateTime": 1691143224134, "trialdata": {"revealed_states": [], "clicked_states": ["18"], "num_clicks_accrued": [0, 0, 0, 0, 0, 0, 0, 0, 0, 0, 0, 0, 0], "stateRewards": ["", 2, 1, -3, 7, 46, 11, -36, 16, 71, 5, 1, 2, -2, -8, -3, -4, 6, 55, 7, 68, -54, 2, 1, 1, 6, -6, 42, -4, -84, -11, -65, 63, 25], "withholdReward": false, "trial_id": "mdp_trial_17", "block": "test", "trialIndex": 18, "score": 42.6, "costs": -1.4, "simulationMode": [null, null, null, null, null], "rewards": [2, -2, -8, -3, 55], "path": ["0", "0", "12", "13", "14", "15", "18"], "rt": [4091, 59, 124, 197, 3], "actions": ["right", "right", "right", "up", "left"], "actionTimes": [6106, 6666, 7312, 8019, 8557], "queries": {"click": {"state": {"target": ["18"], "time": [3451]}, "edge": {"target": [], "time": []}}, "mouseover": {"state": {"target": ["18", "18"], "time": [2644, 3031]}, "edge": {"target": [], "time": []}}, "mouseout": {"state": {"target": ["0", "0", "18", "18", "27", "28"], "time": [977, 2601, 2677, 19415, 21222, 21249]}, "edge": {"target": [], "time": []}}}, "displayed_time": "16.02", "trialTime": 22244, "trial_type": "mouselab-mdp", "trial_index": 25, "time_elapsed": 894060, "internal_node_id": "0.0-4.0-1.0-16.0"}}, {"uniqueid": "w28176366:a95980332", "current_trial": 26, "dateTime": 1691143242340, "trialdata": {"revealed_states": [], "clicked_states": ["27", "5"], "num_clicks_accrued": [0, 0, 0, 0, 0, 0, 0, 0, 0, 0, 0, 0, 0], "stateRewards": ["", -2, 3, -5, -7, 66, 43, -60, -4, -70, -75, 4, -1, 2, 2, -13, 54, 11, -40, -1, 77, 32, 15, -2, 3, -8, -9, -35, 83, -27, 6, -74, -34, 44], "withholdReward": false, "trial_id": "mdp_trial_18", "block": "test", "trialIndex": 19, "score": 52.2, "costs": -2.8, "simulationMode": [null, null, null, null, null], "rewards": [-2, 3, -5, -7, 66], "path": ["0", "0", "1", "2", "3", "4", "5"], "rt": [6365, 386, 199, 138, 2], "actions": ["up", "up", "up", "right", "up"], "actionTimes": [7678, 8604, 9316, 9969, 10485], "queries": {"click": {"state": {"target": ["27", "5"], "time": [2341, 5355]}, "edge": {"target": [], "time": []}}, "mouseover": {"state": {"target": ["27", "27", "28", "5", "5", "4", "7", "1"], "time": [1627, 1976, 4352, 4690, 4936, 6017, 6101, 6450]}, "edge": {"target": [], "time": []}}, "mouseout": {"state": {"target": ["0", "27", "27", "27", "28", "5", "5", "4", "7", "1"], "time": [1527, 1688, 2553, 4004, 4368, 4753, 5983, 6067, 6317, 6716]}, "edge": {"target": [], "time": []}}}, "displayed_time": "15.32", "trialTime": 17930, "trial_type": "mouselab-mdp", "trial_index": 26, "time_elapsed": 912265, "internal_node_id": "0.0-4.0-1.0-17.0"}}, {"uniqueid": "w28176366:a95980332", "current_trial": 27, "dateTime": 1691143266363, "trialdata": {"revealed_states": [], "clicked_states": ["31", "11"], "num_clicks_accrued": [0, 0, 0, 0, 0, 0, 0, 0, 0, 0, 0, 0, 0], "stateRewards": ["", 2, 3, -1, 16, -78, -11, 46, 2, -20, 79, -67, 2, 3, 2, 11, -83, -42, -58, -11, -67, -22, 55, 2, -1, -1, -16, -83, -82, 23, -11, -29, 13, 13], "withholdReward": false, "trial_id": "mdp_trial_19", "block": "test", "trialIndex": 20, "score": -100.8, "costs": -2.8, "simulationMode": [null, null, null, null, null], "rewards": [2, -1, -1, -16, -82], "path": ["0", "0", "23", "24", "25", "26", "28"], "rt": [8372, 34, 479, 180, 485], "actions": ["left", "left", "left", "up", "right"], "actionTimes": [10894, 11458, 12467, 13167, 14155], "queries": {"click": {"state": {"target": ["31", "11"], "time": [4113, 7362]}, "edge": {"target": [], "time": []}}, "mouseover": {"state": {"target": ["31", "31", "24", "28", "11", "9", "11"], "time": [3110, 3617, 6213, 6234, 6261, 6763, 6893]}, "edge": {"target": [], "time": []}}, "mouseout": {"state": {"target": ["0", "0", "31", "31", "31", "24", "28", "11", "9"], "time": [1648, 3062, 3143, 4319, 5964, 6230, 6244, 6308, 6847]}, "edge": {"target": [], "time": []}}}, "displayed_time": "16.52", "trialTime": 23763, "trial_type": "mouselab-mdp", "trial_index": 27, "time_elapsed": 936287, "internal_node_id": "0.0-4.0-1.0-18.0"}}, {"uniqueid": "w28176366:a95980332", "current_trial": 28, "dateTime": 1691143287853, "trialdata": {"revealed_states": [], "clicked_states": ["18"], "num_clicks_accrued": [0, 0, 0, 0, 0, 0, 0, 0, 0, 0, 0, 0, 0], "stateRewards": ["", -1, 3, -7, 16, -32, -74, -48, 2, 10, 15, -30, 1, 1, -2, 10, 12, -83, 67, 13, -66, 47, 65, -2, 4, 2, -14, -8, -57, 24, 9, 65, 12, 46], "withholdReward": false, "trial_id": "mdp_trial_20", "block": "test", "trialIndex": 21, "score": 75.6, "costs": -1.4, "simulationMode": [null, null, null, null, null], "rewards": [1, 1, -2, 10, 67], "path": ["0", "0", "12", "13", "14", "15", "18"], "rt": [4651, 103, 177, 163, 958], "actions": ["right", "right", "right", "up", "left"], "actionTimes": [7140, 7748, 8440, 9122, 10583], "queries": {"click": {"state": {"target": ["18"], "time": [3963]}, "edge": {"target": [], "time": []}}, "mouseover": {"state": {"target": ["12", "18", "13"], "time": [3048, 3348, 6146]}, "edge": {"target": [], "time": []}}, "mouseout": {"state": {"target": ["11", "10", "12", "18", "13", "0"], "time": [1483, 1516, 3302, 6131, 6162, 20285]}, "edge": {"target": [], "time": []}}}, "displayed_time": "16.49", "trialTime": 21229, "trial_type": "mouselab-mdp", "trial_index": 28, "time_elapsed": 957778, "internal_node_id": "0.0-4.0-1.0-19.0"}}, {"uniqueid": "w28176366:a95980332", "current_trial": 29, "dateTime": 1691143306610, "trialdata": {"revealed_states": [], "clicked_states": ["21", "32"], "num_clicks_accrued": [0, 0, 0, 0, 0, 0, 0, 0, 0, 0, 0, 0, 0], "stateRewards": ["", -2, 2, -4, -4, -59, 88, 62, -3, 69, -15, -34, 1, -2, -5, 7, -54, -20, 78, -16, -74, -53, -21, 2, -4, 2, 13, -8, -44, 26, 9, 72, 4, 17], "withholdReward": false, "trial_id": "mdp_trial_21", "block": "test", "trialIndex": 22, "score": 51.2, "costs": -2.8, "simulationMode": [null, null, null, null, null], "rewards": [-2, 2, -4, -4, 62], "path": ["0", "0", "1", "2", "3", "4", "7"], "rt": [7309, 27, 297, 60, 769], "actions": ["up", "up", "up", "right", "down"], "actionTimes": [8897, 9431, 10254, 10829, 12105], "queries": {"click": {"state": {"target": ["21", "32"], "time": [3016, 5860]}, "edge": {"target": [], "time": []}}, "mouseover": {"state": {"target": ["12", "22", "19", "21", "32"], "time": [1994, 2013, 2046, 2581, 5445]}, "edge": {"target": [], "time": []}}, "mouseout": {"state": {"target": ["0", "12", "22", "19", "21", "32"], "time": [1064, 2010, 2040, 2055, 5062, 7089]}, "edge": {"target": [], "time": []}}}, "displayed_time": "15.59", "trialTime": 18484, "trial_type": "mouselab-mdp", "trial_index": 29, "time_elapsed": 976534, "internal_node_id": "0.0-4.0-1.0-20.0"}}, {"uniqueid": "w28176366:a95980332", "current_trial": 30, "dateTime": 1691143329830, "trialdata": {"revealed_states": [], "clicked_states": ["18", "28"], "num_clicks_accrued": [0, 0, 0, 0, 0, 0, 0, 0, 0, 0, 0, 0, 0], "stateRewards": ["", -2, -4, 6, 14, -34, 49, 36, -8, -3, 32, -4, 1, -2, 1, -8, -20, -71, -57, -7, -86, -62, -16, -2, -3, -5, 11, 23, -21, 53, 5, -5, 85, 73], "withholdReward": false, "trial_id": "mdp_trial_22", "block": "test", "trialIndex": 23, "score": -95.8, "costs": -2.8, "simulationMode": [null, null, null, null, null], "rewards": [1, -2, 1, -7, -86], "path": ["0", "0", "12", "13", "14", "19", "20"], "rt": [9559, 23, 177, 4, 210], "actions": ["right", "right", "right", "down", "right"], "actionTimes": [11386, 11921, 12608, 13116, 13855], "queries": {"click": {"state": {"target": ["18", "28"], "time": [3325, 6773]}, "edge": {"target": [], "time": []}}, "mouseover": {"state": {"target": ["12", "18", "1", "28", "26", "26", "28", "24"], "time": [2644, 2806, 5688, 5722, 5755, 6070, 6370, 8527]}, "edge": {"target": [], "time": []}}, "mouseout": {"state": {"target": ["0", "12", "18", "1", "28", "26", "26", "28", "28", "24", "0", "23", "32", "0", "12", "0", "31", "32", "13", "23", "31", "13", "12"], "time": [2627, 2656, 5671, 5707, 5738, 5804, 6101, 6993, 8521, 8553, 20742, 20925, 21042, 21205, 21772, 21788, 21822, 21854, 22052, 22121, 22155, 22340, 22371]}, "edge": {"target": [], "time": []}}}, "displayed_time": "15.83", "trialTime": 22952, "trial_type": "mouselab-mdp", "trial_index": 30, "time_elapsed": 999754, "internal_node_id": "0.0-4.0-1.0-21.0"}}, {"uniqueid": "w28176366:a95980332", "current_trial": 31, "dateTime": 1691143349658, "trialdata": {"revealed_states": [], "clicked_states": ["5"], "num_clicks_accrued": [0, 0, 0, 0, 0, 0, 0, 0, 0, 0, 0, 0, 0], "stateRewards": ["", -1, 3, -4, -14, 78, 67, 2, 13, -32, 28, 39, -2, 1, -4, -4, -4, -42, -86, 11, 64, -29, -32, -1, -4, 2, -7, 5, 68, -61, 2, -21, 85, 50], "withholdReward": false, "trial_id": "mdp_trial_23", "block": "test", "trialIndex": 24, "score": 60.6, "costs": -1.4, "simulationMode": [null, null, null, null, null], "rewards": [-1, 3, -4, -14, 78], "path": ["0", "0", "1", "2", "3", "4", "5"], "rt": [4201, 4, 83, 628, 538], "actions": ["up", "up", "up", "right", "up"], "actionTimes": [6557, 7072, 7684, 8831, 9870], "queries": {"click": {"state": {"target": ["5"], "time": [3907]}, "edge": {"target": [], "time": []}}, "mouseover": {"state": {"target": ["1", "2", "3", "5"], "time": [2938, 2959, 2973, 3304]}, "edge": {"target": [], "time": []}}, "mouseout": {"state": {"target": ["1", "2", "3", "5"], "time": [2956, 2970, 3003, 5873]}, "edge": {"target": [], "time": []}}}, "displayed_time": "16.36", "trialTime": 19519, "trial_type": "mouselab-mdp", "trial_index": 31, "time_elapsed": 1019583, "internal_node_id": "0.0-4.0-1.0-22.0"}}, {"uniqueid": "w28176366:a95980332", "current_trial": 32, "dateTime": 1691143370698, "trialdata": {"revealed_states": [], "clicked_states": ["29", "16"], "num_clicks_accrued": [0, 0, 0, 0, 0, 0, 0, 0, 0, 0, 0, 0, 0], "stateRewards": ["", -2, 4, -5, -12, 85, -24, -18, -15, -78, -22, 26, -1, -1, 2, 14, -45, 52, -23, 7, -33, 24, -6, -2, -4, 5, -7, -16, 36, -39, 5, 71, -87, -23], "withholdReward": false, "trial_id": "mdp_trial_24", "block": "test", "trialIndex": 25, "score": -98.8, "costs": -2.8, "simulationMode": [null, null, null, null, null], "rewards": [-2, 4, -5, -15, -78], "path": ["0", "0", "1", "2", "3", "8", "9"], "rt": [7472, 7, 142, 11, 445], "actions": ["up", "up", "up", "left", "up"], "actionTimes": [9130, 9689, 10343, 10862, 11812], "queries": {"click": {"state": {"target": ["29", "16"], "time": [2899, 6111]}, "edge": {"target": [], "time": []}}, "mouseover": {"state": {"target": ["23", "26", "29", "25", "24", "1", "16", "18", "13"], "time": [2162, 2329, 2412, 4490, 4809, 4923, 5733, 6869, 6919]}, "edge": {"target": [], "time": []}}, "mouseout": {"state": {"target": ["0", "23", "26", "29", "25", "24", "1", "16", "16", "18", "13"], "time": [2112, 2229, 2362, 4438, 4521, 4839, 4956, 6320, 6836, 6886, 6953]}, "edge": {"target": [], "time": []}}}, "displayed_time": "15.66", "trialTime": 20765, "trial_type": "mouselab-mdp", "trial_index": 32, "time_elapsed": 1040623, "internal_node_id": "0.0-4.0-1.0-23.0"}}, {"uniqueid": "w28176366:a95980332", "current_trial": 33, "dateTime": 1691143388594, "trialdata": {"revealed_states": [], "clicked_states": ["33"], "num_clicks_accrued": [0, 0, 0, 0, 0, 0, 0, 0, 0, 0, 0, 0, 0], "stateRewards": ["", 2, -1, -4, -13, 74, 77, 3, 2, -43, -2, -11, 2, 3, 7, 11, -26, -29, -33, -3, -3, -13, -3, 1, 3, -7, 14, -59, 33, 9, -5, 34, 79, 68], "withholdReward": false, "trial_id": "mdp_trial_25", "block": "test", "trialIndex": 26, "score": 58.6, "costs": -1.4, "simulationMode": [null, null, null, null, null], "rewards": [1, 3, -7, -5, 68], "path": ["0", "0", "23", "24", "25", "30", "33"], "rt": [4204, 30, 87, 3, 149], "actions": ["left", "left", "left", "down", "left"], "actionTimes": [5991, 6536, 7139, 7653, 8333], "queries": {"click": {"state": {"target": ["33"], "time": [3201]}, "edge": {"target": [], "time": []}}, "mouseover": {"state": {"target": ["0", "31", "30", "33"], "time": [2142, 2193, 2260, 2725]}, "edge": {"target": [], "time": []}}, "mouseout": {"state": {"target": ["12", "0", "0", "31", "30", "33", "30", "12", "15"], "time": [1027, 1291, 2160, 2226, 2489, 3400, 12167, 12212, 12235]}, "edge": {"target": [], "time": []}}}, "displayed_time": "15.79", "trialTime": 17612, "trial_type": "mouselab-mdp", "trial_index": 33, "time_elapsed": 1058519, "internal_node_id": "0.0-4.0-1.0-24.0"}}, {"uniqueid": "w28176366:a95980332", "current_trial": 34, "dateTime": 1691143405804, "trialdata": {"revealed_states": [], "clicked_states": ["20"], "num_clicks_accrued": [0, 0, 0, 0, 0, 0, 0, 0, 0, 0, 0, 0, 0], "stateRewards": ["", 2, -3, 5, 11, -79, 54, 11, -9, -78, 33, 22, -2, -1, 2, 14, 43, 34, 1, 10, 49, -65, 39, -1, 1, -1, 3, -16, -2, 11, 2, 12, 48, -65], "withholdReward": false, "trial_id": "mdp_trial_26", "block": "test", "trialIndex": 27, "score": 56.6, "costs": -1.4, "simulationMode": [null, null, null, null, null], "rewards": [-2, -1, 2, 10, 49], "path": ["0", "0", "12", "13", "14", "19", "20"], "rt": [3832, 168, 154, 152, 202], "actions": ["right", "right", "right", "down", "right"], "actionTimes": [5242, 5929, 6597, 7262, 7978], "queries": {"click": {"state": {"target": ["20"], "time": [2530]}, "edge": {"target": [], "time": []}}, "mouseover": {"state": {"target": ["12", "19", "20"], "time": [1682, 1732, 2176]}, "edge": {"target": [], "time": []}}, "mouseout": {"state": {"target": ["17", "15", "0", "12", "19", "20"], "time": [449, 465, 848, 1699, 1749, 4479]}, "edge": {"target": [], "time": []}}}, "displayed_time": "15.41", "trialTime": 16914, "trial_type": "mouselab-mdp", "trial_index": 34, "time_elapsed": 1075729, "internal_node_id": "0.0-4.0-1.0-25.0"}}, {"uniqueid": "w28176366:a95980332", "current_trial": 35, "dateTime": 1691143427946, "trialdata": {"revealed_states": [], "clicked_states": ["6", "11"], "num_clicks_accrued": [0, 0, 0, 0, 0, 0, 0, 0, 0, 0, 0, 0, 0], "stateRewards": ["", -2, -2, -3, -6, -15, -11, 41, -12, -63, -76, 2, -2, -3, 8, 9, -36, -2, -18, -16, -32, -85, -17, -2, 1, 5, -16, 82, 35, -88, -1, 80, -82, -20], "withholdReward": false, "trial_id": "mdp_trial_27", "block": "test", "trialIndex": 28, "score": -97.8, "costs": -2.8, "simulationMode": [null, null, null, null, null], "rewards": [-2, -2, -3, -12, -76], "path": ["0", "0", "1", "2", "3", "8", "10"], "rt": [7665, 109, 100, 90, 151], "actions": ["up", "up", "up", "left", "down"], "actionTimes": [10996, 11613, 12220, 12826, 13487], "queries": {"click": {"state": {"target": ["6", "11"], "time": [5740, 8530]}, "edge": {"target": [], "time": []}}, "mouseover": {"state": {"target": ["1", "3", "4", "6", "4", "3", "8", "11", "28"], "time": [3811, 4414, 5113, 5242, 7774, 7793, 7824, 8194, 9138]}, "edge": {"target": [], "time": []}}, "mouseout": {"state": {"target": ["17", "12", "0", "1", "3", "4", "6", "4", "3", "8", "11", "28"], "time": [987, 2428, 3786, 3827, 4914, 5130, 7757, 7790, 7807, 7873, 9104, 9155]}, "edge": {"target": [], "time": []}}}, "displayed_time": "17.33", "trialTime": 21854, "trial_type": "mouselab-mdp", "trial_index": 35, "time_elapsed": 1097870, "internal_node_id": "0.0-4.0-1.0-26.0"}}, {"uniqueid": "w28176366:a95980332", "current_trial": 36, "dateTime": 1691143448375, "trialdata": {"revealed_states": [], "clicked_states": ["10", "7"], "num_clicks_accrued": [0, 0, 0, 0, 0, 0, 0, 0, 0, 0, 0, 0, 0], "stateRewards": ["", 2, 3, 6, -12, -29, 12, 87, 4, 35, -30, 67, 2, 3, -5, -9, 44, 69, -8, 1, 45, -8, 28, -2, -1, -8, 11, -12, -5, 81, 9, 87, 82, 88], "withholdReward": false, "trial_id": "mdp_trial_28", "block": "test", "trialIndex": 29, "score": 83.2, "costs": -2.8, "simulationMode": [null, null, null, null, null], "rewards": [2, 3, 6, -12, 87], "path": ["0", "0", "1", "2", "3", "4", "7"], "rt": [7714, 75, 336, 574, 116], "actions": ["up", "up", "up", "right", "down"], "actionTimes": [10024, 10620, 11493, 12581, 13205], "queries": {"click": {"state": {"target": ["10", "7"], "time": [4613, 7750]}, "edge": {"target": [], "time": []}}, "mouseover": {"state": {"target": ["1", "2", "8", "10", "7", "7", "2", "7"], "time": [2982, 3202, 3602, 4018, 5178, 6782, 7021, 7281]}, "edge": {"target": [], "time": []}}, "mouseout": {"state": {"target": ["0", "1", "0", "1", "2", "8", "10", "7", "7", "2", "7"], "time": [1285, 1602, 2933, 3015, 3349, 3968, 4817, 5237, 6801, 7182, 8261]}, "edge": {"target": [], "time": []}}}, "displayed_time": "16.31", "trialTime": 20126, "trial_type": "mouselab-mdp", "trial_index": 36, "time_elapsed": 1118300, "internal_node_id": "0.0-4.0-1.0-27.0"}}, {"uniqueid": "w28176366:a95980332", "current_trial": 37, "dateTime": 1691143470894, "trialdata": {"revealed_states": [], "clicked_states": ["7", "21"], "num_clicks_accrued": [0, 0, 0, 0, 0, 0, 0, 0, 0, 0, 0, 0, 0], "stateRewards": ["", -2, -2, -7, -13, -10, 49, -68, -1, 84, 70, 88, 1, 4, 4, 12, -57, 25, 30, 8, -1, -77, 57, 2, 3, 2, 3, -18, -80, 23, -15, -41, 70, 11], "withholdReward": false, "trial_id": "mdp_trial_29", "block": "test", "trialIndex": 30, "score": -36.8, "costs": -2.8, "simulationMode": [null, null, null, null, null], "rewards": [-2, -2, -7, -13, -10], "path": ["0", "0", "1", "2", "3", "4", "5"], "rt": [8496, 63, 150, 474, 549], "actions": ["up", "up", "up", "right", "up"], "actionTimes": [10431, 11016, 11701, 12691, 13749], "queries": {"click": {"state": {"target": ["7", "21"], "time": [3461, 6281]}, "edge": {"target": [], "time": []}}, "mouseover": {"state": {"target": ["7", "0", "19", "21"], "time": [3014, 4024, 5307, 5755]}, "edge": {"target": [], "time": []}}, "mouseout": {"state": {"target": ["28", "7", "0", "19", "21"], "time": [1064, 3957, 4041, 5339, 6772]}, "edge": {"target": [], "time": []}}}, "displayed_time": "15.94", "trialTime": 22210, "trial_type": "mouselab-mdp", "trial_index": 37, "time_elapsed": 1140819, "internal_node_id": "0.0-4.0-1.0-28.0"}}, {"uniqueid": "w28176366:a95980332", "current_trial": 38, "dateTime": 1691143489908, "trialdata": {"revealed_states": [], "clicked_states": ["17", "20"], "num_clicks_accrued": [0, 0, 0, 0, 0, 0, 0, 0, 0, 0, 0, 0, 0], "stateRewards": ["", 1, 1, -3, 7, 49, 78, 26, -5, 26, 48, -43, -1, -3, 2, -5, 4, -1, -60, 10, -35, 51, 81, -2, 1, -7, -5, -39, -86, -54, 4, -3, 74, 77], "withholdReward": false, "trial_id": "mdp_trial_30", "block": "test", "trialIndex": 31, "score": -5.800000000000001, "costs": -2.8, "simulationMode": [null, null, null, null, null], "rewards": [-1, -3, 2, -5, 4], "path": ["0", "0", "12", "13", "14", "15", "16"], "rt": [7024, 48, 276, 27, 100], "actions": ["right", "right", "right", "up", "up"], "actionTimes": [8894, 9464, 10275, 10793, 11422], "queries": {"click": {"state": {"target": ["17", "20"], "time": [3110, 6344]}, "edge": {"target": [], "time": []}}, "mouseover": {"state": {"target": ["12", "14", "17", "20"], "time": [2206, 2238, 2643, 5458]}, "edge": {"target": [], "time": []}}, "mouseout": {"state": {"target": ["0", "12", "14", "17", "20"], "time": [1359, 2221, 2272, 5191, 6564]}, "edge": {"target": [], "time": []}}}, "displayed_time": "15.87", "trialTime": 18725, "trial_type": "mouselab-mdp", "trial_index": 38, "time_elapsed": 1159833, "internal_node_id": "0.0-4.0-1.0-29.0"}}, {"uniqueid": "w28176366:a95980332", "current_trial": 39, "dateTime": 1691143509047, "trialdata": {"revealed_states": [], "clicked_states": [], "num_clicks_accrued": [0, 0, 0, 0, 0, 0, 0, 0, 0, 0, 0, 0, 0], "stateRewards": ["", 2, -1, -2, -5, -47, -57, -33, -11, 31, -18, -72, -2, 1, -4, -8, -46, -53, -50, 15, -85, -9, 39, -2, -2, 1, 14, -1, -8, 53, -12, -41, -74, 62], "withholdReward": false, "trial_id": "mdp_trial_31", "block": "test", "trialIndex": 32, "score": 1, "costs": 0, "simulationMode": [null, null, null, null, null], "rewards": [-2, 1, -4, 15, -9], "path": ["0", "0", "12", "13", "14", "19", "21"], "rt": [3646, 398, 101, 96, 648], "actions": ["right", "right", "right", "down", "down"], "actionTimes": [5948, 6856, 7475, 8086, 9258], "queries": {"click": {"state": {"target": [], "time": []}, "edge": {"target": [], "time": []}}, "mouseover": {"state": {"target": ["0", "22", "22"], "time": [2739, 2862, 5059]}, "edge": {"target": [], "time": []}}, "mouseout": {"state": {"target": ["13", "12", "0", "22", "22", "22", "20"], "time": [1564, 1731, 2751, 2945, 5109, 15698, 15718]}, "edge": {"target": [], "time": []}}}, "displayed_time": "16.30", "trialTime": 18821, "trial_type": "mouselab-mdp", "trial_index": 39, "time_elapsed": 1178972, "internal_node_id": "0.0-4.0-1.0-30.0"}}, {"uniqueid": "w28176366:a95980332", "current_trial": 40, "dateTime": 1691143528298, "trialdata": {"revealed_states": [], "clicked_states": ["29"], "num_clicks_accrued": [0, 0, 0, 0, 0, 0, 0, 0, 0, 0, 0, 0, 0], "stateRewards": ["", -1, -4, -6, -15, 21, -67, -63, 9, 51, 69, -14, -1, 3, 8, -8, 39, 72, 63, 15, 19, 47, 15, 1, 4, 5, 16, -18, 34, 35, -14, -80, 40, 1], "withholdReward": false, "trial_id": "mdp_trial_32", "block": "test", "trialIndex": 33, "score": 59.6, "costs": -1.4, "simulationMode": [null, null, null, null, null], "rewards": [1, 4, 5, 16, 35], "path": ["0", "0", "23", "24", "25", "26", "29"], "rt": [4553, 86, 214, 75, 974], "actions": ["left", "left", "left", "up", "left"], "actionTimes": [7568, 8176, 8886, 9480, 10962], "queries": {"click": {"state": {"target": ["29"], "time": [4422]}, "edge": {"target": [], "time": []}}, "mouseover": {"state": {"target": ["28", "26", "29", "26", "28", "18", "15"], "time": [3595, 3708, 4007, 5014, 5107, 5456, 5557]}, "edge": {"target": [], "time": []}}, "mouseout": {"state": {"target": ["17", "24", "25", "24", "23", "0", "28", "26", "29", "26", "28", "18", "15"], "time": [1731, 1780, 1995, 2027, 2161, 3462, 3648, 3848, 5011, 5074, 5158, 5507, 6745]}, "edge": {"target": [], "time": []}}}, "displayed_time": "17.02", "trialTime": 18924, "trial_type": "mouselab-mdp", "trial_index": 40, "time_elapsed": 1198223, "internal_node_id": "0.0-4.0-1.0-31.0"}}, {"uniqueid": "w28176366:a95980332", "current_trial": 41, "dateTime": 1691143546930, "trialdata": {"revealed_states": [], "clicked_states": ["33"], "num_clicks_accrued": [0, 0, 0, 0, 0, 0, 0, 0, 0, 0, 0, 0, 0], "stateRewards": ["", -1, 2, -6, 6, -82, -19, -39, -16, -83, 11, -33, -2, -2, 4, -6, -82, -1, -19, -6, -10, -67, -41, -2, 1, -7, 16, -23, -78, -52, 14, 31, -71, 74], "withholdReward": false, "trial_id": "mdp_trial_33", "block": "test", "trialIndex": 34, "score": 78.6, "costs": -1.4, "simulationMode": [null, null, null, null, null], "rewards": [-2, 1, -7, 14, 74], "path": ["0", "0", "23", "24", "25", "30", "33"], "rt": [4112, 11, 89, 543, 156], "actions": ["left", "left", "left", "down", "left"], "actionTimes": [6097, 6628, 7239, 8293, 8954], "queries": {"click": {"state": {"target": ["33"], "time": [3367]}, "edge": {"target": [], "time": []}}, "mouseover": {"state": {"target": ["31", "33"], "time": [2471, 2841]}, "edge": {"target": [], "time": []}}, "mouseout": {"state": {"target": ["0", "31", "33"], "time": [2455, 2505, 4885]}, "edge": {"target": [], "time": []}}}, "displayed_time": "15.99", "trialTime": 18317, "trial_type": "mouselab-mdp", "trial_index": 41, "time_elapsed": 1216854, "internal_node_id": "0.0-4.0-1.0-32.0"}}, {"uniqueid": "w28176366:a95980332", "current_trial": 42, "dateTime": 1691143566470, "trialdata": {"revealed_states": [], "clicked_states": ["17", "5"], "num_clicks_accrued": [0, 0, 0, 0, 0, 0, 0, 0, 0, 0, 0, 0, 0], "stateRewards": ["", 2, 2, 3, -15, 23, -14, 73, -7, -32, -20, -6, 1, 1, -5, -12, 73, 6, -84, 11, -81, -57, 13, -2, -1, -4, -8, -52, -58, 49, 13, 5, -41, -41], "withholdReward": false, "trial_id": "mdp_trial_34", "block": "test", "trialIndex": 35, "score": 12.2, "costs": -2.8, "simulationMode": [null, null, null, null, null], "rewards": [2, 2, 3, -15, 23], "path": ["0", "0", "1", "2", "3", "4", "5"], "rt": [7038, 413, 22, 78, 12], "actions": ["up", "up", "up", "right", "up"], "actionTimes": [8940, 9845, 10397, 10992, 11526], "queries": {"click": {"state": {"target": ["17", "5"], "time": [3113, 6525]}, "edge": {"target": [], "time": []}}, "mouseover": {"state": {"target": ["15", "17", "1", "5", "4", "7", "0"], "time": [2440, 2674, 5373, 6204, 7586, 7632, 7965]}, "edge": {"target": [], "time": []}}, "mouseout": {"state": {"target": ["15", "17", "1", "5", "4", "7", "0"], "time": [2457, 3870, 5419, 7573, 7616, 7666, 8015]}, "edge": {"target": [], "time": []}}}, "displayed_time": "15.91", "trialTime": 19227, "trial_type": "mouselab-mdp", "trial_index": 42, "time_elapsed": 1236395, "internal_node_id": "0.0-4.0-1.0-33.0"}}, {"uniqueid": "w28176366:a95980332", "current_trial": 43, "dateTime": 1691143585461, "trialdata": {"revealed_states": [], "clicked_states": ["20", "9"], "num_clicks_accrued": [0, 0, 0, 0, 0, 0, 0, 0, 0, 0, 0, 0, 0], "stateRewards": ["", -2, -1, -2, -15, 87, 57, 29, -10, 77, -80, -7, 1, -3, 6, 14, -11, 87, -59, 4, -71, 16, -11, 2, 2, -7, 2, -47, 61, 50, 14, -20, 17, 81], "withholdReward": false, "trial_id": "mdp_trial_35", "block": "test", "trialIndex": 36, "score": 59.2, "costs": -2.8, "simulationMode": [null, null, null, null, null], "rewards": [-2, -1, -2, -10, 77], "path": ["0", "0", "1", "2", "3", "8", "9"], "rt": [6575, 580, 143, 73, 864], "actions": ["up", "up", "up", "left", "up"], "actionTimes": [8442, 9536, 10198, 10777, 12167], "queries": {"click": {"state": {"target": ["20", "9"], "time": [3349, 6116]}, "edge": {"target": [], "time": []}}, "mouseover": {"state": {"target": ["20", "2", "8", "9", "8", "10", "23"], "time": [2600, 4242, 4742, 5565, 6508, 6525, 6556]}, "edge": {"target": [], "time": []}}, "mouseout": {"state": {"target": ["0", "20", "2", "8", "9", "8", "10", "23"], "time": [1246, 4142, 4258, 5546, 6506, 6523, 6540, 6573]}, "edge": {"target": [], "time": []}}}, "displayed_time": "15.87", "trialTime": 18676, "trial_type": "mouselab-mdp", "trial_index": 43, "time_elapsed": 1255385, "internal_node_id": "0.0-4.0-1.0-34.0"}}, {"uniqueid": "w28176366:a95980332", "current_trial": 44, "dateTime": 1691143603119, "trialdata": {"revealed_states": [], "clicked_states": ["7", "33"], "num_clicks_accrued": [0, 0, 0, 0, 0, 0, 0, 0, 0, 0, 0, 0, 0], "stateRewards": ["", 2, -1, -3, 16, -3, -16, -62, -1, 13, -26, 43, -1, 4, 3, -9, -54, -37, -3, -12, -71, -68, -57, 1, -3, 2, -9, 2, -2, -9, -11, 84, -52, 55], "withholdReward": false, "trial_id": "mdp_trial_36", "block": "test", "trialIndex": 37, "score": 41.2, "costs": -2.8, "simulationMode": [null, null, null, null, null], "rewards": [1, -3, 2, -11, 55], "path": ["0", "0", "23", "24", "25", "30", "33"], "rt": [6577, 156, 160, 26, 126], "actions": ["left", "left", "left", "down", "left"], "actionTimes": [8330, 9005, 9676, 10208, 10858], "queries": {"click": {"state": {"target": ["7", "33"], "time": [3217, 5769]}, "edge": {"target": [], "time": []}}, "mouseover": {"state": {"target": ["12", "18", "7", "2", "33", "30"], "time": [2323, 2387, 2703, 3688, 4820, 6235]}, "edge": {"target": [], "time": []}}, "mouseout": {"state": {"target": ["0", "12", "18", "7", "2", "33", "30"], "time": [2308, 2337, 2573, 3686, 3703, 6233, 6251]}, "edge": {"target": [], "time": []}}}, "displayed_time": "15.76", "trialTime": 17313, "trial_type": "mouselab-mdp", "trial_index": 44, "time_elapsed": 1273043, "internal_node_id": "0.0-4.0-1.0-35.0"}}, {"uniqueid": "w28176366:a95980332", "current_trial": 45, "dateTime": 1691143622042, "trialdata": {"revealed_states": [], "clicked_states": ["17", "9"], "num_clicks_accrued": [0, 0, 0, 0, 0, 0, 0, 0, 0, 0, 0, 0, 0], "stateRewards": ["", -2, -1, -1, 5, -54, -87, 35, 2, -8, 20, -22, 1, 3, 6, 13, -75, -32, -55, -3, 56, 62, -22, -1, -4, -1, -7, -51, 84, 70, 7, -15, 5, 55], "withholdReward": false, "trial_id": "mdp_trial_37", "block": "test", "trialIndex": 38, "score": -12.8, "costs": -2.8, "simulationMode": [null, null, null, null, null], "rewards": [-2, -1, -1, 2, -8], "path": ["0", "0", "1", "2", "3", "8", "9"], "rt": [7041, 70, 265, 14, 52], "actions": ["up", "up", "up", "left", "up"], "actionTimes": [9040, 9630, 10412, 10944, 11531], "queries": {"click": {"state": {"target": ["17", "9"], "time": [3028, 6258]}, "edge": {"target": [], "time": []}}, "mouseover": {"state": {"target": ["17", "13", "12", "27", "11", "9", "23"], "time": [2424, 4118, 4941, 5000, 5567, 5867, 6799]}, "edge": {"target": [], "time": []}}, "mouseout": {"state": {"target": ["17", "13", "12", "27", "11", "9", "23"], "time": [4085, 4135, 4968, 5016, 5616, 6732, 6815]}, "edge": {"target": [], "time": []}}}, "displayed_time": "16.00", "trialTime": 18602, "trial_type": "mouselab-mdp", "trial_index": 45, "time_elapsed": 1291966, "internal_node_id": "0.0-4.0-1.0-36.0"}}, {"uniqueid": "w28176366:a95980332", "current_trial": 46, "dateTime": 1691143641781, "trialdata": {"revealed_states": [], "clicked_states": ["6", "18"], "num_clicks_accrued": [0, 0, 0, 0, 0, 0, 0, 0, 0, 0, 0, 0, 0], "stateRewards": ["", -2, -1, -4, -15, -14, -67, 32, -3, -59, 63, 31, 2, -1, -7, -15, 71, -66, -27, -3, -54, -39, 72, 2, 1, 1, -13, 77, -40, 35, -9, 35, 75, 57], "withholdReward": false, "trial_id": "mdp_trial_38", "block": "test", "trialIndex": 39, "score": 18.2, "costs": -2.8, "simulationMode": [null, null, null, null, null], "rewards": [-2, -1, -4, -3, 31], "path": ["0", "0", "1", "2", "3", "8", "11"], "rt": [7733, 509, 113, 132, 58], "actions": ["up", "up", "up", "left", "left"], "actionTimes": [9896, 10921, 11525, 12176, 12751], "queries": {"click": {"state": {"target": ["6", "18"], "time": [3698, 6948]}, "edge": {"target": [], "time": []}}, "mouseover": {"state": {"target": ["1", "4", "6", "18", "14", "18", "18", "12"], "time": [2903, 2936, 3237, 5567, 6117, 6249, 6567, 7780]}, "edge": {"target": [], "time": []}}, "mouseout": {"state": {"target": ["0", "1", "4", "6", "6", "18", "14", "18", "18", "12"], "time": [2880, 2920, 2953, 3912, 4834, 5716, 6217, 6281, 7763, 7797]}, "edge": {"target": [], "time": []}}}, "displayed_time": "16.16", "trialTime": 19426, "trial_type": "mouselab-mdp", "trial_index": 46, "time_elapsed": 1311706, "internal_node_id": "0.0-4.0-1.0-37.0"}}, {"uniqueid": "w28176366:a95980332", "current_trial": 47, "dateTime": 1691143661420, "trialdata": {"revealed_states": [], "clicked_states": ["29", "27"], "num_clicks_accrued": [0, 0, 0, 0, 0, 0, 0, 0, 0, 0, 0, 0, 0], "stateRewards": ["", 2, -1, 5, 8, 75, -35, -77, 1, -9, -81, -58, 1, 2, -7, 5, 77, -16, 19, 16, -10, -18, 40, -2, 3, 7, -5, 64, 1, -62, 10, 27, 10, 65], "withholdReward": false, "trial_id": "mdp_trial_39", "block": "test", "trialIndex": 40, "score": 64.2, "costs": -2.8, "simulationMode": [null, null, null, null, null], "rewards": [-2, 3, 7, -5, 64], "path": ["0", "0", "23", "24", "25", "26", "27"], "rt": [6599, 60, 105, 286, 598], "actions": ["left", "left", "left", "up", "up"], "actionTimes": [9165, 9730, 10358, 11155, 12279], "queries": {"click": {"state": {"target": ["29", "27"], "time": [3974, 6796]}, "edge": {"target": [], "time": []}}, "mouseover": {"state": {"target": ["31", "30", "29", "25", "31", "26", "27", "27", "26", "25", "30"], "time": [2976, 3028, 3458, 4659, 4706, 5921, 5940, 6360, 7304, 7337, 7407]}, "edge": {"target": [], "time": []}}, "mouseout": {"state": {"target": ["0", "31", "30", "29", "25", "31", "26", "27", "27", "26", "25"], "time": [2947, 3008, 3058, 4623, 4682, 5892, 5938, 6039, 7287, 7320, 7373]}, "edge": {"target": [], "time": []}}}, "displayed_time": "16.57", "trialTime": 19341, "trial_type": "mouselab-mdp", "trial_index": 47, "time_elapsed": 1331345, "internal_node_id": "0.0-4.0-1.0-38.0"}}, {"uniqueid": "w28176366:a95980332", "current_trial": 48, "dateTime": 1691143680550, "trialdata": {"revealed_states": [], "clicked_states": ["17", "21"], "num_clicks_accrued": [0, 0, 0, 0, 0, 0, 0, 0, 0, 0, 0, 0, 0], "stateRewards": ["", 1, -2, -8, -13, 4, 34, -84, -4, -49, 88, -70, -1, 3, -4, 10, -77, 13, -34, 15, -21, -16, 27, 1, -2, 8, -8, -6, 38, -26, 6, -15, 66, -3], "withholdReward": false, "trial_id": "mdp_trial_40", "block": "test", "trialIndex": 41, "score": 18.2, "costs": -2.8, "simulationMode": [null, null, null, null, null], "rewards": [-1, 3, -4, 10, 13], "path": ["0", "0", "12", "13", "14", "15", "17"], "rt": [5772, 29, 153, 31, 31], "actions": ["right", "right", "right", "up", "right"], "actionTimes": [8206, 8749, 9421, 9966, 10518], "queries": {"click": {"state": {"target": ["17", "21"], "time": [3758, 6223]}, "edge": {"target": [], "time": []}}, "mouseover": {"state": {"target": ["12", "15", "17", "17", "19", "21"], "time": [2891, 2958, 3007, 3345, 4721, 5221]}, "edge": {"target": [], "time": []}}, "mouseout": {"state": {"target": ["30", "31", "12", "12", "15", "17", "17", "17", "19", "21"], "time": [1490, 1507, 1791, 2909, 2974, 3041, 3961, 4605, 4971, 6920]}, "edge": {"target": [], "time": []}}}, "displayed_time": "16.44", "trialTime": 18772, "trial_type": "mouselab-mdp", "trial_index": 48, "time_elapsed": 1350475, "internal_node_id": "0.0-4.0-1.0-39.0"}}, {"uniqueid": "w28176366:a95980332", "current_trial": 49, "dateTime": 1691143760116, "trialdata": {"rt": 79556, "response": {"Q0": "$-2 to $2", "Q1": "$-4 to $4", "Q2": "$-16 to $16", "Q3": "The cost was always $1.4.", "Q4": "Very motivated"}, "question_order": [0, 1, 2, 3, 4], "trial_id": "final_quiz_control", "trial_type": "survey-multi-choice", "trial_index": 49, "time_elapsed": 1430041, "internal_node_id": "0.0-4.0-2.0"}}, {"uniqueid": "w28176366:a95980332", "current_trial": 50, "dateTime": 1691144013387, "trialdata": {"rt": 253243, "response": {"Q0": "I used the nodes to guide me.\nAnd I didn't go to the same edge twice in a row", "Q1": "Yes i did, i started choosing my nodes a little faster and I trusted more, so when they were green I would to that edge", "Q2": "It was slightly difficult because of the money that I lost, it was a little discouraging but I kept on."}, "trial_id": "self_report_control", "trial_type": "survey-text", "trial_index": 50, "time_elapsed": 1683311, "internal_node_id": "0.0-4.0-3.0"}}, {"uniqueid": "w28176366:a95980332", "current_trial": 51, "dateTime": 1691144054643, "trialdata": {"rt": 41235, "response": {"gender": "female", "age": "21", "colorblind": "0", "effort": "0"}, "trial_type": "survey-html-form", "trial_index": 51, "time_elapsed": 1724569, "internal_node_id": "0.0-4.0-4.0"}}, {"uniqueid": "w28176366:a95980332", "current_trial": 52, "dateTime": 1691144184732, "trialdata": {"rt": 130069, "response": {"Q0": "Yes the concept of nodes but the practice game helped.", "Q1": "No I have never done this before, I actually enjoyed this", "Q2": "This was a very fun study, I do wish there were more edges."}, "trial_type": "survey-text", "trial_index": 52, "time_elapsed": 1854657, "internal_node_id": "0.0-4.0-5.0"}}, {"uniqueid": "w28176366:a95980332", "current_trial": 53, "dateTime": 1691144192593, "trialdata": {"rt": 7846, "stimulus": "Press 'Finish HIT' in order to reach the completion code. Once the data has been saved, you will receive the code either in this window or in the original browser window where you started the experiment.\n", "response": 0, "trial_type": "html-button-response", "trial_index": 53, "time_elapsed": 1862519, "internal_node_id": "0.0-5.0"}}, {"uniqueid": "w28176366:a95980332", "current_trial": 54, "dateTime": 1691144193602, "trialdata": {"success": true, "trial_type": "fullscreen", "trial_index": 54, "time_elapsed": 1863527, "internal_node_id": "0.0-6.0"}}], "questiondata": {"params": {"CODE": "C6DMOQA6", "MIN_TIME": 14, "inspectCost": 1, "startTime": "Fri Aug 04 2023 11:45:25 GMT+0200 (South Africa Standard Time)", "bonusRate": 0.002, "variance": "1_2_4_8_44", "branching": "31123"}, "final_score": 616.2}, "eventdata": [{"eventtype": "initialized", "value": null, "timestamp": 1691142324999, "interval": 0}, {"eventtype": "window_resize", "value": [1024, 646], "timestamp": 1691142324999, "interval": 0}, {"eventtype": "window_resize", "value": [1024, 646], "timestamp": 1691142325572, "interval": 573}, {"eventtype": "window_resize", "value": [1366, 662], "timestamp": 1691142340109, "interval": 14537}, {"eventtype": "window_resize", "value": [1366, 768], "timestamp": 1691142342346, "interval": 2237}, {"eventtype": "window_resize", "value": [1366, 662], "timestamp": 1691144193038, "interval": 1850692}], "useragent": "Mozilla/5.0 (Windows NT 10.0; Win64; x64) AppleWebKit/537.36 (KHTML, like Gecko) Chrome/115.0.0.0 Safari/537.36", "mode": "live", "id": "w28176366:a95980332", "status": "user data saved", "Beginhit": "2023-08-04 09:45:03.229233", "Beginexp": "2023-08-04 09:45:40.290667", "Endhit": "2023-08-04 10:16:32.217887", "psiturkStatus": 3, "browser": "<redacted>", "platform": "windows", "language": "en-ZA"}