{"condition": 0, "counterbalance": 0, "assignmentId": "a86741381", "workerId": "w82079040", "hitId": "h70926322", "currenttrial": 55, "bonus": 0, "data": [{"uniqueid": "w82079040:a86741381", "current_trial": 0, "dateTime": 1693481009561, "trialdata": {"success": true, "trial_type": "fullscreen", "trial_index": 0, "time_elapsed": 8220, "internal_node_id": "0.0-0.0"}}, {"uniqueid": "w82079040:a86741381", "current_trial": 1, "dateTime": 1693481034390, "trialdata": {"view_history": [{"page_index": 0, "viewing_time": 24820}], "rt": 24821, "trial_id": "exp_instructions_control", "trial_type": "instructions", "trial_index": 1, "time_elapsed": 33050, "internal_node_id": "0.0-1.0"}}, {"uniqueid": "w82079040:a86741381", "current_trial": 2, "dateTime": 1693481321308, "trialdata": {"view_history": [{"page_index": 0, "viewing_time": 91185}, {"page_index": 1, "viewing_time": 120345}, {"page_index": 2, "viewing_time": 24367}, {"page_index": 3, "viewing_time": 51016}], "rt": 286913, "trial_id": "mouselab_instructions_1_control", "trial_type": "instructions", "trial_index": 2, "time_elapsed": 319968, "internal_node_id": "0.0-2.0-1.0"}}, {"uniqueid": "w82079040:a86741381", "current_trial": 3, "dateTime": 1693481396887, "trialdata": {"revealed_states": [], "clicked_states": ["24"], "num_clicks_accrued": [0, 0, 0, 0, 0, 0, 0, 0, 0, 0, 0, 0, 0], "stateRewards": ["", -10, 10, -10, -10, -10, -10, 10, 10, 10, -10, -10, 10, -10, 10, -10, -10, 10, 10, -10, 10, -10, -10, -10, 10, 10, -10, 10, 10, 10, 10, -10, -10, 10], "withholdReward": false, "trial_id": "practice_1", "block": "test", "trialIndex": 0, "score": -27, "costs": -0.5, "simulationMode": [null, null, null, null, null], "rewards": [-10, 10, -10, -10, -10], "path": ["0", "0", "1", "2", "3", "4", "5"], "rt": [52417, 1114, 1998, 1010, 543], "actions": ["up", "up", "up", "right", "up"], "actionTimes": [57188, 58793, 61312, 62821, 63902], "queries": {"click": {"state": {"target": ["24"], "time": [13239]}, "edge": {"target": [], "time": []}}, "mouseover": {"state": {"target": ["12", "13", "12", "13", "14", "13", "12", "23", "24", "23", "23", "23", "1", "2", "2", "12", "13", "14", "13", "12", "13", "14", "13", "12", "1", "1", "2", "2", "1", "0", "23", "24", "24", "24", "31", "25", "24", "23", "23", "0", "0", "0", "0", "12", "0"], "time": [7130, 8882, 8991, 9914, 10913, 11158, 11224, 11530, 11658, 15908, 19228, 19711, 21714, 23163, 23962, 24091, 24410, 24847, 26358, 27362, 29564, 29859, 30912, 31492, 37880, 40130, 41301, 42829, 42876, 43878, 45015, 45164, 46232, 47915, 49354, 49676, 50675, 50742, 51347, 52544, 53015, 53365, 55165, 55557, 56631]}, "edge": {"target": [], "time": []}}, "mouseout": {"state": {"target": ["12", "13", "12", "13", "14", "13", "12", "23", "24", "23", "23", "23", "1", "2", "2", "12", "13", "14", "13", "12", "13", "14", "13", "12", "1", "1", "2", "2", "1", "0", "23", "24", "24", "24", "31", "25", "24", "23", "23", "0", "0", "0", "0", "12", "0", "12", "13", "14"], "time": [8227, 8958, 9525, 10301, 11131, 11190, 11258, 11609, 15882, 15942, 19398, 19757, 22432, 23413, 24010, 24314, 24668, 26325, 27029, 29148, 29794, 30828, 30991, 32558, 38214, 40478, 41464, 42860, 42892, 44111, 45109, 45449, 46631, 49348, 49410, 50647, 50709, 50948, 51915, 52694, 53058, 53378, 55209, 56299, 59175, 59192, 59208, 59230]}, "edge": {"target": [], "time": []}}}, "displayed_time": "64.39", "trialTime": 74532, "trial_type": "mouselab-mdp", "trial_index": 3, "time_elapsed": 395546, "internal_node_id": "0.0-2.0-2.0-0.0"}}, {"uniqueid": "w82079040:a86741381", "current_trial": 4, "dateTime": 1693481431598, "trialdata": {"revealed_states": [], "clicked_states": ["12", "25", "1"], "num_clicks_accrued": [0, 0, 0, 0, 0, 0, 0, 0, 0, 0, 0, 0, 0], "stateRewards": ["", -10, -10, 10, 10, -10, 10, -10, 10, 10, -10, -10, 10, 10, -10, 10, 10, -10, 10, -10, -10, -10, -10, -10, 10, 10, 10, -10, -10, 10, 10, -10, -10, 10], "withholdReward": false, "trial_id": "practice_2", "block": "test", "trialIndex": 1, "score": 12, "costs": -1.5, "simulationMode": [null, null, null, null, null], "rewards": [-10, 10, 10, 10, -10], "path": ["0", "0", "23", "24", "25", "30", "32"], "rt": [20237, 168, 578, 873, 156], "actions": ["left", "left", "left", "down", "down"], "actionTimes": [22791, 23470, 24547, 25937, 26589], "queries": {"click": {"state": {"target": ["12", "25", "1"], "time": [4642, 8609, 14647]}, "edge": {"target": [], "time": []}}, "mouseover": {"state": {"target": ["12", "24", "25", "24", "28", "26", "28", "1", "0"], "time": [4251, 7451, 8366, 10728, 11267, 11448, 13902, 14184, 17780]}, "edge": {"target": [], "time": []}}, "mouseout": {"state": {"target": ["0", "12", "24", "25", "24", "28", "26", "28", "1", "0"], "time": [2201, 6512, 7879, 10711, 10794, 11435, 11463, 13947, 16836, 17918]}, "edge": {"target": [], "time": []}}}, "displayed_time": "27.10", "trialTime": 34548, "trial_type": "mouselab-mdp", "trial_index": 4, "time_elapsed": 430257, "internal_node_id": "0.0-2.0-2.0-1.0"}}, {"uniqueid": "w82079040:a86741381", "current_trial": 5, "dateTime": 1693481486404, "trialdata": {"view_history": [{"page_index": 0, "viewing_time": 41722}, {"page_index": 1, "viewing_time": 13079}], "rt": 54802, "trial_id": "mouselab_instructions_2_control", "trial_type": "instructions", "trial_index": 5, "time_elapsed": 485064, "internal_node_id": "0.0-2.0-3.0"}}, {"uniqueid": "w82079040:a86741381", "current_trial": 6, "dateTime": 1693481550687, "trialdata": {"rt": 64275, "response": {"Q0": "The cost for clicking on nodes may vary between nodes.", "Q1": "The better I perform the higher my bonus will be.", "Q2": "No, the amount of cash at each node of the web may be different each time.", "Q3": "To get the highest total score.", "Q4": "Only before moving the spider.", "Q5": "3 seconds"}, "question_order": [0, 1, 2, 3, 4, 5], "correct": {"Q0": "The cost for clicking on nodes may vary between nodes.", "Q1": "The better I perform the higher my bonus will be.", "Q2": "No, the amount of cash at each node of the web may be different each time.", "Q3": "To get the highest total score.", "Q4": "Only before moving the spider.", "Q5": "3 seconds"}, "trial_id": "mouselab_quiz_control", "trial_type": "survey-multi-choice", "trial_index": 6, "time_elapsed": 549347, "internal_node_id": "0.0-2.0-4.0"}}, {"uniqueid": "w82079040:a86741381", "current_trial": 7, "dateTime": 1693481559926, "trialdata": {"rt": 9224, "response": {"Q0": "No"}, "question_order": [0], "trial_id": "repeat_check", "trial_type": "survey-multi-choice", "trial_index": 7, "time_elapsed": 558585, "internal_node_id": "0.0-4.0-0.0"}}, {"uniqueid": "w82079040:a86741381", "current_trial": 8, "dateTime": 1693481576812, "trialdata": {"rt": 16874, "stimulus": "\n<h1> Get ready to start the game! </h1>\n\nThank you for reading the instructions. Get ready start with the 40 rounds of this game.\n<br><br>\nIf you need to take a break, feel free to take one after the end of a round, before continuing to the next one.\n<br><br>\nRemember, the more money the spider gets, the bigger your bonus will be!\n<br><br>\n<div style='text-align: center;'>Press <code>space</code> to begin.</div>\n\n<br><br>\n(If, at any point, the <code>space</code> key does not take you to the next page, click once on the text and try again.)", "response": " ", "trial_id": "mdp_ready", "trial_type": "html-keyboard-response", "trial_index": 8, "time_elapsed": 575472, "internal_node_id": "0.0-6.0-0.0"}}, {"uniqueid": "w82079040:a86741381", "current_trial": 9, "dateTime": 1693481618246, "trialdata": {"revealed_states": [], "clicked_states": [], "num_clicks_accrued": [0, 0, 0, 0, 0, 0, 0, 0, 0, 0, 0, 0, 0], "stateRewards": ["", 2, 4, 4, -8, -36, -33, 38, 16, -51, 57, 57, 1, 3, 4, -6, 45, 68, 87, 1, 63, 24, -55, -2, 2, -6, -13, -63, -50, 8, 2, 80, 6, 60], "withholdReward": false, "trial_id": "mdp_trial_1", "block": "test", "trialIndex": 2, "score": 83, "costs": 0, "simulationMode": [null, null, null, null, null], "rewards": [2, 4, 4, 16, 57], "path": ["0", "0", "1", "2", "3", "8", "10"], "rt": [21699, 243, 3714, 1212, 803], "actions": ["up", "up", "up", "left", "down"], "actionTimes": [27666, 28416, 32635, 34366, 35677], "queries": {"click": {"state": {"target": [], "time": []}, "edge": {"target": [], "time": []}}, "mouseover": {"state": {"target": ["23"], "time": [20884]}, "edge": {"target": [], "time": []}}, "mouseout": {"state": {"target": ["23", "0", "23"], "time": [4737, 13903, 22023]}, "edge": {"target": [], "time": []}}}, "displayed_time": "36.19", "trialTime": 41278, "trial_type": "mouselab-mdp", "trial_index": 9, "time_elapsed": 616904, "internal_node_id": "0.0-6.0-1.0-0.0"}}, {"uniqueid": "w82079040:a86741381", "current_trial": 10, "dateTime": 1693481648390, "trialdata": {"revealed_states": [], "clicked_states": ["12", "24", "1"], "num_clicks_accrued": [0, 0, 0, 0, 0, 0, 0, 0, 0, 0, 0, 0, 0], "stateRewards": ["", 1, -2, -8, -13, 4, 34, -84, -4, -49, 88, -70, -1, 3, -4, 10, -77, 13, -34, 15, -21, -16, 27, 1, -2, 8, -8, -6, 38, -26, 6, -15, 66, -3], "withholdReward": false, "trial_id": "mdp_trial_2", "block": "test", "trialIndex": 3, "score": -12.2, "costs": -4.199999999999999, "simulationMode": [null, null, null, null, null], "rewards": [-1, 3, -4, 15, -21], "path": ["0", "0", "12", "13", "14", "19", "20"], "rt": [16252, 1244, 493, 1616, 413], "actions": ["right", "right", "right", "down", "right"], "actionTimes": [19607, 21345, 22344, 24464, 25378], "queries": {"click": {"state": {"target": ["12", "24", "1"], "time": [4807, 8622, 12308]}, "edge": {"target": [], "time": []}}, "mouseover": {"state": {"target": ["12", "12", "12", "13", "0", "23", "24", "25", "25", "1", "23"], "time": [3515, 4367, 4611, 6511, 7545, 7719, 8388, 10301, 10578, 11749, 15999]}, "edge": {"target": [], "time": []}}, "mouseout": {"state": {"target": ["21", "21", "0", "12", "12", "12", "13", "12", "0", "23", "24", "25", "25", "24", "1", "23", "21"], "time": [1100, 2215, 3501, 3545, 4428, 6445, 6685, 7452, 7578, 7886, 10030, 10315, 10629, 11652, 14850, 16129, 28529]}, "edge": {"target": [], "time": []}}}, "displayed_time": "25.90", "trialTime": 29984, "trial_type": "mouselab-mdp", "trial_index": 10, "time_elapsed": 647049, "internal_node_id": "0.0-6.0-1.0-1.0"}}, {"uniqueid": "w82079040:a86741381", "current_trial": 11, "dateTime": 1693481686463, "trialdata": {"revealed_states": [], "clicked_states": ["23", "12", "1", "26", "19", "32", "7", "3", "8", "2"], "num_clicks_accrued": [0, 0, 0, 0, 0, 0, 0, 0, 0, 0, 0, 0, 0], "stateRewards": ["", 1, 1, -3, 2, 22, -25, -11, -5, 50, 49, 3, 1, -1, 8, 14, -85, -30, 57, -6, -39, -16, 59, -2, -1, 5, 5, 59, -16, 8, 4, 67, 56, -9], "withholdReward": false, "trial_id": "mdp_trial_3", "block": "test", "trialIndex": 4, "score": 52, "costs": -14.000000000000002, "simulationMode": [null, null, null, null, null], "rewards": [-2, -1, 5, 5, 59], "path": ["0", "0", "23", "24", "25", "26", "27"], "rt": [28549, 246, 289, 466, 128], "actions": ["left", "left", "left", "up", "up"], "actionTimes": [31020, 31767, 32577, 33537, 34166], "queries": {"click": {"state": {"target": ["23", "12", "1", "26", "19", "32", "7", "3", "8", "2"], "time": [3622, 5346, 7037, 8732, 10514, 12363, 14060, 15614, 17631, 19182]}, "edge": {"target": [], "time": []}}, "mouseover": {"state": {"target": ["23", "0", "12", "1", "1", "26", "23", "22", "19", "22", "32", "31", "23", "7", "3", "8", "2", "1", "28", "24"], "time": [3317, 4654, 5102, 6701, 6835, 8385, 9751, 9801, 10235, 11434, 12094, 13369, 13451, 13852, 15235, 16518, 18685, 19918, 24035, 24533]}, "edge": {"target": [], "time": []}}, "mouseout": {"state": {"target": ["21", "0", "23", "0", "12", "1", "1", "26", "23", "22", "19", "22", "32", "31", "23", "7", "3", "8", "2", "1", "28", "24"], "time": [705, 3240, 4652, 4868, 6551, 6735, 7951, 9719, 9768, 9835, 11418, 11451, 13219, 13402, 13468, 15034, 16485, 18385, 19884, 23919, 24518, 25872]}, "edge": {"target": [], "time": []}}}, "displayed_time": "34.67", "trialTime": 37914, "trial_type": "mouselab-mdp", "trial_index": 11, "time_elapsed": 685122, "internal_node_id": "0.0-6.0-1.0-2.0"}}, {"uniqueid": "w82079040:a86741381", "current_trial": 12, "dateTime": 1693481717198, "trialdata": {"revealed_states": [], "clicked_states": ["12", "13", "14", "19", "21", "1"], "num_clicks_accrued": [0, 0, 0, 0, 0, 0, 0, 0, 0, 0, 0, 0, 0], "stateRewards": ["", -2, 3, -1, -9, 44, 48, -37, -3, 71, -39, 87, -1, 3, -4, 4, -21, 59, -15, -8, -1, 28, -38, 2, 4, 4, 8, -85, -72, -63, 14, 58, 63, -46], "withholdReward": false, "trial_id": "mdp_trial_4", "block": "test", "trialIndex": 5, "score": 26.6, "costs": -8.4, "simulationMode": [null, null, null, null, null], "rewards": [-2, 3, -1, -9, 44], "path": ["0", "0", "1", "2", "3", "4", "5"], "rt": [19353, 143, 169, 1771, 425], "actions": ["up", "up", "up", "right", "up"], "actionTimes": [21279, 21914, 22607, 24875, 25814], "queries": {"click": {"state": {"target": ["12", "13", "14", "19", "21", "1"], "time": [2951, 4587, 6390, 8857, 10617, 13019]}, "edge": {"target": [], "time": []}}, "mouseover": {"state": {"target": ["12", "13", "14", "19", "21", "0", "1", "2", "1", "0"], "time": [2723, 3717, 5168, 7052, 9435, 12571, 12770, 17877, 18885, 19007]}, "edge": {"target": [], "time": []}}, "mouseout": {"state": {"target": ["0", "12", "13", "14", "19", "21", "0", "1", "1", "1", "2", "1", "0", "12"], "time": [2287, 3650, 5051, 6920, 9368, 11151, 12586, 13110, 15066, 17153, 18840, 18938, 19120, 27605]}, "edge": {"target": [], "time": []}}}, "displayed_time": "26.36", "trialTime": 30580, "trial_type": "mouselab-mdp", "trial_index": 12, "time_elapsed": 715857, "internal_node_id": "0.0-6.0-1.0-3.0"}}, {"uniqueid": "w82079040:a86741381", "current_trial": 13, "dateTime": 1693481734274, "trialdata": {"revealed_states": [], "clicked_states": [], "num_clicks_accrued": [0, 0, 0, 0, 0, 0, 0, 0, 0, 0, 0, 0, 0], "stateRewards": ["", 2, 4, 7, -6, -76, -81, 2, 5, -66, -3, 36, -2, -4, 6, -2, -69, 4, -49, -6, 67, 38, -67, 2, 1, 1, 6, -68, -21, 52, -16, -16, 6, -70], "withholdReward": false, "trial_id": "mdp_trial_5", "block": "test", "trialIndex": 6, "score": -6, "costs": 0, "simulationMode": [null, null, null, null, null], "rewards": [2, 1, 1, -16, 6], "path": ["0", "0", "23", "24", "25", "30", "32"], "rt": [3144, 123, 156, 509, 204], "actions": ["left", "left", "left", "down", "down"], "actionTimes": [4582, 5225, 5893, 6894, 7591], "queries": {"click": {"state": {"target": [], "time": []}, "edge": {"target": [], "time": []}}, "mouseover": {"state": {"target": [], "time": []}, "edge": {"target": [], "time": []}}, "mouseout": {"state": {"target": ["0"], "time": [11151]}, "edge": {"target": [], "time": []}}}, "displayed_time": "15.44", "trialTime": 16905, "trial_type": "mouselab-mdp", "trial_index": 13, "time_elapsed": 732933, "internal_node_id": "0.0-6.0-1.0-4.0"}}, {"uniqueid": "w82079040:a86741381", "current_trial": 14, "dateTime": 1693481752214, "trialdata": {"revealed_states": [], "clicked_states": [], "num_clicks_accrued": [0, 0, 0, 0, 0, 0, 0, 0, 0, 0, 0, 0, 0], "stateRewards": ["", -1, 2, -6, 6, -82, -19, -39, -16, -83, 11, -33, -2, -2, 4, -6, -82, -1, -19, -6, -10, -67, -41, -2, 1, -7, 16, -23, -78, -52, 14, 31, -71, 74], "withholdReward": false, "trial_id": "mdp_trial_6", "block": "test", "trialIndex": 7, "score": -18, "costs": 0, "simulationMode": [null, null, null, null, null], "rewards": [-1, 2, -6, 6, -19], "path": ["0", "0", "1", "2", "3", "4", "6"], "rt": [5123, 970, 4258, 197, 225], "actions": ["up", "up", "up", "right", "right"], "actionTimes": [6297, 7760, 12514, 13204, 13931], "queries": {"click": {"state": {"target": [], "time": []}, "edge": {"target": [], "time": []}}, "mouseover": {"state": {"target": ["0"], "time": [1507]}, "edge": {"target": [], "time": []}}, "mouseout": {"state": {"target": ["0", "0"], "time": [919, 1754]}, "edge": {"target": [], "time": []}}}, "displayed_time": "15.18", "trialTime": 17747, "trial_type": "mouselab-mdp", "trial_index": 14, "time_elapsed": 750873, "internal_node_id": "0.0-6.0-1.0-5.0"}}, {"uniqueid": "w82079040:a86741381", "current_trial": 15, "dateTime": 1693481769448, "trialdata": {"revealed_states": [], "clicked_states": [], "num_clicks_accrued": [0, 0, 0, 0, 0, 0, 0, 0, 0, 0, 0, 0, 0], "stateRewards": ["", 1, 2, 3, 16, 63, -25, 16, -4, -14, 82, -66, -1, -3, -3, -11, -14, 19, 46, 3, -34, -82, 66, -2, -3, 4, -5, -63, 77, -37, -1, -45, -41, 84], "withholdReward": false, "trial_id": "mdp_trial_7", "block": "test", "trialIndex": 8, "score": -86, "costs": 0, "simulationMode": [null, null, null, null, null], "rewards": [-1, -3, -3, 3, -82], "path": ["0", "0", "12", "13", "14", "19", "21"], "rt": [2597, 158, 132, 426, 64], "actions": ["right", "right", "right", "down", "down"], "actionTimes": [3570, 4223, 4863, 5790, 6360], "queries": {"click": {"state": {"target": [], "time": []}, "edge": {"target": [], "time": []}}, "mouseover": {"state": {"target": ["12", "22", "19"], "time": [1610, 1760, 1778]}, "edge": {"target": [], "time": []}}, "mouseout": {"state": {"target": ["0", "12", "22", "19"], "time": [1460, 1644, 1777, 1794]}, "edge": {"target": [], "time": []}}}, "displayed_time": "14.97", "trialTime": 17039, "trial_type": "mouselab-mdp", "trial_index": 15, "time_elapsed": 768107, "internal_node_id": "0.0-6.0-1.0-6.0"}}, {"uniqueid": "w82079040:a86741381", "current_trial": 16, "dateTime": 1693481807852, "trialdata": {"revealed_states": [], "clicked_states": ["23", "1", "28", "15", "19", "2", "30"], "num_clicks_accrued": [0, 0, 0, 0, 0, 0, 0, 0, 0, 0, 0, 0, 0], "stateRewards": ["", 2, -4, 4, 9, 69, 9, -75, 12, -86, 66, 25, -1, 3, 2, -13, -88, -3, 1, 4, -69, 49, -84, 2, -1, 4, 2, -18, -81, -52, -15, -69, -54, 25], "withholdReward": false, "trial_id": "mdp_trial_8", "block": "test", "trialIndex": 9, "score": -81.8, "costs": -9.8, "simulationMode": [null, null, null, null, null], "rewards": [2, -4, 4, 12, -86], "path": ["0", "0", "1", "2", "3", "8", "9"], "rt": [28644, 19, 113, 470, 347], "actions": ["up", "up", "up", "left", "up"], "actionTimes": [29936, 30461, 31106, 32096, 32955], "queries": {"click": {"state": {"target": ["23", "1", "28", "15", "19", "2", "30"], "time": [3025, 5467, 8468, 12287, 15116, 18576, 21819]}, "edge": {"target": [], "time": []}}, "mouseover": {"state": {"target": ["12", "1", "23", "1", "28", "2", "7", "18", "15", "14", "19", "12", "1", "2", "24", "30", "31", "12", "7", "7", "4", "3", "7", "13"], "time": [1558, 1972, 2744, 4878, 8147, 11111, 11411, 11789, 12096, 14539, 14622, 17939, 18125, 18330, 21123, 21628, 24728, 24994, 25478, 25905, 26054, 26373, 28706, 28926]}, "edge": {"target": [], "time": []}}, "mouseout": {"state": {"target": ["22", "0", "12", "1", "23", "1", "28", "2", "7", "18", "15", "15", "14", "19", "12", "1", "2", "2", "24", "30", "31", "12", "7", "7", "4", "3", "7", "13"], "time": [420, 1543, 1689, 2246, 3246, 7860, 10922, 11227, 11490, 11855, 12366, 14511, 14572, 17877, 17957, 18171, 20843, 20959, 21261, 21872, 24773, 25057, 25576, 25971, 26122, 28661, 28739, 33865]}, "edge": {"target": [], "time": []}}}, "displayed_time": "33.48", "trialTime": 38170, "trial_type": "mouselab-mdp", "trial_index": 16, "time_elapsed": 806510, "internal_node_id": "0.0-6.0-1.0-7.0"}}, {"uniqueid": "w82079040:a86741381", "current_trial": 17, "dateTime": 1693481847163, "trialdata": {"revealed_states": [], "clicked_states": ["23", "12", "2", "9", "25", "32", "21", "17", "16", "5"], "num_clicks_accrued": [0, 0, 0, 0, 0, 0, 0, 0, 0, 0, 0, 0, 0], "stateRewards": ["", -2, -4, -8, 8, 63, -50, -19, -7, -17, -31, 31, 1, 3, -5, 12, -35, -63, -29, -4, -17, -75, -79, -2, -3, -2, 8, -3, -85, 10, -2, -82, -82, 56], "withholdReward": false, "trial_id": "mdp_trial_9", "block": "test", "trialIndex": 10, "score": 43, "costs": -14.000000000000002, "simulationMode": [null, null, null, null, null], "rewards": [-2, -4, -8, 8, 63], "path": ["0", "0", "1", "2", "3", "4", "5"], "rt": [30550, 224, 305, 639, 570], "actions": ["up", "up", "up", "right", "up"], "actionTimes": [31961, 32684, 33501, 34634, 35699], "queries": {"click": {"state": {"target": ["23", "12", "2", "9", "25", "32", "21", "17", "16", "5"], "time": [2299, 4988, 7555, 10337, 13108, 15812, 18818, 21860, 24758, 27848]}, "edge": {"target": [], "time": []}}, "mouseover": {"state": {"target": ["23", "0", "12", "1", "2", "3", "9", "28", "30", "25", "30", "32", "21", "21", "19", "14", "15", "17", "16", "16", "4", "4", "5", "4", "18", "14"], "time": [1923, 4540, 4757, 7124, 7313, 9944, 10127, 12558, 12660, 12925, 15289, 15339, 18477, 18740, 21059, 21076, 21192, 21475, 24007, 24640, 27112, 27494, 27659, 30710, 30791, 30825]}, "edge": {"target": [], "time": []}}, "mouseout": {"state": {"target": ["13", "12", "0", "0", "23", "0", "12", "1", "2", "3", "9", "28", "30", "25", "25", "30", "32", "21", "21", "19", "14", "15", "17", "16", "16", "4", "4", "5", "4", "18", "14"], "time": [777, 825, 876, 1896, 4508, 4724, 7093, 7140, 9891, 9959, 12496, 12574, 12827, 13123, 15259, 15306, 15878, 18493, 21010, 21074, 21107, 21346, 23953, 24024, 26999, 27347, 27511, 30591, 30741, 30807, 30840]}, "edge": {"target": [], "time": []}}}, "displayed_time": "36.20", "trialTime": 39116, "trial_type": "mouselab-mdp", "trial_index": 17, "time_elapsed": 845822, "internal_node_id": "0.0-6.0-1.0-8.0"}}, {"uniqueid": "w82079040:a86741381", "current_trial": 18, "dateTime": 1693481874055, "trialdata": {"revealed_states": [], "clicked_states": ["5", "9", "17", "29", "27", "32"], "num_clicks_accrued": [0, 0, 0, 0, 0, 0, 0, 0, 0, 0, 0, 0, 0], "stateRewards": ["", 2, 3, 6, -5, -74, -53, 17, -12, 46, 44, 18, -2, 4, 1, -8, 22, -23, -49, 9, -45, 55, 81, 1, -1, -7, -16, -83, -71, -45, 2, 51, 82, 61], "withholdReward": false, "trial_id": "mdp_trial_10", "block": "test", "trialIndex": 11, "score": 68.6, "costs": -8.4, "simulationMode": [null, null, null, null, null], "rewards": [1, -1, -7, 2, 82], "path": ["0", "0", "23", "24", "25", "30", "32"], "rt": [18682, 161, 148, 626, 153], "actions": ["left", "left", "left", "down", "down"], "actionTimes": [20070, 20735, 21388, 22517, 23192], "queries": {"click": {"state": {"target": ["5", "9", "17", "29", "27", "32"], "time": [2404, 4954, 7787, 10721, 13114, 15620]}, "edge": {"target": [], "time": []}}, "mouseover": {"state": {"target": ["1", "7", "5", "9", "3", "4", "16", "17", "29", "27", "26", "25", "30", "32", "32", "31"], "time": [1752, 1784, 2273, 4711, 7069, 7102, 7326, 7474, 10253, 12868, 15038, 15055, 15072, 15103, 15492, 18454]}, "edge": {"target": [], "time": []}}, "mouseout": {"state": {"target": ["21", "0", "1", "7", "5", "9", "3", "4", "16", "17", "17", "29", "27", "26", "25", "30", "32", "32", "31"], "time": [654, 1720, 1768, 1801, 4435, 7025, 7086, 7119, 7371, 7841, 9854, 12802, 15026, 15053, 15070, 15086, 15153, 18371, 18492]}, "edge": {"target": [], "time": []}}}, "displayed_time": "23.71", "trialTime": 26702, "trial_type": "mouselab-mdp", "trial_index": 18, "time_elapsed": 872713, "internal_node_id": "0.0-6.0-1.0-9.0"}}, {"uniqueid": "w82079040:a86741381", "current_trial": 19, "dateTime": 1693481911260, "trialdata": {"revealed_states": [], "clicked_states": ["29", "9", "5", "17", "21", "32", "3", "11", "6"], "num_clicks_accrued": [0, 0, 0, 0, 0, 0, 0, 0, 0, 0, 0, 0, 0], "stateRewards": ["", -2, -3, 8, 14, -73, 73, 84, -12, -2, -50, -17, 2, 1, -2, -9, -44, -27, -33, 16, -63, -47, -66, -2, 1, 4, -5, -33, -11, 50, 9, 38, -79, 31], "withholdReward": false, "trial_id": "mdp_trial_11", "block": "test", "trialIndex": 12, "score": 77.4, "costs": -12.600000000000001, "simulationMode": [null, null, null, null, null], "rewards": [-2, -3, 8, 14, 73], "path": ["0", "0", "1", "2", "3", "4", "6"], "rt": [28796, 145, 178, 535, 135], "actions": ["up", "up", "up", "right", "right"], "actionTimes": [30499, 31143, 31825, 32865, 33500], "queries": {"click": {"state": {"target": ["29", "9", "5", "17", "21", "32", "3", "11", "6"], "time": [3110, 5983, 8351, 11318, 13832, 16102, 19231, 21685, 24249]}, "edge": {"target": [], "time": []}}, "mouseover": {"state": {"target": ["23", "24", "25", "26", "29", "27", "11", "9", "5", "6", "16", "17", "17", "21", "32", "10", "3", "8", "11", "8", "4", "6", "7", "1", "23", "24", "28"], "time": [2211, 2276, 2459, 2692, 2880, 5392, 5492, 5759, 8146, 10310, 10396, 10665, 11110, 13546, 15781, 18444, 18746, 21211, 21480, 23560, 23610, 23893, 26663, 26794, 26895, 28466, 28493]}, "edge": {"target": [], "time": []}}, "mouseout": {"state": {"target": ["23", "23", "0", "23", "24", "25", "26", "29", "27", "11", "9", "5", "6", "16", "17", "17", "21", "32", "10", "3", "8", "11", "8", "4", "6", "7", "1", "23", "24", "28", "31"], "time": [680, 1095, 2183, 2243, 2327, 2581, 2760, 5331, 5443, 5526, 8027, 10283, 10360, 10426, 10677, 13227, 15683, 18311, 18459, 21184, 21260, 23543, 23576, 23643, 26600, 26751, 26827, 26911, 28477, 28511, 35464]}, "edge": {"target": [], "time": []}}}, "displayed_time": "34.00", "trialTime": 37000, "trial_type": "mouselab-mdp", "trial_index": 19, "time_elapsed": 909919, "internal_node_id": "0.0-6.0-1.0-10.0"}}, {"uniqueid": "w82079040:a86741381", "current_trial": 20, "dateTime": 1693481951282, "trialdata": {"revealed_states": [], "clicked_states": ["29", "9", "5", "33", "32", "31", "21", "17", "16", "18", "12"], "num_clicks_accrued": [0, 0, 0, 0, 0, 0, 0, 0, 0, 0, 0, 0, 0], "stateRewards": ["", 2, -2, 7, -11, -76, -65, -23, 16, -58, 30, 81, 1, 2, 7, 14, 9, 55, -2, 6, 11, -15, 31, -1, -1, -3, 2, 15, 2, 46, 15, 18, 45, -34], "withholdReward": false, "trial_id": "mdp_trial_12", "block": "test", "trialIndex": 13, "score": 63.599999999999994, "costs": -15.400000000000002, "simulationMode": [null, null, null, null, null], "rewards": [1, 2, 7, 14, 55], "path": ["0", "0", "12", "13", "14", "15", "17"], "rt": [31000, 757, 220, 817, 474], "actions": ["right", "right", "right", "up", "right"], "actionTimes": [31993, 33268, 34027, 35357, 36334], "queries": {"click": {"state": {"target": ["29", "9", "5", "33", "32", "31", "21", "17", "16", "18", "12"], "time": [2183, 4932, 7606, 10156, 12461, 14846, 18052, 20497, 23077, 25579, 28224]}, "edge": {"target": [], "time": []}}, "mouseover": {"state": {"target": ["23", "29", "27", "8", "9", "4", "5", "2", "23", "31", "31", "30", "33", "32", "31", "23", "0", "21", "21", "19", "17", "16", "18", "12"], "time": [1522, 1904, 4244, 4508, 4721, 7226, 7439, 9473, 9522, 9554, 9728, 9846, 9923, 12291, 14608, 17056, 17459, 17557, 17746, 19971, 20343, 22505, 25189, 27961]}, "edge": {"target": [], "time": []}}, "mouseout": {"state": {"target": ["0", "23", "29", "27", "8", "9", "9", "4", "5", "2", "23", "31", "31", "30", "33", "32", "31", "23", "0", "21", "21", "19", "17", "16", "18", "12"], "time": [1510, 1554, 4191, 4272, 4659, 4989, 7077, 7375, 9457, 9489, 9538, 9571, 9756, 9871, 12088, 12472, 16976, 17398, 17473, 17573, 19944, 19988, 20592, 25127, 27878, 30488]}, "edge": {"target": [], "time": []}}}, "displayed_time": "36.83", "trialTime": 39831, "trial_type": "mouselab-mdp", "trial_index": 20, "time_elapsed": 949941, "internal_node_id": "0.0-6.0-1.0-11.0"}}, {"uniqueid": "w82079040:a86741381", "current_trial": 21, "dateTime": 1693481972023, "trialdata": {"revealed_states": [], "clicked_states": ["9"], "num_clicks_accrued": [0, 0, 0, 0, 0, 0, 0, 0, 0, 0, 0, 0, 0], "stateRewards": ["", -2, -1, -5, 10, -36, -70, 68, -9, 86, 71, -10, 2, -4, 7, -7, 66, 44, -66, -13, -69, 43, 15, -2, 2, 6, -13, 62, 57, 50, -10, -69, 42, -72], "withholdReward": false, "trial_id": "mdp_trial_13", "block": "test", "trialIndex": 14, "score": 67.6, "costs": -1.4, "simulationMode": [null, null, null, null, null], "rewards": [-2, -1, -5, -9, 86], "path": ["0", "0", "1", "2", "3", "8", "9"], "rt": [4824, 100, 218, 457, 367], "actions": ["up", "up", "up", "left", "up"], "actionTimes": [5995, 6606, 7341, 8314, 9172], "queries": {"click": {"state": {"target": ["9"], "time": [2465]}, "edge": {"target": [], "time": []}}, "mouseover": {"state": {"target": ["1", "4", "9", "8", "2", "1"], "time": [1686, 1840, 2241, 4887, 4969, 4989]}, "edge": {"target": [], "time": []}}, "mouseout": {"state": {"target": ["0", "1", "4", "9", "8", "2", "1"], "time": [1642, 1702, 2011, 4853, 4918, 4986, 5004]}, "edge": {"target": [], "time": []}}}, "displayed_time": "15.17", "trialTime": 20536, "trial_type": "mouselab-mdp", "trial_index": 21, "time_elapsed": 970682, "internal_node_id": "0.0-6.0-1.0-12.0"}}, {"uniqueid": "w82079040:a86741381", "current_trial": 22, "dateTime": 1693481989088, "trialdata": {"revealed_states": [], "clicked_states": ["17", "29"], "num_clicks_accrued": [0, 0, 0, 0, 0, 0, 0, 0, 0, 0, 0, 0, 0], "stateRewards": ["", 2, -3, -8, 14, -7, -51, 73, 2, 36, 36, -43, -1, 3, -4, 1, 6, 87, -65, 15, 61, -42, -83, -1, 3, -2, -7, 30, -48, 35, 13, 26, 60, 78], "withholdReward": false, "trial_id": "mdp_trial_14", "block": "test", "trialIndex": 15, "score": 83.2, "costs": -2.8, "simulationMode": [null, null, null, null, null], "rewards": [-1, 3, -4, 1, 87], "path": ["0", "0", "12", "13", "14", "15", "17"], "rt": [6958, 375, 288, 618, 415], "actions": ["right", "right", "right", "up", "right"], "actionTimes": [8082, 8964, 9760, 10874, 11806], "queries": {"click": {"state": {"target": ["17", "29"], "time": [2198, 5108]}, "edge": {"target": [], "time": []}}, "mouseover": {"state": {"target": ["17", "15", "28", "26", "29", "25"], "time": [1755, 4286, 4608, 4652, 4818, 7154]}, "edge": {"target": [], "time": []}}, "mouseout": {"state": {"target": ["0", "17", "15", "28", "26", "29", "25"], "time": [374, 4271, 4302, 4635, 4790, 7126, 7185]}, "edge": {"target": [], "time": []}}}, "displayed_time": "15.13", "trialTime": 16833, "trial_type": "mouselab-mdp", "trial_index": 22, "time_elapsed": 987747, "internal_node_id": "0.0-6.0-1.0-13.0"}}, {"uniqueid": "w82079040:a86741381", "current_trial": 23, "dateTime": 1693482052263, "trialdata": {"revealed_states": [], "clicked_states": ["29", "32", "27", "9", "5", "6", "21", "17", "18", "28", "33", "31", "10", "7"], "num_clicks_accrued": [0, 0, 0, 0, 0, 0, 0, 0, 0, 0, 0, 0, 0], "stateRewards": ["", 1, 1, 6, -14, -40, 37, 16, -13, 33, -68, 49, 2, 4, 3, 6, 55, 27, 32, 10, -65, 20, -87, 2, 1, -6, -5, -42, 12, 29, -8, 16, 76, -33], "withholdReward": false, "trial_id": "mdp_trial_15", "block": "test", "trialIndex": 16, "score": 45.400000000000006, "costs": -19.599999999999998, "simulationMode": [null, null, null, null, null], "rewards": [2, 1, -6, -8, 76], "path": ["0", "0", "23", "24", "25", "30", "32"], "rt": [53302, 182, 91, 1207, 193], "actions": ["left", "left", "left", "down", "down"], "actionTimes": [56845, 57544, 58154, 59852, 60540], "queries": {"click": {"state": {"target": ["29", "32", "27", "9", "5", "6", "21", "17", "18", "28", "33", "31", "10", "7"], "time": [4642, 7139, 9671, 12064, 14473, 17019, 20177, 22765, 25161, 29391, 32120, 34616, 38722, 40894]}, "edge": {"target": [], "time": []}}, "mouseover": {"state": {"target": ["23", "24", "25", "29", "32", "30", "25", "26", "27", "11", "9", "5", "6", "18", "13", "19", "21", "21", "17", "17", "15", "18", "13", "12", "0", "23", "0", "1", "28", "25", "33", "30", "31", "32", "32", "13", "13", "12", "8", "10", "2", "7", "28", "26", "25", "24", "23", "0", "12"], "time": [4029, 4058, 4092, 4559, 6980, 9077, 9127, 9242, 9445, 11592, 11881, 14208, 16608, 19260, 19310, 19547, 19711, 19877, 22265, 22648, 24758, 24908, 27394, 27426, 27459, 27508, 27776, 28694, 29200, 31593, 31676, 34128, 34340, 36626, 36830, 37080, 37594, 37859, 38396, 38576, 40591, 40641, 43543, 43760, 43997, 44544, 44592, 44695, 44842]}, "edge": {"target": [], "time": []}}, "mouseout": {"state": {"target": ["13", "25", "24", "23", "23", "24", "25", "29", "32", "30", "25", "26", "27", "11", "9", "5", "6", "18", "13", "19", "21", "21", "17", "17", "15", "18", "18", "13", "12", "0", "23", "0", "1", "28", "25", "33", "30", "31", "31", "32", "32", "13", "13", "12", "8", "10", "2", "7", "28", "26", "25", "24", "23", "0", "12"], "time": [2212, 2611, 2644, 2928, 4042, 4075, 4125, 6543, 7164, 9110, 9174, 9348, 11534, 11625, 14111, 16459, 19181, 19293, 19342, 19608, 19742, 22181, 22309, 24725, 24810, 25230, 27131, 27411, 27442, 27476, 27746, 28132, 28979, 31542, 31628, 32175, 34174, 34708, 36614, 36642, 36860, 37195, 37846, 37908, 38516, 40574, 40624, 43332, 43596, 43897, 44532, 44559, 44660, 44794, 44894]}, "edge": {"target": [], "time": []}}}, "displayed_time": "61.05", "trialTime": 62948, "trial_type": "mouselab-mdp", "trial_index": 23, "time_elapsed": 1050922, "internal_node_id": "0.0-6.0-1.0-14.0"}}, {"uniqueid": "w82079040:a86741381", "current_trial": 24, "dateTime": 1693482086564, "trialdata": {"revealed_states": [], "clicked_states": ["32", "33", "31", "29", "27", "28", "11", "9", "10", "5"], "num_clicks_accrued": [0, 0, 0, 0, 0, 0, 0, 0, 0, 0, 0, 0, 0], "stateRewards": ["", -2, -3, -7, 7, -54, -69, -4, -14, -77, 22, 40, -2, -1, 5, 6, -35, 50, -60, 10, -28, 75, 57, 1, -4, -2, 2, 68, 34, -18, 12, 3, -21, -43], "withholdReward": false, "trial_id": "mdp_trial_16", "block": "test", "trialIndex": 17, "score": 51, "costs": -14.000000000000002, "simulationMode": [null, null, null, null, null], "rewards": [1, -4, -2, 2, 68], "path": ["0", "0", "23", "24", "25", "26", "27"], "rt": [26715, 125, 104, 647, 72], "actions": ["left", "left", "left", "up", "up"], "actionTimes": [28479, 29114, 29710, 30852, 31442], "queries": {"click": {"state": {"target": ["32", "33", "31", "29", "27", "28", "11", "9", "10", "5"], "time": [2875, 5440, 7754, 10298, 12358, 14563, 17627, 20042, 22557, 24858]}, "edge": {"target": [], "time": []}}, "mouseover": {"state": {"target": ["32", "32", "33", "30", "31", "25", "29", "27", "28", "8", "11", "9", "8", "10", "3", "5", "6"], "time": [2269, 2606, 5270, 7317, 7602, 9754, 10122, 12156, 14289, 16784, 17375, 19635, 21901, 22503, 24201, 24657, 26954]}, "edge": {"target": [], "time": []}}, "mouseout": {"state": {"target": ["12", "1", "0", "0", "32", "32", "33", "30", "31", "25", "29", "27", "28", "8", "11", "9", "8", "10", "3", "5", "6"], "time": [538, 1071, 1195, 2171, 2336, 5068, 7301, 7351, 9688, 9785, 12071, 14206, 16687, 16870, 19560, 21869, 21952, 22586, 24339, 26721, 27357]}, "edge": {"target": [], "time": []}}}, "displayed_time": "31.94", "trialTime": 34057, "trial_type": "mouselab-mdp", "trial_index": 24, "time_elapsed": 1085223, "internal_node_id": "0.0-6.0-1.0-15.0"}}, {"uniqueid": "w82079040:a86741381", "current_trial": 25, "dateTime": 1693482104090, "trialdata": {"revealed_states": [], "clicked_states": [], "num_clicks_accrued": [0, 0, 0, 0, 0, 0, 0, 0, 0, 0, 0, 0, 0], "stateRewards": ["", -2, 2, -4, -4, -59, 88, 62, -3, 69, -15, -34, 1, -2, -5, 7, -54, -20, 78, -16, -74, -53, -21, 2, -4, 2, 13, -8, -44, 26, 9, 72, 4, 17], "withholdReward": false, "trial_id": "mdp_trial_17", "block": "test", "trialIndex": 18, "score": -75, "costs": 0, "simulationMode": [null, null, null, null, null], "rewards": [1, -2, -5, -16, -53], "path": ["0", "0", "12", "13", "14", "19", "21"], "rt": [9300, 391, 183, 463, 232], "actions": ["right", "right", "right", "down", "down"], "actionTimes": [10753, 11649, 12325, 13305, 14041], "queries": {"click": {"state": {"target": [], "time": []}, "edge": {"target": [], "time": []}}, "mouseover": {"state": {"target": ["12", "0", "0", "28", "26", "29", "29", "24"], "time": [1706, 2937, 4809, 5138, 5188, 5272, 5793, 6926]}, "edge": {"target": [], "time": []}}, "mouseout": {"state": {"target": ["32", "30", "23", "0", "0", "0", "12", "0", "0", "28", "26", "29", "29", "24", "31", "32"], "time": [458, 541, 605, 639, 1055, 1677, 2893, 3030, 4838, 5154, 5238, 5443, 6844, 6956, 16427, 16627]}, "edge": {"target": [], "time": []}}}, "displayed_time": "15.45", "trialTime": 17285, "trial_type": "mouselab-mdp", "trial_index": 25, "time_elapsed": 1102748, "internal_node_id": "0.0-6.0-1.0-16.0"}}, {"uniqueid": "w82079040:a86741381", "current_trial": 26, "dateTime": 1693482124286, "trialdata": {"revealed_states": [], "clicked_states": ["29", "9", "32", "17"], "num_clicks_accrued": [0, 0, 0, 0, 0, 0, 0, 0, 0, 0, 0, 0, 0], "stateRewards": ["", 1, -2, 4, 7, -43, -83, -60, -5, -86, -80, 83, -1, -2, 6, 11, -15, 21, 13, 9, 29, -49, 11, -1, 4, -6, -11, 87, 40, 63, -8, -39, -11, 62], "withholdReward": false, "trial_id": "mdp_trial_18", "block": "test", "trialIndex": 19, "score": 43.4, "costs": -5.6, "simulationMode": [null, null, null, null, null], "rewards": [-1, 4, -6, -11, 63], "path": ["0", "0", "23", "24", "25", "26", "29"], "rt": [12897, 147, 290, 545, 426], "actions": ["left", "left", "left", "up", "left"], "actionTimes": [14242, 14889, 15680, 16722, 17651], "queries": {"click": {"state": {"target": ["29", "9", "32", "17"], "time": [2463, 5652, 8492, 11325]}, "edge": {"target": [], "time": []}}, "mouseover": {"state": {"target": ["23", "24", "25", "29", "27", "11", "8", "9", "30", "32", "32", "12", "13", "15", "17", "14", "22"], "time": [1658, 1724, 1774, 2295, 4574, 4656, 4723, 4973, 7792, 7824, 8130, 10455, 10473, 10789, 11022, 13256, 13305]}, "edge": {"target": [], "time": []}}, "mouseout": {"state": {"target": ["0", "23", "24", "25", "29", "27", "11", "8", "9", "30", "32", "32", "12", "13", "15", "17", "14", "22"], "time": [1644, 1673, 1757, 2076, 4512, 4610, 4673, 4772, 7726, 7809, 7857, 10405, 10472, 10489, 10839, 13139, 13289, 13355]}, "edge": {"target": [], "time": []}}}, "displayed_time": "18.14", "trialTime": 19971, "trial_type": "mouselab-mdp", "trial_index": 26, "time_elapsed": 1122946, "internal_node_id": "0.0-6.0-1.0-17.0"}}, {"uniqueid": "w82079040:a86741381", "current_trial": 27, "dateTime": 1693482157915, "trialdata": {"revealed_states": [], "clicked_states": ["17", "16", "18", "21", "22", "20", "5", "7", "6"], "num_clicks_accrued": [0, 0, 0, 0, 0, 0, 0, 0, 0, 0, 0, 0, 0], "stateRewards": ["", 1, -3, -6, -5, 47, 80, -29, 11, -71, 10, -29, -2, 3, -6, 12, 2, -78, -6, 8, 34, -16, -5, -1, 3, 3, -13, 84, -36, -62, -3, -27, 66, 15], "withholdReward": false, "trial_id": "mdp_trial_19", "block": "test", "trialIndex": 20, "score": 54.4, "costs": -12.600000000000001, "simulationMode": [null, null, null, null, null], "rewards": [1, -3, -6, -5, 80], "path": ["0", "0", "1", "2", "3", "4", "6"], "rt": [24507, 379, 235, 580, 112], "actions": ["up", "up", "up", "right", "right"], "actionTimes": [25647, 26538, 27278, 28357, 28987], "queries": {"click": {"state": {"target": ["17", "16", "18", "21", "22", "20", "5", "7", "6"], "time": [2525, 4788, 7124, 9363, 11395, 14083, 16853, 19344, 21635]}, "edge": {"target": [], "time": []}}, "mouseover": {"state": {"target": ["12", "13", "14", "17", "16", "18", "13", "19", "21", "22", "19", "20", "14", "4", "5", "4", "7", "6", "4", "7", "12"], "time": [1505, 1605, 1872, 2105, 4538, 6921, 8972, 9038, 9088, 11208, 13274, 13882, 16007, 16223, 16607, 18790, 19108, 21309, 23705, 23977, 24155]}, "edge": {"target": [], "time": []}}, "mouseout": {"state": {"target": ["0", "12", "13", "14", "17", "16", "18", "13", "19", "21", "22", "22", "19", "20", "14", "4", "5", "4", "7", "6", "4", "7", "12", "31"], "time": [520, 1555, 1722, 1906, 4405, 6705, 8938, 8988, 9055, 11061, 11624, 13262, 13306, 15940, 16022, 16307, 18757, 18841, 21180, 23674, 23959, 23991, 24189, 32879]}, "edge": {"target": [], "time": []}}}, "displayed_time": "29.49", "trialTime": 33398, "trial_type": "mouselab-mdp", "trial_index": 27, "time_elapsed": 1156575, "internal_node_id": "0.0-6.0-1.0-18.0"}}, {"uniqueid": "w82079040:a86741381", "current_trial": 28, "dateTime": 1693482182494, "trialdata": {"revealed_states": [], "clicked_states": ["9", "11", "10", "27", "29", "33", "32"], "num_clicks_accrued": [0, 0, 0, 0, 0, 0, 0, 0, 0, 0, 0, 0, 0], "stateRewards": ["", 1, -4, -4, 8, 1, -79, 68, -10, -79, 8, -74, -1, -3, -6, 14, 43, 23, 9, 5, -51, 63, 61, -2, 4, 6, -10, 69, -32, 57, 15, -80, -80, -77], "withholdReward": false, "trial_id": "mdp_trial_20", "block": "test", "trialIndex": 21, "score": 57.2, "costs": -9.8, "simulationMode": [null, null, null, null, null], "rewards": [-2, 4, 6, -10, 69], "path": ["0", "0", "23", "24", "25", "26", "27"], "rt": [16897, 100, 215, 600, 152], "actions": ["left", "left", "left", "up", "up"], "actionTimes": [17730, 18330, 19042, 20145, 20813], "queries": {"click": {"state": {"target": ["9", "11", "10", "27", "29", "33", "32"], "time": [1767, 3959, 5928, 8197, 10469, 12989, 15053]}, "edge": {"target": [], "time": []}}, "mouseover": {"state": {"target": ["1", "2", "3", "8", "9", "11", "10", "27", "29", "33", "32"], "time": [1175, 1209, 1329, 1378, 1602, 3725, 5693, 8109, 10219, 12722, 14810]}, "edge": {"target": [], "time": []}}, "mouseout": {"state": {"target": ["1", "2", "3", "8", "9", "11", "11", "10", "10", "27", "29", "33", "33", "32"], "time": [1192, 1273, 1347, 1445, 3624, 4041, 5507, 5954, 7749, 9990, 12377, 13092, 14759, 15066]}, "edge": {"target": [], "time": []}}}, "displayed_time": "21.31", "trialTime": 24375, "trial_type": "mouselab-mdp", "trial_index": 28, "time_elapsed": 1181153, "internal_node_id": "0.0-6.0-1.0-19.0"}}, {"uniqueid": "w82079040:a86741381", "current_trial": 29, "dateTime": 1693482209135, "trialdata": {"revealed_states": [], "clicked_states": ["29", "27", "28", "33", "32", "31", "21"], "num_clicks_accrued": [0, 0, 0, 0, 0, 0, 0, 0, 0, 0, 0, 0, 0], "stateRewards": ["", -2, 2, 3, -7, 76, 63, 21, 15, 35, -8, -44, 1, 1, -2, -12, 23, 24, 76, -9, 46, 66, -49, -2, -1, 7, 12, 40, -71, -45, -6, 38, -49, 46], "withholdReward": false, "trial_id": "mdp_trial_21", "block": "test", "trialIndex": 22, "score": 47.2, "costs": -9.8, "simulationMode": [null, null, null, null, null], "rewards": [1, 1, -2, -9, 66], "path": ["0", "0", "12", "13", "14", "19", "21"], "rt": [17980, 70, 77, 461, 188], "actions": ["right", "right", "right", "down", "down"], "actionTimes": [19184, 19750, 20363, 21323, 22000], "queries": {"click": {"state": {"target": ["29", "27", "28", "33", "32", "31", "21"], "time": [2229, 4534, 6584, 8866, 11184, 13188, 15902]}, "edge": {"target": [], "time": []}}, "mouseover": {"state": {"target": ["23", "24", "26", "29", "27", "28", "25", "30", "33", "32", "31", "21"], "time": [1594, 1695, 1829, 2028, 4315, 6361, 8364, 8411, 8681, 10818, 12897, 15597]}, "edge": {"target": [], "time": []}}, "mouseout": {"state": {"target": ["0", "23", "24", "26", "29", "27", "28", "25", "30", "33", "32", "31", "21", "33", "30", "31"], "time": [1566, 1662, 1765, 1977, 4079, 6312, 8266, 8379, 8445, 10685, 12764, 15028, 18277, 24350, 24463, 24594]}, "edge": {"target": [], "time": []}}}, "displayed_time": "22.50", "trialTime": 26404, "trial_type": "mouselab-mdp", "trial_index": 29, "time_elapsed": 1207794, "internal_node_id": "0.0-6.0-1.0-20.0"}}, {"uniqueid": "w82079040:a86741381", "current_trial": 30, "dateTime": 1693482232142, "trialdata": {"revealed_states": [], "clicked_states": ["9", "5", "29", "33", "17"], "num_clicks_accrued": [0, 0, 0, 0, 0, 0, 0, 0, 0, 0, 0, 0, 0], "stateRewards": ["", -1, -4, -6, -15, 21, -67, -63, 9, 51, 69, -14, -1, 3, 8, -8, 39, 72, 63, 15, 19, 47, 15, 1, 4, 5, 16, -18, 34, 35, -14, -80, 40, 1], "withholdReward": false, "trial_id": "mdp_trial_22", "block": "test", "trialIndex": 23, "score": 67, "costs": -7, "simulationMode": [null, null, null, null, null], "rewards": [-1, 3, 8, -8, 72], "path": ["0", "0", "12", "13", "14", "15", "17"], "rt": [14332, 104, 182, 502, 255], "actions": ["right", "right", "right", "up", "right"], "actionTimes": [17090, 17691, 18385, 19389, 20141], "queries": {"click": {"state": {"target": ["9", "5", "29", "33", "17"], "time": [3969, 6548, 9096, 11390, 13936]}, "edge": {"target": [], "time": []}}, "mouseover": {"state": {"target": ["1", "2", "3", "9", "5", "5", "3", "26", "29", "33", "12", "15", "17", "20"], "time": [3019, 3067, 3170, 3550, 6000, 6488, 8501, 8618, 8821, 11118, 13107, 13355, 13633, 16067]}, "edge": {"target": [], "time": []}}, "mouseout": {"state": {"target": ["23", "1", "2", "3", "9", "5", "5", "3", "26", "29", "33", "12", "15", "17", "20", "19", "22"], "time": [534, 3034, 3118, 3236, 5950, 6035, 8492, 8534, 8634, 10885, 11456, 13136, 13589, 15723, 21452, 21536, 21835]}, "edge": {"target": [], "time": []}}}, "displayed_time": "20.65", "trialTime": 22766, "trial_type": "mouselab-mdp", "trial_index": 30, "time_elapsed": 1230801, "internal_node_id": "0.0-6.0-1.0-21.0"}}, {"uniqueid": "w82079040:a86741381", "current_trial": 31, "dateTime": 1693482268645, "trialdata": {"revealed_states": [], "clicked_states": ["29", "27", "33", "32", "31", "9", "11", "10", "5", "6", "7", "16", "17"], "num_clicks_accrued": [0, 0, 0, 0, 0, 0, 0, 0, 0, 0, 0, 0, 0], "stateRewards": ["", 1, 2, -3, -6, 50, -7, 7, -7, -80, 21, -1, 2, 2, 4, -1, 33, 84, 1, 14, -53, 81, 6, -2, -2, -3, -9, -87, -38, -59, -5, -74, -3, -71], "withholdReward": false, "trial_id": "mdp_trial_23", "block": "test", "trialIndex": 24, "score": 72.8, "costs": -18.2, "simulationMode": [null, null, null, null, null], "rewards": [2, 2, 4, -1, 84], "path": ["0", "0", "12", "13", "14", "15", "17"], "rt": [29867, 84, 104, 414, 129], "actions": ["right", "right", "right", "up", "right"], "actionTimes": [31279, 31861, 32482, 33374, 34021], "queries": {"click": {"state": {"target": ["29", "27", "33", "32", "31", "9", "11", "10", "5", "6", "7", "16", "17"], "time": [2713, 5066, 7213, 9355, 11351, 13653, 15585, 17681, 19838, 22034, 23906, 25935, 27961]}, "edge": {"target": [], "time": []}}, "mouseover": {"state": {"target": ["23", "24", "25", "29", "27", "26", "25", "33", "32", "31", "10", "8", "9", "11", "10", "3", "5", "6", "7", "16", "17", "15", "18", "31"], "time": [2194, 2257, 2394, 2578, 4905, 6423, 6589, 6960, 9042, 11223, 13223, 13256, 13492, 15294, 17405, 19123, 19511, 21592, 23589, 25609, 27690, 29490, 29555, 30490]}, "edge": {"target": [], "time": []}}, "mouseout": {"state": {"target": ["0", "23", "24", "25", "29", "27", "26", "25", "33", "32", "31", "10", "8", "9", "11", "10", "3", "5", "6", "7", "16", "16", "17", "15", "18", "31"], "time": [1874, 2239, 2306, 2439, 2805, 6390, 6506, 6608, 8909, 11158, 13138, 13240, 13273, 15122, 17373, 19074, 19153, 21357, 23473, 23990, 25989, 27628, 28006, 29522, 30330, 30555]}, "edge": {"target": [], "time": []}}}, "displayed_time": "34.54", "trialTime": 36257, "trial_type": "mouselab-mdp", "trial_index": 31, "time_elapsed": 1267303, "internal_node_id": "0.0-6.0-1.0-22.0"}}, {"uniqueid": "w82079040:a86741381", "current_trial": 32, "dateTime": 1693482285908, "trialdata": {"revealed_states": [], "clicked_states": ["29", "33"], "num_clicks_accrued": [0, 0, 0, 0, 0, 0, 0, 0, 0, 0, 0, 0, 0], "stateRewards": ["", 1, -2, -3, 14, -42, -87, -37, -11, -50, 33, -44, -2, 4, -7, 13, 48, -75, -66, 12, 23, -2, 82, 1, -4, 3, 12, 51, -15, -26, -11, -52, -29, 82], "withholdReward": false, "trial_id": "mdp_trial_24", "block": "test", "trialIndex": 25, "score": 68.2, "costs": -2.8, "simulationMode": [null, null, null, null, null], "rewards": [1, -4, 3, -11, 82], "path": ["0", "0", "23", "24", "25", "30", "33"], "rt": [6153, 47, 153, 434, 172], "actions": ["left", "left", "left", "down", "left"], "actionTimes": [7911, 8467, 9155, 10103, 10774], "queries": {"click": {"state": {"target": ["29", "33"], "time": [2614, 4948]}, "edge": {"target": [], "time": []}}, "mouseover": {"state": {"target": ["23", "24", "29", "33", "32"], "time": [2065, 2099, 2470, 4787, 6649]}, "edge": {"target": [], "time": []}}, "mouseout": {"state": {"target": ["31", "30", "33", "33", "30", "0", "23", "24", "29", "33", "33", "32", "32"], "time": [532, 602, 682, 814, 849, 1498, 2081, 2132, 4468, 4988, 6603, 7072, 13768]}, "edge": {"target": [], "time": []}}}, "displayed_time": "15.76", "trialTime": 17014, "trial_type": "mouselab-mdp", "trial_index": 32, "time_elapsed": 1284567, "internal_node_id": "0.0-6.0-1.0-23.0"}}, {"uniqueid": "w82079040:a86741381", "current_trial": 33, "dateTime": 1693482326036, "trialdata": {"revealed_states": [], "clicked_states": ["17", "16", "18", "21", "22", "20", "29", "27", "28", "33", "31", "32", "9", "11"], "num_clicks_accrued": [0, 0, 0, 0, 0, 0, 0, 0, 0, 0, 0, 0, 0], "stateRewards": ["", -2, 1, -7, 9, 8, 25, 61, -7, -17, 69, -81, 1, 4, -4, -11, 16, 67, 44, 3, 6, -45, -54, -2, 3, 6, -11, -15, 32, -47, 3, -39, -6, -88], "withholdReward": false, "trial_id": "mdp_trial_25", "block": "test", "trialIndex": 26, "score": 37.400000000000006, "costs": -19.599999999999998, "simulationMode": [null, null, null, null, null], "rewards": [1, 4, -4, -11, 67], "path": ["0", "0", "12", "13", "14", "15", "17"], "rt": [33549, 128, 87, 419, 142], "actions": ["right", "right", "right", "up", "right"], "actionTimes": [34832, 35471, 36062, 36979, 37617], "queries": {"click": {"state": {"target": ["17", "16", "18", "21", "22", "20", "29", "27", "28", "33", "31", "32", "9", "11"], "time": [2319, 4574, 6829, 9159, 11663, 13821, 16321, 18415, 20515, 22873, 24849, 27383, 29834, 32020]}, "edge": {"target": [], "time": []}}, "mouseover": {"state": {"target": ["12", "14", "17", "16", "18", "19", "21", "19", "22", "19", "20", "19", "23", "24", "29", "27", "28", "25", "30", "33", "30", "31", "32", "30", "9", "11", "10", "31"], "time": [1574, 1620, 2010, 4255, 6538, 8794, 8838, 11173, 11526, 13491, 13555, 15323, 15641, 15773, 16221, 18173, 20306, 22210, 22271, 22593, 24423, 24782, 27108, 29173, 29643, 31741, 33339, 33674]}, "edge": {"target": [], "time": []}}, "mouseout": {"state": {"target": ["24", "23", "0", "12", "14", "17", "16", "18", "19", "21", "19", "22", "19", "20", "19", "23", "24", "29", "27", "28", "25", "30", "33", "30", "31", "31", "32", "30", "9", "11", "10", "31", "30", "33"], "time": [423, 471, 1571, 1589, 1758, 4193, 6462, 8691, 8806, 11106, 11278, 13478, 13522, 15289, 15389, 15723, 15843, 18079, 20224, 22111, 22228, 22405, 24407, 24439, 24888, 26273, 27396, 29189, 31639, 32673, 33456, 33690, 38908, 38938]}, "edge": {"target": [], "time": []}}}, "displayed_time": "38.13", "trialTime": 39881, "trial_type": "mouselab-mdp", "trial_index": 33, "time_elapsed": 1324695, "internal_node_id": "0.0-6.0-1.0-24.0"}}, {"uniqueid": "w82079040:a86741381", "current_trial": 34, "dateTime": 1693482349129, "trialdata": {"revealed_states": [], "clicked_states": ["9", "10", "7", "17", "21", "33"], "num_clicks_accrued": [0, 0, 0, 0, 0, 0, 0, 0, 0, 0, 0, 0, 0], "stateRewards": ["", -1, 4, -8, 12, 14, 69, -8, 5, -72, -14, 56, -1, -1, -1, 9, 67, 19, 11, -9, -88, -58, 3, 2, -4, -8, 4, 62, 77, -74, 5, -31, 65, 88], "withholdReward": false, "trial_id": "mdp_trial_26", "block": "test", "trialIndex": 27, "score": 74.6, "costs": -8.4, "simulationMode": [null, null, null, null, null], "rewards": [2, -4, -8, 5, 88], "path": ["0", "0", "23", "24", "25", "30", "33"], "rt": [16641, 17, 126, 464, 202], "actions": ["left", "left", "left", "down", "left"], "actionTimes": [17785, 18319, 18967, 19922, 20643], "queries": {"click": {"state": {"target": ["9", "10", "7", "17", "21", "33"], "time": [2131, 4564, 7006, 9423, 12020, 14725]}, "edge": {"target": [], "time": []}}, "mouseover": {"state": {"target": ["1", "2", "9", "8", "10", "2", "7", "17", "14", "19", "21", "30", "33"], "time": [1559, 1607, 1939, 4091, 4278, 6625, 6808, 9116, 11310, 11607, 11708, 14107, 14375]}, "edge": {"target": [], "time": []}}, "mouseout": {"state": {"target": ["25", "1", "2", "9", "8", "10", "2", "7", "17", "17", "14", "19", "21", "30", "33"], "time": [460, 1591, 1624, 4078, 4139, 6597, 6724, 8859, 9490, 11209, 11574, 11674, 13953, 14257, 16826]}, "edge": {"target": [], "time": []}}}, "displayed_time": "21.14", "trialTime": 22859, "trial_type": "mouselab-mdp", "trial_index": 34, "time_elapsed": 1347788, "internal_node_id": "0.0-6.0-1.0-25.0"}}, {"uniqueid": "w82079040:a86741381", "current_trial": 35, "dateTime": 1693482370044, "trialdata": {"revealed_states": [], "clicked_states": ["32", "27", "29", "28", "33"], "num_clicks_accrued": [0, 0, 0, 0, 0, 0, 0, 0, 0, 0, 0, 0, 0], "stateRewards": ["", -2, -3, 8, -4, -30, 31, 69, 9, 66, 87, 64, -2, 2, 8, 5, 47, 16, -39, -8, -54, 51, -19, 1, -2, -2, -11, -25, -26, 43, -9, 19, -84, 86], "withholdReward": false, "trial_id": "mdp_trial_27", "block": "test", "trialIndex": 28, "score": 67, "costs": -7, "simulationMode": [null, null, null, null, null], "rewards": [1, -2, -2, -9, 86], "path": ["0", "0", "23", "24", "25", "30", "33"], "rt": [13791, 17, 81, 524, 195], "actions": ["left", "left", "left", "down", "left"], "actionTimes": [15307, 15849, 16462, 17489, 18178], "queries": {"click": {"state": {"target": ["32", "27", "29", "28", "33"], "time": [2858, 5046, 7439, 9883, 12377]}, "edge": {"target": [], "time": []}}, "mouseover": {"state": {"target": ["32", "26", "27", "29", "29", "26", "28", "25", "33", "30"], "time": [2628, 4727, 4795, 7030, 7280, 9481, 9527, 11796, 11978, 14562]}, "edge": {"target": [], "time": []}}, "mouseout": {"state": {"target": ["12", "0", "32", "26", "27", "29", "29", "26", "28", "25", "33", "30"], "time": [716, 2099, 4680, 4744, 6949, 7084, 9468, 9511, 11768, 11846, 14549, 14579]}, "edge": {"target": [], "time": []}}}, "displayed_time": "18.68", "trialTime": 20628, "trial_type": "mouselab-mdp", "trial_index": 35, "time_elapsed": 1368702, "internal_node_id": "0.0-6.0-1.0-26.0"}}, {"uniqueid": "w82079040:a86741381", "current_trial": 36, "dateTime": 1693482401048, "trialdata": {"revealed_states": [], "clicked_states": ["21", "22", "20", "16", "17", "5", "7", "10", "25", "33"], "num_clicks_accrued": [0, 0, 0, 0, 0, 0, 0, 0, 0, 0, 0, 0, 0], "stateRewards": ["", -1, -2, -1, -10, -57, 73, -72, -16, 75, -14, -46, -2, -3, -7, -1, -61, -60, 76, -4, 50, 4, 14, 2, 2, -7, 12, -65, -32, 15, -8, -76, -25, -61], "withholdReward": false, "trial_id": "mdp_trial_28", "block": "test", "trialIndex": 29, "score": 20, "costs": -14.000000000000002, "simulationMode": [null, null, null, null, null], "rewards": [-2, -3, -7, -4, 50], "path": ["0", "0", "12", "13", "14", "19", "20"], "rt": [24484, 366, 44, 421, 271], "actions": ["right", "right", "right", "down", "right"], "actionTimes": [25599, 26459, 27022, 27981, 28748], "queries": {"click": {"state": {"target": ["21", "22", "20", "16", "17", "5", "7", "10", "25", "33"], "time": [2015, 4118, 6419, 8764, 11012, 13324, 15487, 18366, 21124, 22684]}, "edge": {"target": [], "time": []}}, "mouseover": {"state": {"target": ["21", "22", "19", "20", "16", "17", "6", "5", "4", "7", "2", "10", "10", "28", "24", "24", "25", "33", "30", "31"], "time": [1728, 3994, 5992, 6159, 8576, 10690, 12923, 13074, 15158, 15259, 17423, 17607, 18245, 20434, 20565, 20643, 20909, 22392, 24346, 24391]}, "edge": {"target": [], "time": []}}, "mouseout": {"state": {"target": ["0", "21", "22", "19", "20", "16", "17", "6", "5", "4", "7", "2", "10", "10", "28", "24", "24", "25", "33", "30", "31"], "time": [1610, 2064, 5963, 6040, 8241, 10623, 12808, 12979, 15127, 15207, 17391, 17489, 17964, 20247, 20446, 20578, 20878, 21992, 24329, 24375, 24441]}, "edge": {"target": [], "time": []}}}, "displayed_time": "29.26", "trialTime": 30763, "trial_type": "mouselab-mdp", "trial_index": 36, "time_elapsed": 1399707, "internal_node_id": "0.0-6.0-1.0-27.0"}}, {"uniqueid": "w82079040:a86741381", "current_trial": 37, "dateTime": 1693482430623, "trialdata": {"revealed_states": [], "clicked_states": ["29", "9", "17", "21", "32", "6", "11", "31"], "num_clicks_accrued": [0, 0, 0, 0, 0, 0, 0, 0, 0, 0, 0, 0, 0], "stateRewards": ["", -1, 3, 2, 9, 41, 4, -46, -12, -54, -87, -25, 2, 3, -1, 11, -77, 12, -33, -9, -32, 35, 72, 1, 3, -7, 4, 37, 65, -73, 6, 77, -43, 8], "withholdReward": false, "trial_id": "mdp_trial_29", "block": "test", "trialIndex": 30, "score": 68.8, "costs": -11.200000000000001, "simulationMode": [null, null, null, null, null], "rewards": [1, 3, -7, 6, 77], "path": ["0", "0", "23", "24", "25", "30", "31"], "rt": [22174, 78, 110, 457, 196], "actions": ["left", "left", "left", "down", "right"], "actionTimes": [23523, 24118, 24750, 25698, 26390], "queries": {"click": {"state": {"target": ["29", "9", "17", "21", "32", "6", "11", "31"], "time": [2110, 4800, 7186, 9662, 12320, 15014, 17861, 20547]}, "edge": {"target": [], "time": []}}, "mouseover": {"state": {"target": ["23", "29", "8", "9", "16", "17", "21", "32", "2", "4", "6", "4", "3", "8", "11", "11", "28", "24", "31"], "time": [1585, 1873, 4155, 4428, 6756, 6961, 9491, 11858, 14371, 14687, 14820, 17090, 17155, 17204, 17271, 17605, 19871, 19920, 20255]}, "edge": {"target": [], "time": []}}, "mouseout": {"state": {"target": ["31", "0", "23", "29", "8", "9", "16", "17", "21", "32", "2", "4", "6", "4", "3", "8", "11", "11", "28", "24", "31", "31"], "time": [402, 1557, 1618, 3970, 4327, 6670, 6771, 9024, 11473, 14221, 14605, 14771, 15110, 17138, 17187, 17255, 17373, 19823, 19903, 19971, 20628, 22770]}, "edge": {"target": [], "time": []}}}, "displayed_time": "26.89", "trialTime": 29331, "trial_type": "mouselab-mdp", "trial_index": 37, "time_elapsed": 1429282, "internal_node_id": "0.0-6.0-1.0-28.0"}}, {"uniqueid": "w82079040:a86741381", "current_trial": 38, "dateTime": 1693482451086, "trialdata": {"revealed_states": [], "clicked_states": ["29", "33", "17", "5", "11"], "num_clicks_accrued": [0, 0, 0, 0, 0, 0, 0, 0, 0, 0, 0, 0, 0], "stateRewards": ["", 1, 1, 1, 15, -76, 52, -32, 14, -57, 37, 49, 1, -4, -3, 6, 83, -76, 25, 9, 36, -1, -17, -1, 4, 4, -2, -22, -21, 58, -15, -57, 49, -24], "withholdReward": false, "trial_id": "mdp_trial_30", "block": "test", "trialIndex": 31, "score": 56, "costs": -7, "simulationMode": [null, null, null, null, null], "rewards": [-1, 4, 4, -2, 58], "path": ["0", "0", "23", "24", "25", "26", "29"], "rt": [13593, 64, 405, 608, 400], "actions": ["left", "left", "left", "up", "left"], "actionTimes": [14631, 15212, 16134, 17255, 18147], "queries": {"click": {"state": {"target": ["29", "33", "17", "5", "11"], "time": [1952, 4196, 7010, 9380, 11645]}, "edge": {"target": [], "time": []}}, "mouseover": {"state": {"target": ["0", "23", "24", "25", "29", "33", "23", "18", "15", "17", "6", "5", "8", "11", "23"], "time": [1399, 1417, 1443, 1476, 1813, 3961, 6276, 6344, 6611, 6744, 8959, 9092, 11327, 11410, 13779]}, "edge": {"target": [], "time": []}}, "mouseout": {"state": {"target": ["0", "0", "23", "24", "25", "29", "33", "23", "18", "15", "17", "6", "5", "8", "11", "23"], "time": [1144, 1413, 1426, 1460, 1631, 3810, 6231, 6292, 6599, 6659, 8875, 9009, 11230, 11378, 12161, 13810]}, "edge": {"target": [], "time": []}}}, "displayed_time": "18.65", "trialTime": 20200, "trial_type": "mouselab-mdp", "trial_index": 38, "time_elapsed": 1449745, "internal_node_id": "0.0-6.0-1.0-29.0"}}, {"uniqueid": "w82079040:a86741381", "current_trial": 39, "dateTime": 1693482471296, "trialdata": {"revealed_states": [], "clicked_states": ["27", "9", "5", "16", "32"], "num_clicks_accrued": [0, 0, 0, 0, 0, 0, 0, 0, 0, 0, 0, 0, 0], "stateRewards": ["", -2, 2, -5, -6, 10, -66, -58, -10, -11, -63, -70, -1, -4, -5, 7, 66, -64, -43, -3, 45, -37, 4, -2, -2, -6, -4, -30, 33, 43, 15, -32, -65, -59], "withholdReward": false, "trial_id": "mdp_trial_31", "block": "test", "trialIndex": 32, "score": 56, "costs": -7, "simulationMode": [null, null, null, null, null], "rewards": [-1, -4, -5, 7, 66], "path": ["0", "0", "12", "13", "14", "15", "16"], "rt": [13676, 394, 252, 425, 191], "actions": ["right", "right", "right", "up", "up"], "actionTimes": [15072, 15988, 16745, 17668, 18352], "queries": {"click": {"state": {"target": ["27", "9", "5", "16", "32"], "time": [3027, 5368, 7474, 9792, 12497]}, "edge": {"target": [], "time": []}}, "mouseover": {"state": {"target": ["12", "17", "15", "28", "27", "8", "9", "5", "6", "16", "18", "12", "32"], "time": [1746, 1944, 2256, 2622, 2925, 4907, 5194, 7211, 9307, 9407, 11727, 11807, 12289]}, "edge": {"target": [], "time": []}}, "mouseout": {"state": {"target": ["12", "0", "12", "17", "15", "28", "27", "8", "9", "5", "6", "16", "16", "18", "12", "32", "32"], "time": [821, 1428, 1759, 2177, 2273, 2706, 4840, 4923, 7080, 9246, 9358, 9805, 11662, 11742, 11841, 12573, 14090]}, "edge": {"target": [], "time": []}}}, "displayed_time": "18.84", "trialTime": 19958, "trial_type": "mouselab-mdp", "trial_index": 39, "time_elapsed": 1469955, "internal_node_id": "0.0-6.0-1.0-30.0"}}, {"uniqueid": "w82079040:a86741381", "current_trial": 40, "dateTime": 1693482495673, "trialdata": {"revealed_states": [], "clicked_states": ["9", "27", "32", "16", "21"], "num_clicks_accrued": [0, 0, 0, 0, 0, 0, 0, 0, 0, 0, 0, 0, 0], "stateRewards": ["", 2, -1, 4, -9, -43, 7, 54, -13, 38, -40, -83, -1, 2, -8, -10, 34, -33, 11, -14, -79, 65, 26, 1, 2, 4, 10, 21, 1, 86, 4, -53, 28, -29], "withholdReward": false, "trial_id": "mdp_trial_32", "block": "test", "trialIndex": 33, "score": 37, "costs": -7, "simulationMode": [null, null, null, null, null], "rewards": [-1, 2, -8, -14, 65], "path": ["0", "0", "12", "13", "14", "19", "21"], "rt": [14560, 33, 92, 531, 305], "actions": ["right", "right", "right", "down", "down"], "actionTimes": [16806, 17333, 17942, 19012, 19820], "queries": {"click": {"state": {"target": ["9", "27", "32", "16", "21"], "time": [3156, 5964, 8637, 11165, 13799]}, "edge": {"target": [], "time": []}}, "mouseover": {"state": {"target": ["1", "2", "9", "9", "8", "28", "27", "26", "25", "30", "32", "0", "18", "16", "15", "14", "19", "21", "21"], "time": [2529, 2548, 2679, 2963, 5348, 5463, 5717, 7979, 8028, 8078, 8397, 10646, 10683, 11002, 13035, 13078, 13128, 13179, 13450]}, "edge": {"target": [], "time": []}}, "mouseout": {"state": {"target": ["25", "25", "24", "23", "0", "1", "2", "9", "9", "8", "28", "27", "26", "25", "30", "32", "0", "18", "16", "16", "15", "14", "19", "21", "21"], "time": [1397, 1598, 1612, 1800, 2501, 2546, 2562, 2698, 5334, 5362, 5536, 7962, 8011, 8062, 8113, 10601, 10663, 10703, 11231, 13018, 13062, 13111, 13162, 13228, 21801]}, "edge": {"target": [], "time": []}}}, "displayed_time": "20.32", "trialTime": 24121, "trial_type": "mouselab-mdp", "trial_index": 40, "time_elapsed": 1494331, "internal_node_id": "0.0-6.0-1.0-31.0"}}, {"uniqueid": "w82079040:a86741381", "current_trial": 41, "dateTime": 1693482517763, "trialdata": {"revealed_states": [], "clicked_states": ["10", "7", "28", "31", "18", "22"], "num_clicks_accrued": [0, 0, 0, 0, 0, 0, 0, 0, 0, 0, 0, 0, 0], "stateRewards": ["", 2, 3, 8, 14, 69, -27, 17, 2, -71, -65, -10, 2, -3, 7, 8, 65, -10, 65, -12, 73, -12, 13, -2, -2, 6, 10, -79, -69, -18, 10, -85, 67, 74], "withholdReward": false, "trial_id": "mdp_trial_33", "block": "test", "trialIndex": 34, "score": 70.6, "costs": -8.4, "simulationMode": [null, null, null, null, null], "rewards": [2, -3, 7, 8, 65], "path": ["0", "0", "12", "13", "14", "15", "18"], "rt": [14636, 61, 133, 385, 750], "actions": ["right", "right", "right", "up", "left"], "actionTimes": [16098, 16673, 17311, 18198, 19446], "queries": {"click": {"state": {"target": ["10", "7", "28", "31", "18", "22"], "time": [2431, 4767, 6977, 9402, 11713, 13696]}, "edge": {"target": [], "time": []}}, "mouseover": {"state": {"target": ["1", "10", "2", "7", "1", "28", "31", "12", "18", "13", "22"], "time": [1924, 2228, 4326, 4577, 6410, 6826, 9289, 11130, 11571, 13359, 13524]}, "edge": {"target": [], "time": []}}, "mouseout": {"state": {"target": ["22", "0", "1", "10", "2", "7", "1", "28", "31", "12", "18", "13", "22"], "time": [774, 1874, 1976, 4277, 4390, 6342, 6460, 8760, 10925, 11176, 13314, 13458, 14376]}, "edge": {"target": [], "time": []}}}, "displayed_time": "19.95", "trialTime": 21808, "trial_type": "mouselab-mdp", "trial_index": 41, "time_elapsed": 1516422, "internal_node_id": "0.0-6.0-1.0-32.0"}}, {"uniqueid": "w82079040:a86741381", "current_trial": 42, "dateTime": 1693482547884, "trialdata": {"revealed_states": [], "clicked_states": ["9", "5", "32", "21", "29", "17", "11", "28", "18"], "num_clicks_accrued": [0, 0, 0, 0, 0, 0, 0, 0, 0, 0, 0, 0, 0], "stateRewards": ["", 2, -1, 3, -12, -83, 6, -33, 9, 28, 24, -50, -2, -1, -2, -5, -87, 37, 82, 12, 80, -5, 10, -2, -3, -6, 9, 22, -1, 16, 9, 77, -62, 58], "withholdReward": false, "trial_id": "mdp_trial_34", "block": "test", "trialIndex": 35, "score": 59.4, "costs": -12.600000000000001, "simulationMode": [null, null, null, null, null], "rewards": [-2, -1, -2, -5, 82], "path": ["0", "0", "12", "13", "14", "15", "18"], "rt": [22762, 187, 104, 514, 354], "actions": ["right", "right", "right", "up", "left"], "actionTimes": [24354, 25061, 25676, 26704, 27576], "queries": {"click": {"state": {"target": ["9", "5", "32", "21", "29", "17", "11", "28", "18"], "time": [2390, 4360, 6921, 9185, 11649, 14113, 16793, 18937, 21321]}, "edge": {"target": [], "time": []}}, "mouseover": {"state": {"target": ["10", "8", "9", "5", "4", "1", "23", "31", "32", "21", "31", "30", "29", "26", "28", "1", "18", "15", "17", "15", "18", "2", "8", "11", "28", "1", "18"], "time": [1868, 1919, 2218, 3919, 6120, 6204, 6236, 6425, 6720, 8851, 11103, 11153, 11447, 13253, 13286, 13387, 13570, 13636, 13890, 16020, 16204, 16354, 16488, 16571, 18668, 20835, 21106]}, "edge": {"target": [], "time": []}}, "mouseout": {"state": {"target": ["0", "0", "10", "8", "9", "5", "4", "1", "23", "31", "32", "21", "31", "30", "29", "26", "28", "1", "18", "15", "17", "17", "15", "18", "2", "8", "11", "28", "1", "18"], "time": [868, 1790, 1884, 2158, 3803, 6104, 6152, 6219, 6285, 6486, 8253, 11053, 11119, 11308, 13236, 13269, 13319, 13419, 13603, 13771, 14154, 16005, 16085, 16254, 16421, 16503, 18354, 20786, 20870, 23438]}, "edge": {"target": [], "time": []}}}, "displayed_time": "28.07", "trialTime": 29838, "trial_type": "mouselab-mdp", "trial_index": 42, "time_elapsed": 1546542, "internal_node_id": "0.0-6.0-1.0-33.0"}}, {"uniqueid": "w82079040:a86741381", "current_trial": 43, "dateTime": 1693482564601, "trialdata": {"revealed_states": [], "clicked_states": ["28", "31"], "num_clicks_accrued": [0, 0, 0, 0, 0, 0, 0, 0, 0, 0, 0, 0, 0], "stateRewards": ["", -1, -4, -1, -5, -28, -23, -15, -15, -38, 59, -87, 2, 2, -5, 9, -55, -39, -71, -6, 85, -85, -11, -1, -2, 5, -10, 1, 25, 41, -4, 69, -35, 86], "withholdReward": false, "trial_id": "mdp_trial_35", "block": "test", "trialIndex": 36, "score": 64.2, "costs": -2.8, "simulationMode": [null, null, null, null, null], "rewards": [-1, -2, 5, -4, 69], "path": ["0", "0", "23", "24", "25", "30", "31"], "rt": [6405, 215, 185, 401, 161], "actions": ["left", "left", "left", "down", "right"], "actionTimes": [7598, 8324, 9027, 9943, 10619], "queries": {"click": {"state": {"target": ["28", "31"], "time": [2413, 4638]}, "edge": {"target": [], "time": []}}, "mouseover": {"state": {"target": ["23", "24", "28", "24", "31", "25", "24"], "time": [1443, 1505, 2221, 4272, 4371, 6345, 6791]}, "edge": {"target": [], "time": []}}, "mouseout": {"state": {"target": ["0", "23", "24", "28", "24", "31", "25", "24"], "time": [1428, 1457, 1606, 4255, 4338, 4706, 6359, 6807]}, "edge": {"target": [], "time": []}}}, "displayed_time": "15.19", "trialTime": 16441, "trial_type": "mouselab-mdp", "trial_index": 43, "time_elapsed": 1563259, "internal_node_id": "0.0-6.0-1.0-34.0"}}, {"uniqueid": "w82079040:a86741381", "current_trial": 44, "dateTime": 1693482596437, "trialdata": {"revealed_states": [], "clicked_states": ["10", "7", "27", "29", "33", "32", "16", "21", "22", "20"], "num_clicks_accrued": [0, 0, 0, 0, 0, 0, 0, 0, 0, 0, 0, 0, 0], "stateRewards": ["", 1, 2, -3, -5, 66, -50, -47, -5, 1, 28, -27, 1, 1, -1, -6, 37, -25, 56, 1, -82, -66, -40, -1, -4, -7, 15, -61, -23, 26, 10, 14, -56, 29], "withholdReward": false, "trial_id": "mdp_trial_36", "block": "test", "trialIndex": 37, "score": 18, "costs": -14.000000000000002, "simulationMode": [null, null, null, null, null], "rewards": [1, 1, -1, -6, 37], "path": ["0", "0", "12", "13", "14", "15", "16"], "rt": [24338, 127, 85, 501, 130], "actions": ["right", "right", "right", "up", "up"], "actionTimes": [25352, 25998, 26611, 27619, 28267], "queries": {"click": {"state": {"target": ["10", "7", "27", "29", "33", "32", "16", "21", "22", "20"], "time": [2031, 4460, 6719, 9223, 11575, 13814, 16067, 18034, 20372, 22694]}, "edge": {"target": [], "time": []}}, "mouseover": {"state": {"target": ["1", "10", "2", "7", "27", "26", "29", "33", "32", "13", "14", "15", "16", "15", "14", "19", "21", "22", "19", "20"], "time": [1584, 1769, 3850, 4233, 6501, 8683, 8983, 11338, 13679, 15533, 15601, 15773, 15902, 17134, 17467, 17524, 17616, 20236, 22249, 22368]}, "edge": {"target": [], "time": []}}, "mouseout": {"state": {"target": ["0", "1", "10", "2", "7", "27", "26", "29", "33", "32", "13", "14", "15", "16", "16", "15", "14", "19", "21", "22", "19", "20", "20"], "time": [1389, 1686, 3819, 3917, 6034, 8652, 8917, 11035, 13383, 15384, 15549, 15670, 15833, 16173, 17118, 17184, 17510, 17584, 20087, 22219, 22283, 22774, 24250]}, "edge": {"target": [], "time": []}}}, "displayed_time": "28.79", "trialTime": 31556, "trial_type": "mouselab-mdp", "trial_index": 44, "time_elapsed": 1595096, "internal_node_id": "0.0-6.0-1.0-35.0"}}, {"uniqueid": "w82079040:a86741381", "current_trial": 45, "dateTime": 1693482615220, "trialdata": {"revealed_states": [], "clicked_states": ["11", "6", "10"], "num_clicks_accrued": [0, 0, 0, 0, 0, 0, 0, 0, 0, 0, 0, 0, 0], "stateRewards": ["", 1, 4, 5, 8, -55, -11, 8, 16, -37, 77, -22, -2, 3, -8, -10, 45, 87, -67, 4, 17, -33, -22, -1, -3, 7, 6, -39, -85, 75, -1, 7, -48, 45], "withholdReward": false, "trial_id": "mdp_trial_37", "block": "test", "trialIndex": 38, "score": 98.8, "costs": -4.199999999999999, "simulationMode": [null, null, null, null, null], "rewards": [1, 4, 5, 16, 77], "path": ["0", "0", "1", "2", "3", "8", "10"], "rt": [8930, 79, 238, 398, 251], "actions": ["up", "up", "up", "left", "down"], "actionTimes": [10168, 10754, 11512, 12407, 13158], "queries": {"click": {"state": {"target": ["11", "6", "10"], "time": [2381, 4797, 7093]}, "edge": {"target": [], "time": []}}, "mouseover": {"state": {"target": ["10", "8", "11", "3", "4", "6", "2", "10", "2", "7", "7"], "time": [1741, 1803, 2074, 4270, 4387, 4607, 6737, 6919, 8103, 8255, 9050]}, "edge": {"target": [], "time": []}}, "mouseout": {"state": {"target": ["21", "0", "10", "8", "11", "3", "4", "6", "2", "10", "2", "7", "7"], "time": [56, 1555, 1769, 1887, 4227, 4303, 4437, 6655, 6858, 8071, 8137, 8520, 17678]}, "edge": {"target": [], "time": []}}}, "displayed_time": "15.24", "trialTime": 18491, "trial_type": "mouselab-mdp", "trial_index": 45, "time_elapsed": 1613878, "internal_node_id": "0.0-6.0-1.0-36.0"}}, {"uniqueid": "w82079040:a86741381", "current_trial": 46, "dateTime": 1693482633889, "trialdata": {"revealed_states": [], "clicked_states": ["28", "24"], "num_clicks_accrued": [0, 0, 0, 0, 0, 0, 0, 0, 0, 0, 0, 0, 0], "stateRewards": ["", -1, -2, 8, -6, -79, -6, 87, 9, -5, -66, -38, 2, 2, 5, -6, -82, 74, 85, -8, 67, -30, -15, 1, -2, -2, -2, 87, 64, 49, 7, 2, -38, -9], "withholdReward": false, "trial_id": "mdp_trial_38", "block": "test", "trialIndex": 39, "score": 56.2, "costs": -2.8, "simulationMode": [null, null, null, null, null], "rewards": [1, -2, -2, -2, 64], "path": ["0", "0", "23", "24", "25", "26", "28"], "rt": [5738, 121, 127, 359, 53], "actions": ["left", "left", "left", "up", "right"], "actionTimes": [8793, 9422, 10045, 10927, 11520], "queries": {"click": {"state": {"target": ["28", "24"], "time": [3951, 5720]}, "edge": {"target": [], "time": []}}, "mouseover": {"state": {"target": ["23", "28", "28", "24", "31"], "time": [3181, 3463, 3623, 4498, 7967]}, "edge": {"target": [], "time": []}}, "mouseout": {"state": {"target": ["7", "1", "0", "23", "28", "28", "24", "31"], "time": [483, 2730, 3148, 3318, 3496, 4465, 6948, 7982]}, "edge": {"target": [], "time": []}}}, "displayed_time": "17.06", "trialTime": 18406, "trial_type": "mouselab-mdp", "trial_index": 46, "time_elapsed": 1632548, "internal_node_id": "0.0-6.0-1.0-37.0"}}, {"uniqueid": "w82079040:a86741381", "current_trial": 47, "dateTime": 1693482651230, "trialdata": {"revealed_states": [], "clicked_states": ["27", "32"], "num_clicks_accrued": [0, 0, 0, 0, 0, 0, 0, 0, 0, 0, 0, 0, 0], "stateRewards": ["", 2, -2, -8, 9, -20, 55, -58, 14, 42, 2, 36, 1, -3, -5, 5, -58, 57, 60, 16, 57, 30, -70, -2, 1, 3, 10, 59, 23, 77, -13, -26, 88, -72], "withholdReward": false, "trial_id": "mdp_trial_39", "block": "test", "trialIndex": 40, "score": 74.2, "costs": -2.8, "simulationMode": [null, null, null, null, null], "rewards": [-2, 1, 3, -13, 88], "path": ["0", "0", "23", "24", "25", "30", "32"], "rt": [6262, 110, 114, 731, 224], "actions": ["left", "left", "left", "down", "down"], "actionTimes": [7485, 8096, 8713, 9978, 10708], "queries": {"click": {"state": {"target": ["27", "32"], "time": [2114, 4564]}, "edge": {"target": [], "time": []}}, "mouseover": {"state": {"target": ["23", "26", "27", "26", "25", "30", "32", "30", "25", "31"], "time": [1485, 1718, 1965, 3881, 3946, 4063, 4352, 6280, 6717, 6748]}, "edge": {"target": [], "time": []}}, "mouseout": {"state": {"target": ["23", "0", "0", "23", "26", "27", "26", "25", "30", "32", "30", "25", "31"], "time": [417, 480, 949, 1514, 1781, 3866, 3930, 4030, 4238, 6231, 6298, 6732, 6765]}, "edge": {"target": [], "time": []}}}, "displayed_time": "15.23", "trialTime": 17031, "trial_type": "mouselab-mdp", "trial_index": 47, "time_elapsed": 1649889, "internal_node_id": "0.0-6.0-1.0-38.0"}}, {"uniqueid": "w82079040:a86741381", "current_trial": 48, "dateTime": 1693482689969, "trialdata": {"revealed_states": [], "clicked_states": ["17", "16", "21", "5", "7", "10", "11", "27", "29", "33", "32", "31", "1"], "num_clicks_accrued": [0, 0, 0, 0, 0, 0, 0, 0, 0, 0, 0, 0, 0], "stateRewards": ["", 2, 3, -6, -5, -3, 55, 40, 11, 61, 11, 51, 2, -4, -6, 9, -25, 29, -15, -6, 7, -77, -2, -2, -4, 1, 14, -43, -1, 56, -12, -54, 41, -74], "withholdReward": false, "trial_id": "mdp_trial_40", "block": "test", "trialIndex": 41, "score": 46.8, "costs": -18.2, "simulationMode": [null, null, null, null, null, null], "rewards": [-2, -4, 1, 14, 56], "path": ["0", "0", "23", "24", "25", "26", "29"], "rt": [30095, 567, 350, 116, 534, 474], "actions": ["left", "left", "left", "left", "up", "left"], "actionTimes": [31349, 31919, 32764, 33398, 34431, 35404], "queries": {"click": {"state": {"target": ["17", "16", "21", "5", "7", "10", "11", "27", "29", "33", "32", "31", "1"], "time": [2928, 4992, 7065, 9313, 11152, 13230, 15507, 17543, 19793, 22710, 25425, 27296, 29884]}, "edge": {"target": [], "time": []}}, "mouseover": {"state": {"target": ["13", "17", "16", "15", "14", "19", "21", "18", "6", "5", "4", "7", "2", "10", "11", "27", "29", "33", "33", "30", "32", "31", "23", "7", "1", "28"], "time": [2382, 2628, 4863, 6528, 6584, 6659, 6793, 8895, 8943, 9182, 10794, 11116, 12461, 12760, 15145, 17328, 19444, 21577, 22565, 24876, 25196, 26927, 29031, 29481, 29678, 30478]}, "edge": {"target": [], "time": []}}, "mouseout": {"state": {"target": ["0", "13", "17", "16", "15", "14", "19", "21", "18", "6", "5", "4", "7", "7", "2", "10", "11", "11", "27", "27", "29", "33", "33", "30", "32", "31", "23", "7", "1", "28", "31"], "time": [1678, 2428, 4561, 6494, 6563, 6626, 6760, 8844, 8910, 9011, 10744, 10893, 11228, 12432, 12594, 15051, 15556, 17011, 17603, 19213, 21414, 21594, 24794, 24927, 26761, 28661, 29094, 29650, 30295, 30544, 36810]}, "edge": {"target": [], "time": []}}}, "displayed_time": "35.90", "trialTime": 38417, "trial_type": "mouselab-mdp", "trial_index": 48, "time_elapsed": 1688629, "internal_node_id": "0.0-6.0-1.0-39.0"}}, {"uniqueid": "w82079040:a86741381", "current_trial": 49, "dateTime": 1693482754320, "trialdata": {"rt": 64338, "response": {"Q0": "$-2 to $2", "Q1": "$-16 to $16", "Q2": "$-88 to $88", "Q3": "The cost for clicking on nodes varied between nodes.", "Q4": "Very motivated"}, "question_order": [0, 1, 2, 3, 4], "trial_id": "final_quiz_control", "trial_type": "survey-multi-choice", "trial_index": 49, "time_elapsed": 1752979, "internal_node_id": "0.0-6.0-2.0"}}, {"uniqueid": "w82079040:a86741381", "current_trial": 50, "dateTime": 1693482963262, "trialdata": {"rt": 208901, "response": {"Q0": "I tried to only inspect the last node of every path and  chose according to one with highest number.", "Q1": "Yes my strategy improved because at first I inspected just anywhere and I inspected many nodes which made me lose money. So I strategized by only inspecting nodes at the end and limiting the number of inspections.", "Q2": "It was not difficult to improved but I improved later than I should have because I was not aware of the best strategy for me."}, "trial_id": "self_report_control", "trial_type": "survey-text", "trial_index": 50, "time_elapsed": 1961921, "internal_node_id": "0.0-6.0-3.0"}}, {"uniqueid": "w82079040:a86741381", "current_trial": 51, "dateTime": 1693482987111, "trialdata": {"rt": 23821, "response": {"gender": "female", "age": "29", "colorblind": "0", "effort": "0"}, "trial_type": "survey-html-form", "trial_index": 51, "time_elapsed": 1985771, "internal_node_id": "0.0-6.0-4.0"}}, {"uniqueid": "w82079040:a86741381", "current_trial": 52, "dateTime": 1693483017350, "trialdata": {"rt": 30223, "response": {"Q0": "no", "Q1": "No", "Q2": "The game was fun and rewarding"}, "trial_type": "survey-text", "trial_index": 52, "time_elapsed": 2016010, "internal_node_id": "0.0-6.0-5.0"}}, {"uniqueid": "w82079040:a86741381", "current_trial": 53, "dateTime": 1693483043623, "trialdata": {"rt": 26263, "stimulus": "<h1>Completion Code Instructions (1/2)</h1>\n<br><br><br><br>\nYou have reached the end of the experiment! The completion code consists of two parts: (1) a code with 2 characters (2) a code with 6 characters. On this page, you will receive the second part of the code. The first part of the completion code will be on the next page.\n<br><br>\nThe second part of your completion code is: <b>EWEK22</b>\n<br><br>\nPlease note this down. Then, press 'Finish HIT' in order to find the first part of your completion code. Once the data has been saved, you will receive this code either in this window or in the original browser window where you started the experiment.\n", "response": 0, "trial_type": "html-button-response", "trial_index": 53, "time_elapsed": 2042283, "internal_node_id": "0.0-6.0-6.0"}}, {"uniqueid": "w82079040:a86741381", "current_trial": 54, "dateTime": 1693483044628, "trialdata": {"success": true, "trial_type": "fullscreen", "trial_index": 54, "time_elapsed": 2043287, "internal_node_id": "0.0-7.0"}}], "questiondata": {"params": {"CODE": "C6DMOQA6", "MIN_TIME": 14, "inspectCost": 1, "startTime": "Thu Aug 31 2023 13:23:19 GMT+0200 (South Africa Standard Time)", "bonusRate": 0.002, "variance": "1_2_4_8_44", "branching": "31123"}, "final_score": 1697.6}, "eventdata": [{"eventtype": "initialized", "value": null, "timestamp": 1693480999245, "interval": 0}, {"eventtype": "window_resize", "value": [1280, 622], "timestamp": 1693480999245, "interval": 0}, {"eventtype": "window_resize", "value": [1280, 622], "timestamp": 1693480999753, "interval": 508}, {"eventtype": "window_resize", "value": [1280, 720], "timestamp": 1693481008795, "interval": 9042}, {"eventtype": "window_resize", "value": [1280, 622], "timestamp": 1693483043873, "interval": 2035078}], "useragent": "Mozilla/5.0 (Windows NT 10.0; Win64; x64) AppleWebKit/537.36 (KHTML, like Gecko) Chrome/116.0.0.0 Safari/537.36", "mode": "live", "id": "w82079040:a86741381", "status": "user data saved", "Beginhit": "2023-08-31 11:23:16.627992", "Beginexp": "2023-08-31 11:23:30.298925", "Endhit": "2023-08-31 11:57:26.324732", "psiturkStatus": 3, "browser": "<redacted>", "platform": "windows", "language": "en-US"}