{"condition": 0, "counterbalance": 0, "assignmentId": "a76543568", "workerId": "w31339064", "hitId": "h79684089", "currenttrial": 61, "bonus": 0, "data": [{"uniqueid": "w31339064:a76543568", "current_trial": 0, "dateTime": 1693481394927, "trialdata": {"success": true, "trial_type": "fullscreen", "trial_index": 0, "time_elapsed": 13199, "internal_node_id": "0.0-0.0"}}, {"uniqueid": "w31339064:a76543568", "current_trial": 1, "dateTime": 1693481431124, "trialdata": {"view_history": [{"page_index": 0, "viewing_time": 36185}], "rt": 36185, "trial_id": "exp_instructions_control", "trial_type": "instructions", "trial_index": 1, "time_elapsed": 49395, "internal_node_id": "0.0-1.0"}}, {"uniqueid": "w31339064:a76543568", "current_trial": 2, "dateTime": 1693482148887, "trialdata": {"view_history": [{"page_index": 0, "viewing_time": 214809}, {"page_index": 1, "viewing_time": 393189}, {"page_index": 2, "viewing_time": 42626}, {"page_index": 3, "viewing_time": 67139}], "rt": 717764, "trial_id": "mouselab_instructions_1_control", "trial_type": "instructions", "trial_index": 2, "time_elapsed": 767159, "internal_node_id": "0.0-2.0-1.0"}}, {"uniqueid": "w31339064:a76543568", "current_trial": 3, "dateTime": 1693482283118, "trialdata": {"revealed_states": [], "clicked_states": ["1", "10", "3", "5", "6", "4", "7", "18", "14", "19", "21", "22", "13", "15", "17", "16", "2", "28", "27", "29", "25", "30", "32"], "num_clicks_accrued": [0, 0, 0, 0, 0, 0, 0, 0, 0, 0, 0, 0, 0], "stateRewards": ["", 10, -10, -10, -10, 10, -10, -10, -10, -10, 10, 10, 10, 10, 10, -10, -10, -10, -10, 10, -10, 10, -10, 10, -10, -10, -10, -10, -10, 10, -10, 10, 10, -10], "withholdReward": false, "trial_id": "practice_1", "block": "test", "trialIndex": 0, "score": -18, "costs": -11.5, "simulationMode": [null, null, null, null, null], "rewards": [10, -10, -10, -10, 10], "path": ["0", "0", "1", "2", "3", "8", "10"], "rt": [106800, 3025, 3692, 706, 2161], "actions": ["up", "up", "up", "left", "down"], "actionTimes": [115672, 119200, 123398, 124612, 127267], "queries": {"click": {"state": {"target": ["1", "10", "3", "5", "6", "4", "7", "18", "14", "19", "21", "22", "13", "15", "17", "16", "2", "28", "27", "29", "25", "30", "32"], "time": [13115, 20653, 25103, 27972, 30778, 34522, 37971, 42045, 44696, 45874, 47154, 50486, 51809, 54126, 55201, 57666, 66609, 77584, 83319, 84662, 86223, 88504, 91744]}, "edge": {"target": [], "time": []}}, "mouseover": {"state": {"target": ["1", "10", "2", "2", "10", "3", "5", "6", "4", "7", "2", "2", "18", "18", "14", "19", "21", "22", "13", "18", "15", "15", "15", "17", "18", "16", "16", "6", "4", "6", "3", "2", "1", "10", "28", "26", "25", "26", "27", "29", "25", "30", "32", "31", "24", "24", "25", "24", "23", "0", "1", "1", "1", "1", "0"], "time": [9765, 18298, 19165, 19533, 20120, 24538, 27469, 30332, 32450, 37133, 39483, 40449, 41298, 41616, 43693, 45534, 46835, 49307, 51268, 53084, 53217, 53300, 53584, 54935, 56751, 57002, 57244, 58202, 58485, 58585, 62801, 66285, 72836, 74685, 76774, 79205, 80736, 82038, 82442, 84336, 85750, 88052, 90234, 96021, 96518, 96985, 98752, 99218, 99254, 99519, 100803, 101869, 102440, 103669, 109085]}, "edge": {"target": [], "time": []}}, "mouseout": {"state": {"target": ["0", "1", "10", "2", "2", "10", "3", "5", "6", "4", "4", "7", "2", "2", "7", "18", "18", "14", "19", "19", "21", "21", "22", "13", "18", "15", "15", "15", "17", "18", "16", "16", "6", "4", "6", "3", "2", "2", "1", "10", "28", "26", "25", "26", "27", "27", "29", "25", "30", "32", "31", "24", "24", "25", "24", "23", "0", "1", "1", "1", "1", "0"], "time": [7865, 17870, 19021, 19334, 19966, 20875, 27214, 30066, 32135, 34740, 36723, 38188, 40066, 40600, 41274, 41381, 43333, 45334, 46094, 46618, 47366, 49100, 50708, 52825, 53150, 53251, 53316, 54341, 56580, 56970, 57050, 57891, 58269, 58556, 60185, 66002, 67820, 70185, 72988, 76395, 78535, 80401, 82022, 82053, 83534, 83819, 85337, 87952, 89352, 92319, 96286, 96533, 97217, 99038, 99251, 99284, 99568, 101219, 101917, 102501, 105053, 109150]}, "edge": {"target": [], "time": []}}}, "displayed_time": "127.77", "trialTime": 132864, "trial_type": "mouselab-mdp", "trial_index": 3, "time_elapsed": 901389, "internal_node_id": "0.0-2.0-2.0-0.0"}}, {"uniqueid": "w31339064:a76543568", "current_trial": 4, "dateTime": 1693482309250, "trialdata": {"revealed_states": [], "clicked_states": ["23", "1", "12"], "num_clicks_accrued": [0, 0, 0, 0, 0, 0, 0, 0, 0, 0, 0, 0, 0], "stateRewards": ["", 10, -10, 10, -10, -10, 10, 10, -10, -10, 10, 10, -10, 10, 10, 10, 10, -10, 10, -10, 10, -10, 10, -10, -10, 10, -10, 10, 10, 10, -10, 10, 10, 10], "withholdReward": false, "trial_id": "practice_2", "block": "test", "trialIndex": 1, "score": 12, "costs": -1.5, "simulationMode": [null, null, null, null, null], "rewards": [10, -10, 10, -10, 10], "path": ["0", "0", "1", "2", "3", "8", "11"], "rt": [11319, 2039, 1659, 900, 800], "actions": ["up", "up", "up", "left", "left"], "actionTimes": [14506, 17043, 19195, 20603, 21903], "queries": {"click": {"state": {"target": ["23", "1", "12"], "time": [7302, 10149, 11617]}, "edge": {"target": [], "time": []}}, "mouseover": {"state": {"target": ["1", "23", "1", "12"], "time": [4733, 6700, 8605, 11116]}, "edge": {"target": [], "time": []}}, "mouseout": {"state": {"target": ["1", "1", "23", "1", "12", "0"], "time": [2415, 6516, 7516, 10834, 12969, 24569]}, "edge": {"target": [], "time": []}}}, "displayed_time": "22.40", "trialTime": 25942, "trial_type": "mouselab-mdp", "trial_index": 4, "time_elapsed": 927521, "internal_node_id": "0.0-2.0-2.0-1.0"}}, {"uniqueid": "w31339064:a76543568", "current_trial": 5, "dateTime": 1693482368444, "trialdata": {"view_history": [{"page_index": 0, "viewing_time": 44148}, {"page_index": 1, "viewing_time": 15033}], "rt": 59182, "trial_id": "mouselab_instructions_2_control", "trial_type": "instructions", "trial_index": 5, "time_elapsed": 986716, "internal_node_id": "0.0-2.0-3.0"}}, {"uniqueid": "w31339064:a76543568", "current_trial": 6, "dateTime": 1693482421717, "trialdata": {"rt": 53262, "response": {"Q0": "The cost for clicking on nodes may vary between nodes.", "Q1": "The better I perform the higher my bonus will be.", "Q2": "No, the amount of cash at each node of the web may be different each time.", "Q3": "To get the highest total score.", "Q4": "Any time during the round.", "Q5": "3 seconds"}, "question_order": [0, 1, 2, 3, 4, 5], "correct": {"Q0": "The cost for clicking on nodes may vary between nodes.", "Q1": "The better I perform the higher my bonus will be.", "Q2": "No, the amount of cash at each node of the web may be different each time.", "Q3": "To get the highest total score.", "Q4": "Only before moving the spider.", "Q5": "3 seconds"}, "trial_id": "mouselab_quiz_control", "trial_type": "survey-multi-choice", "trial_index": 6, "time_elapsed": 1039989, "internal_node_id": "0.0-2.0-4.0"}}, {"uniqueid": "w31339064:a76543568", "current_trial": 7, "dateTime": 1693482433012, "trialdata": {"success": true, "trial_type": "fullscreen", "trial_index": 7, "time_elapsed": 1051283, "internal_node_id": "0.0-2.1-0.1-0.1"}}, {"uniqueid": "w31339064:a76543568", "current_trial": 8, "dateTime": 1693482557592, "trialdata": {"view_history": [{"page_index": 0, "viewing_time": 69075}, {"page_index": 1, "viewing_time": 50472}, {"page_index": 2, "viewing_time": 2647}, {"page_index": 3, "viewing_time": 2381}], "rt": 124575, "trial_id": "mouselab_instructions_1_control", "trial_type": "instructions", "trial_index": 8, "time_elapsed": 1175864, "internal_node_id": "0.0-2.1-1.1"}}, {"uniqueid": "w31339064:a76543568", "current_trial": 9, "dateTime": 1693482577670, "trialdata": {"revealed_states": [], "clicked_states": [], "num_clicks_accrued": [0, 0, 0, 0, 0, 0, 0, 0, 0, 0, 0, 0, 0], "stateRewards": ["", 10, -10, -10, -10, 10, -10, -10, -10, -10, 10, 10, 10, 10, 10, -10, -10, -10, -10, 10, -10, 10, -10, 10, -10, -10, -10, -10, -10, 10, -10, 10, 10, -10], "withholdReward": false, "trial_id": "practice_1", "block": "test", "trialIndex": 2, "score": -26.5, "costs": 0, "simulationMode": [null, null, null, null, null], "rewards": [10, -10, -10, -10, -10], "path": ["0", "0", "1", "2", "3", "4", "6"], "rt": [3911, 5234, 3871, 259, 341], "actions": ["up", "up", "up", "right", "right"], "actionTimes": [5734, 11462, 15833, 16589, 17434], "queries": {"click": {"state": {"target": [], "time": []}, "edge": {"target": [], "time": []}}, "mouseover": {"state": {"target": ["1"], "time": [3241]}, "edge": {"target": [], "time": []}}, "mouseout": {"state": {"target": ["0", "1", "1", "2", "3", "2", "1", "0"], "time": [2406, 4339, 7091, 10207, 18842, 19258, 19291, 19357]}, "edge": {"target": [], "time": []}}}, "displayed_time": "17.94", "trialTime": 19881, "trial_type": "mouselab-mdp", "trial_index": 9, "time_elapsed": 1195942, "internal_node_id": "0.0-2.1-2.1-0.1"}}, {"uniqueid": "w31339064:a76543568", "current_trial": 10, "dateTime": 1693482594654, "trialdata": {"revealed_states": [], "clicked_states": ["1", "2", "23", "12"], "num_clicks_accrued": [0, 0, 0, 0, 0, 0, 0, 0, 0, 0, 0, 0, 0], "stateRewards": ["", 10, -10, 10, -10, -10, 10, 10, -10, -10, 10, 10, -10, 10, 10, 10, 10, -10, 10, -10, 10, -10, 10, -10, -10, 10, -10, 10, 10, 10, -10, 10, 10, 10], "withholdReward": false, "trial_id": "practice_2", "block": "test", "trialIndex": 3, "score": 31.5, "costs": -2, "simulationMode": [null, null, null, null, null, null], "rewards": [-10, 10, 10, 10, 10], "path": ["0", "0", "12", "13", "14", "15", "16"], "rt": [8152, 624, 449, 701, 363, 149], "actions": ["right", "right", "right", "right", "up", "up"], "actionTimes": [10289, 10918, 11871, 13072, 13934, 14587], "queries": {"click": {"state": {"target": ["1", "2", "23", "12"], "time": [4591, 6697, 8200, 9382]}, "edge": {"target": [], "time": []}}, "mouseover": {"state": {"target": ["1", "2", "23", "0", "12"], "time": [4119, 5959, 7735, 8803, 9052]}, "edge": {"target": [], "time": []}}, "mouseout": {"state": {"target": ["0", "1", "1", "2", "23", "0"], "time": [3850, 5286, 5650, 7385, 8786, 8835]}, "edge": {"target": [], "time": []}}}, "displayed_time": "15.09", "trialTime": 16775, "trial_type": "mouselab-mdp", "trial_index": 10, "time_elapsed": 1212925, "internal_node_id": "0.0-2.1-2.1-1.1"}}, {"uniqueid": "w31339064:a76543568", "current_trial": 11, "dateTime": 1693482600880, "trialdata": {"view_history": [{"page_index": 0, "viewing_time": 4197}, {"page_index": 1, "viewing_time": 2020}], "rt": 6218, "trial_id": "mouselab_instructions_2_control", "trial_type": "instructions", "trial_index": 11, "time_elapsed": 1219152, "internal_node_id": "0.0-2.1-3.1"}}, {"uniqueid": "w31339064:a76543568", "current_trial": 12, "dateTime": 1693482639883, "trialdata": {"rt": 38999, "response": {"Q0": "The cost for clicking on nodes may vary between nodes.", "Q1": "The better I perform the higher my bonus will be.", "Q2": "No, the amount of cash at each node of the web may be different each time.", "Q3": "To get the highest total score.", "Q4": "Only before moving the spider.", "Q5": "3 seconds"}, "question_order": [0, 1, 2, 3, 4, 5], "correct": {"Q0": "The cost for clicking on nodes may vary between nodes.", "Q1": "The better I perform the higher my bonus will be.", "Q2": "No, the amount of cash at each node of the web may be different each time.", "Q3": "To get the highest total score.", "Q4": "Only before moving the spider.", "Q5": "3 seconds"}, "trial_id": "mouselab_quiz_control", "trial_type": "survey-multi-choice", "trial_index": 12, "time_elapsed": 1258155, "internal_node_id": "0.0-2.1-4.1"}}, {"uniqueid": "w31339064:a76543568", "current_trial": 13, "dateTime": 1693482652331, "trialdata": {"rt": 12430, "response": {"Q0": "No"}, "question_order": [0], "trial_id": "repeat_check", "trial_type": "survey-multi-choice", "trial_index": 13, "time_elapsed": 1270602, "internal_node_id": "0.0-4.0-0.0"}}, {"uniqueid": "w31339064:a76543568", "current_trial": 14, "dateTime": 1693482667232, "trialdata": {"rt": 14887, "stimulus": "\n<h1> Get ready to start the game! </h1>\n\nThank you for reading the instructions. Get ready start with the 40 rounds of this game.\n<br><br>\nIf you need to take a break, feel free to take one after the end of a round, before continuing to the next one.\n<br><br>\nRemember, the more money the spider gets, the bigger your bonus will be!\n<br><br>\n<div style='text-align: center;'>Press <code>space</code> to begin.</div>\n\n<br><br>\n(If, at any point, the <code>space</code> key does not take you to the next page, click once on the text and try again.)", "response": " ", "trial_id": "mdp_ready", "trial_type": "html-keyboard-response", "trial_index": 14, "time_elapsed": 1285504, "internal_node_id": "0.0-6.0-0.0"}}, {"uniqueid": "w31339064:a76543568", "current_trial": 15, "dateTime": 1693482692521, "trialdata": {"revealed_states": [], "clicked_states": [], "num_clicks_accrued": [0, 0, 0, 0, 0, 0, 0, 0, 0, 0, 0, 0, 0], "stateRewards": ["", 2, 1, -3, 7, 46, 11, -36, 16, 71, 5, 1, 2, -2, -8, -3, -4, 6, 55, 7, 68, -54, 2, 1, 1, 6, -6, 42, -4, -84, -11, -65, 63, 25], "withholdReward": false, "trial_id": "mdp_trial_1", "block": "test", "trialIndex": 4, "score": 17, "costs": 0, "simulationMode": [null, null, null, null, null], "rewards": [2, 1, -3, 16, 1], "path": ["0", "0", "1", "2", "3", "8", "11"], "rt": [14547, 1780, 375, 664, 107], "actions": ["up", "up", "up", "left", "left"], "actionTimes": [16521, 18797, 19675, 20862, 21473], "queries": {"click": {"state": {"target": [], "time": []}, "edge": {"target": [], "time": []}}, "mouseover": {"state": {"target": ["23", "23", "23"], "time": [2829, 8028, 9978]}, "edge": {"target": [], "time": []}}, "mouseout": {"state": {"target": ["10", "1", "23", "23", "23"], "time": [961, 1214, 7444, 9129, 12427]}, "edge": {"target": [], "time": []}}}, "displayed_time": "21.97", "trialTime": 25070, "trial_type": "mouselab-mdp", "trial_index": 15, "time_elapsed": 1310792, "internal_node_id": "0.0-6.0-1.0-0.0"}}, {"uniqueid": "w31339064:a76543568", "current_trial": 16, "dateTime": 1693482711619, "trialdata": {"revealed_states": [], "clicked_states": ["23", "24", "1"], "num_clicks_accrued": [0, 0, 0, 0, 0, 0, 0, 0, 0, 0, 0, 0, 0], "stateRewards": ["", -2, -2, -3, -6, -15, -11, 41, -12, -63, -76, 2, -2, -3, 8, 9, -36, -2, -18, -16, -32, -85, -17, -2, 1, 5, -16, 82, 35, -88, -1, 80, -82, -20], "withholdReward": false, "trial_id": "mdp_trial_2", "block": "test", "trialIndex": 5, "score": 5.800000000000001, "costs": -4.199999999999999, "simulationMode": [null, null, null, null, null], "rewards": [-2, -3, 8, 9, -2], "path": ["0", "0", "12", "13", "14", "15", "17"], "rt": [10165, 339, 312, 1425, 360], "actions": ["right", "right", "right", "up", "right"], "actionTimes": [11961, 12801, 13624, 15569, 16423], "queries": {"click": {"state": {"target": ["23", "24", "1"], "time": [2730, 4547, 6738]}, "edge": {"target": [], "time": []}}, "mouseover": {"state": {"target": ["23", "24", "1"], "time": [2341, 4126, 6291]}, "edge": {"target": [], "time": []}}, "mouseout": {"state": {"target": ["1", "23", "24", "1"], "time": [722, 3826, 5992, 6958]}, "edge": {"target": [], "time": []}}}, "displayed_time": "16.93", "trialTime": 18864, "trial_type": "mouselab-mdp", "trial_index": 16, "time_elapsed": 1329890, "internal_node_id": "0.0-6.0-1.0-1.0"}}, {"uniqueid": "w31339064:a76543568", "current_trial": 17, "dateTime": 1693482733711, "trialdata": {"revealed_states": [], "clicked_states": [], "num_clicks_accrued": [0, 0, 0, 0, 0, 0, 0, 0, 0, 0, 0, 0, 0], "stateRewards": ["", -1, 3, 1, -11, -22, -36, 19, -5, -70, -52, 50, -2, -4, 4, -2, -41, -83, 29, -2, 22, 10, -6, -2, 3, -2, 14, 54, 44, 77, -9, -65, -37, -40], "withholdReward": false, "trial_id": "mdp_trial_3", "block": "test", "trialIndex": 6, "score": -47, "costs": 0, "simulationMode": [null, null, null, null, null], "rewards": [-2, 3, -2, -9, -37], "path": ["0", "0", "23", "24", "25", "30", "32"], "rt": [1778, 293, 278, 455, 476], "actions": ["left", "left", "left", "down", "down"], "actionTimes": [3982, 4780, 5564, 6541, 7513], "queries": {"click": {"state": {"target": [], "time": []}, "edge": {"target": [], "time": []}}, "mouseover": {"state": {"target": [], "time": []}, "edge": {"target": [], "time": []}}, "mouseout": {"state": {"target": ["1"], "time": [1515]}, "edge": {"target": [], "time": []}}}, "displayed_time": "16.21", "trialTime": 21864, "trial_type": "mouselab-mdp", "trial_index": 17, "time_elapsed": 1351982, "internal_node_id": "0.0-6.0-1.0-2.0"}}, {"uniqueid": "w31339064:a76543568", "current_trial": 18, "dateTime": 1693482754473, "trialdata": {"revealed_states": [], "clicked_states": ["1"], "num_clicks_accrued": [0, 0, 0, 0, 0, 0, 0, 0, 0, 0, 0, 0, 0], "stateRewards": ["", 2, 4, -3, 16, -58, 30, -35, 11, -60, 47, 27, -2, -1, -7, -16, 23, -70, 68, -10, -65, -43, -34, -2, 1, 7, 9, -63, 34, -31, -8, -12, -86, 59], "withholdReward": false, "trial_id": "mdp_trial_4", "block": "test", "trialIndex": 7, "score": -17.4, "costs": -1.4, "simulationMode": [null, null, null, null, null, null], "rewards": [2, 4, -3, 16, -35], "path": ["0", "0", "1", "2", "3", "4", "7"], "rt": [3074, 796, 1782, 903, 1138, 642], "actions": ["up", "up", "up", "up", "right", "down"], "actionTimes": [4541, 5340, 7663, 9063, 10699, 11837], "queries": {"click": {"state": {"target": ["1"], "time": [4095]}, "edge": {"target": [], "time": []}}, "mouseover": {"state": {"target": ["1"], "time": [3554]}, "edge": {"target": [], "time": []}}, "mouseout": {"state": {"target": ["1"], "time": [4328]}, "edge": {"target": [], "time": []}}}, "displayed_time": "15.48", "trialTime": 20511, "trial_type": "mouselab-mdp", "trial_index": 18, "time_elapsed": 1372744, "internal_node_id": "0.0-6.0-1.0-3.0"}}, {"uniqueid": "w31339064:a76543568", "current_trial": 19, "dateTime": 1693482775576, "trialdata": {"revealed_states": [], "clicked_states": ["12", "1", "23"], "num_clicks_accrued": [0, 0, 0, 0, 0, 0, 0, 0, 0, 0, 0, 0, 0], "stateRewards": ["", 1, 1, -5, 10, -31, 73, 14, -8, -23, 63, -70, -1, 2, 8, 7, 25, -59, 27, -10, -40, -71, -15, -2, 3, -8, -5, -19, 77, -34, 7, 67, 63, 19], "withholdReward": false, "trial_id": "mdp_trial_5", "block": "test", "trialIndex": 8, "score": -28.2, "costs": -4.199999999999999, "simulationMode": [null, null, null, null, null], "rewards": [1, 1, -5, 10, -31], "path": ["0", "0", "1", "2", "3", "4", "5"], "rt": [10535, 888, 501, 742, 172], "actions": ["up", "up", "up", "right", "up"], "actionTimes": [13675, 15059, 16055, 17297, 17974], "queries": {"click": {"state": {"target": ["12", "1", "23"], "time": [5986, 8566, 11288]}, "edge": {"target": [], "time": []}}, "mouseover": {"state": {"target": ["12", "1", "23"], "time": [5015, 6800, 9574]}, "edge": {"target": [], "time": []}}, "mouseout": {"state": {"target": ["2", "1", "12", "1", "23", "0"], "time": [2398, 2482, 6586, 9201, 11515, 19601]}, "edge": {"target": [], "time": []}}}, "displayed_time": "18.49", "trialTime": 20858, "trial_type": "mouselab-mdp", "trial_index": 19, "time_elapsed": 1393847, "internal_node_id": "0.0-6.0-1.0-4.0"}}, {"uniqueid": "w31339064:a76543568", "current_trial": 20, "dateTime": 1693482795181, "trialdata": {"revealed_states": [], "clicked_states": [], "num_clicks_accrued": [0, 0, 0, 0, 0, 0, 0, 0, 0, 0, 0, 0, 0], "stateRewards": ["", 1, -4, -6, -1, -21, 17, -72, 10, 77, 67, -46, -1, 4, -2, 14, -66, -49, -45, -15, -52, 23, -67, 2, -2, -2, 15, -3, 45, -64, 5, -44, 83, 61], "withholdReward": false, "trial_id": "mdp_trial_6", "block": "test", "trialIndex": 9, "score": -30, "costs": 0, "simulationMode": [null, null, null, null, null], "rewards": [-1, 4, -2, 14, -45], "path": ["0", "0", "12", "13", "14", "15", "18"], "rt": [3144, 413, 278, 671, 518], "actions": ["right", "right", "right", "up", "left"], "actionTimes": [5204, 6111, 6909, 8085, 9099], "queries": {"click": {"state": {"target": [], "time": []}, "edge": {"target": [], "time": []}}, "mouseover": {"state": {"target": [], "time": []}, "edge": {"target": [], "time": []}}, "mouseout": {"state": {"target": ["0"], "time": [12512]}, "edge": {"target": [], "time": []}}}, "displayed_time": "16.07", "trialTime": 19340, "trial_type": "mouselab-mdp", "trial_index": 20, "time_elapsed": 1413452, "internal_node_id": "0.0-6.0-1.0-5.0"}}, {"uniqueid": "w31339064:a76543568", "current_trial": 21, "dateTime": 1693482817356, "trialdata": {"revealed_states": [], "clicked_states": ["23", "1", "12"], "num_clicks_accrued": [0, 0, 0, 0, 0, 0, 0, 0, 0, 0, 0, 0, 0], "stateRewards": ["", -2, -4, 6, 14, -34, 49, 36, -8, -3, 32, -4, 1, -2, 1, -8, -20, -71, -57, -7, -86, -62, -16, -2, -3, -5, 11, 23, -21, 53, 5, -5, 85, 73], "withholdReward": false, "trial_id": "mdp_trial_7", "block": "test", "trialIndex": 10, "score": -73.2, "costs": -4.199999999999999, "simulationMode": [null, null, null, null, null], "rewards": [1, -2, 1, -7, -62], "path": ["0", "0", "12", "13", "14", "19", "21"], "rt": [8713, 1116, 2411, 627, 268], "actions": ["right", "right", "right", "down", "down"], "actionTimes": [10349, 11965, 14877, 16026, 16799], "queries": {"click": {"state": {"target": ["23", "1", "12"], "time": [4010, 6294, 8262]}, "edge": {"target": [], "time": []}}, "mouseover": {"state": {"target": ["23", "1", "12"], "time": [2513, 4614, 7197]}, "edge": {"target": [], "time": []}}, "mouseout": {"state": {"target": ["0", "23", "1", "12", "12", "12", "14", "19", "22"], "time": [2329, 4548, 6519, 8478, 9361, 13578, 20198, 21186, 21280]}, "edge": {"target": [], "time": []}}}, "displayed_time": "17.31", "trialTime": 21917, "trial_type": "mouselab-mdp", "trial_index": 21, "time_elapsed": 1435627, "internal_node_id": "0.0-6.0-1.0-6.0"}}, {"uniqueid": "w31339064:a76543568", "current_trial": 22, "dateTime": 1693482837320, "trialdata": {"revealed_states": [], "clicked_states": [], "num_clicks_accrued": [0, 0, 0, 0, 0, 0, 0, 0, 0, 0, 0, 0, 0], "stateRewards": ["", 2, -1, 3, -12, -83, 6, -33, 9, 28, 24, -50, -2, -1, -2, -5, -87, 37, 82, 12, 80, -5, 10, -2, -3, -6, 9, 22, -1, 16, 9, 77, -62, 58], "withholdReward": false, "trial_id": "mdp_trial_8", "block": "test", "trialIndex": 11, "score": 37, "costs": 0, "simulationMode": [null, null, null, null, null], "rewards": [2, -1, 3, 9, 24], "path": ["0", "0", "1", "2", "3", "8", "10"], "rt": [3030, 261, 163, 498, 618], "actions": ["up", "up", "up", "left", "down"], "actionTimes": [5168, 5945, 6631, 7632, 8754], "queries": {"click": {"state": {"target": [], "time": []}, "edge": {"target": [], "time": []}}, "mouseover": {"state": {"target": [], "time": []}, "edge": {"target": [], "time": []}}, "mouseout": {"state": {"target": ["12", "0"], "time": [1164, 10850]}, "edge": {"target": [], "time": []}}}, "displayed_time": "16.14", "trialTime": 19701, "trial_type": "mouselab-mdp", "trial_index": 22, "time_elapsed": 1455591, "internal_node_id": "0.0-6.0-1.0-7.0"}}, {"uniqueid": "w31339064:a76543568", "current_trial": 23, "dateTime": 1693482855608, "trialdata": {"revealed_states": [], "clicked_states": [], "num_clicks_accrued": [0, 0, 0, 0, 0, 0, 0, 0, 0, 0, 0, 0, 0], "stateRewards": ["", 1, 4, -8, -5, -15, -7, 21, 13, -30, 40, -65, 1, 1, 5, -14, 35, 27, -38, -11, 36, -58, -47, -2, 4, -3, 13, -16, -49, 22, 15, -56, -44, -10], "withholdReward": false, "trial_id": "mdp_trial_9", "block": "test", "trialIndex": 12, "score": -55, "costs": 0, "simulationMode": [null, null, null, null, null], "rewards": [1, 4, -8, 13, -65], "path": ["0", "0", "1", "2", "3", "8", "11"], "rt": [1770, 660, 270, 453, 130], "actions": ["up", "up", "up", "left", "left"], "actionTimes": [3422, 4583, 5356, 6323, 6950], "queries": {"click": {"state": {"target": [], "time": []}, "edge": {"target": [], "time": []}}, "mouseover": {"state": {"target": [], "time": []}, "edge": {"target": [], "time": []}}, "mouseout": {"state": {"target": [], "time": []}, "edge": {"target": [], "time": []}}}, "displayed_time": "15.67", "trialTime": 17989, "trial_type": "mouselab-mdp", "trial_index": 23, "time_elapsed": 1473879, "internal_node_id": "0.0-6.0-1.0-8.0"}}, {"uniqueid": "w31339064:a76543568", "current_trial": 24, "dateTime": 1693482876338, "trialdata": {"revealed_states": [], "clicked_states": ["12", "1", "23"], "num_clicks_accrued": [0, 0, 0, 0, 0, 0, 0, 0, 0, 0, 0, 0, 0], "stateRewards": ["", 2, 3, 8, 11, 25, -80, 6, -4, -56, 84, -23, -2, -4, -3, 4, -51, -9, -61, -15, -64, 67, -35, 1, -1, -7, -6, 83, 59, -15, 12, -79, 56, 41], "withholdReward": false, "trial_id": "mdp_trial_10", "block": "test", "trialIndex": 13, "score": -60.2, "costs": -4.199999999999999, "simulationMode": [null, null, null, null, null], "rewards": [2, 3, 8, 11, -80], "path": ["0", "0", "1", "2", "3", "4", "6"], "rt": [10121, 540, 726, 342, 310], "actions": ["up", "up", "up", "right", "right"], "actionTimes": [11747, 12794, 14013, 14861, 15664], "queries": {"click": {"state": {"target": ["12", "1", "23"], "time": [2517, 6294, 8398]}, "edge": {"target": [], "time": []}}, "mouseover": {"state": {"target": ["12", "1", "1", "23"], "time": [2090, 3208, 6000, 6967]}, "edge": {"target": [], "time": []}}, "mouseout": {"state": {"target": ["12", "1", "1", "1", "23"], "time": [3041, 5722, 6526, 6801, 8951]}, "edge": {"target": [], "time": []}}}, "displayed_time": "16.19", "trialTime": 20443, "trial_type": "mouselab-mdp", "trial_index": 24, "time_elapsed": 1494609, "internal_node_id": "0.0-6.0-1.0-9.0"}}, {"uniqueid": "w31339064:a76543568", "current_trial": 25, "dateTime": 1693482893484, "trialdata": {"revealed_states": [], "clicked_states": [], "num_clicks_accrued": [0, 0, 0, 0, 0, 0, 0, 0, 0, 0, 0, 0, 0], "stateRewards": ["", 1, 1, -2, 7, -31, -6, 76, 1, -36, -16, -53, 2, 1, 7, 13, -47, -10, 47, -7, 72, 46, -56, -2, -2, -2, 11, -80, 44, 38, 16, 67, 85, -78], "withholdReward": false, "trial_id": "mdp_trial_11", "block": "test", "trialIndex": 14, "score": 13, "costs": 0, "simulationMode": [null, null, null, null, null], "rewards": [2, 1, 7, 13, -10], "path": ["0", "0", "12", "13", "14", "15", "17"], "rt": [3795, 447, 100, 474, 87], "actions": ["right", "right", "right", "up", "right"], "actionTimes": [5396, 6343, 6946, 7921, 8531], "queries": {"click": {"state": {"target": [], "time": []}, "edge": {"target": [], "time": []}}, "mouseover": {"state": {"target": [], "time": []}, "edge": {"target": [], "time": []}}, "mouseout": {"state": {"target": [], "time": []}, "edge": {"target": [], "time": []}}}, "displayed_time": "15.61", "trialTime": 16864, "trial_type": "mouselab-mdp", "trial_index": 25, "time_elapsed": 1511755, "internal_node_id": "0.0-6.0-1.0-10.0"}}, {"uniqueid": "w31339064:a76543568", "current_trial": 26, "dateTime": 1693482910972, "trialdata": {"revealed_states": [], "clicked_states": [], "num_clicks_accrued": [0, 0, 0, 0, 0, 0, 0, 0, 0, 0, 0, 0, 0], "stateRewards": ["", 1, 4, 7, -16, -84, -6, -46, -12, -7, -49, -26, -1, 2, -4, 2, 22, 37, -64, 1, 88, -13, -10, 1, -4, -2, 5, 2, -10, -34, 9, 66, 55, 38], "withholdReward": false, "trial_id": "mdp_trial_12", "block": "test", "trialIndex": 15, "score": 21, "costs": 0, "simulationMode": [null, null, null, null, null], "rewards": [-1, 2, -4, 2, 22], "path": ["0", "0", "12", "13", "14", "15", "16"], "rt": [2149, 147, 330, 370, 130], "actions": ["right", "right", "right", "up", "up"], "actionTimes": [3287, 3950, 4783, 5672, 6316], "queries": {"click": {"state": {"target": [], "time": []}, "edge": {"target": [], "time": []}}, "mouseover": {"state": {"target": [], "time": []}, "edge": {"target": [], "time": []}}, "mouseout": {"state": {"target": ["0"], "time": [961]}, "edge": {"target": [], "time": []}}}, "displayed_time": "15.14", "trialTime": 17192, "trial_type": "mouselab-mdp", "trial_index": 26, "time_elapsed": 1529243, "internal_node_id": "0.0-6.0-1.0-11.0"}}, {"uniqueid": "w31339064:a76543568", "current_trial": 27, "dateTime": 1693482928021, "trialdata": {"revealed_states": [], "clicked_states": [], "num_clicks_accrued": [0, 0, 0, 0, 0, 0, 0, 0, 0, 0, 0, 0, 0], "stateRewards": ["", -2, 4, -7, -3, -76, 39, -28, 10, 14, 12, 60, 2, -3, 6, -10, 88, -34, -41, -3, 72, -13, -56, 1, 3, 2, 8, -51, 23, -57, 1, 14, -46, -16], "withholdReward": false, "trial_id": "mdp_trial_13", "block": "test", "trialIndex": 16, "score": 21, "costs": 0, "simulationMode": [null, null, null, null, null], "rewards": [1, 3, 2, 1, 14], "path": ["0", "0", "23", "24", "25", "30", "31"], "rt": [2831, 277, 222, 926, 743], "actions": ["left", "left", "left", "down", "right"], "actionTimes": [3971, 4756, 5483, 6906, 8155], "queries": {"click": {"state": {"target": [], "time": []}, "edge": {"target": [], "time": []}}, "mouseover": {"state": {"target": [], "time": []}, "edge": {"target": [], "time": []}}, "mouseout": {"state": {"target": ["0"], "time": [860]}, "edge": {"target": [], "time": []}}}, "displayed_time": "15.15", "trialTime": 16769, "trial_type": "mouselab-mdp", "trial_index": 27, "time_elapsed": 1546293, "internal_node_id": "0.0-6.0-1.0-12.0"}}, {"uniqueid": "w31339064:a76543568", "current_trial": 28, "dateTime": 1693482950899, "trialdata": {"revealed_states": [], "clicked_states": [], "num_clicks_accrued": [0, 0, 0, 0, 0, 0, 0, 0, 0, 0, 0, 0, 0], "stateRewards": ["", 1, 1, -3, 2, 22, -25, -11, -5, 50, 49, 3, 1, -1, 8, 14, -85, -30, 57, -6, -39, -16, 59, -2, -1, 5, 5, 59, -16, 8, 4, 67, 56, -9], "withholdReward": false, "trial_id": "mdp_trial_14", "block": "test", "trialIndex": 17, "score": -24, "costs": 0, "simulationMode": [null, null, null, null, null], "rewards": [1, 1, -3, 2, -25], "path": ["0", "0", "1", "2", "3", "4", "6"], "rt": [2041, 590, 219, 2082, 182], "actions": ["up", "up", "up", "right", "right"], "actionTimes": [2959, 4064, 4780, 7360, 8043], "queries": {"click": {"state": {"target": [], "time": []}, "edge": {"target": [], "time": []}}, "mouseover": {"state": {"target": [], "time": []}, "edge": {"target": [], "time": []}}, "mouseout": {"state": {"target": ["0"], "time": [697]}, "edge": {"target": [], "time": []}}}, "displayed_time": "14.92", "trialTime": 22587, "trial_type": "mouselab-mdp", "trial_index": 28, "time_elapsed": 1569170, "internal_node_id": "0.0-6.0-1.0-13.0"}}, {"uniqueid": "w31339064:a76543568", "current_trial": 29, "dateTime": 1693482968795, "trialdata": {"revealed_states": [], "clicked_states": [], "num_clicks_accrued": [0, 0, 0, 0, 0, 0, 0, 0, 0, 0, 0, 0, 0], "stateRewards": ["", 1, -2, -8, -13, 4, 34, -84, -4, -49, 88, -70, -1, 3, -4, 10, -77, 13, -34, 15, -21, -16, 27, 1, -2, 8, -8, -6, 38, -26, 6, -15, 66, -3], "withholdReward": false, "trial_id": "mdp_trial_15", "block": "test", "trialIndex": 18, "score": -62, "costs": 0, "simulationMode": [null, null, null, null, null], "rewards": [1, -2, -8, -4, -49], "path": ["0", "0", "1", "2", "3", "8", "9"], "rt": [2339, 446, 151, 804, 190], "actions": ["up", "up", "up", "left", "up"], "actionTimes": [3612, 4554, 5207, 6511, 7195], "queries": {"click": {"state": {"target": [], "time": []}, "edge": {"target": [], "time": []}}, "mouseover": {"state": {"target": ["0"], "time": [2087]}, "edge": {"target": [], "time": []}}, "mouseout": {"state": {"target": ["0"], "time": [1069]}, "edge": {"target": [], "time": []}}}, "displayed_time": "15.28", "trialTime": 17611, "trial_type": "mouselab-mdp", "trial_index": 29, "time_elapsed": 1587066, "internal_node_id": "0.0-6.0-1.0-14.0"}}, {"uniqueid": "w31339064:a76543568", "current_trial": 30, "dateTime": 1693482987298, "trialdata": {"revealed_states": [], "clicked_states": [], "num_clicks_accrued": [0, 0, 0, 0, 0, 0, 0, 0, 0, 0, 0, 0, 0], "stateRewards": ["", 1, -1, 1, 13, 31, -56, 72, 2, 41, 5, 63, -2, -3, -2, 3, -71, -26, 52, 13, -31, 24, -67, 2, -2, 5, 4, 66, 43, 72, 9, 86, -26, 44], "withholdReward": false, "trial_id": "mdp_trial_16", "block": "test", "trialIndex": 19, "score": 48, "costs": 0, "simulationMode": [null, null, null, null, null], "rewards": [-2, -3, -2, 3, 52], "path": ["0", "0", "12", "13", "14", "15", "18"], "rt": [2543, 82, 87, 1480, 956], "actions": ["right", "right", "right", "up", "left"], "actionTimes": [4496, 5076, 5680, 7675, 9135], "queries": {"click": {"state": {"target": [], "time": []}, "edge": {"target": [], "time": []}}, "mouseover": {"state": {"target": [], "time": []}, "edge": {"target": [], "time": []}}, "mouseout": {"state": {"target": [], "time": []}, "edge": {"target": [], "time": []}}}, "displayed_time": "15.96", "trialTime": 18200, "trial_type": "mouselab-mdp", "trial_index": 30, "time_elapsed": 1605570, "internal_node_id": "0.0-6.0-1.0-15.0"}}, {"uniqueid": "w31339064:a76543568", "current_trial": 31, "dateTime": 1693483003973, "trialdata": {"revealed_states": [], "clicked_states": [], "num_clicks_accrued": [0, 0, 0, 0, 0, 0, 0, 0, 0, 0, 0, 0, 0], "stateRewards": ["", -2, 1, 6, -2, -10, -78, -69, 14, -15, 7, -1, 1, -1, -2, 13, 77, 32, 87, 5, -74, 30, -26, 1, 3, 4, 12, 39, 54, -43, 2, 10, 23, 13], "withholdReward": false, "trial_id": "mdp_trial_17", "block": "test", "trialIndex": 20, "score": 33, "costs": 0, "simulationMode": [null, null, null, null, null], "rewards": [1, -1, -2, 5, 30], "path": ["0", "0", "12", "13", "14", "19", "21"], "rt": [2103, 339, 138, 327, 527], "actions": ["right", "right", "right", "down", "down"], "actionTimes": [2997, 3854, 4502, 5341, 6375], "queries": {"click": {"state": {"target": [], "time": []}, "edge": {"target": [], "time": []}}, "mouseover": {"state": {"target": [], "time": []}, "edge": {"target": [], "time": []}}, "mouseout": {"state": {"target": [], "time": []}, "edge": {"target": [], "time": []}}}, "displayed_time": "14.90", "trialTime": 16380, "trial_type": "mouselab-mdp", "trial_index": 31, "time_elapsed": 1622245, "internal_node_id": "0.0-6.0-1.0-16.0"}}, {"uniqueid": "w31339064:a76543568", "current_trial": 32, "dateTime": 1693483022415, "trialdata": {"revealed_states": [], "clicked_states": [], "num_clicks_accrued": [0, 0, 0, 0, 0, 0, 0, 0, 0, 0, 0, 0, 0], "stateRewards": ["", 2, 3, -3, 12, -43, 81, -82, -15, 58, -7, -75, -1, -1, 3, -5, 50, -25, -8, 4, 66, 65, -66, 2, -4, 2, -1, -10, 10, 37, 11, 88, -37, 8], "withholdReward": false, "trial_id": "mdp_trial_18", "block": "test", "trialIndex": 21, "score": 36, "costs": 0, "simulationMode": [null, null, null, null, null], "rewards": [2, -4, 2, -1, 37], "path": ["0", "0", "23", "24", "25", "26", "29"], "rt": [3507, 167, 141, 933, 436], "actions": ["left", "left", "left", "up", "left"], "actionTimes": [6076, 6750, 7412, 8850, 9787], "queries": {"click": {"state": {"target": [], "time": []}, "edge": {"target": [], "time": []}}, "mouseover": {"state": {"target": [], "time": []}, "edge": {"target": [], "time": []}}, "mouseout": {"state": {"target": [], "time": []}, "edge": {"target": [], "time": []}}}, "displayed_time": "16.58", "trialTime": 18123, "trial_type": "mouselab-mdp", "trial_index": 32, "time_elapsed": 1640686, "internal_node_id": "0.0-6.0-1.0-17.0"}}, {"uniqueid": "w31339064:a76543568", "current_trial": 33, "dateTime": 1693483039798, "trialdata": {"revealed_states": [], "clicked_states": [], "num_clicks_accrued": [0, 0, 0, 0, 0, 0, 0, 0, 0, 0, 0, 0, 0], "stateRewards": ["", -1, 4, -5, 9, 29, -75, -42, -16, 24, -28, -41, 2, -3, 1, 10, 60, 47, 55, -1, -53, 22, -40, 2, -3, -6, 4, -26, 44, 54, 15, -76, 42, 14], "withholdReward": false, "trial_id": "mdp_trial_19", "block": "test", "trialIndex": 22, "score": 22, "costs": 0, "simulationMode": [null, null, null, null, null], "rewards": [2, -3, -6, 15, 14], "path": ["0", "0", "23", "24", "25", "30", "33"], "rt": [3496, 367, 239, 355, 996], "actions": ["left", "left", "left", "down", "left"], "actionTimes": [5142, 6005, 6743, 7592, 9083], "queries": {"click": {"state": {"target": [], "time": []}, "edge": {"target": [], "time": []}}, "mouseover": {"state": {"target": [], "time": []}, "edge": {"target": [], "time": []}}, "mouseout": {"state": {"target": [], "time": []}, "edge": {"target": [], "time": []}}}, "displayed_time": "15.65", "trialTime": 17077, "trial_type": "mouselab-mdp", "trial_index": 33, "time_elapsed": 1658070, "internal_node_id": "0.0-6.0-1.0-18.0"}}, {"uniqueid": "w31339064:a76543568", "current_trial": 34, "dateTime": 1693483058641, "trialdata": {"revealed_states": [], "clicked_states": [], "num_clicks_accrued": [0, 0, 0, 0, 0, 0, 0, 0, 0, 0, 0, 0, 0], "stateRewards": ["", 2, 3, -6, -5, -3, 55, 40, 11, 61, 11, 51, 2, -4, -6, 9, -25, 29, -15, -6, 7, -77, -2, -2, -4, 1, 14, -43, -1, 56, -12, -54, 41, -74], "withholdReward": false, "trial_id": "mdp_trial_20", "block": "test", "trialIndex": 23, "score": 8, "costs": 0, "simulationMode": [null, null, null, null, null], "rewards": [-2, -4, 1, 14, -1], "path": ["0", "0", "23", "24", "25", "26", "28"], "rt": [3509, 193, 164, 369, 330], "actions": ["left", "left", "left", "up", "right"], "actionTimes": [5207, 5895, 6583, 7454, 8283], "queries": {"click": {"state": {"target": [], "time": []}, "edge": {"target": [], "time": []}}, "mouseover": {"state": {"target": [], "time": []}, "edge": {"target": [], "time": []}}, "mouseout": {"state": {"target": [], "time": []}, "edge": {"target": [], "time": []}}}, "displayed_time": "15.71", "trialTime": 18519, "trial_type": "mouselab-mdp", "trial_index": 34, "time_elapsed": 1676912, "internal_node_id": "0.0-6.0-1.0-19.0"}}, {"uniqueid": "w31339064:a76543568", "current_trial": 35, "dateTime": 1693483081839, "trialdata": {"revealed_states": [], "clicked_states": [], "num_clicks_accrued": [0, 0, 0, 0, 0, 0, 0, 0, 0, 0, 0, 0, 0], "stateRewards": ["", -1, 1, -5, -6, -78, 47, -13, 12, 48, -88, 20, 2, -3, -2, 13, -20, 37, -57, 14, -38, 30, 31, -2, -2, 8, 2, -23, 78, 28, 12, -74, -88, 8], "withholdReward": false, "trial_id": "mdp_trial_21", "block": "test", "trialIndex": 24, "score": -24, "costs": 0, "simulationMode": [null, null, null, null, null], "rewards": [-1, 1, -5, -6, -13], "path": ["0", "0", "1", "2", "3", "4", "7"], "rt": [9731, 279, 245, 351, 1257], "actions": ["up", "up", "up", "right", "down"], "actionTimes": [14752, 15540, 16306, 17162, 18915], "queries": {"click": {"state": {"target": [], "time": []}, "edge": {"target": [], "time": []}}, "mouseover": {"state": {"target": [], "time": []}, "edge": {"target": [], "time": []}}, "mouseout": {"state": {"target": [], "time": []}, "edge": {"target": [], "time": []}}}, "displayed_time": "19.41", "trialTime": 22893, "trial_type": "mouselab-mdp", "trial_index": 35, "time_elapsed": 1700110, "internal_node_id": "0.0-6.0-1.0-20.0"}}, {"uniqueid": "w31339064:a76543568", "current_trial": 36, "dateTime": 1693483101194, "trialdata": {"revealed_states": [], "clicked_states": [], "num_clicks_accrued": [0, 0, 0, 0, 0, 0, 0, 0, 0, 0, 0, 0, 0], "stateRewards": ["", -1, 2, 7, 8, 75, 67, -11, 6, 52, -17, 38, -1, 4, -8, 14, 74, -37, -17, -12, 52, 55, 71, -2, -1, -5, 2, 21, 6, -88, -14, 64, -61, -47], "withholdReward": false, "trial_id": "mdp_trial_22", "block": "test", "trialIndex": 25, "score": -8, "costs": 0, "simulationMode": [null, null, null, null, null], "rewards": [-1, 4, -8, 14, -17], "path": ["0", "0", "12", "13", "14", "15", "18"], "rt": [1313, 137, 123, 564, 254], "actions": ["right", "right", "right", "up", "left"], "actionTimes": [4910, 5585, 6221, 7280, 8053], "queries": {"click": {"state": {"target": [], "time": []}, "edge": {"target": [], "time": []}}, "mouseover": {"state": {"target": [], "time": []}, "edge": {"target": [], "time": []}}, "mouseout": {"state": {"target": ["0", "0", "0"], "time": [2540, 2776, 17079]}, "edge": {"target": [], "time": []}}}, "displayed_time": "17.60", "trialTime": 19052, "trial_type": "mouselab-mdp", "trial_index": 36, "time_elapsed": 1719466, "internal_node_id": "0.0-6.0-1.0-21.0"}}, {"uniqueid": "w31339064:a76543568", "current_trial": 37, "dateTime": 1693483119550, "trialdata": {"revealed_states": [], "clicked_states": [], "num_clicks_accrued": [0, 0, 0, 0, 0, 0, 0, 0, 0, 0, 0, 0, 0], "stateRewards": ["", -2, 4, -5, -12, 85, -24, -18, -15, -78, -22, 26, -1, -1, 2, 14, -45, 52, -23, 7, -33, 24, -6, -2, -4, 5, -7, -16, 36, -39, 5, 71, -87, -23], "withholdReward": false, "trial_id": "mdp_trial_23", "block": "test", "trialIndex": 26, "score": -47, "costs": 0, "simulationMode": [null, null, null, null, null], "rewards": [-2, -4, 5, -7, -39], "path": ["0", "0", "23", "24", "25", "26", "29"], "rt": [3300, 148, 3, 633, 326], "actions": ["left", "left", "left", "up", "left"], "actionTimes": [5480, 6168, 6677, 7822, 8648], "queries": {"click": {"state": {"target": [], "time": []}, "edge": {"target": [], "time": []}}, "mouseover": {"state": {"target": [], "time": []}, "edge": {"target": [], "time": []}}, "mouseout": {"state": {"target": ["1", "0"], "time": [853, 1534]}, "edge": {"target": [], "time": []}}}, "displayed_time": "16.18", "trialTime": 18014, "trial_type": "mouselab-mdp", "trial_index": 37, "time_elapsed": 1737821, "internal_node_id": "0.0-6.0-1.0-22.0"}}, {"uniqueid": "w31339064:a76543568", "current_trial": 38, "dateTime": 1693483137019, "trialdata": {"revealed_states": [], "clicked_states": [], "num_clicks_accrued": [0, 0, 0, 0, 0, 0, 0, 0, 0, 0, 0, 0, 0], "stateRewards": ["", 2, 3, 8, 14, 69, -27, 17, 2, -71, -65, -10, 2, -3, 7, 8, 65, -10, 65, -12, 73, -12, 13, -2, -2, 6, 10, -79, -69, -18, 10, -85, 67, 74], "withholdReward": false, "trial_id": "mdp_trial_24", "block": "test", "trialIndex": 27, "score": 4, "costs": 0, "simulationMode": [null, null, null, null, null], "rewards": [2, -3, 7, 8, -10], "path": ["0", "0", "12", "13", "14", "15", "17"], "rt": [5359, 247, 49, 384, 155], "actions": ["right", "right", "right", "up", "right"], "actionTimes": [6341, 7096, 7648, 8553, 9203], "queries": {"click": {"state": {"target": [], "time": []}, "edge": {"target": [], "time": []}}, "mouseover": {"state": {"target": [], "time": []}, "edge": {"target": [], "time": []}}, "mouseout": {"state": {"target": ["0"], "time": [721]}, "edge": {"target": [], "time": []}}}, "displayed_time": "14.99", "trialTime": 17125, "trial_type": "mouselab-mdp", "trial_index": 38, "time_elapsed": 1755290, "internal_node_id": "0.0-6.0-1.0-23.0"}}, {"uniqueid": "w31339064:a76543568", "current_trial": 39, "dateTime": 1693483155154, "trialdata": {"revealed_states": [], "clicked_states": [], "num_clicks_accrued": [0, 0, 0, 0, 0, 0, 0, 0, 0, 0, 0, 0, 0], "stateRewards": ["", 2, -3, -5, 5, 11, -9, -33, 6, 67, 6, -30, -1, -2, -6, 13, 55, 13, 72, -14, 75, 21, -66, -2, -4, 6, 15, -1, -35, 60, 2, 51, -73, 12], "withholdReward": false, "trial_id": "mdp_trial_25", "block": "test", "trialIndex": 28, "score": -71, "costs": 0, "simulationMode": [null, null, null, null, null], "rewards": [-2, -4, 6, 2, -73], "path": ["0", "0", "23", "24", "25", "30", "32"], "rt": [5284, 203, 156, 361, 196], "actions": ["left", "left", "left", "down", "down"], "actionTimes": [6713, 7422, 8075, 8946, 9649], "queries": {"click": {"state": {"target": [], "time": []}, "edge": {"target": [], "time": []}}, "mouseover": {"state": {"target": [], "time": []}, "edge": {"target": [], "time": []}}, "mouseout": {"state": {"target": ["0"], "time": [1182]}, "edge": {"target": [], "time": []}}}, "displayed_time": "15.43", "trialTime": 17782, "trial_type": "mouselab-mdp", "trial_index": 39, "time_elapsed": 1773426, "internal_node_id": "0.0-6.0-1.0-24.0"}}, {"uniqueid": "w31339064:a76543568", "current_trial": 40, "dateTime": 1693483173859, "trialdata": {"revealed_states": [], "clicked_states": [], "num_clicks_accrued": [0, 0, 0, 0, 0, 0, 0, 0, 0, 0, 0, 0, 0], "stateRewards": ["", 1, 3, 3, -10, 52, 68, 59, 12, 7, 49, 21, -2, -3, -4, -2, -2, 63, 63, -4, 44, 43, -76, -2, -3, -6, 13, 48, 36, 12, -5, -36, -33, -11], "withholdReward": false, "trial_id": "mdp_trial_26", "block": "test", "trialIndex": 29, "score": 65, "costs": 0, "simulationMode": [null, null, null, null, null], "rewards": [1, 3, 3, -10, 68], "path": ["0", "0", "1", "2", "3", "4", "6"], "rt": [9314, 608, 61, 516, 183], "actions": ["up", "up", "up", "right", "right"], "actionTimes": [10899, 12002, 12558, 13578, 14279], "queries": {"click": {"state": {"target": [], "time": []}, "edge": {"target": [], "time": []}}, "mouseover": {"state": {"target": ["23", "1", "23", "23", "1"], "time": [4304, 6030, 6612, 8598, 9264]}, "edge": {"target": [], "time": []}}, "mouseout": {"state": {"target": ["0", "23", "1", "23", "23"], "time": [1370, 5963, 6314, 7437, 9240]}, "edge": {"target": [], "time": []}}}, "displayed_time": "15.59", "trialTime": 18401, "trial_type": "mouselab-mdp", "trial_index": 40, "time_elapsed": 1792131, "internal_node_id": "0.0-6.0-1.0-25.0"}}, {"uniqueid": "w31339064:a76543568", "current_trial": 41, "dateTime": 1693483191641, "trialdata": {"revealed_states": [], "clicked_states": [], "num_clicks_accrued": [0, 0, 0, 0, 0, 0, 0, 0, 0, 0, 0, 0, 0], "stateRewards": ["", -1, 2, 5, -6, 13, -64, -47, 8, -79, -80, -33, 1, 2, -2, -16, 56, -71, -10, 3, 29, 44, 85, -1, 4, 5, 4, -36, -56, 19, 8, 52, -13, -2], "withholdReward": false, "trial_id": "mdp_trial_27", "block": "test", "trialIndex": 30, "score": -86, "costs": 0, "simulationMode": [null, null, null, null, null], "rewards": [1, 2, -2, -16, -71], "path": ["0", "0", "12", "13", "14", "15", "17"], "rt": [2632, 239, 1546, 718, 383], "actions": ["right", "right", "right", "up", "right"], "actionTimes": [4581, 5323, 7363, 8585, 9467], "queries": {"click": {"state": {"target": [], "time": []}, "edge": {"target": [], "time": []}}, "mouseover": {"state": {"target": [], "time": []}, "edge": {"target": [], "time": []}}, "mouseout": {"state": {"target": ["1"], "time": [1095]}, "edge": {"target": [], "time": []}}}, "displayed_time": "15.95", "trialTime": 17469, "trial_type": "mouselab-mdp", "trial_index": 41, "time_elapsed": 1809912, "internal_node_id": "0.0-6.0-1.0-26.0"}}, {"uniqueid": "w31339064:a76543568", "current_trial": 42, "dateTime": 1693483209291, "trialdata": {"revealed_states": [], "clicked_states": [], "num_clicks_accrued": [0, 0, 0, 0, 0, 0, 0, 0, 0, 0, 0, 0, 0], "stateRewards": ["", 1, 4, 5, 8, -55, -11, 8, 16, -37, 77, -22, -2, 3, -8, -10, 45, 87, -67, 4, 17, -33, -22, -1, -3, 7, 6, -39, -85, 75, -1, 7, -48, 45], "withholdReward": false, "trial_id": "mdp_trial_28", "block": "test", "trialIndex": 31, "score": -36, "costs": 0, "simulationMode": [null, null, null, null, null], "rewards": [-2, 3, -8, 4, -33], "path": ["0", "0", "12", "13", "14", "19", "21"], "rt": [7142, 77, 224, 393, 149], "actions": ["right", "right", "right", "down", "down"], "actionTimes": [9176, 9753, 10483, 11370, 12025], "queries": {"click": {"state": {"target": [], "time": []}, "edge": {"target": [], "time": []}}, "mouseover": {"state": {"target": [], "time": []}, "edge": {"target": [], "time": []}}, "mouseout": {"state": {"target": ["0"], "time": [1869]}, "edge": {"target": [], "time": []}}}, "displayed_time": "16.04", "trialTime": 17312, "trial_type": "mouselab-mdp", "trial_index": 42, "time_elapsed": 1827563, "internal_node_id": "0.0-6.0-1.0-27.0"}}, {"uniqueid": "w31339064:a76543568", "current_trial": 43, "dateTime": 1693483230013, "trialdata": {"revealed_states": [], "clicked_states": [], "num_clicks_accrued": [0, 0, 0, 0, 0, 0, 0, 0, 0, 0, 0, 0, 0], "stateRewards": ["", 1, -1, -7, -7, -22, 15, -13, 13, 26, -32, 38, -1, 1, -7, -4, 16, -62, 86, 12, -54, 56, 64, -2, -1, 6, 14, -57, 37, 62, -6, -25, 50, -70], "withholdReward": false, "trial_id": "mdp_trial_29", "block": "test", "trialIndex": 32, "score": -49, "costs": 0, "simulationMode": [null, null, null, null, null], "rewards": [-1, 1, -7, 12, -54], "path": ["0", "0", "12", "13", "14", "19", "20"], "rt": [1540, 381, 706, 443, 884], "actions": ["right", "right", "right", "down", "right"], "actionTimes": [2590, 3467, 4692, 5630, 7037], "queries": {"click": {"state": {"target": [], "time": []}, "edge": {"target": [], "time": []}}, "mouseover": {"state": {"target": [], "time": []}, "edge": {"target": [], "time": []}}, "mouseout": {"state": {"target": ["0"], "time": [830]}, "edge": {"target": [], "time": []}}}, "displayed_time": "15.05", "trialTime": 20393, "trial_type": "mouselab-mdp", "trial_index": 43, "time_elapsed": 1848284, "internal_node_id": "0.0-6.0-1.0-28.0"}}, {"uniqueid": "w31339064:a76543568", "current_trial": 44, "dateTime": 1693483251883, "trialdata": {"revealed_states": [], "clicked_states": [], "num_clicks_accrued": [0, 0, 0, 0, 0, 0, 0, 0, 0, 0, 0, 0, 0], "stateRewards": ["", 1, 1, 4, 11, 83, -66, 18, -16, -23, 5, 25, 1, -3, 1, -12, 18, 24, -86, -11, -64, 36, 40, 2, 1, -6, 13, 55, 29, 72, -2, 81, -72, -41], "withholdReward": false, "trial_id": "mdp_trial_30", "block": "test", "trialIndex": 33, "score": -76, "costs": 0, "simulationMode": [null, null, null, null, null], "rewards": [1, -3, 1, -11, -64], "path": ["0", "0", "12", "13", "14", "19", "20"], "rt": [5004, 273, 331, 503, 572], "actions": ["right", "right", "right", "down", "right"], "actionTimes": [6021, 6797, 7621, 8629, 9697], "queries": {"click": {"state": {"target": [], "time": []}, "edge": {"target": [], "time": []}}, "mouseover": {"state": {"target": [], "time": []}, "edge": {"target": [], "time": []}}, "mouseout": {"state": {"target": ["0"], "time": [778]}, "edge": {"target": [], "time": []}}}, "displayed_time": "15.02", "trialTime": 21513, "trial_type": "mouselab-mdp", "trial_index": 44, "time_elapsed": 1870154, "internal_node_id": "0.0-6.0-1.0-29.0"}}, {"uniqueid": "w31339064:a76543568", "current_trial": 45, "dateTime": 1693483269831, "trialdata": {"revealed_states": [], "clicked_states": [], "num_clicks_accrued": [0, 0, 0, 0, 0, 0, 0, 0, 0, 0, 0, 0, 0], "stateRewards": ["", -2, 1, -5, 2, -68, 80, 33, 10, 67, -59, 20, -1, -3, 3, 14, 74, -2, 24, -16, 63, 80, 46, -1, 4, 6, 12, 83, -38, -43, -4, 43, 14, -79], "withholdReward": false, "trial_id": "mdp_trial_31", "block": "test", "trialIndex": 34, "score": 76, "costs": 0, "simulationMode": [null, null, null, null, null], "rewards": [-2, 1, -5, 2, 80], "path": ["0", "0", "1", "2", "3", "4", "6"], "rt": [2733, 307, 560, 701, 210], "actions": ["up", "up", "up", "right", "right"], "actionTimes": [4481, 5294, 6348, 7556, 8264], "queries": {"click": {"state": {"target": [], "time": []}, "edge": {"target": [], "time": []}}, "mouseover": {"state": {"target": [], "time": []}, "edge": {"target": [], "time": []}}, "mouseout": {"state": {"target": ["0"], "time": [1573]}, "edge": {"target": [], "time": []}}}, "displayed_time": "15.76", "trialTime": 17590, "trial_type": "mouselab-mdp", "trial_index": 45, "time_elapsed": 1888102, "internal_node_id": "0.0-6.0-1.0-30.0"}}, {"uniqueid": "w31339064:a76543568", "current_trial": 46, "dateTime": 1693483288901, "trialdata": {"revealed_states": [], "clicked_states": [], "num_clicks_accrued": [0, 0, 0, 0, 0, 0, 0, 0, 0, 0, 0, 0, 0], "stateRewards": ["", 2, -4, 4, 9, 69, 9, -75, 12, -86, 66, 25, -1, 3, 2, -13, -88, -3, 1, 4, -69, 49, -84, 2, -1, 4, 2, -18, -81, -52, -15, -69, -54, 25], "withholdReward": false, "trial_id": "mdp_trial_32", "block": "test", "trialIndex": 35, "score": -76, "costs": 0, "simulationMode": [null, null, null, null, null], "rewards": [-1, 3, 2, 4, -84], "path": ["0", "0", "12", "13", "14", "19", "22"], "rt": [4889, 231, 269, 368, 1271], "actions": ["right", "right", "right", "down", "left"], "actionTimes": [8255, 8977, 9750, 10616, 12386], "queries": {"click": {"state": {"target": [], "time": []}, "edge": {"target": [], "time": []}}, "mouseover": {"state": {"target": [], "time": []}, "edge": {"target": [], "time": []}}, "mouseout": {"state": {"target": ["0"], "time": [3139]}, "edge": {"target": [], "time": []}}}, "displayed_time": "17.37", "trialTime": 18720, "trial_type": "mouselab-mdp", "trial_index": 46, "time_elapsed": 1907172, "internal_node_id": "0.0-6.0-1.0-31.0"}}, {"uniqueid": "w31339064:a76543568", "current_trial": 47, "dateTime": 1693483309707, "trialdata": {"revealed_states": [], "clicked_states": [], "num_clicks_accrued": [0, 0, 0, 0, 0, 0, 0, 0, 0, 0, 0, 0, 0], "stateRewards": ["", 1, -3, -4, -11, -56, 61, -47, -16, -28, -9, 69, -2, -3, -4, -8, 40, -86, 59, -4, 80, 27, 54, -1, 3, -1, 8, 67, 23, 50, 6, 83, -43, -29], "withholdReward": false, "trial_id": "mdp_trial_33", "block": "test", "trialIndex": 36, "score": 67, "costs": 0, "simulationMode": [null, null, null, null, null], "rewards": [-2, -3, -4, -4, 80], "path": ["0", "0", "12", "13", "14", "19", "20"], "rt": [6837, 155, 249, 448, 309], "actions": ["right", "right", "right", "down", "right"], "actionTimes": [10977, 11628, 12376, 13322, 14150], "queries": {"click": {"state": {"target": [], "time": []}, "edge": {"target": [], "time": []}}, "mouseover": {"state": {"target": [], "time": []}, "edge": {"target": [], "time": []}}, "mouseout": {"state": {"target": ["0"], "time": [1471]}, "edge": {"target": [], "time": []}}}, "displayed_time": "18.15", "trialTime": 20456, "trial_type": "mouselab-mdp", "trial_index": 47, "time_elapsed": 1927978, "internal_node_id": "0.0-6.0-1.0-32.0"}}, {"uniqueid": "w31339064:a76543568", "current_trial": 48, "dateTime": 1693483342531, "trialdata": {"revealed_states": [], "clicked_states": [], "num_clicks_accrued": [0, 0, 0, 0, 0, 0, 0, 0, 0, 0, 0, 0, 0], "stateRewards": ["", -2, 4, 3, 5, -61, 4, 30, 1, -47, 83, 10, 1, 4, 7, -14, 19, -74, -83, 6, -2, -2, -65, -1, -2, 4, -11, 12, -1, -68, 11, -38, -28, 66], "withholdReward": false, "trial_id": "mdp_trial_34", "block": "test", "trialIndex": 37, "score": 14, "costs": 0, "simulationMode": [null, null, null, null, null], "rewards": [-2, 4, 3, 5, 4], "path": ["0", "0", "1", "2", "3", "4", "6"], "rt": [13301, 142, 115, 234, 823], "actions": ["up", "up", "up", "right", "right"], "actionTimes": [21255, 21898, 22519, 23255, 24596], "queries": {"click": {"state": {"target": [], "time": []}, "edge": {"target": [], "time": []}}, "mouseover": {"state": {"target": [], "time": []}, "edge": {"target": [], "time": []}}, "mouseout": {"state": {"target": ["0"], "time": [7713]}, "edge": {"target": [], "time": []}}}, "displayed_time": "25.09", "trialTime": 32479, "trial_type": "mouselab-mdp", "trial_index": 48, "time_elapsed": 1960802, "internal_node_id": "0.0-6.0-1.0-33.0"}}, {"uniqueid": "w31339064:a76543568", "current_trial": 49, "dateTime": 1693483360074, "trialdata": {"revealed_states": [], "clicked_states": [], "num_clicks_accrued": [0, 0, 0, 0, 0, 0, 0, 0, 0, 0, 0, 0, 0], "stateRewards": ["", -2, 2, 3, -7, -31, -33, 29, -8, -57, 50, -83, -1, -1, 5, 13, -23, -62, 25, 5, -66, -85, 14, 1, -2, -1, 16, 71, 33, -19, -14, 5, -43, 79], "withholdReward": false, "trial_id": "mdp_trial_35", "block": "test", "trialIndex": 38, "score": -46, "costs": 0, "simulationMode": [null, null, null, null, null], "rewards": [-1, -1, 5, 13, -62], "path": ["0", "0", "12", "13", "14", "15", "17"], "rt": [2768, 442, 554, 393, 186], "actions": ["right", "right", "right", "up", "right"], "actionTimes": [4635, 5574, 6619, 7526, 8237], "queries": {"click": {"state": {"target": [], "time": []}, "edge": {"target": [], "time": []}}, "mouseover": {"state": {"target": [], "time": []}, "edge": {"target": [], "time": []}}, "mouseout": {"state": {"target": ["0"], "time": [1635]}, "edge": {"target": [], "time": []}}}, "displayed_time": "15.89", "trialTime": 17182, "trial_type": "mouselab-mdp", "trial_index": 49, "time_elapsed": 1978345, "internal_node_id": "0.0-6.0-1.0-34.0"}}, {"uniqueid": "w31339064:a76543568", "current_trial": 50, "dateTime": 1693483378931, "trialdata": {"revealed_states": [], "clicked_states": [], "num_clicks_accrued": [0, 0, 0, 0, 0, 0, 0, 0, 0, 0, 0, 0, 0], "stateRewards": ["", 2, -1, 4, -9, -43, 7, 54, -13, 38, -40, -83, -1, 2, -8, -10, 34, -33, 11, -14, -79, 65, 26, 1, 2, 4, 10, 21, 1, 86, 4, -53, 28, -29], "withholdReward": false, "trial_id": "mdp_trial_36", "block": "test", "trialIndex": 39, "score": 3, "costs": 0, "simulationMode": [null, null, null, null, null], "rewards": [2, -1, 4, -9, 7], "path": ["0", "0", "1", "2", "3", "4", "6"], "rt": [2390, 316, 187, 605, 3275], "actions": ["up", "up", "up", "right", "right"], "actionTimes": [3630, 4449, 5154, 6270, 10040], "queries": {"click": {"state": {"target": [], "time": []}, "edge": {"target": [], "time": []}}, "mouseover": {"state": {"target": [], "time": []}, "edge": {"target": [], "time": []}}, "mouseout": {"state": {"target": ["0"], "time": [1007]}, "edge": {"target": [], "time": []}}}, "displayed_time": "15.25", "trialTime": 18499, "trial_type": "mouselab-mdp", "trial_index": 50, "time_elapsed": 1997202, "internal_node_id": "0.0-6.0-1.0-35.0"}}, {"uniqueid": "w31339064:a76543568", "current_trial": 51, "dateTime": 1693483400989, "trialdata": {"revealed_states": [], "clicked_states": [], "num_clicks_accrued": [0, 0, 0, 0, 0, 0, 0, 0, 0, 0, 0, 0, 0], "stateRewards": ["", -1, 4, -8, 12, 14, 69, -8, 5, -72, -14, 56, -1, -1, -1, 9, 67, 19, 11, -9, -88, -58, 3, 2, -4, -8, 4, 62, 77, -74, 5, -31, 65, 88], "withholdReward": false, "trial_id": "mdp_trial_37", "block": "test", "trialIndex": 40, "score": 25, "costs": 0, "simulationMode": [null, null, null, null, null], "rewards": [-1, -1, -1, 9, 19], "path": ["0", "0", "12", "13", "14", "15", "17"], "rt": [7100, 64, 59, 496, 118], "actions": ["right", "right", "right", "up", "right"], "actionTimes": [9571, 10142, 10719, 11722, 12345], "queries": {"click": {"state": {"target": [], "time": []}, "edge": {"target": [], "time": []}}, "mouseover": {"state": {"target": [], "time": []}, "edge": {"target": [], "time": []}}, "mouseout": {"state": {"target": ["0"], "time": [2259]}, "edge": {"target": [], "time": []}}}, "displayed_time": "16.47", "trialTime": 21703, "trial_type": "mouselab-mdp", "trial_index": 51, "time_elapsed": 2019260, "internal_node_id": "0.0-6.0-1.0-36.0"}}, {"uniqueid": "w31339064:a76543568", "current_trial": 52, "dateTime": 1693483419903, "trialdata": {"revealed_states": [], "clicked_states": [], "num_clicks_accrued": [0, 0, 0, 0, 0, 0, 0, 0, 0, 0, 0, 0, 0], "stateRewards": ["", -2, 1, -7, 9, 8, 25, 61, -7, -17, 69, -81, 1, 4, -4, -11, 16, 67, 44, 3, 6, -45, -54, -2, 3, 6, -11, -15, 32, -47, 3, -39, -6, -88], "withholdReward": false, "trial_id": "mdp_trial_38", "block": "test", "trialIndex": 41, "score": 10, "costs": 0, "simulationMode": [null, null, null, null, null], "rewards": [1, 4, -4, 3, 6], "path": ["0", "0", "12", "13", "14", "19", "20"], "rt": [6461, 9, 650, 308, 374], "actions": ["right", "right", "right", "down", "right"], "actionTimes": [7802, 8306, 9494, 10319, 11183], "queries": {"click": {"state": {"target": [], "time": []}, "edge": {"target": [], "time": []}}, "mouseover": {"state": {"target": [], "time": []}, "edge": {"target": [], "time": []}}, "mouseout": {"state": {"target": ["0"], "time": [1102]}, "edge": {"target": [], "time": []}}}, "displayed_time": "15.35", "trialTime": 18551, "trial_type": "mouselab-mdp", "trial_index": 52, "time_elapsed": 2038174, "internal_node_id": "0.0-6.0-1.0-37.0"}}, {"uniqueid": "w31339064:a76543568", "current_trial": 53, "dateTime": 1693483438269, "trialdata": {"revealed_states": [], "clicked_states": [], "num_clicks_accrued": [0, 0, 0, 0, 0, 0, 0, 0, 0, 0, 0, 0, 0], "stateRewards": ["", 2, -1, 5, 8, 75, -35, -77, 1, -9, -81, -58, 1, 2, -7, 5, 77, -16, 19, 16, -10, -18, 40, -2, 3, 7, -5, 64, 1, -62, 10, 27, 10, 65], "withholdReward": false, "trial_id": "mdp_trial_39", "block": "test", "trialIndex": 42, "score": -15, "costs": 0, "simulationMode": [null, null, null, null, null], "rewards": [1, 2, -7, 5, -16], "path": ["0", "0", "12", "13", "14", "15", "17"], "rt": [1738, 508, 130, 302, 192], "actions": ["right", "right", "right", "up", "right"], "actionTimes": [3423, 4432, 5084, 5892, 6599], "queries": {"click": {"state": {"target": [], "time": []}, "edge": {"target": [], "time": []}}, "mouseover": {"state": {"target": [], "time": []}, "edge": {"target": [], "time": []}}, "mouseout": {"state": {"target": ["0"], "time": [1460]}, "edge": {"target": [], "time": []}}}, "displayed_time": "15.70", "trialTime": 18013, "trial_type": "mouselab-mdp", "trial_index": 53, "time_elapsed": 2056540, "internal_node_id": "0.0-6.0-1.0-38.0"}}, {"uniqueid": "w31339064:a76543568", "current_trial": 54, "dateTime": 1693483457017, "trialdata": {"revealed_states": [], "clicked_states": [], "num_clicks_accrued": [0, 0, 0, 0, 0, 0, 0, 0, 0, 0, 0, 0, 0], "stateRewards": ["", -1, -3, -6, -2, -7, 80, -45, -3, -38, -72, 76, 2, 1, 7, 4, -62, 14, -74, 14, -87, -21, -88, -2, 1, -7, -10, 66, 56, -76, 10, -29, -72, -70], "withholdReward": false, "trial_id": "mdp_trial_40", "block": "test", "trialIndex": 43, "score": -63, "costs": 0, "simulationMode": [null, null, null, null, null], "rewards": [2, 1, 7, 14, -87], "path": ["0", "0", "12", "13", "14", "19", "20"], "rt": [8153, 410, 200, 341, 306], "actions": ["right", "right", "right", "down", "right"], "actionTimes": [10412, 11317, 12022, 12880, 13697], "queries": {"click": {"state": {"target": [], "time": []}, "edge": {"target": [], "time": []}}, "mouseover": {"state": {"target": [], "time": []}, "edge": {"target": [], "time": []}}, "mouseout": {"state": {"target": ["0"], "time": [2042]}, "edge": {"target": [], "time": []}}}, "displayed_time": "16.27", "trialTime": 18344, "trial_type": "mouselab-mdp", "trial_index": 54, "time_elapsed": 2075288, "internal_node_id": "0.0-6.0-1.0-39.0"}}, {"uniqueid": "w31339064:a76543568", "current_trial": 55, "dateTime": 1693483554000, "trialdata": {"rt": 96969, "response": {"Q0": "$-2 to $2", "Q1": "$-4 to $4", "Q2": "$-32 to $32", "Q3": "The cost for clicking on nodes varied between nodes.", "Q4": "Slightly motivated"}, "question_order": [0, 1, 2, 3, 4], "trial_id": "final_quiz_control", "trial_type": "survey-multi-choice", "trial_index": 55, "time_elapsed": 2172271, "internal_node_id": "0.0-6.0-2.0"}}, {"uniqueid": "w31339064:a76543568", "current_trial": 56, "dateTime": 1693483640719, "trialdata": {"rt": 86695, "response": {"Q0": "Mainly went with my gut", "Q1": "I was struggling with struggling with strategy", "Q2": "The varied amounts of nodes made it difficult"}, "trial_id": "self_report_control", "trial_type": "survey-text", "trial_index": 56, "time_elapsed": 2258991, "internal_node_id": "0.0-6.0-3.0"}}, {"uniqueid": "w31339064:a76543568", "current_trial": 57, "dateTime": 1693483690368, "trialdata": {"rt": 49642, "response": {"gender": "female", "age": "27", "colorblind": "0", "effort": "0"}, "trial_type": "survey-html-form", "trial_index": 57, "time_elapsed": 2308640, "internal_node_id": "0.0-6.0-4.0"}}, {"uniqueid": "w31339064:a76543568", "current_trial": 58, "dateTime": 1693483743355, "trialdata": {"rt": 52971, "response": {"Q0": "The nodes feature was a bit confusing", "Q1": "no", "Q2": ""}, "trial_type": "survey-text", "trial_index": 58, "time_elapsed": 2361627, "internal_node_id": "0.0-6.0-5.0"}}, {"uniqueid": "w31339064:a76543568", "current_trial": 59, "dateTime": 1693483821467, "trialdata": {"rt": 78100, "stimulus": "<h1>Completion Code Instructions (1/2)</h1>\n<br><br><br><br>\nYou have reached the end of the experiment! The completion code consists of two parts: (1) a code with 2 characters (2) a code with 6 characters. On this page, you will receive the second part of the code. The first part of the completion code will be on the next page.\n<br><br>\nThe second part of your completion code is: <b>EWEK22</b>\n<br><br>\nPlease note this down. Then, press 'Finish HIT' in order to find the first part of your completion code. Once the data has been saved, you will receive this code either in this window or in the original browser window where you started the experiment.\n", "response": 0, "trial_type": "html-button-response", "trial_index": 59, "time_elapsed": 2439738, "internal_node_id": "0.0-6.0-6.0"}}, {"uniqueid": "w31339064:a76543568", "current_trial": 60, "dateTime": 1693483822517, "trialdata": {"success": true, "trial_type": "fullscreen", "trial_index": 60, "time_elapsed": 2440789, "internal_node_id": "0.0-7.0"}}], "questiondata": {"params": {"CODE": "C6DMOQA6", "MIN_TIME": 14, "inspectCost": 1, "startTime": "Thu Aug 31 2023 13:29:39 GMT+0200 (South Africa Standard Time)", "bonusRate": 0.002, "variance": "1_2_4_8_44", "branching": "31123"}, "final_score": -468.2}, "eventdata": [{"eventtype": "initialized", "value": null, "timestamp": 1693481378456, "interval": 0}, {"eventtype": "window_resize", "value": [1032, 600], "timestamp": 1693481378456, "interval": 0}, {"eventtype": "window_resize", "value": [1032, 600], "timestamp": 1693481379101, "interval": 645}, {"eventtype": "window_resize", "value": [1280, 720], "timestamp": 1693481394175, "interval": 15074}, {"eventtype": "focus", "value": "off", "timestamp": 1693482430029, "interval": 1035854}, {"eventtype": "focus", "value": "on", "timestamp": 1693482430029, "interval": 0}, {"eventtype": "window_resize", "value": [1032, 600], "timestamp": 1693482430250, "interval": 221}, {"eventtype": "window_resize", "value": [1280, 720], "timestamp": 1693482432269, "interval": 2019}, {"eventtype": "window_resize", "value": [1032, 600], "timestamp": 1693483821788, "interval": 1389519}], "useragent": "Mozilla/5.0 (Windows NT 10.0; Win64; x64) AppleWebKit/537.36 (KHTML, like Gecko) Chrome/116.0.0.0 Safari/537.36", "mode": "live", "id": "w31339064:a76543568", "status": "user data saved", "Beginhit": "2023-08-31 11:29:34.145762", "Beginexp": "2023-08-31 11:29:55.14267", "Endhit": "2023-08-31 12:10:26.030339", "psiturkStatus": 3, "browser": "<redacted>", "platform": "windows", "language": "en-US"}