{"condition": 1, "counterbalance": 0, "assignmentId": "a35950875", "workerId": "w75482563", "hitId": "h25254736", "currenttrial": 56, "bonus": 0, "data": [{"uniqueid": "w75482563:a35950875", "current_trial": 0, "dateTime": 1693580555161, "trialdata": {"success": true, "trial_type": "fullscreen", "trial_index": 0, "time_elapsed": 5226, "internal_node_id": "0.0-0.0"}}, {"uniqueid": "w75482563:a35950875", "current_trial": 1, "dateTime": 1693580643689, "trialdata": {"view_history": [{"page_index": 0, "viewing_time": 88516}], "rt": 88517, "trial_id": "exp_instructions_misaligned", "trial_type": "instructions", "trial_index": 1, "time_elapsed": 93756, "internal_node_id": "0.0-1.0"}}, {"uniqueid": "w75482563:a35950875", "current_trial": 2, "dateTime": 1693581119110, "trialdata": {"view_history": [{"page_index": 0, "viewing_time": 283825}, {"page_index": 1, "viewing_time": 95865}, {"page_index": 0, "viewing_time": 1395}, {"page_index": 1, "viewing_time": 3078}, {"page_index": 2, "viewing_time": 51948}, {"page_index": 3, "viewing_time": 39306}], "rt": 475418, "trial_id": "mouselab_instructions_1_misaligned", "trial_type": "instructions", "trial_index": 2, "time_elapsed": 569177, "internal_node_id": "0.0-2.0-1.0"}}, {"uniqueid": "w75482563:a35950875", "current_trial": 3, "dateTime": 1693581157364, "trialdata": {"revealed_states": [], "clicked_states": ["3", "4", "5"], "num_clicks_accrued": [0, 0, 0, 0, 0, 0, 0, 0, 0, 0, 0, 0, 0], "stateRewards": ["", -10, 10, -10, 10, -10, -10, 10, 10, 10, 10, -10, -10, -10, 10, -10, 10, 10, 10, 10, -10, -10, 10, 10, -10, 10, 10, 10, 10, 10, 10, 10, -10, -10], "withholdReward": false, "trial_id": "practice_1", "block": "test", "trialIndex": 0, "score": 12, "costs": -1.5, "simulationMode": [null, null, null, null, null], "rewards": [-10, 10, -10, 10, 10], "path": ["0", "0", "1", "2", "3", "8", "9"], "rt": [19508, 688, 1169, 724, 512], "actions": ["up", "up", "up", "left", "up"], "actionTimes": [25152, 26395, 28106, 29358, 30409], "queries": {"click": {"state": {"target": ["3", "4", "5"], "time": [12776, 14487, 20601]}, "edge": {"target": [], "time": []}}, "mouseover": {"state": {"target": ["1", "2", "3", "3", "4", "8", "5", "6", "6"], "time": [7343, 7757, 11456, 12318, 13590, 16118, 19119, 21820, 22351]}, "edge": {"target": [], "time": []}}, "mouseout": {"state": {"target": ["0", "0", "0", "1", "2", "3", "3", "4", "8", "5", "6", "6", "17", "20", "19"], "time": [698, 4131, 5112, 7478, 11365, 12079, 13221, 14858, 18239, 21328, 21871, 23631, 34023, 34817, 35154]}, "edge": {"target": [], "time": []}}}, "displayed_time": "30.94", "trialTime": 37125, "trial_type": "mouselab-mdp", "trial_index": 3, "time_elapsed": 607429, "internal_node_id": "0.0-2.0-2.0-0.0"}}, {"uniqueid": "w75482563:a35950875", "current_trial": 4, "dateTime": 1693581180581, "trialdata": {"revealed_states": [], "clicked_states": ["30", "32", "22"], "num_clicks_accrued": [0, 0, 0, 0, 0, 0, 0, 0, 0, 0, 0, 0, 0], "stateRewards": ["", 10, -10, -10, 10, 10, -10, 10, 10, 10, -10, 10, -10, -10, 10, -10, 10, 10, 10, -10, -10, 10, -10, -10, 10, -10, -10, 10, -10, 10, -10, 10, 10, -10], "withholdReward": false, "trial_id": "practice_2", "block": "test", "trialIndex": 1, "score": -8, "costs": -1.5, "simulationMode": [null, null, null, null, null], "rewards": [10, -10, -10, 10, -10], "path": ["0", "0", "1", "2", "3", "4", "6"], "rt": [11361, 402, 586, 1023, 763], "actions": ["up", "up", "up", "right", "right"], "actionTimes": [14380, 15327, 16444, 18014, 19329], "queries": {"click": {"state": {"target": ["30", "32", "22"], "time": [6755, 8970, 10929]}, "edge": {"target": [], "time": []}}, "mouseover": {"state": {"target": ["1", "2", "8", "28", "25", "30", "33", "30", "31", "32", "22", "19"], "time": [3836, 4025, 4557, 6062, 6137, 6199, 6269, 6456, 7618, 8197, 10247, 11450]}, "edge": {"target": [], "time": []}}, "mouseout": {"state": {"target": ["0", "1", "2", "8", "28", "25", "30", "33", "30", "31", "32", "22", "19"], "time": [3722, 3910, 4268, 6009, 6087, 6151, 6225, 6298, 7488, 8065, 9310, 11366, 11472]}, "edge": {"target": [], "time": []}}}, "displayed_time": "19.88", "trialTime": 22482, "trial_type": "mouselab-mdp", "trial_index": 4, "time_elapsed": 630646, "internal_node_id": "0.0-2.0-2.0-1.0"}}, {"uniqueid": "w75482563:a35950875", "current_trial": 5, "dateTime": 1693581213400, "trialdata": {"view_history": [{"page_index": 0, "viewing_time": 23608}, {"page_index": 1, "viewing_time": 9203}], "rt": 32812, "trial_id": "mouselab_instructions_2_misaligned", "trial_type": "instructions", "trial_index": 5, "time_elapsed": 663467, "internal_node_id": "0.0-2.0-3.0"}}, {"uniqueid": "w75482563:a35950875", "current_trial": 6, "dateTime": 1693581277206, "trialdata": {"rt": 63800, "response": {"Q0": "The cost for clicking on nodes may vary between nodes.", "Q1": "The better I perform the higher my bonus will be.", "Q2": "No, the amount of cash at each node of the web may be different each time.", "Q3": "To get the highest total score.", "Q4": "Only before moving the spider.", "Q5": "3 seconds"}, "question_order": [0, 1, 2, 3, 4, 5], "correct": {"Q0": "The cost for clicking on nodes may vary between nodes.", "Q1": "The better I perform the higher my bonus will be.", "Q2": "No, the amount of cash at each node of the web may be different each time.", "Q3": "To get the highest total score.", "Q4": "Only before moving the spider.", "Q5": "3 seconds"}, "trial_id": "mouselab_quiz_misaligned", "trial_type": "survey-multi-choice", "trial_index": 6, "time_elapsed": 727273, "internal_node_id": "0.0-2.0-4.0"}}, {"uniqueid": "w75482563:a35950875", "current_trial": 7, "dateTime": 1693581292398, "trialdata": {"rt": 15182, "response": {"Q0": "No"}, "question_order": [0], "trial_id": "repeat_check", "trial_type": "survey-multi-choice", "trial_index": 7, "time_elapsed": 742465, "internal_node_id": "0.0-4.0-0.0"}}, {"uniqueid": "w75482563:a35950875", "current_trial": 8, "dateTime": 1693581296052, "trialdata": {"rt": 3644, "stimulus": "\n<h1> Get ready to start the game! </h1>\n\nThank you for reading the instructions. Get ready start with the 40 rounds of this game.\n<br><br>\nIf you need to take a break, feel free to take one after the end of a round, before continuing to the next one.\n<br><br>\nRemember, the more money the spider gets, the bigger your bonus will be!\n<br><br>\n<div style='text-align: center;'>Press <code>space</code> to begin.</div>\n\n<br><br>\n(If, at any point, the <code>space</code> key does not take you to the next page, click once on the text and try again.)", "response": " ", "trial_id": "mdp_ready", "trial_type": "html-keyboard-response", "trial_index": 8, "time_elapsed": 746119, "internal_node_id": "0.0-6.0-0.0"}}, {"uniqueid": "w75482563:a35950875", "current_trial": 9, "dateTime": 1693581317513, "trialdata": {"revealed_states": [], "clicked_states": ["4", "9", "15"], "num_clicks_accrued": [0, 0, 0, 0, 0, 0, 0, 0, 0, 0, 0, 0, 0], "stateRewards": ["", -1, -4, 8, 8, -68, 47, 24, -7, -61, 49, -69, -1, -1, 8, -7, 42, 1, -45, -11, 10, -63, -6, 1, 4, 6, -16, 79, -37, -58, -12, 81, 18, -53], "withholdReward": false, "trial_id": "mdp_trial_1", "block": "test", "trialIndex": 2, "score": 52.75, "costs": -5.25, "simulationMode": [null, null, null, null, null], "rewards": [-1, -4, 8, 8, 47], "path": ["0", "0", "1", "2", "3", "4", "6"], "rt": [9531, 461, 240, 298, 167], "actions": ["up", "up", "up", "right", "right"], "actionTimes": [11838, 12833, 13606, 14428, 15134], "queries": {"click": {"state": {"target": ["4", "9", "15"], "time": [3991, 6483, 9546]}, "edge": {"target": [], "time": []}}, "mouseover": {"state": {"target": ["2", "4", "3", "8", "9", "8", "10", "2", "18", "14", "15", "16"], "time": [3347, 3667, 4596, 5033, 5314, 7674, 8149, 8329, 8499, 8922, 9169, 10489]}, "edge": {"target": [], "time": []}}, "mouseout": {"state": {"target": ["0", "2", "4", "3", "8", "9", "8", "10", "2", "18", "14", "15", "16", "17", "14", "22"], "time": [1461, 3496, 4462, 4899, 5077, 7449, 7907, 8298, 8350, 8517, 9041, 10282, 10524, 19487, 19763, 19854]}, "edge": {"target": [], "time": []}}}, "displayed_time": "16.31", "trialTime": 20476, "trial_type": "mouselab-mdp", "trial_index": 9, "time_elapsed": 767579, "internal_node_id": "0.0-6.0-1.0-0.0"}}, {"uniqueid": "w75482563:a35950875", "current_trial": 10, "dateTime": 1693581337963, "trialdata": {"revealed_states": [], "clicked_states": [], "num_clicks_accrued": [0, 0, 0, 0, 0, 0, 0, 0, 0, 0, 0, 0, 0], "stateRewards": ["", -1, 3, -5, -2, -13, -9, -34, -7, -81, 32, 35, -2, -2, 1, -14, -32, 81, 7, 4, 82, 56, -8, -1, 3, -8, 6, -24, -24, -53, 2, 38, 61, 54], "withholdReward": false, "trial_id": "mdp_trial_2", "block": "test", "trialIndex": 3, "score": 57, "costs": 0, "simulationMode": [null, null, null, null, null], "rewards": [-1, 3, -8, 2, 61], "path": ["0", "0", "23", "24", "25", "30", "32"], "rt": [2427, 346, 271, 197, 123], "actions": ["left", "left", "left", "down", "down"], "actionTimes": [4802, 5667, 6482, 7221, 7870], "queries": {"click": {"state": {"target": [], "time": []}, "edge": {"target": [], "time": []}}, "mouseover": {"state": {"target": ["18"], "time": [2579]}, "edge": {"target": [], "time": []}}, "mouseout": {"state": {"target": ["0", "18", "17", "15", "1", "28", "24", "31", "30", "31", "12", "13", "17"], "time": [2390, 2610, 14218, 14233, 14298, 14615, 14663, 14729, 15795, 17503, 17912, 18035, 19305]}, "edge": {"target": [], "time": []}}}, "displayed_time": "16.38", "trialTime": 19656, "trial_type": "mouselab-mdp", "trial_index": 10, "time_elapsed": 788028, "internal_node_id": "0.0-6.0-1.0-1.0"}}, {"uniqueid": "w75482563:a35950875", "current_trial": 11, "dateTime": 1693581357468, "trialdata": {"revealed_states": [], "clicked_states": ["19", "4", "30"], "num_clicks_accrued": [0, 0, 0, 0, 0, 0, 0, 0, 0, 0, 0, 0, 0], "stateRewards": ["", 1, 4, -8, -5, -15, -7, 21, 13, -30, 40, -65, 1, 1, 5, -14, 35, 27, -38, -11, 36, -58, -47, -2, 4, -3, 13, -16, -49, 22, 15, -56, -44, -10], "withholdReward": false, "trial_id": "mdp_trial_3", "block": "test", "trialIndex": 4, "score": -0.6500000000000004, "costs": -4.65, "simulationMode": [null, null, null, null, null], "rewards": [-2, 4, -3, 15, -10], "path": ["0", "0", "23", "24", "25", "30", "33"], "rt": [9851, 175, 73, 198, 222], "actions": ["left", "left", "left", "down", "left"], "actionTimes": [11933, 12647, 13242, 13996, 14739], "queries": {"click": {"state": {"target": ["19", "4", "30"], "time": [3983, 6765, 9701]}, "edge": {"target": [], "time": []}}, "mouseover": {"state": {"target": ["13", "19", "19", "20", "14", "15", "4", "28", "25", "26", "25", "30", "31", "14"], "time": [2605, 2925, 3629, 5221, 5475, 5599, 6316, 7865, 8132, 8419, 9146, 9517, 10012, 10213]}, "edge": {"target": [], "time": []}}, "mouseout": {"state": {"target": ["17", "14", "13", "12", "13", "19", "19", "20", "19", "14", "15", "4", "28", "25", "26", "25", "30", "31", "14"], "time": [485, 1203, 1356, 1464, 2703, 3288, 4901, 5310, 5461, 5512, 5770, 7216, 7931, 8345, 9113, 9196, 9980, 10032, 10234]}, "edge": {"target": [], "time": []}}}, "displayed_time": "16.09", "trialTime": 18741, "trial_type": "mouselab-mdp", "trial_index": 11, "time_elapsed": 807533, "internal_node_id": "0.0-6.0-1.0-2.0"}}, {"uniqueid": "w75482563:a35950875", "current_trial": 12, "dateTime": 1693581376835, "trialdata": {"revealed_states": [], "clicked_states": ["4", "8", "19"], "num_clicks_accrued": [0, 0, 0, 0, 0, 0, 0, 0, 0, 0, 0, 0, 0], "stateRewards": ["", 1, -2, 4, 7, -43, -83, -60, -5, -86, -80, 83, -1, -2, 6, 11, -15, 21, 13, 9, 29, -49, 11, -1, 4, -6, -11, 87, 40, 63, -8, -39, -11, 62], "withholdReward": false, "trial_id": "mdp_trial_4", "block": "test", "trialIndex": 5, "score": -41.65, "costs": -4.65, "simulationMode": [null, null, null, null, null], "rewards": [-1, -2, 6, 9, -49], "path": ["0", "0", "12", "13", "14", "19", "21"], "rt": [6016, 149, 564, 326, 125], "actions": ["right", "right", "right", "down", "down"], "actionTimes": [9197, 9884, 10995, 11863, 12519], "queries": {"click": {"state": {"target": ["4", "8", "19"], "time": [4377, 5834, 7648]}, "edge": {"target": [], "time": []}}, "mouseover": {"state": {"target": ["1", "7", "4", "3", "8", "1", "13", "19"], "time": [3271, 3468, 3957, 5193, 5384, 7105, 7228, 7418]}, "edge": {"target": [], "time": []}}, "mouseout": {"state": {"target": ["0", "1", "7", "4", "3", "8", "8", "1", "13", "19"], "time": [2721, 3354, 3794, 5136, 5269, 5951, 6284, 7157, 7281, 7746]}, "edge": {"target": [], "time": []}}}, "displayed_time": "17.19", "trialTime": 18693, "trial_type": "mouselab-mdp", "trial_index": 12, "time_elapsed": 826900, "internal_node_id": "0.0-6.0-1.0-3.0"}}, {"uniqueid": "w75482563:a35950875", "current_trial": 13, "dateTime": 1693581395682, "trialdata": {"revealed_states": [], "clicked_states": [], "num_clicks_accrued": [0, 0, 0, 0, 0, 0, 0, 0, 0, 0, 0, 0, 0], "stateRewards": ["", -1, 2, 7, 8, 75, 67, -11, 6, 52, -17, 38, -1, 4, -8, 14, 74, -37, -17, -12, 52, 55, 71, -2, -1, -5, 2, 21, 6, -88, -14, 64, -61, -47], "withholdReward": false, "trial_id": "mdp_trial_5", "block": "test", "trialIndex": 6, "score": 52, "costs": 0, "simulationMode": [null, null, null, null, null], "rewards": [-1, 2, 7, 6, 38], "path": ["0", "0", "1", "2", "3", "8", "11"], "rt": [1405, 376, 79, 93, 135], "actions": ["up", "up", "up", "left", "left"], "actionTimes": [3213, 4138, 4776, 5443, 6120], "queries": {"click": {"state": {"target": [], "time": []}, "edge": {"target": [], "time": []}}, "mouseover": {"state": {"target": [], "time": []}, "edge": {"target": [], "time": []}}, "mouseout": {"state": {"target": ["14", "13", "12", "0", "16", "7", "2", "8", "11", "8", "10", "0"], "time": [819, 855, 909, 1824, 8589, 8654, 8855, 9252, 10321, 11197, 11732, 11969]}, "edge": {"target": [], "time": []}}}, "displayed_time": "15.83", "trialTime": 17959, "trial_type": "mouselab-mdp", "trial_index": 13, "time_elapsed": 845747, "internal_node_id": "0.0-6.0-1.0-4.0"}}, {"uniqueid": "w75482563:a35950875", "current_trial": 14, "dateTime": 1693581417177, "trialdata": {"revealed_states": [], "clicked_states": [], "num_clicks_accrued": [0, 0, 0, 0, 0, 0, 0, 0, 0, 0, 0, 0, 0], "stateRewards": ["", 1, 1, -3, 2, 22, -25, -11, -5, 50, 49, 3, 1, -1, 8, 14, -85, -30, 57, -6, -39, -16, 59, -2, -1, 5, 5, 59, -16, 8, 4, 67, 56, -9], "withholdReward": false, "trial_id": "mdp_trial_6", "block": "test", "trialIndex": 7, "score": 73, "costs": 0, "simulationMode": [null, null, null, null, null], "rewards": [-2, -1, 5, 4, 67], "path": ["0", "0", "23", "24", "25", "30", "31"], "rt": [2151, 177, 593, 214, 264], "actions": ["left", "left", "left", "down", "right"], "actionTimes": [5140, 5882, 7005, 7776, 8573], "queries": {"click": {"state": {"target": [], "time": []}, "edge": {"target": [], "time": []}}, "mouseover": {"state": {"target": ["1"], "time": [3528]}, "edge": {"target": [], "time": []}}, "mouseout": {"state": {"target": ["0", "1"], "time": [1490, 3581]}, "edge": {"target": [], "time": []}}}, "displayed_time": "17.00", "trialTime": 20232, "trial_type": "mouselab-mdp", "trial_index": 14, "time_elapsed": 867242, "internal_node_id": "0.0-6.0-1.0-5.0"}}, {"uniqueid": "w75482563:a35950875", "current_trial": 15, "dateTime": 1693581443476, "trialdata": {"revealed_states": [], "clicked_states": [], "num_clicks_accrued": [0, 0, 0, 0, 0, 0, 0, 0, 0, 0, 0, 0, 0], "stateRewards": ["", -2, 3, 8, -9, 59, 41, -50, -1, 82, 66, 33, 2, -2, 7, 8, 1, -38, 12, -16, 24, -37, 67, 1, 4, -2, 5, 35, -83, 28, 8, -27, 69, -64], "withholdReward": false, "trial_id": "mdp_trial_7", "block": "test", "trialIndex": 8, "score": 58, "costs": 0, "simulationMode": [null, null, null, null, null], "rewards": [2, -2, 7, -16, 67], "path": ["0", "0", "12", "13", "14", "19", "22"], "rt": [1885, 140, 274, 71, 317], "actions": ["right", "right", "right", "down", "left"], "actionTimes": [4575, 5259, 6071, 6691, 7549], "queries": {"click": {"state": {"target": [], "time": []}, "edge": {"target": [], "time": []}}, "mouseover": {"state": {"target": [], "time": []}, "edge": {"target": [], "time": []}}, "mouseout": {"state": {"target": ["7", "2", "0", "6"], "time": [1380, 1487, 2715, 10867]}, "edge": {"target": [], "time": []}}}, "displayed_time": "16.70", "trialTime": 25601, "trial_type": "mouselab-mdp", "trial_index": 15, "time_elapsed": 893541, "internal_node_id": "0.0-6.0-1.0-6.0"}}, {"uniqueid": "w75482563:a35950875", "current_trial": 16, "dateTime": 1693581480376, "trialdata": {"revealed_states": [], "clicked_states": [], "num_clicks_accrued": [0, 0, 0, 0, 0, 0, 0, 0, 0, 0, 0, 0, 0], "stateRewards": ["", -2, -3, 8, 14, -73, 73, 84, -12, -2, -50, -17, 2, 1, -2, -9, -44, -27, -33, 16, -63, -47, -66, -2, 1, 4, -5, -33, -11, 50, 9, 38, -79, 31], "withholdReward": false, "trial_id": "mdp_trial_8", "block": "test", "trialIndex": 9, "score": -56, "costs": 0, "simulationMode": [null, null, null, null, null], "rewards": [-2, -3, 8, 14, -73], "path": ["0", "0", "1", "2", "3", "4", "5"], "rt": [2450, 84, 178, 690, 146], "actions": ["up", "up", "up", "right", "up"], "actionTimes": [7602, 8242, 8954, 10195, 10883], "queries": {"click": {"state": {"target": [], "time": []}, "edge": {"target": [], "time": []}}, "mouseover": {"state": {"target": [], "time": []}, "edge": {"target": [], "time": []}}, "mouseout": {"state": {"target": ["25", "0"], "time": [4128, 4682]}, "edge": {"target": [], "time": []}}}, "displayed_time": "19.16", "trialTime": 36026, "trial_type": "mouselab-mdp", "trial_index": 16, "time_elapsed": 930442, "internal_node_id": "0.0-6.0-1.0-7.0"}}, {"uniqueid": "w75482563:a35950875", "current_trial": 17, "dateTime": 1693581501629, "trialdata": {"revealed_states": [], "clicked_states": ["19", "20", "32"], "num_clicks_accrued": [0, 0, 0, 0, 0, 0, 0, 0, 0, 0, 0, 0, 0], "stateRewards": ["", -2, -3, -5, 8, 27, 11, 43, -6, -24, -87, 69, -2, 1, 1, 9, 19, 48, -37, 9, -14, 45, 62, 1, 2, 1, 16, -81, -41, 22, 4, -6, -63, 47], "withholdReward": false, "trial_id": "mdp_trial_9", "block": "test", "trialIndex": 10, "score": 65.15, "costs": -5.85, "simulationMode": [null, null, null, null, null], "rewards": [-2, 1, 1, 9, 62], "path": ["0", "0", "12", "13", "14", "19", "22"], "rt": [13098, 5, 67, 177, 188], "actions": ["right", "right", "right", "down", "left"], "actionTimes": [14567, 15109, 15718, 16438, 17166], "queries": {"click": {"state": {"target": ["19", "20", "32"], "time": [2388, 3332, 7725]}, "edge": {"target": [], "time": []}}, "mouseover": {"state": {"target": ["0", "12", "19", "20", "21", "21", "32"], "time": [1649, 1936, 2087, 3090, 4741, 6301, 7513]}, "edge": {"target": [], "time": []}}, "mouseout": {"state": {"target": ["13", "12", "0", "0", "12", "19", "20", "21", "21", "32"], "time": [31, 84, 1508, 1921, 1957, 2940, 3757, 5357, 7076, 8064]}, "edge": {"target": [], "time": []}}}, "displayed_time": "17.71", "trialTime": 20630, "trial_type": "mouselab-mdp", "trial_index": 17, "time_elapsed": 951694, "internal_node_id": "0.0-6.0-1.0-8.0"}}, {"uniqueid": "w75482563:a35950875", "current_trial": 18, "dateTime": 1693581538283, "trialdata": {"revealed_states": [], "clicked_states": [], "num_clicks_accrued": [0, 0, 0, 0, 0, 0, 0, 0, 0, 0, 0, 0, 0], "stateRewards": ["", 2, 3, -3, 4, 72, -28, 34, -12, 57, -64, -15, 2, 1, -4, -15, 2, 49, 31, -1, -42, -58, 31, -2, 1, -2, -13, -75, -19, -22, -6, 61, 10, -56], "withholdReward": false, "trial_id": "mdp_trial_10", "block": "test", "trialIndex": 11, "score": -74, "costs": 0, "simulationMode": [null, null, null, null, null], "rewards": [2, 3, -3, -12, -64], "path": ["0", "0", "1", "2", "3", "8", "10"], "rt": [21552, 135, 110, 8, 28], "actions": ["up", "up", "up", "left", "down"], "actionTimes": [23685, 24364, 25007, 25573, 26137], "queries": {"click": {"state": {"target": [], "time": []}, "edge": {"target": [], "time": []}}, "mouseover": {"state": {"target": ["0", "7", "4", "3", "8", "9", "3", "4"], "time": [6410, 16179, 16263, 20888, 21019, 22108, 22748, 22790]}, "edge": {"target": [], "time": []}}, "mouseout": {"state": {"target": ["20", "19", "0", "7", "4", "3", "8", "9", "3", "4"], "time": [511, 691, 15978, 16237, 20592, 20944, 21925, 22673, 22766, 22814]}, "edge": {"target": [], "time": []}}}, "displayed_time": "26.67", "trialTime": 35988, "trial_type": "mouselab-mdp", "trial_index": 18, "time_elapsed": 988349, "internal_node_id": "0.0-6.0-1.0-9.0"}}, {"uniqueid": "w75482563:a35950875", "current_trial": 19, "dateTime": 1693581557192, "trialdata": {"revealed_states": [], "clicked_states": ["33"], "num_clicks_accrued": [0, 0, 0, 0, 0, 0, 0, 0, 0, 0, 0, 0, 0], "stateRewards": ["", -2, 2, 8, -6, -25, 3, 87, 2, -62, -2, 74, -2, -1, 2, -1, 79, 49, -37, -14, 5, 67, -9, -1, 2, -2, 5, 15, 38, 32, -14, -38, -38, 30], "withholdReward": false, "trial_id": "mdp_trial_11", "block": "test", "trialIndex": 12, "score": 12.850000000000001, "costs": -2.15, "simulationMode": [null, null, null, null, null], "rewards": [-1, 2, -2, -14, 30], "path": ["0", "0", "23", "24", "25", "30", "33"], "rt": [6451, 185, 268, 8, 192], "actions": ["left", "left", "left", "down", "left"], "actionTimes": [8095, 8823, 9628, 10171, 10920], "queries": {"click": {"state": {"target": ["33"], "time": [2985]}, "edge": {"target": [], "time": []}}, "mouseover": {"state": {"target": ["23", "24", "25", "33", "30", "33", "31", "32", "31"], "time": [2128, 2167, 2212, 2497, 2596, 2791, 3849, 5387, 6492]}, "edge": {"target": [], "time": []}}, "mouseout": {"state": {"target": ["0", "23", "24", "25", "33", "30", "33", "31", "32", "31", "32", "32"], "time": [2098, 2147, 2188, 2253, 2515, 2710, 3549, 5246, 6319, 6695, 15027, 15283]}, "edge": {"target": [], "time": []}}}, "displayed_time": "15.65", "trialTime": 17747, "trial_type": "mouselab-mdp", "trial_index": 19, "time_elapsed": 1007258, "internal_node_id": "0.0-6.0-1.0-10.0"}}, {"uniqueid": "w75482563:a35950875", "current_trial": 20, "dateTime": 1693581583489, "trialdata": {"revealed_states": [], "clicked_states": [], "num_clicks_accrued": [0, 0, 0, 0, 0, 0, 0, 0, 0, 0, 0, 0, 0], "stateRewards": ["", 2, -2, -3, 10, -4, -1, -11, -8, -9, -36, -78, 2, 1, 7, -7, 44, -1, -31, -1, 26, 47, 83, 2, -4, -4, -6, -52, -76, -81, -1, -59, 45, 67], "withholdReward": false, "trial_id": "mdp_trial_12", "block": "test", "trialIndex": 13, "score": 47, "costs": 0, "simulationMode": [null, null, null, null, null], "rewards": [2, 1, 7, -7, 44], "path": ["0", "0", "12", "13", "14", "15", "16"], "rt": [2344, 383, 42, 102, 348], "actions": ["right", "right", "right", "up", "up"], "actionTimes": [4239, 5167, 5737, 6375, 7279], "queries": {"click": {"state": {"target": [], "time": []}, "edge": {"target": [], "time": []}}, "mouseover": {"state": {"target": [], "time": []}, "edge": {"target": [], "time": []}}, "mouseout": {"state": {"target": ["0", "19"], "time": [1358, 24485]}, "edge": {"target": [], "time": []}}}, "displayed_time": "15.90", "trialTime": 25518, "trial_type": "mouselab-mdp", "trial_index": 20, "time_elapsed": 1033555, "internal_node_id": "0.0-6.0-1.0-11.0"}}, {"uniqueid": "w75482563:a35950875", "current_trial": 21, "dateTime": 1693581604552, "trialdata": {"revealed_states": [], "clicked_states": [], "num_clicks_accrued": [0, 0, 0, 0, 0, 0, 0, 0, 0, 0, 0, 0, 0], "stateRewards": ["", -2, 4, -7, -3, -76, 39, -28, 10, 14, 12, 60, 2, -3, 6, -10, 88, -34, -41, -3, 72, -13, -56, 1, 3, 2, 8, -51, 23, -57, 1, 14, -46, -16], "withholdReward": false, "trial_id": "mdp_trial_13", "block": "test", "trialIndex": 14, "score": 17, "costs": 0, "simulationMode": [null, null, null, null, null], "rewards": [-2, 4, -7, 10, 12], "path": ["0", "0", "1", "2", "3", "8", "10"], "rt": [1343, 181, 513, 120, 245], "actions": ["up", "up", "up", "left", "down"], "actionTimes": [3568, 4279, 5338, 5997, 6781], "queries": {"click": {"state": {"target": [], "time": []}, "edge": {"target": [], "time": []}}, "mouseover": {"state": {"target": [], "time": []}, "edge": {"target": [], "time": []}}, "mouseout": {"state": {"target": ["12", "0", "12", "12", "1", "7"], "time": [78, 9285, 10799, 16692, 17659, 18921]}, "edge": {"target": [], "time": []}}}, "displayed_time": "16.23", "trialTime": 20511, "trial_type": "mouselab-mdp", "trial_index": 21, "time_elapsed": 1054617, "internal_node_id": "0.0-6.0-1.0-12.0"}}, {"uniqueid": "w75482563:a35950875", "current_trial": 22, "dateTime": 1693581624424, "trialdata": {"revealed_states": [], "clicked_states": [], "num_clicks_accrued": [0, 0, 0, 0, 0, 0, 0, 0, 0, 0, 0, 0, 0], "stateRewards": ["", 2, 3, 8, 14, 69, -27, 17, 2, -71, -65, -10, 2, -3, 7, 8, 65, -10, 65, -12, 73, -12, 13, -2, -2, 6, 10, -79, -69, -18, 10, -85, 67, 74], "withholdReward": false, "trial_id": "mdp_trial_14", "block": "test", "trialIndex": 15, "score": 96, "costs": 0, "simulationMode": [null, null, null, null, null], "rewards": [2, 3, 8, 14, 69], "path": ["0", "0", "1", "2", "3", "4", "5"], "rt": [1177, 199, 252, 571, 197], "actions": ["up", "up", "up", "right", "up"], "actionTimes": [3282, 4018, 4842, 5934, 6658], "queries": {"click": {"state": {"target": [], "time": []}, "edge": {"target": [], "time": []}}, "mouseover": {"state": {"target": ["18", "15", "17"], "time": [2127, 2155, 2184]}, "edge": {"target": [], "time": []}}, "mouseout": {"state": {"target": ["16", "18", "0", "18", "15", "17"], "time": [304, 1410, 2123, 2140, 2177, 2210]}, "edge": {"target": [], "time": []}}}, "displayed_time": "16.11", "trialTime": 19102, "trial_type": "mouselab-mdp", "trial_index": 22, "time_elapsed": 1074489, "internal_node_id": "0.0-6.0-1.0-13.0"}}, {"uniqueid": "w75482563:a35950875", "current_trial": 23, "dateTime": 1693581650953, "trialdata": {"revealed_states": [], "clicked_states": [], "num_clicks_accrued": [0, 0, 0, 0, 0, 0, 0, 0, 0, 0, 0, 0, 0], "stateRewards": ["", -2, -4, -2, -13, -15, 87, -19, -6, -80, 30, 12, 1, 1, -8, 2, 55, 56, 15, 11, -68, -7, 55, -2, 3, -3, -3, 48, 62, 4, 1, -3, 69, -33], "withholdReward": false, "trial_id": "mdp_trial_15", "block": "test", "trialIndex": 16, "score": 11, "costs": 0, "simulationMode": [null, null, null, null, null], "rewards": [1, 1, -8, 2, 15], "path": ["0", "0", "12", "13", "14", "15", "18"], "rt": [1686, 6, 1125, 533, 327], "actions": ["right", "right", "right", "up", "left"], "actionTimes": [4888, 5448, 7117, 8182, 9049], "queries": {"click": {"state": {"target": [], "time": []}, "edge": {"target": [], "time": []}}, "mouseover": {"state": {"target": [], "time": []}, "edge": {"target": [], "time": []}}, "mouseout": {"state": {"target": ["21", "22", "12", "1", "1", "0", "15", "16", "15", "14", "19", "21", "12", "12", "7", "3", "10", "1"], "time": [1359, 1411, 1443, 1544, 1749, 2206, 19117, 20394, 20595, 20629, 20663, 20685, 22099, 22782, 23193, 23276, 24103, 24809]}, "edge": {"target": [], "time": []}}}, "displayed_time": "17.21", "trialTime": 25605, "trial_type": "mouselab-mdp", "trial_index": 23, "time_elapsed": 1101019, "internal_node_id": "0.0-6.0-1.0-14.0"}}, {"uniqueid": "w75482563:a35950875", "current_trial": 24, "dateTime": 1693581671822, "trialdata": {"revealed_states": [], "clicked_states": [], "num_clicks_accrued": [0, 0, 0, 0, 0, 0, 0, 0, 0, 0, 0, 0, 0], "stateRewards": ["", -1, 1, -6, -1, 80, 23, 2, -11, 73, -81, 59, 1, 3, 5, -1, -26, 28, -3, 16, -59, -13, -50, -2, -2, 2, 15, -50, 86, 17, -4, 37, 35, 44], "withholdReward": false, "trial_id": "mdp_trial_16", "block": "test", "trialIndex": 17, "score": 31, "costs": 0, "simulationMode": [null, null, null, null, null], "rewards": [-2, -2, 2, -4, 37], "path": ["0", "0", "23", "24", "25", "30", "31"], "rt": [1545, 314, 260, 91, 7], "actions": ["left", "left", "left", "down", "right"], "actionTimes": [3935, 4788, 5584, 6214, 6757], "queries": {"click": {"state": {"target": [], "time": []}, "edge": {"target": [], "time": []}}, "mouseover": {"state": {"target": [], "time": []}, "edge": {"target": [], "time": []}}, "mouseout": {"state": {"target": ["1", "0", "0", "0", "23"], "time": [1316, 1337, 14536, 19399, 19500]}, "edge": {"target": [], "time": []}}}, "displayed_time": "16.40", "trialTime": 20100, "trial_type": "mouselab-mdp", "trial_index": 24, "time_elapsed": 1121887, "internal_node_id": "0.0-6.0-1.0-15.0"}}, {"uniqueid": "w75482563:a35950875", "current_trial": 25, "dateTime": 1693581697627, "trialdata": {"revealed_states": [], "clicked_states": [], "num_clicks_accrued": [0, 0, 0, 0, 0, 0, 0, 0, 0, 0, 0, 0, 0], "stateRewards": ["", 2, -4, -4, 13, -80, 62, 13, -11, 57, -13, -44, 1, 4, 3, -4, -29, -88, 15, 16, -58, 68, -45, -1, -3, -1, -9, -44, -86, -19, -7, -36, 59, 66], "withholdReward": false, "trial_id": "mdp_trial_17", "block": "test", "trialIndex": 18, "score": 40, "costs": 0, "simulationMode": [null, null, null, null, null], "rewards": [2, -4, -4, -11, 57], "path": ["0", "0", "1", "2", "3", "8", "9"], "rt": [625, 12, 178, 58, 134], "actions": ["up", "up", "up", "left", "up"], "actionTimes": [2608, 3137, 3869, 4466, 5158], "queries": {"click": {"state": {"target": [], "time": []}, "edge": {"target": [], "time": []}}, "mouseover": {"state": {"target": [], "time": []}, "edge": {"target": [], "time": []}}, "mouseout": {"state": {"target": ["23", "0"], "time": [1210, 9432]}, "edge": {"target": [], "time": []}}}, "displayed_time": "16.00", "trialTime": 24806, "trial_type": "mouselab-mdp", "trial_index": 25, "time_elapsed": 1147692, "internal_node_id": "0.0-6.0-1.0-16.0"}}, {"uniqueid": "w75482563:a35950875", "current_trial": 26, "dateTime": 1693581722947, "trialdata": {"revealed_states": [], "clicked_states": [], "num_clicks_accrued": [0, 0, 0, 0, 0, 0, 0, 0, 0, 0, 0, 0, 0], "stateRewards": ["", -1, -4, -1, -5, -28, -23, -15, -15, -38, 59, -87, 2, 2, -5, 9, -55, -39, -71, -6, 85, -85, -11, -1, -2, 5, -10, 1, 25, 41, -4, 69, -35, 86], "withholdReward": false, "trial_id": "mdp_trial_18", "block": "test", "trialIndex": 19, "score": -18, "costs": 0, "simulationMode": [null, null, null, null, null], "rewards": [2, 2, -5, -6, -11], "path": ["0", "0", "12", "13", "14", "19", "22"], "rt": [1725, 199, 161, 92, 137], "actions": ["right", "right", "right", "down", "left"], "actionTimes": [3343, 4062, 4752, 5384, 6052], "queries": {"click": {"state": {"target": [], "time": []}, "edge": {"target": [], "time": []}}, "mouseover": {"state": {"target": [], "time": []}, "edge": {"target": [], "time": []}}, "mouseout": {"state": {"target": ["0", "14"], "time": [2241, 21901]}, "edge": {"target": [], "time": []}}}, "displayed_time": "15.63", "trialTime": 24629, "trial_type": "mouselab-mdp", "trial_index": 26, "time_elapsed": 1173013, "internal_node_id": "0.0-6.0-1.0-17.0"}}, {"uniqueid": "w75482563:a35950875", "current_trial": 27, "dateTime": 1693581743618, "trialdata": {"revealed_states": [], "clicked_states": [], "num_clicks_accrued": [0, 0, 0, 0, 0, 0, 0, 0, 0, 0, 0, 0, 0], "stateRewards": ["", 2, -4, 7, 3, 23, -42, 4, 7, -81, -33, 7, -2, -4, 5, -1, 50, -57, -14, -13, -14, 44, 55, -2, -2, 5, -2, 33, 1, 57, -13, -7, 58, 87], "withholdReward": false, "trial_id": "mdp_trial_19", "block": "test", "trialIndex": 20, "score": 56, "costs": 0, "simulationMode": [null, null, null, null, null], "rewards": [-2, -2, 5, -2, 57], "path": ["0", "0", "23", "24", "25", "26", "29"], "rt": [1787, 34, 698, 142, 173], "actions": ["left", "left", "left", "up", "left"], "actionTimes": [3859, 4426, 5678, 6360, 7062], "queries": {"click": {"state": {"target": [], "time": []}, "edge": {"target": [], "time": []}}, "mouseover": {"state": {"target": ["12", "13", "14"], "time": [2470, 2527, 2555]}, "edge": {"target": [], "time": []}}, "mouseout": {"state": {"target": ["0", "12", "13", "14", "20"], "time": [2373, 2521, 2546, 2580, 19439]}, "edge": {"target": [], "time": []}}}, "displayed_time": "16.08", "trialTime": 19890, "trial_type": "mouselab-mdp", "trial_index": 27, "time_elapsed": 1193684, "internal_node_id": "0.0-6.0-1.0-18.0"}}, {"uniqueid": "w75482563:a35950875", "current_trial": 28, "dateTime": 1693581763644, "trialdata": {"revealed_states": [], "clicked_states": [], "num_clicks_accrued": [0, 0, 0, 0, 0, 0, 0, 0, 0, 0, 0, 0, 0], "stateRewards": ["", -2, 2, 3, -7, -31, -33, 29, -8, -57, 50, -83, -1, -1, 5, 13, -23, -62, 25, 5, -66, -85, 14, 1, -2, -1, 16, 71, 33, -19, -14, 5, -43, 79], "withholdReward": false, "trial_id": "mdp_trial_20", "block": "test", "trialIndex": 21, "score": -59, "costs": 0, "simulationMode": [null, null, null, null, null], "rewards": [1, -2, -1, -14, -43], "path": ["0", "0", "23", "24", "25", "30", "32"], "rt": [1828, 301, 131, 90, 119], "actions": ["left", "left", "left", "down", "down"], "actionTimes": [3970, 4790, 5472, 6107, 6766], "queries": {"click": {"state": {"target": [], "time": []}, "edge": {"target": [], "time": []}}, "mouseover": {"state": {"target": ["1"], "time": [2837]}, "edge": {"target": [], "time": []}}, "mouseout": {"state": {"target": ["0", "23", "1", "1"], "time": [970, 1232, 18070, 18456]}, "edge": {"target": [], "time": []}}}, "displayed_time": "16.15", "trialTime": 19038, "trial_type": "mouselab-mdp", "trial_index": 28, "time_elapsed": 1213709, "internal_node_id": "0.0-6.0-1.0-19.0"}}, {"uniqueid": "w75482563:a35950875", "current_trial": 29, "dateTime": 1693581782720, "trialdata": {"revealed_states": [], "clicked_states": [], "num_clicks_accrued": [0, 0, 0, 0, 0, 0, 0, 0, 0, 0, 0, 0, 0], "stateRewards": ["", -2, 2, 5, -14, -56, 64, 84, -5, 52, 39, 85, -2, 1, 7, 8, 21, 29, -78, -9, -10, -69, 10, -2, -1, -7, 15, 72, 20, 41, -2, 52, 80, 22], "withholdReward": false, "trial_id": "mdp_trial_21", "block": "test", "trialIndex": 22, "score": 75, "costs": 0, "simulationMode": [null, null, null, null, null], "rewards": [-2, 2, 5, -14, 84], "path": ["0", "0", "1", "2", "3", "4", "7"], "rt": [860, 247, 79, 10, 7], "actions": ["up", "up", "up", "right", "down"], "actionTimes": [3257, 4027, 4638, 5197, 5753], "queries": {"click": {"state": {"target": [], "time": []}, "edge": {"target": [], "time": []}}, "mouseover": {"state": {"target": [], "time": []}, "edge": {"target": [], "time": []}}, "mouseout": {"state": {"target": ["1", "0"], "time": [1727, 14615]}, "edge": {"target": [], "time": []}}}, "displayed_time": "16.41", "trialTime": 18425, "trial_type": "mouselab-mdp", "trial_index": 29, "time_elapsed": 1232786, "internal_node_id": "0.0-6.0-1.0-20.0"}}, {"uniqueid": "w75482563:a35950875", "current_trial": 30, "dateTime": 1693581800870, "trialdata": {"revealed_states": [], "clicked_states": [], "num_clicks_accrued": [0, 0, 0, 0, 0, 0, 0, 0, 0, 0, 0, 0, 0], "stateRewards": ["", 1, 1, -2, 7, -31, -6, 76, 1, -36, -16, -53, 2, 1, 7, 13, -47, -10, 47, -7, 72, 46, -56, -2, -2, -2, 11, -80, 44, 38, 16, 67, 85, -78], "withholdReward": false, "trial_id": "mdp_trial_22", "block": "test", "trialIndex": 23, "score": 70, "costs": 0, "simulationMode": [null, null, null, null, null], "rewards": [2, 1, 7, 13, 47], "path": ["0", "0", "12", "13", "14", "15", "18"], "rt": [1829, 9, 98, 206, 881], "actions": ["right", "right", "right", "up", "left"], "actionTimes": [4234, 4781, 5412, 6180, 7647], "queries": {"click": {"state": {"target": [], "time": []}, "edge": {"target": [], "time": []}}, "mouseover": {"state": {"target": ["1", "2"], "time": [2669, 2957]}, "edge": {"target": [], "time": []}}, "mouseout": {"state": {"target": ["23", "23", "0", "1", "2", "7", "23"], "time": [1576, 1641, 1747, 2832, 2997, 12632, 17234]}, "edge": {"target": [], "time": []}}}, "displayed_time": "16.42", "trialTime": 17524, "trial_type": "mouselab-mdp", "trial_index": 30, "time_elapsed": 1250935, "internal_node_id": "0.0-6.0-1.0-21.0"}}, {"uniqueid": "w75482563:a35950875", "current_trial": 31, "dateTime": 1693581820080, "trialdata": {"revealed_states": [], "clicked_states": [], "num_clicks_accrued": [0, 0, 0, 0, 0, 0, 0, 0, 0, 0, 0, 0, 0], "stateRewards": ["", 1, 2, -3, -5, 66, -50, -47, -5, 1, 28, -27, 1, 1, -1, -6, 37, -25, 56, 1, -82, -66, -40, -1, -4, -7, 15, -61, -23, 26, 10, 14, -56, 29], "withholdReward": false, "trial_id": "mdp_trial_23", "block": "test", "trialIndex": 24, "score": 51, "costs": 0, "simulationMode": [null, null, null, null, null], "rewards": [1, 1, -1, -6, 56], "path": ["0", "0", "12", "13", "14", "15", "18"], "rt": [668, 490, 265, 255, 234], "actions": ["right", "right", "right", "up", "left"], "actionTimes": [2880, 3917, 4718, 5504, 6285], "queries": {"click": {"state": {"target": [], "time": []}, "edge": {"target": [], "time": []}}, "mouseover": {"state": {"target": [], "time": []}, "edge": {"target": [], "time": []}}, "mouseout": {"state": {"target": ["0"], "time": [9615]}, "edge": {"target": [], "time": []}}}, "displayed_time": "16.22", "trialTime": 18442, "trial_type": "mouselab-mdp", "trial_index": 31, "time_elapsed": 1270146, "internal_node_id": "0.0-6.0-1.0-22.0"}}, {"uniqueid": "w75482563:a35950875", "current_trial": 32, "dateTime": 1693581840143, "trialdata": {"revealed_states": [], "clicked_states": [], "num_clicks_accrued": [0, 0, 0, 0, 0, 0, 0, 0, 0, 0, 0, 0, 0], "stateRewards": ["", -2, -3, 8, -4, -30, 31, 69, 9, 66, 87, 64, -2, 2, 8, 5, 47, 16, -39, -8, -54, 51, -19, 1, -2, -2, -11, -25, -26, 43, -9, 19, -84, 86], "withholdReward": false, "trial_id": "mdp_trial_24", "block": "test", "trialIndex": 25, "score": -54, "costs": 0, "simulationMode": [null, null, null, null, null], "rewards": [-2, 2, 8, -8, -54], "path": ["0", "0", "12", "13", "14", "19", "20"], "rt": [1951, 95, 849, 14, 101], "actions": ["right", "right", "right", "down", "right"], "actionTimes": [4997, 5648, 7035, 7580, 8237], "queries": {"click": {"state": {"target": [], "time": []}, "edge": {"target": [], "time": []}}, "mouseover": {"state": {"target": ["12", "13"], "time": [3062, 3087]}, "edge": {"target": [], "time": []}}, "mouseout": {"state": {"target": ["0", "0", "12", "13", "15", "18", "12"], "time": [1586, 3059, 3071, 3201, 18145, 18242, 18478]}, "edge": {"target": [], "time": []}}}, "displayed_time": "17.06", "trialTime": 19222, "trial_type": "mouselab-mdp", "trial_index": 32, "time_elapsed": 1290208, "internal_node_id": "0.0-6.0-1.0-23.0"}}, {"uniqueid": "w75482563:a35950875", "current_trial": 33, "dateTime": 1693581858717, "trialdata": {"revealed_states": [], "clicked_states": [], "num_clicks_accrued": [0, 0, 0, 0, 0, 0, 0, 0, 0, 0, 0, 0, 0], "stateRewards": ["", 2, 3, -1, 6, 44, -4, -59, -14, -3, 64, 16, 1, -3, 3, 6, 3, 49, 19, 3, -49, -14, -86, 1, 2, -3, -8, -33, 14, 32, -13, -77, -47, -67], "withholdReward": false, "trial_id": "mdp_trial_25", "block": "test", "trialIndex": 26, "score": -60, "costs": 0, "simulationMode": [null, null, null, null, null], "rewards": [1, 2, -3, -13, -47], "path": ["0", "0", "23", "24", "25", "30", "32"], "rt": [1734, 260, 137, 107, 407], "actions": ["left", "left", "left", "down", "down"], "actionTimes": [3523, 4313, 5008, 5656, 6599], "queries": {"click": {"state": {"target": [], "time": []}, "edge": {"target": [], "time": []}}, "mouseover": {"state": {"target": ["18"], "time": [1959]}, "edge": {"target": [], "time": []}}, "mouseout": {"state": {"target": ["0", "18", "15"], "time": [1191, 1987, 16940]}, "edge": {"target": [], "time": []}}}, "displayed_time": "15.80", "trialTime": 17782, "trial_type": "mouselab-mdp", "trial_index": 33, "time_elapsed": 1308783, "internal_node_id": "0.0-6.0-1.0-24.0"}}, {"uniqueid": "w75482563:a35950875", "current_trial": 34, "dateTime": 1693581890303, "trialdata": {"revealed_states": [], "clicked_states": [], "num_clicks_accrued": [0, 0, 0, 0, 0, 0, 0, 0, 0, 0, 0, 0, 0], "stateRewards": ["", 1, -4, -4, 8, 1, -79, 68, -10, -79, 8, -74, -1, -3, -6, 14, 43, 23, 9, 5, -51, 63, 61, -2, 4, 6, -10, 69, -32, 57, 15, -80, -80, -77], "withholdReward": false, "trial_id": "mdp_trial_26", "block": "test", "trialIndex": 27, "score": -34, "costs": 0, "simulationMode": [null, null, null, null, null], "rewards": [-2, 4, 6, -10, -32], "path": ["0", "0", "23", "24", "25", "26", "28"], "rt": [1329, 110, 78, 138, 69], "actions": ["left", "left", "left", "up", "right"], "actionTimes": [6350, 6977, 7582, 8253, 8875], "queries": {"click": {"state": {"target": [], "time": []}, "edge": {"target": [], "time": []}}, "mouseover": {"state": {"target": ["18"], "time": [5433]}, "edge": {"target": [], "time": []}}, "mouseout": {"state": {"target": ["16", "18", "12", "0", "0", "18", "18", "16", "13"], "time": [1318, 1369, 1617, 1758, 5316, 5500, 25017, 29670, 30228]}, "edge": {"target": [], "time": []}}}, "displayed_time": "19.02", "trialTime": 30797, "trial_type": "mouselab-mdp", "trial_index": 34, "time_elapsed": 1340368, "internal_node_id": "0.0-6.0-1.0-25.0"}}, {"uniqueid": "w75482563:a35950875", "current_trial": 35, "dateTime": 1693581909088, "trialdata": {"revealed_states": [], "clicked_states": [], "num_clicks_accrued": [0, 0, 0, 0, 0, 0, 0, 0, 0, 0, 0, 0, 0], "stateRewards": ["", -2, -1, -6, -14, -55, 78, -13, 11, 14, -71, 59, 2, 2, 6, -6, 9, 38, 14, 7, 85, 11, 68, 1, -4, -1, -3, -63, -85, 9, -2, 63, -86, -10], "withholdReward": false, "trial_id": "mdp_trial_27", "block": "test", "trialIndex": 28, "score": 85, "costs": 0, "simulationMode": [null, null, null, null, null], "rewards": [2, 2, 6, 7, 68], "path": ["0", "0", "12", "13", "14", "19", "22"], "rt": [1303, 167, 126, 206, 232], "actions": ["right", "right", "right", "down", "left"], "actionTimes": [3121, 3825, 4500, 5260, 6026], "queries": {"click": {"state": {"target": [], "time": []}, "edge": {"target": [], "time": []}}, "mouseover": {"state": {"target": ["1", "2"], "time": [1966, 2153]}, "edge": {"target": [], "time": []}}, "mouseout": {"state": {"target": ["0", "1", "2", "12"], "time": [1841, 2078, 16199, 16987]}, "edge": {"target": [], "time": []}}}, "displayed_time": "15.83", "trialTime": 18056, "trial_type": "mouselab-mdp", "trial_index": 35, "time_elapsed": 1359153, "internal_node_id": "0.0-6.0-1.0-26.0"}}, {"uniqueid": "w75482563:a35950875", "current_trial": 36, "dateTime": 1693581926965, "trialdata": {"revealed_states": [], "clicked_states": [], "num_clicks_accrued": [0, 0, 0, 0, 0, 0, 0, 0, 0, 0, 0, 0, 0], "stateRewards": ["", 1, 1, -7, -9, -44, 24, -83, -15, 44, -24, 72, -2, -3, 4, -5, 57, 55, 29, -11, 22, 12, -25, -1, 2, 7, 12, 33, -8, 47, -4, 8, 50, -4], "withholdReward": false, "trial_id": "mdp_trial_28", "block": "test", "trialIndex": 29, "score": 10, "costs": 0, "simulationMode": [null, null, null, null, null], "rewards": [-2, -3, 4, -11, 22], "path": ["0", "0", "12", "13", "14", "19", "20"], "rt": [1110, 121, 151, 119, 10], "actions": ["right", "right", "right", "down", "right"], "actionTimes": [2880, 3535, 4221, 4871, 5412], "queries": {"click": {"state": {"target": [], "time": []}, "edge": {"target": [], "time": []}}, "mouseover": {"state": {"target": [], "time": []}, "edge": {"target": [], "time": []}}, "mouseout": {"state": {"target": ["0", "23", "19", "20", "19", "22", "19"], "time": [1889, 8219, 10703, 10932, 11014, 11882, 12119]}, "edge": {"target": [], "time": []}}}, "displayed_time": "15.78", "trialTime": 17072, "trial_type": "mouselab-mdp", "trial_index": 36, "time_elapsed": 1377031, "internal_node_id": "0.0-6.0-1.0-27.0"}}, {"uniqueid": "w75482563:a35950875", "current_trial": 37, "dateTime": 1693581947625, "trialdata": {"revealed_states": [], "clicked_states": ["4", "5", "11"], "num_clicks_accrued": [0, 0, 0, 0, 0, 0, 0, 0, 0, 0, 0, 0, 0], "stateRewards": ["", -2, 3, -5, -7, 66, 43, -60, -4, -70, -75, 4, -1, 2, 2, -13, 54, 11, -40, -1, 77, 32, 15, -2, 3, -8, -9, -35, 83, -27, 6, -74, -34, 44], "withholdReward": false, "trial_id": "mdp_trial_29", "block": "test", "trialIndex": 30, "score": 49.15, "costs": -5.85, "simulationMode": [null, null, null, null, null, null], "rewards": [-2, 3, -5, -7, 66], "path": ["0", "0", "1", "2", "3", "4", "5"], "rt": [6725, 889, 272, 226, 221, 115], "actions": ["up", "up", "up", "up", "right", "up"], "actionTimes": [9115, 10011, 10822, 11596, 12354, 13011], "queries": {"click": {"state": {"target": ["4", "5", "11"], "time": [3584, 4615, 7416]}, "edge": {"target": [], "time": []}}, "mouseover": {"state": {"target": ["1", "7", "4", "4", "5", "3", "8", "9", "11", "8", "8", "11", "8", "3", "6"], "time": [2530, 2687, 2879, 3433, 4404, 5258, 5357, 5775, 6018, 6561, 6901, 7180, 7814, 7838, 7866]}, "edge": {"target": [], "time": []}}, "mouseout": {"state": {"target": ["14", "13", "12", "0", "1", "7", "4", "4", "5", "3", "8", "9", "11", "8", "8", "11", "8", "3", "6"], "time": [1403, 1460, 1542, 2506, 2570, 2728, 3074, 4054, 5032, 5336, 5428, 5909, 6502, 6673, 6979, 7784, 7834, 7859, 7884]}, "edge": {"target": [], "time": []}}}, "displayed_time": "16.41", "trialTime": 19768, "trial_type": "mouselab-mdp", "trial_index": 37, "time_elapsed": 1397690, "internal_node_id": "0.0-6.0-1.0-28.0"}}, {"uniqueid": "w75482563:a35950875", "current_trial": 38, "dateTime": 1693581971790, "trialdata": {"revealed_states": [], "clicked_states": ["17", "29"], "num_clicks_accrued": [0, 0, 0, 0, 0, 0, 0, 0, 0, 0, 0, 0, 0], "stateRewards": ["", 2, -3, -8, 14, -7, -51, 73, 2, 36, 36, -43, -1, 3, -4, 1, 6, 87, -65, 15, 61, -42, -83, -1, 3, -2, -7, 30, -48, 35, 13, 26, 60, 78], "withholdReward": false, "trial_id": "mdp_trial_30", "block": "test", "trialIndex": 31, "score": 81.7, "costs": -4.3, "simulationMode": [null, null, null, null, null], "rewards": [-1, 3, -4, 1, 87], "path": ["0", "0", "12", "13", "14", "15", "17"], "rt": [8012, 144, 143, 202, 166], "actions": ["right", "right", "right", "up", "right"], "actionTimes": [13236, 13918, 14619, 15378, 16080], "queries": {"click": {"state": {"target": ["17", "29"], "time": [7286, 10121]}, "edge": {"target": [], "time": []}}, "mouseover": {"state": {"target": ["12", "13", "14", "17", "18", "1", "28", "26", "29", "26", "23", "12", "22", "12"], "time": [6007, 6058, 6101, 7164, 8838, 9358, 9465, 9503, 9557, 10934, 11159, 11266, 11595, 11879]}, "edge": {"target": [], "time": []}}, "mouseout": {"state": {"target": ["12", "31", "30", "33", "0", "12", "13", "14", "17", "18", "1", "28", "26", "29", "26", "23", "12", "22", "12"], "time": [4011, 4047, 4071, 4226, 5328, 6029, 6088, 6139, 7955, 9288, 9422, 9498, 9521, 10901, 10967, 11195, 11492, 11840, 22547]}, "edge": {"target": [], "time": []}}}, "displayed_time": "19.23", "trialTime": 23106, "trial_type": "mouselab-mdp", "trial_index": 38, "time_elapsed": 1421855, "internal_node_id": "0.0-6.0-1.0-29.0"}}, {"uniqueid": "w75482563:a35950875", "current_trial": 39, "dateTime": 1693581993124, "trialdata": {"revealed_states": [], "clicked_states": ["21", "33", "9"], "num_clicks_accrued": [0, 0, 0, 0, 0, 0, 0, 0, 0, 0, 0, 0, 0], "stateRewards": ["", 2, -2, -8, 9, -20, 55, -58, 14, 42, 2, 36, 1, -3, -5, 5, -58, 57, 60, 16, 57, 30, -70, -2, 1, 3, 10, 59, 23, 77, -13, -26, 88, -72], "withholdReward": false, "trial_id": "mdp_trial_31", "block": "test", "trialIndex": 32, "score": -25.45, "costs": -6.449999999999999, "simulationMode": [null, null, null, null, null], "rewards": [2, -2, -8, 9, -20], "path": ["0", "0", "1", "2", "3", "4", "5"], "rt": [13084, 222, 191, 14, 105], "actions": ["up", "up", "up", "right", "up"], "actionTimes": [15081, 15842, 16581, 17129, 17782], "queries": {"click": {"state": {"target": ["21", "33", "9"], "time": [3301, 6862, 10693]}, "edge": {"target": [], "time": []}}, "mouseover": {"state": {"target": ["22", "21", "32", "33", "33", "25", "28", "10", "8", "9"], "time": [2793, 3129, 4560, 4880, 5153, 7327, 7397, 7455, 7514, 7960]}, "edge": {"target": [], "time": []}}, "mouseout": {"state": {"target": ["0", "22", "21", "32", "33", "33", "33", "25", "28", "10", "8", "9"], "time": [2646, 2812, 3538, 4787, 4918, 6996, 7145, 7363, 7417, 7479, 7565, 11172]}, "edge": {"target": [], "time": []}}}, "displayed_time": "18.31", "trialTime": 20398, "trial_type": "mouselab-mdp", "trial_index": 39, "time_elapsed": 1443190, "internal_node_id": "0.0-6.0-1.0-30.0"}}, {"uniqueid": "w75482563:a35950875", "current_trial": 40, "dateTime": 1693582017337, "trialdata": {"revealed_states": [], "clicked_states": ["29", "27", "32"], "num_clicks_accrued": [0, 0, 0, 0, 0, 0, 0, 0, 0, 0, 0, 0, 0], "stateRewards": ["", 1, -3, -4, -11, -56, 61, -47, -16, -28, -9, 69, -2, -3, -4, -8, 40, -86, 59, -4, 80, 27, 54, -1, 3, -1, 8, 67, 23, 50, 6, 83, -43, -29], "withholdReward": false, "trial_id": "mdp_trial_32", "block": "test", "trialIndex": 33, "score": 69.55, "costs": -6.449999999999999, "simulationMode": [null, null, null, null, null, null], "rewards": [-1, 3, -1, 8, 67], "path": ["0", "0", "23", "24", "25", "26", "27"], "rt": [11105, 298, 319, 302, 1693, 11], "actions": ["left", "left", "left", "left", "up", "up"], "actionTimes": [12652, 12961, 13815, 14657, 16888, 17434], "queries": {"click": {"state": {"target": ["29", "27", "32"], "time": [3028, 6576, 10164]}, "edge": {"target": [], "time": []}}, "mouseover": {"state": {"target": ["28", "26", "29", "26", "27", "26", "31", "32", "22", "19", "19"], "time": [2152, 2472, 2818, 3441, 4873, 6968, 7115, 7585, 10776, 10819, 11007]}, "edge": {"target": [], "time": []}}, "mouseout": {"state": {"target": ["20", "19", "22", "0", "28", "26", "29", "26", "27", "26", "31", "32", "22", "19", "19"], "time": [621, 651, 673, 2053, 2406, 2539, 3401, 4565, 6927, 7015, 7165, 10309, 10799, 10885, 19683]}, "edge": {"target": [], "time": []}}}, "displayed_time": "18.03", "trialTime": 23417, "trial_type": "mouselab-mdp", "trial_index": 40, "time_elapsed": 1467403, "internal_node_id": "0.0-6.0-1.0-31.0"}}, {"uniqueid": "w75482563:a35950875", "current_trial": 41, "dateTime": 1693582044691, "trialdata": {"revealed_states": [], "clicked_states": [], "num_clicks_accrued": [0, 0, 0, 0, 0, 0, 0, 0, 0, 0, 0, 0, 0], "stateRewards": ["", 2, -3, 5, -14, -63, -9, -24, -11, -54, -43, 68, 2, -2, -4, 7, -64, 30, 47, 12, -74, 11, 86, 1, -3, 3, 10, -71, -42, -52, -1, -29, -16, 69], "withholdReward": false, "trial_id": "mdp_trial_33", "block": "test", "trialIndex": 34, "score": -66, "costs": 0, "simulationMode": [null, null, null, null, null], "rewards": [2, -2, -4, 12, -74], "path": ["0", "0", "12", "13", "14", "19", "20"], "rt": [1582, 327, 270, 171, 169], "actions": ["right", "right", "right", "down", "right"], "actionTimes": [4335, 5197, 6002, 6711, 7422], "queries": {"click": {"state": {"target": [], "time": []}, "edge": {"target": [], "time": []}}, "mouseover": {"state": {"target": ["12"], "time": [3391]}, "edge": {"target": [], "time": []}}, "mouseout": {"state": {"target": ["0", "12"], "time": [3369, 26132]}, "edge": {"target": [], "time": []}}}, "displayed_time": "16.76", "trialTime": 26609, "trial_type": "mouselab-mdp", "trial_index": 41, "time_elapsed": 1494757, "internal_node_id": "0.0-6.0-1.0-32.0"}}, {"uniqueid": "w75482563:a35950875", "current_trial": 42, "dateTime": 1693582065206, "trialdata": {"revealed_states": [], "clicked_states": [], "num_clicks_accrued": [0, 0, 0, 0, 0, 0, 0, 0, 0, 0, 0, 0, 0], "stateRewards": ["", -1, -2, 8, -6, -79, -6, 87, 9, -5, -66, -38, 2, 2, 5, -6, -82, 74, 85, -8, 67, -30, -15, 1, -2, -2, -2, 87, 64, 49, 7, 2, -38, -9], "withholdReward": false, "trial_id": "mdp_trial_34", "block": "test", "trialIndex": 35, "score": 77, "costs": 0, "simulationMode": [null, null, null, null, null], "rewards": [2, 2, 5, -6, 74], "path": ["0", "0", "12", "13", "14", "15", "17"], "rt": [7229, 135, 190, 148, 449], "actions": ["right", "right", "right", "up", "right"], "actionTimes": [8524, 9161, 9907, 10594, 11590], "queries": {"click": {"state": {"target": [], "time": []}, "edge": {"target": [], "time": []}}, "mouseover": {"state": {"target": ["0", "16", "17", "15", "18", "12", "13"], "time": [1467, 4698, 5025, 5477, 5523, 7123, 7211]}, "edge": {"target": [], "time": []}}, "mouseout": {"state": {"target": ["0", "16", "17", "15", "18", "12", "13"], "time": [1912, 4733, 5447, 5511, 5556, 7177, 7374]}, "edge": {"target": [], "time": []}}}, "displayed_time": "15.31", "trialTime": 19693, "trial_type": "mouselab-mdp", "trial_index": 42, "time_elapsed": 1515272, "internal_node_id": "0.0-6.0-1.0-33.0"}}, {"uniqueid": "w75482563:a35950875", "current_trial": 43, "dateTime": 1693582088500, "trialdata": {"revealed_states": [], "clicked_states": [], "num_clicks_accrued": [0, 0, 0, 0, 0, 0, 0, 0, 0, 0, 0, 0, 0], "stateRewards": ["", 1, 2, -5, 14, 54, -14, -25, 16, -5, -87, 78, -1, 1, 3, -3, 52, 53, 53, -10, 73, -69, -48, 2, 3, 1, 8, -62, -7, 85, 7, 82, 52, -28], "withholdReward": false, "trial_id": "mdp_trial_35", "block": "test", "trialIndex": 36, "score": -55, "costs": 0, "simulationMode": [null, null, null, null, null], "rewards": [-1, 1, 3, -10, -48], "path": ["0", "0", "12", "13", "14", "19", "22"], "rt": [1693, 177, 108, 168, 151], "actions": ["right", "right", "right", "down", "left"], "actionTimes": [5407, 6136, 6787, 7481, 8157], "queries": {"click": {"state": {"target": [], "time": []}, "edge": {"target": [], "time": []}}, "mouseover": {"state": {"target": ["12"], "time": [4347]}, "edge": {"target": [], "time": []}}, "mouseout": {"state": {"target": ["12"], "time": [2378]}, "edge": {"target": [], "time": []}}}, "displayed_time": "17.72", "trialTime": 22474, "trial_type": "mouselab-mdp", "trial_index": 43, "time_elapsed": 1538565, "internal_node_id": "0.0-6.0-1.0-34.0"}}, {"uniqueid": "w75482563:a35950875", "current_trial": 44, "dateTime": 1693582107192, "trialdata": {"revealed_states": [], "clicked_states": ["31"], "num_clicks_accrued": [0, 0, 0, 0, 0, 0, 0, 0, 0, 0, 0, 0, 0], "stateRewards": ["", 2, -1, 8, -2, -16, 69, -39, -7, -13, -27, -86, 2, -2, 2, 13, -34, -16, -20, -5, 19, 81, 32, -2, -1, 2, -14, 20, 80, 58, 4, 70, 12, 73], "withholdReward": false, "trial_id": "mdp_trial_36", "block": "test", "trialIndex": 37, "score": 70.85, "costs": -2.15, "simulationMode": [null, null, null, null, null], "rewards": [-2, -1, 2, 4, 70], "path": ["0", "0", "23", "24", "25", "30", "31"], "rt": [5956, 296, 1259, 233, 27], "actions": ["left", "left", "left", "down", "right"], "actionTimes": [7442, 8297, 10102, 10879, 11450], "queries": {"click": {"state": {"target": ["31"], "time": [2871]}, "edge": {"target": [], "time": []}}, "mouseover": {"state": {"target": ["23", "24", "25", "30", "31"], "time": [1981, 2054, 2145, 2250, 2686]}, "edge": {"target": [], "time": []}}, "mouseout": {"state": {"target": ["0", "23", "24", "25", "30", "31"], "time": [296, 2032, 2112, 2180, 2397, 15861]}, "edge": {"target": [], "time": []}}}, "displayed_time": "15.50", "trialTime": 17865, "trial_type": "mouselab-mdp", "trial_index": 44, "time_elapsed": 1557258, "internal_node_id": "0.0-6.0-1.0-35.0"}}, {"uniqueid": "w75482563:a35950875", "current_trial": 45, "dateTime": 1693582132433, "trialdata": {"revealed_states": [], "clicked_states": ["28", "16", "21"], "num_clicks_accrued": [0, 0, 0, 0, 0, 0, 0, 0, 0, 0, 0, 0, 0], "stateRewards": ["", -2, -3, 1, -14, 48, -49, 67, -1, -35, -48, 3, -2, 1, -4, -5, 86, -84, 39, 1, 48, 41, -42, -1, -4, 2, -7, 18, -86, 17, 7, -9, 57, -69], "withholdReward": false, "trial_id": "mdp_trial_37", "block": "test", "trialIndex": 38, "score": 69.55, "costs": -6.449999999999999, "simulationMode": [null, null, null, null, null, null], "rewards": [-2, 1, -4, -5, 86], "path": ["0", "0", "12", "13", "14", "15", "16"], "rt": [11898, 1387, 168, 251, 92, 69], "actions": ["right", "right", "right", "right", "up", "up"], "actionTimes": [13627, 15024, 15711, 16478, 17103, 17724], "queries": {"click": {"state": {"target": ["28", "16", "21"], "time": [2894, 7813, 10924]}, "edge": {"target": [], "time": []}}, "mouseover": {"state": {"target": ["23", "28", "1", "16", "14", "19", "21"], "time": [2328, 2623, 7135, 7589, 8800, 8939, 9178]}, "edge": {"target": [], "time": []}}, "mouseout": {"state": {"target": ["0", "23", "28", "1", "16", "14", "19", "21"], "time": [2256, 2373, 3311, 7165, 8150, 8870, 8989, 11513]}, "edge": {"target": [], "time": []}}}, "displayed_time": "18.27", "trialTime": 24513, "trial_type": "mouselab-mdp", "trial_index": 45, "time_elapsed": 1582499, "internal_node_id": "0.0-6.0-1.0-36.0"}}, {"uniqueid": "w75482563:a35950875", "current_trial": 46, "dateTime": 1693582156224, "trialdata": {"revealed_states": [], "clicked_states": [], "num_clicks_accrued": [0, 0, 0, 0, 0, 0, 0, 0, 0, 0, 0, 0, 0], "stateRewards": ["", -2, 1, -7, 9, 8, 25, 61, -7, -17, 69, -81, 1, 4, -4, -11, 16, 67, 44, 3, 6, -45, -54, -2, 3, 6, -11, -15, 32, -47, 3, -39, -6, -88], "withholdReward": false, "trial_id": "mdp_trial_38", "block": "test", "trialIndex": 39, "score": 6, "costs": 0, "simulationMode": [null, null, null, null, null], "rewards": [1, 4, -4, -11, 16], "path": ["0", "0", "12", "13", "14", "15", "16"], "rt": [1278, 83, 206, 141, 300], "actions": ["right", "right", "right", "up", "up"], "actionTimes": [3302, 3931, 4679, 5367, 6201], "queries": {"click": {"state": {"target": [], "time": []}, "edge": {"target": [], "time": []}}, "mouseover": {"state": {"target": ["0"], "time": [2473]}, "edge": {"target": [], "time": []}}, "mouseout": {"state": {"target": ["22", "0", "0", "2"], "time": [715, 1261, 2541, 16641]}, "edge": {"target": [], "time": []}}}, "displayed_time": "16.03", "trialTime": 22951, "trial_type": "mouselab-mdp", "trial_index": 46, "time_elapsed": 1606289, "internal_node_id": "0.0-6.0-1.0-37.0"}}, {"uniqueid": "w75482563:a35950875", "current_trial": 47, "dateTime": 1693582177965, "trialdata": {"revealed_states": [], "clicked_states": [], "num_clicks_accrued": [0, 0, 0, 0, 0, 0, 0, 0, 0, 0, 0, 0, 0], "stateRewards": ["", -2, -1, -5, 10, -36, -70, 68, -9, 86, 71, -10, 2, -4, 7, -7, 66, 44, -66, -13, -69, 43, 15, -2, 2, 6, -13, 62, 57, 50, -10, -69, 42, -72], "withholdReward": false, "trial_id": "mdp_trial_39", "block": "test", "trialIndex": 40, "score": 43, "costs": 0, "simulationMode": [null, null, null, null, null], "rewards": [-2, 2, 6, -13, 50], "path": ["0", "0", "23", "24", "25", "26", "29"], "rt": [1131, 73, 153, 160, 233], "actions": ["left", "left", "left", "up", "left"], "actionTimes": [5444, 6053, 6750, 7460, 8247], "queries": {"click": {"state": {"target": [], "time": []}, "edge": {"target": [], "time": []}}, "mouseover": {"state": {"target": [], "time": []}, "edge": {"target": [], "time": []}}, "mouseout": {"state": {"target": ["1", "0", "28", "26", "26", "26", "28", "23"], "time": [3466, 12047, 12080, 12132, 12528, 19639, 19688, 20153]}, "edge": {"target": [], "time": []}}}, "displayed_time": "18.32", "trialTime": 20998, "trial_type": "mouselab-mdp", "trial_index": 47, "time_elapsed": 1628030, "internal_node_id": "0.0-6.0-1.0-38.0"}}, {"uniqueid": "w75482563:a35950875", "current_trial": 48, "dateTime": 1693582220018, "trialdata": {"revealed_states": [], "clicked_states": [], "num_clicks_accrued": [0, 0, 0, 0, 0, 0, 0, 0, 0, 0, 0, 0, 0], "stateRewards": ["", -1, 3, 1, -11, -22, -36, 19, -5, -70, -52, 50, -2, -4, 4, -2, -41, -83, 29, -2, 22, 10, -6, -2, 3, -2, 14, 54, 44, 77, -9, -65, -37, -40], "withholdReward": false, "trial_id": "mdp_trial_40", "block": "test", "trialIndex": 41, "score": -54, "costs": 0, "simulationMode": [null, null, null, null, null], "rewards": [-1, 3, 1, -5, -52], "path": ["0", "0", "1", "2", "3", "8", "10"], "rt": [1632, 72, 135, 10, 74], "actions": ["up", "up", "up", "left", "down"], "actionTimes": [3615, 4227, 4894, 5455, 6086], "queries": {"click": {"state": {"target": [], "time": []}, "edge": {"target": [], "time": []}}, "mouseover": {"state": {"target": [], "time": []}, "edge": {"target": [], "time": []}}, "mouseout": {"state": {"target": ["0"], "time": [9456]}, "edge": {"target": [], "time": []}}}, "displayed_time": "15.99", "trialTime": 41266, "trial_type": "mouselab-mdp", "trial_index": 48, "time_elapsed": 1670083, "internal_node_id": "0.0-6.0-1.0-39.0"}}, {"uniqueid": "w75482563:a35950875", "current_trial": 49, "dateTime": 1693582341856, "trialdata": {"rt": 121824, "response": {"Q0": "$-2 to $2", "Q1": "$-4 to $4", "Q2": "$-88 to $88", "Q3": "The cost for clicking on nodes varied between nodes.", "Q4": "Very motivated"}, "question_order": [0, 1, 2, 3, 4], "trial_id": "final_quiz_control", "trial_type": "survey-multi-choice", "trial_index": 49, "time_elapsed": 1791922, "internal_node_id": "0.0-6.0-2.0"}}, {"uniqueid": "w75482563:a35950875", "current_trial": 50, "dateTime": 1693582521104, "trialdata": {"rt": 179233, "response": {"Q0": "Click what some of the nodes had in them in order to make a decision. If I hit a 60 plus, that is the node I take, if not, I avoid them and take others", "Q1": "Not really, my strategy remained consistent through out the game.", "Q2": "I enjoyed the game so it was not really difficult per se."}, "trial_id": "self_report_control", "trial_type": "survey-text", "trial_index": 50, "time_elapsed": 1971171, "internal_node_id": "0.0-6.0-3.0"}}, {"uniqueid": "w75482563:a35950875", "current_trial": 51, "dateTime": 1693582596652, "trialdata": {"rt": 75539, "response": {"Q0": "Agree", "Q1": "Strongly disagree", "Q2": "Disagree", "Q3": "Disagree", "Q4": "Agree", "Q5": "Strongly agree", "Q6": "Strongly disagree"}, "question_order": [0, 1, 2, 3, 4, 5, 6], "trial_id": "self_report_2", "trial_type": "survey-multi-choice", "trial_index": 51, "time_elapsed": 2046719, "internal_node_id": "0.0-6.0-4.0"}}, {"uniqueid": "w75482563:a35950875", "current_trial": 52, "dateTime": 1693582621774, "trialdata": {"rt": 25111, "response": {"gender": "male", "age": "31", "colorblind": "0", "effort": "0"}, "trial_type": "survey-html-form", "trial_index": 52, "time_elapsed": 2071841, "internal_node_id": "0.0-6.0-5.0"}}, {"uniqueid": "w75482563:a35950875", "current_trial": 53, "dateTime": 1693582665319, "trialdata": {"rt": 43535, "response": {"Q0": "No, instructions were clear", "Q1": "No", "Q2": "None"}, "trial_type": "survey-text", "trial_index": 53, "time_elapsed": 2115386, "internal_node_id": "0.0-6.0-6.0"}}, {"uniqueid": "w75482563:a35950875", "current_trial": 54, "dateTime": 1693582721539, "trialdata": {"rt": 56214, "stimulus": "<h1>Completion Code Instructions (1/2)</h1>\n<br><br><br><br>\nYou have reached the end of the experiment! The completion code consists of two parts: (1) a code with 2 characters (2) a code with 6 characters. On this page, you will receive the second part of the code. The first part of the completion code will be on the next page.\n<br><br>\nThe second part of your completion code is: <b>EWEK22</b>\n<br><br>\nPlease note this down. Then, press 'Next' in order to find the first part of your completion code. Once the data has been saved, you will receive this code either in this window or in the original browser window where you started the experiment.\n <br><br>\n<h2 style='color: red;'>Note: this is <strong>NOT</strong> the full completion code. Copy this down and click 'Next' to get the full completion code on the next page.</h2>", "response": 0, "trial_type": "html-button-response", "trial_index": 54, "time_elapsed": 2171606, "internal_node_id": "0.0-6.0-7.0"}}, {"uniqueid": "w75482563:a35950875", "current_trial": 55, "dateTime": 1693582722546, "trialdata": {"success": true, "trial_type": "fullscreen", "trial_index": 55, "time_elapsed": 2172613, "internal_node_id": "0.0-7.0"}}], "questiondata": {"params": {"CODE": "C6DMOQA6", "MIN_TIME": 14, "inspectCost": 1, "startTime": "Fri Sep 01 2023 17:02:26 GMT+0200 (South Africa Standard Time)", "bonusRate": 0.002, "variance": "1_2_4_8_44", "branching": "31123"}, "final_score": 828.8}, "eventdata": [{"eventtype": "initialized", "value": null, "timestamp": 1693580545925, "interval": 0}, {"eventtype": "window_resize", "value": [1028, 750], "timestamp": 1693580545926, "interval": 1}, {"eventtype": "window_resize", "value": [1028, 750], "timestamp": 1693580546612, "interval": 686}, {"eventtype": "window_resize", "value": [1536, 864], "timestamp": 1693580554431, "interval": 7819}, {"eventtype": "window_resize", "value": [1028, 750], "timestamp": 1693580623487, "interval": 69056}, {"eventtype": "focus", "value": "off", "timestamp": 1693580629709, "interval": 6222}, {"eventtype": "focus", "value": "on", "timestamp": 1693580634374, "interval": 4665}, {"eventtype": "window_resize", "value": [1536, 764], "timestamp": 1693580636135, "interval": 1761}], "useragent": "Mozilla/5.0 (Windows NT 10.0; Win64; x64) AppleWebKit/537.36 (KHTML, like Gecko) Chrome/116.0.0.0 Safari/537.36", "mode": "live", "id": "w75482563:a35950875", "status": "user data saved", "Beginhit": "2023-09-01 15:02:21.666359", "Beginexp": "2023-09-01 15:02:35.200381", "Endhit": "2023-09-01 15:38:43.782919", "psiturkStatus": 3, "browser": "<redacted>", "platform": "windows", "language": "en-US"}