{"condition": 1, "counterbalance": 0, "assignmentId": "a62011803", "workerId": "w69039400", "hitId": "h81302641", "currenttrial": 56, "bonus": 0, "data": [{"uniqueid": "w69039400:a62011803", "current_trial": 0, "dateTime": 1691071146770, "trialdata": {"success": true, "trial_type": "fullscreen", "trial_index": 0, "time_elapsed": 13362, "internal_node_id": "0.0-0.0"}}, {"uniqueid": "w69039400:a62011803", "current_trial": 1, "dateTime": 1691071186225, "trialdata": {"view_history": [{"page_index": 0, "viewing_time": 39421}], "rt": 39423, "trial_id": "exp_instructions_misaligned", "trial_type": "instructions", "trial_index": 1, "time_elapsed": 52818, "internal_node_id": "0.0-1.0"}}, {"uniqueid": "w69039400:a62011803", "current_trial": 2, "dateTime": 1691071192193, "trialdata": {"success": true, "trial_type": "fullscreen", "trial_index": 2, "time_elapsed": 58786, "internal_node_id": "0.0-2.0-0.0"}}, {"uniqueid": "w69039400:a62011803", "current_trial": 3, "dateTime": 1691071603487, "trialdata": {"view_history": [{"page_index": 0, "viewing_time": 196189}, {"page_index": 1, "viewing_time": 71472}, {"page_index": 2, "viewing_time": 85624}, {"page_index": 3, "viewing_time": 58000}], "rt": 411285, "trial_id": "mouselab_instructions_1_misaligned", "trial_type": "instructions", "trial_index": 3, "time_elapsed": 470080, "internal_node_id": "0.0-2.0-1.0"}}, {"uniqueid": "w69039400:a62011803", "current_trial": 4, "dateTime": 1691071637701, "trialdata": {"revealed_states": [], "clicked_states": ["1", "2", "3", "8", "9"], "num_clicks_accrued": [0, 0, 0, 0, 0, 0, 0, 0, 0, 0, 0, 0, 0], "stateRewards": ["", 10, -10, 10, -10, 10, 10, 10, 10, -10, -10, -10, -10, -10, 10, 10, -10, -10, -10, 10, -10, 10, 10, -10, 10, 10, 10, 10, -10, 10, 10, -10, 10, 10], "withholdReward": false, "trial_id": "practice_1", "block": "test", "trialIndex": 0, "score": -9, "costs": -2.5, "simulationMode": [null, null, null, null, null], "rewards": [-10, -10, 10, 10, -10], "path": ["0", "0", "12", "13", "14", "15", "16"], "rt": [21966, 2068, 264, 398, 158], "actions": ["right", "right", "right", "up", "up"], "actionTimes": [23613, 26199, 26991, 27898, 28587], "queries": {"click": {"state": {"target": ["1", "2", "3", "8", "9"], "time": [3368, 5548, 9351, 11046, 13016]}, "edge": {"target": [], "time": []}}, "mouseover": {"state": {"target": ["1", "2", "8", "3", "8", "9", "28", "24", "23", "0"], "time": [3082, 5020, 7019, 8417, 10280, 12740, 14842, 15442, 15840, 19736]}, "edge": {"target": [], "time": []}}, "mouseout": {"state": {"target": ["12", "1", "2", "8", "3", "8", "9", "28", "24", "23", "0"], "time": [610, 4568, 6817, 8284, 10030, 12292, 14139, 15225, 15806, 16036, 19819]}, "edge": {"target": [], "time": []}}}, "displayed_time": "29.10", "trialTime": 33158, "trial_type": "mouselab-mdp", "trial_index": 4, "time_elapsed": 504293, "internal_node_id": "0.0-2.0-2.0-0.0"}}, {"uniqueid": "w69039400:a62011803", "current_trial": 5, "dateTime": 1691071665731, "trialdata": {"revealed_states": [], "clicked_states": ["23", "24", "25", "30", "32"], "num_clicks_accrued": [0, 0, 0, 0, 0, 0, 0, 0, 0, 0, 0, 0, 0], "stateRewards": ["", 10, 10, -10, 10, -10, 10, 10, -10, -10, 10, -10, -10, 10, 10, -10, -10, 10, 10, -10, 10, -10, 10, -10, 10, -10, -10, 10, -10, 10, -10, -10, -10, 10], "withholdReward": false, "trial_id": "practice_2", "block": "test", "trialIndex": 1, "score": -29, "costs": -2.5, "simulationMode": [null, null, null, null, null], "rewards": [-10, 10, -10, -10, -10], "path": ["0", "0", "23", "24", "25", "30", "32"], "rt": [18056, 269, 206, 137, 325], "actions": ["left", "left", "left", "down", "down"], "actionTimes": [22142, 22924, 23655, 24295, 25139], "queries": {"click": {"state": {"target": ["23", "24", "25", "30", "32"], "time": [9511, 11403, 13452, 14522, 16706]}, "edge": {"target": [], "time": []}}, "mouseover": {"state": {"target": ["23", "23", "24", "25", "30", "32"], "time": [7633, 9080, 10312, 11863, 14198, 16435]}, "edge": {"target": [], "time": []}}, "mouseout": {"state": {"target": ["0", "23", "23", "24", "25", "25", "30", "32"], "time": [3511, 7930, 9620, 11487, 13570, 13983, 16238, 16806]}, "edge": {"target": [], "time": []}}}, "displayed_time": "25.65", "trialTime": 27491, "trial_type": "mouselab-mdp", "trial_index": 5, "time_elapsed": 532321, "internal_node_id": "0.0-2.0-2.0-1.0"}}, {"uniqueid": "w69039400:a62011803", "current_trial": 6, "dateTime": 1691071712271, "trialdata": {"view_history": [{"page_index": 0, "viewing_time": 28306}, {"page_index": 1, "viewing_time": 18224}], "rt": 46531, "trial_id": "mouselab_instructions_2_misaligned", "trial_type": "instructions", "trial_index": 6, "time_elapsed": 578864, "internal_node_id": "0.0-2.0-3.0"}}, {"uniqueid": "w69039400:a62011803", "current_trial": 7, "dateTime": 1691071759192, "trialdata": {"rt": 46915, "response": {"Q0": "The cost for clicking on nodes may vary between nodes.", "Q1": "The better I perform the higher my bonus will be.", "Q2": "No, the amount of cash at each node of the web may be different each time.", "Q3": "To get the highest total score.", "Q4": "Only before moving the spider.", "Q5": "3 seconds"}, "question_order": [0, 1, 2, 3, 4, 5], "correct": {"Q0": "The cost for clicking on nodes may vary between nodes.", "Q1": "The better I perform the higher my bonus will be.", "Q2": "No, the amount of cash at each node of the web may be different each time.", "Q3": "To get the highest total score.", "Q4": "Only before moving the spider.", "Q5": "3 seconds"}, "trial_id": "mouselab_quiz_misaligned", "trial_type": "survey-multi-choice", "trial_index": 7, "time_elapsed": 625785, "internal_node_id": "0.0-2.0-4.0"}}, {"uniqueid": "w69039400:a62011803", "current_trial": 8, "dateTime": 1691071783224, "trialdata": {"rt": 24017, "stimulus": "\n<h1> Get ready to start the game! </h1>\n\nThank you for reading the instructions. Get ready start with the 40 rounds of this game.\n<br><br>\nIf you need to take a break, feel free to take one after the end of a round, before continuing to the next one.\n<br><br>\nRemember, the more money the spider gets, the bigger your bonus will be!\n<br><br>\n<div style='text-align: center;'>Press <code>space</code> to begin.</div>\n\n<br><br>\n(If, at any point, the <code>space</code> key does not take you to the next page, click once on the text and try again.)", "response": " ", "trial_id": "mdp_ready", "trial_type": "html-keyboard-response", "trial_index": 8, "time_elapsed": 649816, "internal_node_id": "0.0-4.0-0.0"}}, {"uniqueid": "w69039400:a62011803", "current_trial": 9, "dateTime": 1691071803474, "trialdata": {"revealed_states": [], "clicked_states": [], "num_clicks_accrued": [0, 0, 0, 0, 0, 0, 0, 0, 0, 0, 0, 0, 0], "stateRewards": ["", 1, 1, -3, 7, 49, 78, 26, -5, 26, 48, -43, -1, -3, 2, -5, 4, -1, -60, 10, -35, 51, 81, -2, 1, -7, -5, -39, -86, -54, 4, -3, 74, 77], "withholdReward": false, "trial_id": "mdp_trial_1", "block": "test", "trialIndex": 2, "score": 20, "costs": 0, "simulationMode": [null, null, null, null, null], "rewards": [1, 1, -3, -5, 26], "path": ["0", "0", "1", "2", "3", "8", "9"], "rt": [9134, 509, 377, 181, 214], "actions": ["up", "up", "up", "left", "up"], "actionTimes": [12221, 13247, 14137, 14848, 15569], "queries": {"click": {"state": {"target": [], "time": []}, "edge": {"target": [], "time": []}}, "mouseover": {"state": {"target": ["1", "0"], "time": [8527, 10110]}, "edge": {"target": [], "time": []}}, "mouseout": {"state": {"target": ["0", "1"], "time": [6441, 8910]}, "edge": {"target": [], "time": []}}}, "displayed_time": "17.09", "trialTime": 19697, "trial_type": "mouselab-mdp", "trial_index": 9, "time_elapsed": 670065, "internal_node_id": "0.0-4.0-1.0-0.0"}}, {"uniqueid": "w69039400:a62011803", "current_trial": 10, "dateTime": 1691071822003, "trialdata": {"revealed_states": [], "clicked_states": [], "num_clicks_accrued": [0, 0, 0, 0, 0, 0, 0, 0, 0, 0, 0, 0, 0], "stateRewards": ["", 1, 4, -4, 14, 35, 51, 19, -13, 54, 78, -74, -2, -1, -3, 13, -11, -42, -73, -15, -24, -3, -69, 2, -1, 5, 16, -27, 73, 58, 9, -60, 5, -60], "withholdReward": false, "trial_id": "mdp_trial_2", "block": "test", "trialIndex": 3, "score": 34, "costs": 0, "simulationMode": [null, null, null, null, null], "rewards": [1, 4, -4, 14, 19], "path": ["0", "0", "1", "2", "3", "4", "7"], "rt": [5255, 822, 700, 70, 137], "actions": ["up", "up", "up", "right", "down"], "actionTimes": [6704, 8043, 9271, 9860, 10532], "queries": {"click": {"state": {"target": [], "time": []}, "edge": {"target": [], "time": []}}, "mouseover": {"state": {"target": [], "time": []}, "edge": {"target": [], "time": []}}, "mouseout": {"state": {"target": [], "time": []}, "edge": {"target": [], "time": []}}}, "displayed_time": "15.45", "trialTime": 17961, "trial_type": "mouselab-mdp", "trial_index": 10, "time_elapsed": 688594, "internal_node_id": "0.0-4.0-1.0-1.0"}}, {"uniqueid": "w69039400:a62011803", "current_trial": 11, "dateTime": 1691071841377, "trialdata": {"revealed_states": [], "clicked_states": [], "num_clicks_accrued": [0, 0, 0, 0, 0, 0, 0, 0, 0, 0, 0, 0, 0], "stateRewards": ["", 1, -2, -2, 10, -31, -77, 35, 9, -47, 8, 48, -2, 1, -4, -3, -26, -50, 43, -11, 76, -38, 17, 1, -1, 6, 10, 15, -9, 12, -8, 85, 11, -55], "withholdReward": false, "trial_id": "mdp_trial_3", "block": "test", "trialIndex": 4, "score": 9, "costs": 0, "simulationMode": [null, null, null, null, null], "rewards": [1, -1, 6, -8, 11], "path": ["0", "0", "23", "24", "25", "30", "32"], "rt": [2722, 144, 117, 227, 591], "actions": ["left", "left", "left", "down", "down"], "actionTimes": [5406, 6059, 6687, 7434, 8546], "queries": {"click": {"state": {"target": [], "time": []}, "edge": {"target": [], "time": []}}, "mouseover": {"state": {"target": [], "time": []}, "edge": {"target": [], "time": []}}, "mouseout": {"state": {"target": ["0", "29", "26", "28", "23", "0", "31"], "time": [771, 1308, 1476, 1575, 1876, 11114, 15014]}, "edge": {"target": [], "time": []}}}, "displayed_time": "16.68", "trialTime": 18774, "trial_type": "mouselab-mdp", "trial_index": 11, "time_elapsed": 707969, "internal_node_id": "0.0-4.0-1.0-2.0"}}, {"uniqueid": "w69039400:a62011803", "current_trial": 12, "dateTime": 1691071861159, "trialdata": {"revealed_states": [], "clicked_states": [], "num_clicks_accrued": [0, 0, 0, 0, 0, 0, 0, 0, 0, 0, 0, 0, 0], "stateRewards": ["", -1, 2, -7, -12, -62, 12, -13, 5, 77, -71, 83, 1, -4, 7, 15, -42, -87, -4, 5, -25, 44, 88, -1, 4, -5, -8, 14, 51, 8, -5, 83, -24, -19], "withholdReward": false, "trial_id": "mdp_trial_4", "block": "test", "trialIndex": 5, "score": 76, "costs": 0, "simulationMode": [null, null, null, null, null], "rewards": [-1, 2, -7, 5, 77], "path": ["0", "0", "1", "2", "3", "8", "9"], "rt": [3729, 336, 425, 323, 498], "actions": ["up", "up", "up", "left", "up"], "actionTimes": [6077, 6918, 7846, 8694, 9695], "queries": {"click": {"state": {"target": [], "time": []}, "edge": {"target": [], "time": []}}, "mouseover": {"state": {"target": [], "time": []}, "edge": {"target": [], "time": []}}, "mouseout": {"state": {"target": ["0", "0", "1", "10", "11", "2", "1", "0", "23", "24", "25", "25"], "time": [3171, 13158, 13190, 13257, 13858, 14441, 14774, 15373, 15525, 15759, 15862, 15970]}, "edge": {"target": [], "time": []}}}, "displayed_time": "16.35", "trialTime": 19175, "trial_type": "mouselab-mdp", "trial_index": 12, "time_elapsed": 727750, "internal_node_id": "0.0-4.0-1.0-3.0"}}, {"uniqueid": "w69039400:a62011803", "current_trial": 13, "dateTime": 1691071879332, "trialdata": {"revealed_states": [], "clicked_states": [], "num_clicks_accrued": [0, 0, 0, 0, 0, 0, 0, 0, 0, 0, 0, 0, 0], "stateRewards": ["", 1, -1, 4, 5, -32, 18, 20, 6, -88, -74, 9, -2, 1, -2, -14, 34, -77, -38, -1, 80, -36, 73, 2, 3, -8, 10, -48, -73, -71, -11, -22, 20, 54], "withholdReward": false, "trial_id": "mdp_trial_5", "block": "test", "trialIndex": 6, "score": -55, "costs": 0, "simulationMode": [null, null, null, null, null], "rewards": [-2, 1, -2, -14, -38], "path": ["0", "0", "12", "13", "14", "15", "18"], "rt": [3925, 441, 1222, 257, 435], "actions": ["right", "right", "right", "up", "left"], "actionTimes": [5599, 6537, 8283, 9054, 9994], "queries": {"click": {"state": {"target": [], "time": []}, "edge": {"target": [], "time": []}}, "mouseover": {"state": {"target": [], "time": []}, "edge": {"target": [], "time": []}}, "mouseout": {"state": {"target": ["30", "0"], "time": [557, 12896]}, "edge": {"target": [], "time": []}}}, "displayed_time": "15.67", "trialTime": 17614, "trial_type": "mouselab-mdp", "trial_index": 13, "time_elapsed": 745923, "internal_node_id": "0.0-4.0-1.0-4.0"}}, {"uniqueid": "w69039400:a62011803", "current_trial": 14, "dateTime": 1691071896745, "trialdata": {"revealed_states": [], "clicked_states": [], "num_clicks_accrued": [0, 0, 0, 0, 0, 0, 0, 0, 0, 0, 0, 0, 0], "stateRewards": ["", -2, 2, -5, 1, 42, -63, -58, -6, 2, 16, 81, -2, 4, 7, -10, 33, 3, -33, -2, -52, -84, -27, 2, -3, -3, 15, -74, -14, -5, -5, -84, 79, -31], "withholdReward": false, "trial_id": "mdp_trial_6", "block": "test", "trialIndex": 7, "score": -9, "costs": 0, "simulationMode": [null, null, null, null, null], "rewards": [-2, 2, -5, -6, 2], "path": ["0", "0", "1", "2", "3", "8", "9"], "rt": [2398, 531, 1001, 337, 394], "actions": ["up", "up", "up", "left", "up"], "actionTimes": [4229, 5290, 6829, 7688, 8616], "queries": {"click": {"state": {"target": [], "time": []}, "edge": {"target": [], "time": []}}, "mouseover": {"state": {"target": [], "time": []}, "edge": {"target": [], "time": []}}, "mouseout": {"state": {"target": ["0"], "time": [562]}, "edge": {"target": [], "time": []}}}, "displayed_time": "15.83", "trialTime": 16840, "trial_type": "mouselab-mdp", "trial_index": 14, "time_elapsed": 763337, "internal_node_id": "0.0-4.0-1.0-5.0"}}, {"uniqueid": "w69039400:a62011803", "current_trial": 15, "dateTime": 1691071914958, "trialdata": {"revealed_states": [], "clicked_states": [], "num_clicks_accrued": [0, 0, 0, 0, 0, 0, 0, 0, 0, 0, 0, 0, 0], "stateRewards": ["", -2, 4, -3, -13, 63, -36, 62, 11, 78, 34, -51, 2, -2, 8, -6, -40, -18, 31, 9, 64, 39, 79, 1, 4, -4, 15, -12, 76, 73, -10, -77, 86, -4], "withholdReward": false, "trial_id": "mdp_trial_7", "block": "test", "trialIndex": 8, "score": 48, "costs": 0, "simulationMode": [null, null, null, null, null], "rewards": [-2, 4, -3, -13, 62], "path": ["0", "0", "1", "2", "3", "4", "7"], "rt": [3745, 401, 406, 202, 551], "actions": ["up", "up", "up", "right", "down"], "actionTimes": [5397, 6296, 7201, 7931, 9000], "queries": {"click": {"state": {"target": [], "time": []}, "edge": {"target": [], "time": []}}, "mouseover": {"state": {"target": [], "time": []}, "edge": {"target": [], "time": []}}, "mouseout": {"state": {"target": ["0"], "time": [11062]}, "edge": {"target": [], "time": []}}}, "displayed_time": "15.65", "trialTime": 17644, "trial_type": "mouselab-mdp", "trial_index": 15, "time_elapsed": 781550, "internal_node_id": "0.0-4.0-1.0-6.0"}}, {"uniqueid": "w69039400:a62011803", "current_trial": 16, "dateTime": 1691071932488, "trialdata": {"revealed_states": [], "clicked_states": [], "num_clicks_accrued": [0, 0, 0, 0, 0, 0, 0, 0, 0, 0, 0, 0, 0], "stateRewards": ["", 2, -3, -4, -1, 25, -16, 16, 10, -71, -20, -55, 1, 3, -4, -9, 1, 32, 11, -6, 32, -50, -41, -1, 4, 4, -8, 7, -81, 70, 2, -52, 45, -10], "withholdReward": false, "trial_id": "mdp_trial_8", "block": "test", "trialIndex": 9, "score": -50, "costs": 0, "simulationMode": [null, null, null, null, null], "rewards": [2, -3, -4, 10, -55], "path": ["0", "0", "1", "2", "3", "8", "11"], "rt": [2283, 351, 351, 256, 387], "actions": ["up", "up", "up", "left", "left"], "actionTimes": [4156, 5027, 5905, 6678, 7575], "queries": {"click": {"state": {"target": [], "time": []}, "edge": {"target": [], "time": []}}, "mouseover": {"state": {"target": [], "time": []}, "edge": {"target": [], "time": []}}, "mouseout": {"state": {"target": ["0"], "time": [9203]}, "edge": {"target": [], "time": []}}}, "displayed_time": "15.88", "trialTime": 16959, "trial_type": "mouselab-mdp", "trial_index": 16, "time_elapsed": 799080, "internal_node_id": "0.0-4.0-1.0-7.0"}}, {"uniqueid": "w69039400:a62011803", "current_trial": 17, "dateTime": 1691071950788, "trialdata": {"revealed_states": [], "clicked_states": [], "num_clicks_accrued": [0, 0, 0, 0, 0, 0, 0, 0, 0, 0, 0, 0, 0], "stateRewards": ["", -2, -4, -8, 8, 63, -50, -19, -7, -17, -31, 31, 1, 3, -5, 12, -35, -63, -29, -4, -17, -75, -79, -2, -3, -2, 8, -3, -85, 10, -2, -82, -82, 56], "withholdReward": false, "trial_id": "mdp_trial_9", "block": "test", "trialIndex": 10, "score": -91, "costs": 0, "simulationMode": [null, null, null, null, null], "rewards": [-2, -3, -2, -2, -82], "path": ["0", "0", "23", "24", "25", "30", "32"], "rt": [2637, 642, 348, 270, 541], "actions": ["left", "left", "left", "down", "down"], "actionTimes": [3817, 4970, 5844, 6613, 7668], "queries": {"click": {"state": {"target": [], "time": []}, "edge": {"target": [], "time": []}}, "mouseover": {"state": {"target": [], "time": []}, "edge": {"target": [], "time": []}}, "mouseout": {"state": {"target": ["0", "0"], "time": [803, 9792]}, "edge": {"target": [], "time": []}}}, "displayed_time": "15.18", "trialTime": 17707, "trial_type": "mouselab-mdp", "trial_index": 17, "time_elapsed": 817379, "internal_node_id": "0.0-4.0-1.0-8.0"}}, {"uniqueid": "w69039400:a62011803", "current_trial": 18, "dateTime": 1691071969113, "trialdata": {"revealed_states": [], "clicked_states": [], "num_clicks_accrued": [0, 0, 0, 0, 0, 0, 0, 0, 0, 0, 0, 0, 0], "stateRewards": ["", 2, -3, -5, 5, 11, -9, -33, 6, 67, 6, -30, -1, -2, -6, 13, 55, 13, 72, -14, 75, 21, -66, -2, -4, 6, 15, -1, -35, 60, 2, 51, -73, 12], "withholdReward": false, "trial_id": "mdp_trial_10", "block": "test", "trialIndex": 11, "score": 67, "costs": 0, "simulationMode": [null, null, null, null, null], "rewards": [2, -3, -5, 6, 67], "path": ["0", "0", "1", "2", "3", "8", "9"], "rt": [2409, 351, 375, 333, 479], "actions": ["up", "up", "up", "left", "up"], "actionTimes": [4433, 5284, 6160, 7001, 7980], "queries": {"click": {"state": {"target": [], "time": []}, "edge": {"target": [], "time": []}}, "mouseover": {"state": {"target": [], "time": []}, "edge": {"target": [], "time": []}}, "mouseout": {"state": {"target": ["0", "0", "0"], "time": [622, 10456, 13520]}, "edge": {"target": [], "time": []}}}, "displayed_time": "16.03", "trialTime": 17740, "trial_type": "mouselab-mdp", "trial_index": 18, "time_elapsed": 835705, "internal_node_id": "0.0-4.0-1.0-9.0"}}, {"uniqueid": "w69039400:a62011803", "current_trial": 19, "dateTime": 1691071987527, "trialdata": {"revealed_states": [], "clicked_states": [], "num_clicks_accrued": [0, 0, 0, 0, 0, 0, 0, 0, 0, 0, 0, 0, 0], "stateRewards": ["", -1, 3, 1, -7, 56, 76, 57, 3, 11, -9, 14, 1, -2, 2, 8, -77, -3, 79, -5, 88, 24, -66, -2, -1, 7, -7, -30, 14, -76, 11, -36, 28, -6], "withholdReward": false, "trial_id": "mdp_trial_11", "block": "test", "trialIndex": 12, "score": -33, "costs": 0, "simulationMode": [null, null, null, null, null], "rewards": [-2, -1, 7, -7, -30], "path": ["0", "0", "23", "24", "25", "26", "27"], "rt": [1732, 517, 422, 270, 272], "actions": ["left", "left", "left", "up", "up"], "actionTimes": [3827, 4997, 5951, 6720, 7505], "queries": {"click": {"state": {"target": [], "time": []}, "edge": {"target": [], "time": []}}, "mouseover": {"state": {"target": [], "time": []}, "edge": {"target": [], "time": []}}, "mouseout": {"state": {"target": ["0"], "time": [8531]}, "edge": {"target": [], "time": []}}}, "displayed_time": "16.10", "trialTime": 17859, "trial_type": "mouselab-mdp", "trial_index": 19, "time_elapsed": 854118, "internal_node_id": "0.0-4.0-1.0-10.0"}}, {"uniqueid": "w69039400:a62011803", "current_trial": 20, "dateTime": 1691072012881, "trialdata": {"revealed_states": [], "clicked_states": [], "num_clicks_accrued": [0, 0, 0, 0, 0, 0, 0, 0, 0, 0, 0, 0, 0], "stateRewards": ["", -1, 2, -6, 6, -82, -19, -39, -16, -83, 11, -33, -2, -2, 4, -6, -82, -1, -19, -6, -10, -67, -41, -2, 1, -7, 16, -23, -78, -52, 14, 31, -71, 74], "withholdReward": false, "trial_id": "mdp_trial_12", "block": "test", "trialIndex": 13, "score": -104, "costs": 0, "simulationMode": [null, null, null, null, null], "rewards": [-1, 2, -6, -16, -83], "path": ["0", "0", "1", "2", "3", "8", "9"], "rt": [1290, 565, 381, 84, 174], "actions": ["up", "up", "up", "left", "up"], "actionTimes": [9821, 10917, 11815, 12405, 13099], "queries": {"click": {"state": {"target": [], "time": []}, "edge": {"target": [], "time": []}}, "mouseover": {"state": {"target": [], "time": []}, "edge": {"target": [], "time": []}}, "mouseout": {"state": {"target": ["0"], "time": [14267]}, "edge": {"target": [], "time": []}}}, "displayed_time": "22.53", "trialTime": 24739, "trial_type": "mouselab-mdp", "trial_index": 20, "time_elapsed": 879473, "internal_node_id": "0.0-4.0-1.0-11.0"}}, {"uniqueid": "w69039400:a62011803", "current_trial": 21, "dateTime": 1691072040454, "trialdata": {"revealed_states": [], "clicked_states": [], "num_clicks_accrued": [0, 0, 0, 0, 0, 0, 0, 0, 0, 0, 0, 0, 0], "stateRewards": ["", 2, 3, -1, 6, 44, -4, -59, -14, -3, 64, 16, 1, -3, 3, 6, 3, 49, 19, 3, -49, -14, -86, 1, 2, -3, -8, -33, 14, 32, -13, -77, -47, -67], "withholdReward": false, "trial_id": "mdp_trial_13", "block": "test", "trialIndex": 14, "score": -13, "costs": 0, "simulationMode": [null, null, null, null, null], "rewards": [2, 3, -1, -14, -3], "path": ["0", "0", "1", "2", "3", "8", "9"], "rt": [2793, 371, 422, 291, 363], "actions": ["up", "up", "up", "left", "up"], "actionTimes": [10992, 11879, 12823, 13623, 14507], "queries": {"click": {"state": {"target": [], "time": []}, "edge": {"target": [], "time": []}}, "mouseover": {"state": {"target": [], "time": []}, "edge": {"target": [], "time": []}}, "mouseout": {"state": {"target": ["0", "0"], "time": [8219, 25702]}, "edge": {"target": [], "time": []}}}, "displayed_time": "22.20", "trialTime": 26985, "trial_type": "mouselab-mdp", "trial_index": 21, "time_elapsed": 907045, "internal_node_id": "0.0-4.0-1.0-12.0"}}, {"uniqueid": "w69039400:a62011803", "current_trial": 22, "dateTime": 1691072061772, "trialdata": {"revealed_states": [], "clicked_states": [], "num_clicks_accrued": [0, 0, 0, 0, 0, 0, 0, 0, 0, 0, 0, 0, 0], "stateRewards": ["", 1, 4, -8, -13, -13, -87, -77, -10, -44, 54, 42, 2, -3, -4, 12, -9, -80, 52, 9, 84, -2, -65, 1, -4, -5, -6, 8, 80, 32, 13, -59, -5, -13], "withholdReward": false, "trial_id": "mdp_trial_14", "block": "test", "trialIndex": 15, "score": -29, "costs": 0, "simulationMode": [null, null, null, null, null], "rewards": [1, 4, -8, -13, -13], "path": ["0", "0", "1", "2", "3", "4", "5"], "rt": [2416, 218, 326, 1159, 354], "actions": ["up", "up", "up", "right", "up"], "actionTimes": [7600, 8335, 9174, 10829, 11711], "queries": {"click": {"state": {"target": [], "time": []}, "edge": {"target": [], "time": []}}, "mouseover": {"state": {"target": [], "time": []}, "edge": {"target": [], "time": []}}, "mouseout": {"state": {"target": ["0", "0"], "time": [13770, 17037]}, "edge": {"target": [], "time": []}}}, "displayed_time": "19.19", "trialTime": 20683, "trial_type": "mouselab-mdp", "trial_index": 22, "time_elapsed": 928363, "internal_node_id": "0.0-4.0-1.0-13.0"}}, {"uniqueid": "w69039400:a62011803", "current_trial": 23, "dateTime": 1691072080654, "trialdata": {"revealed_states": [], "clicked_states": [], "num_clicks_accrued": [0, 0, 0, 0, 0, 0, 0, 0, 0, 0, 0, 0, 0], "stateRewards": ["", -1, -3, 4, -10, -5, 79, -87, -2, 53, 29, -20, -2, -1, -5, 10, 27, 86, 46, -16, -29, 40, 3, 2, 4, -1, -6, 37, 79, -29, 7, 86, -62, 29], "withholdReward": false, "trial_id": "mdp_trial_15", "block": "test", "trialIndex": 16, "score": 27, "costs": 0, "simulationMode": [null, null, null, null, null], "rewards": [-1, -3, 4, -2, 29], "path": ["0", "0", "1", "2", "3", "8", "10"], "rt": [3772, 376, 345, 482, 649], "actions": ["up", "up", "up", "left", "down"], "actionTimes": [6216, 7115, 7984, 8968, 10115], "queries": {"click": {"state": {"target": [], "time": []}, "edge": {"target": [], "time": []}}, "mouseover": {"state": {"target": [], "time": []}, "edge": {"target": [], "time": []}}, "mouseout": {"state": {"target": ["0"], "time": [11669]}, "edge": {"target": [], "time": []}}}, "displayed_time": "16.45", "trialTime": 18256, "trial_type": "mouselab-mdp", "trial_index": 23, "time_elapsed": 947245, "internal_node_id": "0.0-4.0-1.0-14.0"}}, {"uniqueid": "w69039400:a62011803", "current_trial": 24, "dateTime": 1691072098370, "trialdata": {"revealed_states": [], "clicked_states": [], "num_clicks_accrued": [0, 0, 0, 0, 0, 0, 0, 0, 0, 0, 0, 0, 0], "stateRewards": ["", -2, -4, -2, -13, -15, 87, -19, -6, -80, 30, 12, 1, 1, -8, 2, 55, 56, 15, 11, -68, -7, 55, -2, 3, -3, -3, 48, 62, 4, 1, -3, 69, -33], "withholdReward": false, "trial_id": "mdp_trial_16", "block": "test", "trialIndex": 17, "score": 60, "costs": 0, "simulationMode": [null, null, null, null, null], "rewards": [1, 1, -8, 11, 55], "path": ["0", "0", "12", "13", "14", "19", "22"], "rt": [3272, 414, 362, 462, 355], "actions": ["right", "right", "right", "down", "left"], "actionTimes": [4777, 5692, 6579, 7548, 8446], "queries": {"click": {"state": {"target": [], "time": []}, "edge": {"target": [], "time": []}}, "mouseover": {"state": {"target": [], "time": []}, "edge": {"target": [], "time": []}}, "mouseout": {"state": {"target": ["0", "0"], "time": [1087, 9714]}, "edge": {"target": [], "time": []}}}, "displayed_time": "15.51", "trialTime": 17115, "trial_type": "mouselab-mdp", "trial_index": 24, "time_elapsed": 964962, "internal_node_id": "0.0-4.0-1.0-15.0"}}, {"uniqueid": "w69039400:a62011803", "current_trial": 25, "dateTime": 1691072117948, "trialdata": {"revealed_states": [], "clicked_states": [], "num_clicks_accrued": [0, 0, 0, 0, 0, 0, 0, 0, 0, 0, 0, 0, 0], "stateRewards": ["", -2, -4, 4, -11, -63, -60, -7, 2, -14, 81, -43, -1, -1, -5, 7, 10, 69, 40, 8, -83, 52, 60, 1, 2, 5, -5, 16, 64, 14, -3, 29, 7, -51], "withholdReward": false, "trial_id": "mdp_trial_17", "block": "test", "trialIndex": 18, "score": -73, "costs": 0, "simulationMode": [null, null, null, null, null], "rewards": [-2, -4, 4, -11, -60], "path": ["0", "0", "1", "2", "3", "4", "6"], "rt": [2594, 872, 381, 1763, 169], "actions": ["up", "up", "up", "right", "right"], "actionTimes": [5114, 6524, 7441, 9714, 10406], "queries": {"click": {"state": {"target": [], "time": []}, "edge": {"target": [], "time": []}}, "mouseover": {"state": {"target": [], "time": []}, "edge": {"target": [], "time": []}}, "mouseout": {"state": {"target": ["0", "0"], "time": [19, 13116]}, "edge": {"target": [], "time": []}}}, "displayed_time": "17.09", "trialTime": 18389, "trial_type": "mouselab-mdp", "trial_index": 25, "time_elapsed": 984539, "internal_node_id": "0.0-4.0-1.0-16.0"}}, {"uniqueid": "w69039400:a62011803", "current_trial": 26, "dateTime": 1691072136753, "trialdata": {"revealed_states": [], "clicked_states": [], "num_clicks_accrued": [0, 0, 0, 0, 0, 0, 0, 0, 0, 0, 0, 0, 0], "stateRewards": ["", 2, -1, 4, -9, -43, 7, 54, -13, 38, -40, -83, -1, 2, -8, -10, 34, -33, 11, -14, -79, 65, 26, 1, 2, 4, 10, 21, 1, 86, 4, -53, 28, -29], "withholdReward": false, "trial_id": "mdp_trial_18", "block": "test", "trialIndex": 19, "score": 44, "costs": 0, "simulationMode": [null, null, null, null, null], "rewards": [-1, 2, -8, -14, 65], "path": ["0", "0", "12", "13", "14", "19", "21"], "rt": [2977, 259, 405, 1186, 404], "actions": ["right", "right", "right", "down", "down"], "actionTimes": [5334, 6102, 7008, 8691, 9594], "queries": {"click": {"state": {"target": [], "time": []}, "edge": {"target": [], "time": []}}, "mouseover": {"state": {"target": [], "time": []}, "edge": {"target": [], "time": []}}, "mouseout": {"state": {"target": ["0"], "time": [10974]}, "edge": {"target": [], "time": []}}}, "displayed_time": "16.36", "trialTime": 18193, "trial_type": "mouselab-mdp", "trial_index": 26, "time_elapsed": 1003345, "internal_node_id": "0.0-4.0-1.0-17.0"}}, {"uniqueid": "w69039400:a62011803", "current_trial": 27, "dateTime": 1691072158444, "trialdata": {"revealed_states": [], "clicked_states": [], "num_clicks_accrued": [0, 0, 0, 0, 0, 0, 0, 0, 0, 0, 0, 0, 0], "stateRewards": ["", 2, -4, -8, -15, 71, -43, -41, 7, -17, 20, 67, -1, -1, -4, 6, 37, -24, -47, 9, 34, 57, 45, 1, 2, -4, -5, -23, 88, -5, 13, -40, 43, 44], "withholdReward": false, "trial_id": "mdp_trial_19", "block": "test", "trialIndex": 20, "score": -28, "costs": 0, "simulationMode": [null, null, null, null, null], "rewards": [1, 2, -4, 13, -40], "path": ["0", "0", "23", "24", "25", "30", "31"], "rt": [3226, 630, 504, 378, 1023], "actions": ["left", "left", "left", "down", "right"], "actionTimes": [6468, 7598, 8634, 9530, 11070], "queries": {"click": {"state": {"target": [], "time": []}, "edge": {"target": [], "time": []}}, "mouseover": {"state": {"target": [], "time": []}, "edge": {"target": [], "time": []}}, "mouseout": {"state": {"target": ["0"], "time": [13599]}, "edge": {"target": [], "time": []}}}, "displayed_time": "17.25", "trialTime": 21093, "trial_type": "mouselab-mdp", "trial_index": 27, "time_elapsed": 1025036, "internal_node_id": "0.0-4.0-1.0-18.0"}}, {"uniqueid": "w69039400:a62011803", "current_trial": 28, "dateTime": 1691072178224, "trialdata": {"revealed_states": [], "clicked_states": [], "num_clicks_accrued": [0, 0, 0, 0, 0, 0, 0, 0, 0, 0, 0, 0, 0], "stateRewards": ["", 1, 2, -8, 9, 18, -83, -11, 6, -64, -48, 17, -2, -2, -5, -3, -24, -3, -86, -2, 48, -41, -22, -2, 4, 7, 8, 81, 13, -48, 10, 61, 19, 57], "withholdReward": false, "trial_id": "mdp_trial_20", "block": "test", "trialIndex": 21, "score": 18, "costs": 0, "simulationMode": [null, null, null, null, null], "rewards": [1, 2, -8, 6, 17], "path": ["0", "0", "1", "2", "3", "8", "11"], "rt": [1375, 532, 737, 1961, 596], "actions": ["up", "up", "up", "left", "left"], "actionTimes": [3366, 4406, 5673, 8160, 9280], "queries": {"click": {"state": {"target": [], "time": []}, "edge": {"target": [], "time": []}}, "mouseover": {"state": {"target": [], "time": []}, "edge": {"target": [], "time": []}}, "mouseout": {"state": {"target": ["0"], "time": [15431]}, "edge": {"target": [], "time": []}}}, "displayed_time": "15.99", "trialTime": 19006, "trial_type": "mouselab-mdp", "trial_index": 28, "time_elapsed": 1044816, "internal_node_id": "0.0-4.0-1.0-19.0"}}, {"uniqueid": "w69039400:a62011803", "current_trial": 29, "dateTime": 1691072197095, "trialdata": {"revealed_states": [], "clicked_states": [], "num_clicks_accrued": [0, 0, 0, 0, 0, 0, 0, 0, 0, 0, 0, 0, 0], "stateRewards": ["", -1, -3, -7, -7, -76, 30, -49, 11, -70, 56, 2, 1, 4, -3, -14, -59, -83, -25, -9, -21, -67, -73, -2, 4, 4, -9, -11, -32, 60, 9, -87, 22, -64], "withholdReward": false, "trial_id": "mdp_trial_21", "block": "test", "trialIndex": 22, "score": -28, "costs": 0, "simulationMode": [null, null, null, null, null], "rewards": [1, 4, -3, -9, -21], "path": ["0", "0", "12", "13", "14", "19", "20"], "rt": [4039, 76, 262, 666, 453], "actions": ["right", "right", "right", "down", "right"], "actionTimes": [5958, 6547, 7324, 8512, 9463], "queries": {"click": {"state": {"target": [], "time": []}, "edge": {"target": [], "time": []}}, "mouseover": {"state": {"target": [], "time": []}, "edge": {"target": [], "time": []}}, "mouseout": {"state": {"target": ["0"], "time": [11274]}, "edge": {"target": [], "time": []}}}, "displayed_time": "15.92", "trialTime": 17584, "trial_type": "mouselab-mdp", "trial_index": 29, "time_elapsed": 1063687, "internal_node_id": "0.0-4.0-1.0-20.0"}}, {"uniqueid": "w69039400:a62011803", "current_trial": 30, "dateTime": 1691072217069, "trialdata": {"revealed_states": [], "clicked_states": [], "num_clicks_accrued": [0, 0, 0, 0, 0, 0, 0, 0, 0, 0, 0, 0, 0], "stateRewards": ["", -1, -3, 1, -4, -48, -63, -49, -2, -84, -19, 65, 2, -2, -2, -12, -4, 59, 9, 6, 75, 69, -13, -1, -3, -3, -2, -37, -68, -36, 13, 32, 18, -14], "withholdReward": false, "trial_id": "mdp_trial_22", "block": "test", "trialIndex": 23, "score": -45, "costs": 0, "simulationMode": [null, null, null, null, null], "rewards": [-1, -3, -3, -2, -36], "path": ["0", "0", "23", "24", "25", "26", "29"], "rt": [1933, 510, 447, 172, 365], "actions": ["left", "left", "left", "up", "left"], "actionTimes": [5748, 6776, 7728, 8424, 9314], "queries": {"click": {"state": {"target": [], "time": []}, "edge": {"target": [], "time": []}}, "mouseover": {"state": {"target": [], "time": []}, "edge": {"target": [], "time": []}}, "mouseout": {"state": {"target": ["0"], "time": [11232]}, "edge": {"target": [], "time": []}}}, "displayed_time": "17.82", "trialTime": 19290, "trial_type": "mouselab-mdp", "trial_index": 30, "time_elapsed": 1083661, "internal_node_id": "0.0-4.0-1.0-21.0"}}, {"uniqueid": "w69039400:a62011803", "current_trial": 31, "dateTime": 1691072235263, "trialdata": {"revealed_states": [], "clicked_states": [], "num_clicks_accrued": [0, 0, 0, 0, 0, 0, 0, 0, 0, 0, 0, 0, 0], "stateRewards": ["", 1, 1, -6, -2, 7, 77, 3, 16, -16, 66, 31, -1, 3, -8, -6, 33, -50, -48, 7, -60, -66, 36, 2, -3, 3, -7, -12, -61, -79, -4, 8, 74, -70], "withholdReward": false, "trial_id": "mdp_trial_23", "block": "test", "trialIndex": 24, "score": 78, "costs": 0, "simulationMode": [null, null, null, null, null], "rewards": [1, 1, -6, 16, 66], "path": ["0", "0", "1", "2", "3", "8", "10"], "rt": [5363, 247, 362, 1235, 273], "actions": ["up", "up", "up", "left", "down"], "actionTimes": [6833, 7592, 8473, 10212, 10986], "queries": {"click": {"state": {"target": [], "time": []}, "edge": {"target": [], "time": []}}, "mouseover": {"state": {"target": [], "time": []}, "edge": {"target": [], "time": []}}, "mouseout": {"state": {"target": ["0"], "time": [13180]}, "edge": {"target": [], "time": []}}}, "displayed_time": "15.47", "trialTime": 17075, "trial_type": "mouselab-mdp", "trial_index": 31, "time_elapsed": 1101855, "internal_node_id": "0.0-4.0-1.0-22.0"}}, {"uniqueid": "w69039400:a62011803", "current_trial": 32, "dateTime": 1691072254768, "trialdata": {"revealed_states": [], "clicked_states": [], "num_clicks_accrued": [0, 0, 0, 0, 0, 0, 0, 0, 0, 0, 0, 0, 0], "stateRewards": ["", 1, 2, 3, 16, 63, -25, 16, -4, -14, 82, -66, -1, -3, -3, -11, -14, 19, 46, 3, -34, -82, 66, -2, -3, 4, -5, -63, 77, -37, -1, -45, -41, 84], "withholdReward": false, "trial_id": "mdp_trial_24", "block": "test", "trialIndex": 25, "score": 38, "costs": 0, "simulationMode": [null, null, null, null, null], "rewards": [1, 2, 3, 16, 16], "path": ["0", "0", "1", "2", "3", "4", "7"], "rt": [6416, 331, 194, 68, 393], "actions": ["up", "up", "up", "right", "down"], "actionTimes": [9854, 10699, 11415, 12403, 13728], "queries": {"click": {"state": {"target": [], "time": []}, "edge": {"target": [], "time": []}}, "mouseover": {"state": {"target": [], "time": []}, "edge": {"target": [], "time": []}}, "mouseout": {"state": {"target": ["0", "0"], "time": [2693, 15588]}, "edge": {"target": [], "time": []}}}, "displayed_time": "17.44", "trialTime": 18861, "trial_type": "mouselab-mdp", "trial_index": 32, "time_elapsed": 1121359, "internal_node_id": "0.0-4.0-1.0-23.0"}}, {"uniqueid": "w69039400:a62011803", "current_trial": 33, "dateTime": 1691072274271, "trialdata": {"revealed_states": [], "clicked_states": [], "num_clicks_accrued": [0, 0, 0, 0, 0, 0, 0, 0, 0, 0, 0, 0, 0], "stateRewards": ["", 2, -1, -4, -13, 74, 77, 3, 2, -43, -2, -11, 2, 3, 7, 11, -26, -29, -33, -3, -3, -13, -3, 1, 3, -7, 14, -59, 33, 9, -5, 34, 79, 68], "withholdReward": false, "trial_id": "mdp_trial_25", "block": "test", "trialIndex": 26, "score": 6, "costs": 0, "simulationMode": [null, null, null, null, null], "rewards": [2, 3, 7, -3, -3], "path": ["0", "0", "12", "13", "14", "19", "20"], "rt": [2659, 98, 689, 194, 399], "actions": ["right", "right", "right", "down", "right"], "actionTimes": [6205, 6806, 7991, 8695, 9606], "queries": {"click": {"state": {"target": [], "time": []}, "edge": {"target": [], "time": []}}, "mouseover": {"state": {"target": [], "time": []}, "edge": {"target": [], "time": []}}, "mouseout": {"state": {"target": ["0"], "time": [11939]}, "edge": {"target": [], "time": []}}}, "displayed_time": "17.55", "trialTime": 18845, "trial_type": "mouselab-mdp", "trial_index": 33, "time_elapsed": 1140863, "internal_node_id": "0.0-4.0-1.0-24.0"}}, {"uniqueid": "w69039400:a62011803", "current_trial": 34, "dateTime": 1691072293269, "trialdata": {"revealed_states": [], "clicked_states": [], "num_clicks_accrued": [0, 0, 0, 0, 0, 0, 0, 0, 0, 0, 0, 0, 0], "stateRewards": ["", -2, 3, 8, -9, 59, 41, -50, -1, 82, 66, 33, 2, -2, 7, 8, 1, -38, 12, -16, 24, -37, 67, 1, 4, -2, 5, 35, -83, 28, 8, -27, 69, -64], "withholdReward": false, "trial_id": "mdp_trial_26", "block": "test", "trialIndex": 27, "score": -53, "costs": 0, "simulationMode": [null, null, null, null, null], "rewards": [1, 4, -2, 8, -64], "path": ["0", "0", "23", "24", "25", "30", "33"], "rt": [1122, 202, 302, 203, 333], "actions": ["left", "left", "left", "down", "left"], "actionTimes": [3854, 4561, 5369, 6073, 6949], "queries": {"click": {"state": {"target": [], "time": []}, "edge": {"target": [], "time": []}}, "mouseover": {"state": {"target": [], "time": []}, "edge": {"target": [], "time": []}}, "mouseout": {"state": {"target": ["0", "0"], "time": [160, 9960]}, "edge": {"target": [], "time": []}}}, "displayed_time": "16.73", "trialTime": 18352, "trial_type": "mouselab-mdp", "trial_index": 34, "time_elapsed": 1159861, "internal_node_id": "0.0-4.0-1.0-25.0"}}, {"uniqueid": "w69039400:a62011803", "current_trial": 35, "dateTime": 1691072312438, "trialdata": {"revealed_states": [], "clicked_states": [], "num_clicks_accrued": [0, 0, 0, 0, 0, 0, 0, 0, 0, 0, 0, 0, 0], "stateRewards": ["", -1, 3, -4, -14, 78, 67, 2, 13, -32, 28, 39, -2, 1, -4, -4, -4, -42, -86, 11, 64, -29, -32, -1, -4, 2, -7, 5, 68, -61, 2, -21, 85, 50], "withholdReward": false, "trial_id": "mdp_trial_27", "block": "test", "trialIndex": 28, "score": -14, "costs": 0, "simulationMode": [null, null, null, null, null], "rewards": [-1, 3, -4, -14, 2], "path": ["0", "0", "1", "2", "3", "4", "7"], "rt": [4304, 217, 161, 263, 1170], "actions": ["up", "up", "up", "right", "down"], "actionTimes": [6816, 7548, 8207, 8978, 10652], "queries": {"click": {"state": {"target": [], "time": []}, "edge": {"target": [], "time": []}}, "mouseover": {"state": {"target": [], "time": []}, "edge": {"target": [], "time": []}}, "mouseout": {"state": {"target": ["0"], "time": [14294]}, "edge": {"target": [], "time": []}}}, "displayed_time": "16.51", "trialTime": 18574, "trial_type": "mouselab-mdp", "trial_index": 35, "time_elapsed": 1179030, "internal_node_id": "0.0-4.0-1.0-26.0"}}, {"uniqueid": "w69039400:a62011803", "current_trial": 36, "dateTime": 1691072331452, "trialdata": {"revealed_states": [], "clicked_states": [], "num_clicks_accrued": [0, 0, 0, 0, 0, 0, 0, 0, 0, 0, 0, 0, 0], "stateRewards": ["", -2, 1, -7, 9, 8, 25, 61, -7, -17, 69, -81, 1, 4, -4, -11, 16, 67, 44, 3, 6, -45, -54, -2, 3, 6, -11, -15, 32, -47, 3, -39, -6, -88], "withholdReward": false, "trial_id": "mdp_trial_28", "block": "test", "trialIndex": 29, "score": -19, "costs": 0, "simulationMode": [null, null, null, null, null], "rewards": [-2, 3, 6, -11, -15], "path": ["0", "0", "23", "24", "25", "26", "27"], "rt": [2844, 134, 331, 136, 1010], "actions": ["left", "left", "left", "up", "up"], "actionTimes": [5106, 5745, 6582, 7224, 8759], "queries": {"click": {"state": {"target": [], "time": []}, "edge": {"target": [], "time": []}}, "mouseover": {"state": {"target": [], "time": []}, "edge": {"target": [], "time": []}}, "mouseout": {"state": {"target": ["0"], "time": [12190]}, "edge": {"target": [], "time": []}}}, "displayed_time": "16.26", "trialTime": 18317, "trial_type": "mouselab-mdp", "trial_index": 36, "time_elapsed": 1198043, "internal_node_id": "0.0-4.0-1.0-27.0"}}, {"uniqueid": "w69039400:a62011803", "current_trial": 37, "dateTime": 1691072350384, "trialdata": {"revealed_states": [], "clicked_states": [], "num_clicks_accrued": [0, 0, 0, 0, 0, 0, 0, 0, 0, 0, 0, 0, 0], "stateRewards": ["", 2, 4, -5, 7, 81, 35, 6, 11, 14, -72, 42, -1, 2, 3, -7, -77, -44, -40, -15, -85, 51, -32, -2, -1, -5, 7, -74, 47, 52, 16, -49, 48, -46], "withholdReward": false, "trial_id": "mdp_trial_29", "block": "test", "trialIndex": 30, "score": -41, "costs": 0, "simulationMode": [null, null, null, null, null], "rewards": [-2, -1, -5, 16, -49], "path": ["0", "0", "23", "24", "25", "30", "31"], "rt": [3395, 807, 364, 190, 327], "actions": ["left", "left", "left", "down", "right"], "actionTimes": [5677, 7012, 7882, 8578, 9458], "queries": {"click": {"state": {"target": [], "time": []}, "edge": {"target": [], "time": []}}, "mouseover": {"state": {"target": [], "time": []}, "edge": {"target": [], "time": []}}, "mouseout": {"state": {"target": ["0", "0"], "time": [1446, 11364]}, "edge": {"target": [], "time": []}}}, "displayed_time": "16.28", "trialTime": 18348, "trial_type": "mouselab-mdp", "trial_index": 37, "time_elapsed": 1216976, "internal_node_id": "0.0-4.0-1.0-28.0"}}, {"uniqueid": "w69039400:a62011803", "current_trial": 38, "dateTime": 1691072370204, "trialdata": {"revealed_states": [], "clicked_states": [], "num_clicks_accrued": [0, 0, 0, 0, 0, 0, 0, 0, 0, 0, 0, 0, 0], "stateRewards": ["", -2, 4, 3, 5, -61, 4, 30, 1, -47, 83, 10, 1, 4, 7, -14, 19, -74, -83, 6, -2, -2, -65, -1, -2, 4, -11, 12, -1, -68, 11, -38, -28, 66], "withholdReward": false, "trial_id": "mdp_trial_30", "block": "test", "trialIndex": 31, "score": 16, "costs": 0, "simulationMode": [null, null, null, null, null], "rewards": [1, 4, 7, 6, -2], "path": ["0", "0", "12", "13", "14", "19", "21"], "rt": [4036, 269, 715, 322, 33], "actions": ["right", "right", "right", "down", "down"], "actionTimes": [5999, 6789, 8005, 8842, 9655], "queries": {"click": {"state": {"target": [], "time": []}, "edge": {"target": [], "time": []}}, "mouseover": {"state": {"target": [], "time": []}, "edge": {"target": [], "time": []}}, "mouseout": {"state": {"target": ["0", "0"], "time": [1512, 12785]}, "edge": {"target": [], "time": []}}}, "displayed_time": "15.96", "trialTime": 19128, "trial_type": "mouselab-mdp", "trial_index": 38, "time_elapsed": 1236795, "internal_node_id": "0.0-4.0-1.0-29.0"}}, {"uniqueid": "w69039400:a62011803", "current_trial": 39, "dateTime": 1691072388618, "trialdata": {"revealed_states": [], "clicked_states": [], "num_clicks_accrued": [0, 0, 0, 0, 0, 0, 0, 0, 0, 0, 0, 0, 0], "stateRewards": ["", -2, -3, 8, 14, -73, 73, 84, -12, -2, -50, -17, 2, 1, -2, -9, -44, -27, -33, 16, -63, -47, -66, -2, 1, 4, -5, -33, -11, 50, 9, 38, -79, 31], "withholdReward": false, "trial_id": "mdp_trial_31", "block": "test", "trialIndex": 32, "score": -41, "costs": 0, "simulationMode": [null, null, null, null, null], "rewards": [2, 1, -2, -9, -33], "path": ["0", "0", "12", "13", "14", "15", "18"], "rt": [2856, 245, 297, 662, 275], "actions": ["right", "right", "right", "up", "left"], "actionTimes": [4924, 5684, 6485, 7648, 8446], "queries": {"click": {"state": {"target": [], "time": []}, "edge": {"target": [], "time": []}}, "mouseover": {"state": {"target": ["0"], "time": [3770]}, "edge": {"target": [], "time": []}}, "mouseout": {"state": {"target": ["0"], "time": [10372]}, "edge": {"target": [], "time": []}}}, "displayed_time": "16.07", "trialTime": 17670, "trial_type": "mouselab-mdp", "trial_index": 39, "time_elapsed": 1255210, "internal_node_id": "0.0-4.0-1.0-30.0"}}, {"uniqueid": "w69039400:a62011803", "current_trial": 40, "dateTime": 1691072406476, "trialdata": {"revealed_states": [], "clicked_states": [], "num_clicks_accrued": [0, 0, 0, 0, 0, 0, 0, 0, 0, 0, 0, 0, 0], "stateRewards": ["", 2, 4, -3, 16, -58, 30, -35, 11, -60, 47, 27, -2, -1, -7, -16, 23, -70, 68, -10, -65, -43, -34, -2, 1, 7, 9, -63, 34, -31, -8, -12, -86, 59], "withholdReward": false, "trial_id": "mdp_trial_32", "block": "test", "trialIndex": 33, "score": -14, "costs": 0, "simulationMode": [null, null, null, null, null], "rewards": [-2, 1, 7, -8, -12], "path": ["0", "0", "23", "24", "25", "30", "31"], "rt": [2828, 120, 113, 297, 817], "actions": ["left", "left", "left", "down", "right"], "actionTimes": [4119, 4780, 5614, 6428, 7772], "queries": {"click": {"state": {"target": [], "time": []}, "edge": {"target": [], "time": []}}, "mouseover": {"state": {"target": [], "time": []}, "edge": {"target": [], "time": []}}, "mouseout": {"state": {"target": [], "time": []}, "edge": {"target": [], "time": []}}}, "displayed_time": "15.29", "trialTime": 17207, "trial_type": "mouselab-mdp", "trial_index": 40, "time_elapsed": 1273067, "internal_node_id": "0.0-4.0-1.0-31.0"}}, {"uniqueid": "w69039400:a62011803", "current_trial": 41, "dateTime": 1691072424959, "trialdata": {"revealed_states": [], "clicked_states": [], "num_clicks_accrued": [0, 0, 0, 0, 0, 0, 0, 0, 0, 0, 0, 0, 0], "stateRewards": ["", -1, 2, 6, 11, 21, -21, -21, -6, 48, -71, 88, -1, -3, 3, 7, 64, 2, 9, -4, 37, -67, 72, 2, 2, -8, -8, -10, 71, -40, -3, 73, 80, 47], "withholdReward": false, "trial_id": "mdp_trial_33", "block": "test", "trialIndex": 34, "score": -52, "costs": 0, "simulationMode": [null, null, null, null, null], "rewards": [2, 2, -8, -8, -40], "path": ["0", "0", "23", "24", "25", "26", "29"], "rt": [2672, 231, 584, 427, 289], "actions": ["left", "left", "left", "up", "left"], "actionTimes": [4295, 5046, 6236, 7187, 8010], "queries": {"click": {"state": {"target": [], "time": []}, "edge": {"target": [], "time": []}}, "mouseover": {"state": {"target": [], "time": []}, "edge": {"target": [], "time": []}}, "mouseout": {"state": {"target": ["0"], "time": [9786]}, "edge": {"target": [], "time": []}}}, "displayed_time": "15.63", "trialTime": 17505, "trial_type": "mouselab-mdp", "trial_index": 41, "time_elapsed": 1291550, "internal_node_id": "0.0-4.0-1.0-32.0"}}, {"uniqueid": "w69039400:a62011803", "current_trial": 42, "dateTime": 1691072446853, "trialdata": {"revealed_states": [], "clicked_states": [], "num_clicks_accrued": [0, 0, 0, 0, 0, 0, 0, 0, 0, 0, 0, 0, 0], "stateRewards": ["", -1, 4, -3, 3, 57, -61, 5, -11, 23, -1, 34, -2, -4, -1, -13, 27, 38, -36, 4, -45, 21, 88, 1, -2, -1, 1, -69, -5, -78, -12, -9, 38, -54], "withholdReward": false, "trial_id": "mdp_trial_34", "block": "test", "trialIndex": 35, "score": -23, "costs": 0, "simulationMode": [null, null, null, null, null], "rewards": [1, -2, -1, -12, -9], "path": ["0", "0", "23", "24", "25", "30", "31"], "rt": [2935, 177, 592, 547, 585], "actions": ["left", "left", "left", "down", "right"], "actionTimes": [4887, 5597, 6702, 7755, 8851], "queries": {"click": {"state": {"target": [], "time": []}, "edge": {"target": [], "time": []}}, "mouseover": {"state": {"target": [], "time": []}, "edge": {"target": [], "time": []}}, "mouseout": {"state": {"target": ["0"], "time": [12866]}, "edge": {"target": [], "time": []}}}, "displayed_time": "15.96", "trialTime": 21267, "trial_type": "mouselab-mdp", "trial_index": 42, "time_elapsed": 1313445, "internal_node_id": "0.0-4.0-1.0-33.0"}}, {"uniqueid": "w69039400:a62011803", "current_trial": 43, "dateTime": 1691072464826, "trialdata": {"revealed_states": [], "clicked_states": [], "num_clicks_accrued": [0, 0, 0, 0, 0, 0, 0, 0, 0, 0, 0, 0, 0], "stateRewards": ["", 2, -3, 5, -14, -63, -9, -24, -11, -54, -43, 68, 2, -2, -4, 7, -64, 30, 47, 12, -74, 11, 86, 1, -3, 3, 10, -71, -42, -52, -1, -29, -16, 69], "withholdReward": false, "trial_id": "mdp_trial_35", "block": "test", "trialIndex": 36, "score": -50, "costs": 0, "simulationMode": [null, null, null, null, null], "rewards": [2, -3, 5, -11, -43], "path": ["0", "0", "1", "2", "3", "8", "10"], "rt": [1881, 1087, 158, 208, 155], "actions": ["up", "up", "up", "left", "down"], "actionTimes": [3589, 5190, 5865, 6615, 7292], "queries": {"click": {"state": {"target": [], "time": []}, "edge": {"target": [], "time": []}}, "mouseover": {"state": {"target": [], "time": []}, "edge": {"target": [], "time": []}}, "mouseout": {"state": {"target": ["0", "0"], "time": [337, 9400]}, "edge": {"target": [], "time": []}}}, "displayed_time": "15.71", "trialTime": 17369, "trial_type": "mouselab-mdp", "trial_index": 43, "time_elapsed": 1331418, "internal_node_id": "0.0-4.0-1.0-34.0"}}, {"uniqueid": "w69039400:a62011803", "current_trial": 44, "dateTime": 1691072484623, "trialdata": {"revealed_states": [], "clicked_states": [], "num_clicks_accrued": [0, 0, 0, 0, 0, 0, 0, 0, 0, 0, 0, 0, 0], "stateRewards": ["", -2, 3, -1, -9, 44, 48, -37, -3, 71, -39, 87, -1, 3, -4, 4, -21, 59, -15, -8, -1, 28, -38, 2, 4, 4, 8, -85, -72, -63, 14, 58, 63, -46], "withholdReward": false, "trial_id": "mdp_trial_36", "block": "test", "trialIndex": 37, "score": -67, "costs": 0, "simulationMode": [null, null, null, null, null], "rewards": [2, 4, 4, 8, -85], "path": ["0", "0", "23", "24", "25", "26", "27"], "rt": [2373, 180, 263, 1219, 66], "actions": ["left", "left", "left", "up", "up"], "actionTimes": [4365, 5075, 5845, 7574, 8141], "queries": {"click": {"state": {"target": [], "time": []}, "edge": {"target": [], "time": []}}, "mouseover": {"state": {"target": [], "time": []}, "edge": {"target": [], "time": []}}, "mouseout": {"state": {"target": ["28", "23", "0"], "time": [541, 591, 10458]}, "edge": {"target": [], "time": []}}}, "displayed_time": "15.99", "trialTime": 19048, "trial_type": "mouselab-mdp", "trial_index": 44, "time_elapsed": 1351214, "internal_node_id": "0.0-4.0-1.0-35.0"}}, {"uniqueid": "w69039400:a62011803", "current_trial": 45, "dateTime": 1691072510476, "trialdata": {"revealed_states": [], "clicked_states": [], "num_clicks_accrued": [0, 0, 0, 0, 0, 0, 0, 0, 0, 0, 0, 0, 0], "stateRewards": ["", -1, 1, 8, -8, -49, 62, -78, 16, 28, -81, 78, -2, -3, -1, -4, 67, 49, -2, -13, -16, -39, 83, 1, -4, 4, -5, -20, 7, 84, 7, -32, -59, 19], "withholdReward": false, "trial_id": "mdp_trial_37", "block": "test", "trialIndex": 38, "score": 39, "costs": 0, "simulationMode": [null, null, null, null, null], "rewards": [-2, -3, -1, -4, 49], "path": ["0", "0", "12", "13", "14", "15", "17"], "rt": [3944, 122, 286, 516, 424], "actions": ["right", "right", "right", "up", "right"], "actionTimes": [5414, 6034, 6847, 7858, 8803], "queries": {"click": {"state": {"target": [], "time": []}, "edge": {"target": [], "time": []}}, "mouseover": {"state": {"target": [], "time": []}, "edge": {"target": [], "time": []}}, "mouseout": {"state": {"target": ["0", "0"], "time": [89, 11577]}, "edge": {"target": [], "time": []}}}, "displayed_time": "15.47", "trialTime": 25181, "trial_type": "mouselab-mdp", "trial_index": 45, "time_elapsed": 1377067, "internal_node_id": "0.0-4.0-1.0-36.0"}}, {"uniqueid": "w69039400:a62011803", "current_trial": 46, "dateTime": 1691072535721, "trialdata": {"revealed_states": [], "clicked_states": [], "num_clicks_accrued": [0, 0, 0, 0, 0, 0, 0, 0, 0, 0, 0, 0, 0], "stateRewards": ["", -2, 3, -5, -7, 66, 43, -60, -4, -70, -75, 4, -1, 2, 2, -13, 54, 11, -40, -1, 77, 32, 15, -2, 3, -8, -9, -35, 83, -27, 6, -74, -34, 44], "withholdReward": false, "trial_id": "mdp_trial_38", "block": "test", "trialIndex": 39, "score": -43, "costs": 0, "simulationMode": [null, null, null, null, null], "rewards": [-2, 3, -8, -9, -27], "path": ["0", "0", "23", "24", "25", "26", "29"], "rt": [7597, 103, 273, 166, 80], "actions": ["left", "left", "left", "up", "left"], "actionTimes": [9989, 10595, 11367, 12051, 12639], "queries": {"click": {"state": {"target": [], "time": []}, "edge": {"target": [], "time": []}}, "mouseover": {"state": {"target": [], "time": []}, "edge": {"target": [], "time": []}}, "mouseout": {"state": {"target": ["0", "0"], "time": [604, 23629]}, "edge": {"target": [], "time": []}}}, "displayed_time": "16.39", "trialTime": 24598, "trial_type": "mouselab-mdp", "trial_index": 46, "time_elapsed": 1402312, "internal_node_id": "0.0-4.0-1.0-37.0"}}, {"uniqueid": "w69039400:a62011803", "current_trial": 47, "dateTime": 1691072556085, "trialdata": {"revealed_states": [], "clicked_states": [], "num_clicks_accrued": [0, 0, 0, 0, 0, 0, 0, 0, 0, 0, 0, 0, 0], "stateRewards": ["", 2, 3, 6, -12, -29, 12, 87, 4, 35, -30, 67, 2, 3, -5, -9, 44, 69, -8, 1, 45, -8, 28, -2, -1, -8, 11, -12, -5, 81, 9, 87, 82, 88], "withholdReward": false, "trial_id": "mdp_trial_39", "block": "test", "trialIndex": 40, "score": 11, "costs": 0, "simulationMode": [null, null, null, null, null], "rewards": [2, 3, 6, -12, 12], "path": ["0", "0", "1", "2", "3", "4", "6"], "rt": [3181, 84, 146, 1164, 241], "actions": ["up", "up", "up", "right", "right"], "actionTimes": [7115, 7701, 8348, 10028, 10787], "queries": {"click": {"state": {"target": [], "time": []}, "edge": {"target": [], "time": []}}, "mouseover": {"state": {"target": [], "time": []}, "edge": {"target": [], "time": []}}, "mouseout": {"state": {"target": ["0", "0"], "time": [2962, 6789]}, "edge": {"target": [], "time": []}}}, "displayed_time": "17.94", "trialTime": 19646, "trial_type": "mouselab-mdp", "trial_index": 47, "time_elapsed": 1422677, "internal_node_id": "0.0-4.0-1.0-38.0"}}, {"uniqueid": "w69039400:a62011803", "current_trial": 48, "dateTime": 1691072575673, "trialdata": {"revealed_states": [], "clicked_states": [], "num_clicks_accrued": [0, 0, 0, 0, 0, 0, 0, 0, 0, 0, 0, 0, 0], "stateRewards": ["", 1, 4, 7, -16, -84, -6, -46, -12, -7, -49, -26, -1, 2, -4, 2, 22, 37, -64, 1, 88, -13, -10, 1, -4, -2, 5, 2, -10, -34, 9, 66, 55, 38], "withholdReward": false, "trial_id": "mdp_trial_40", "block": "test", "trialIndex": 41, "score": -7, "costs": 0, "simulationMode": [null, null, null, null, null], "rewards": [1, 4, 7, -12, -7], "path": ["0", "0", "1", "2", "3", "8", "9"], "rt": [2014, 154, 225, 222, 423], "actions": ["up", "up", "up", "left", "up"], "actionTimes": [3872, 4536, 5280, 6038, 6955], "queries": {"click": {"state": {"target": [], "time": []}, "edge": {"target": [], "time": []}}, "mouseover": {"state": {"target": [], "time": []}, "edge": {"target": [], "time": []}}, "mouseout": {"state": {"target": ["0", "0"], "time": [1174, 12966]}, "edge": {"target": [], "time": []}}}, "displayed_time": "15.86", "trialTime": 18944, "trial_type": "mouselab-mdp", "trial_index": 48, "time_elapsed": 1442265, "internal_node_id": "0.0-4.0-1.0-39.0"}}, {"uniqueid": "w69039400:a62011803", "current_trial": 49, "dateTime": 1691072655816, "trialdata": {"rt": 79773, "response": {"Q0": "$-88 to $88", "Q1": "$-32 to $32", "Q2": "$-32 to $32", "Q3": "The cost for clicking on nodes varied between nodes.", "Q4": "Slightly motivated"}, "question_order": [0, 1, 2, 3, 4], "trial_id": "final_quiz_control", "trial_type": "survey-multi-choice", "trial_index": 49, "time_elapsed": 1522408, "internal_node_id": "0.0-4.0-2.0"}}, {"uniqueid": "w69039400:a62011803", "current_trial": 50, "dateTime": 1691072780255, "trialdata": {"rt": 123814, "response": {"Q0": "To try out all of the nodes", "Q1": "I did this by making sure that the spider moved to every node", "Q2": "it was difficult because the pattern stayed the same, it didn't challenge me enough"}, "trial_id": "self_report_control", "trial_type": "survey-text", "trial_index": 50, "time_elapsed": 1646848, "internal_node_id": "0.0-4.0-3.0"}}, {"uniqueid": "w69039400:a62011803", "current_trial": 51, "dateTime": 1691072868552, "trialdata": {"rt": 88243, "response": {"Q0": "Disagree", "Q1": "Strongly disagree", "Q2": "Strongly agree", "Q3": "Disagree", "Q4": "Agree", "Q5": "Strongly agree", "Q6": "Strongly disagree"}, "question_order": [0, 1, 2, 3, 4, 5, 6], "trial_id": "self_report_2", "trial_type": "survey-multi-choice", "trial_index": 51, "time_elapsed": 1735145, "internal_node_id": "0.0-4.0-4.0"}}, {"uniqueid": "w69039400:a62011803", "current_trial": 52, "dateTime": 1691072928808, "trialdata": {"rt": 59882, "response": {"gender": "female", "age": "33", "colorblind": "0", "effort": "0"}, "trial_type": "survey-html-form", "trial_index": 52, "time_elapsed": 1795401, "internal_node_id": "0.0-4.0-5.0"}}, {"uniqueid": "w69039400:a62011803", "current_trial": 53, "dateTime": 1691073015807, "trialdata": {"rt": 86466, "response": {"Q0": "It was hard to understand while reading the instructions but when i did the trial it was a bit easier", "Q1": "I have never participated in a web of cash before ", "Q2": "No"}, "trial_type": "survey-text", "trial_index": 53, "time_elapsed": 1882400, "internal_node_id": "0.0-4.0-6.0"}}, {"uniqueid": "w69039400:a62011803", "current_trial": 54, "dateTime": 1691073022440, "trialdata": {"rt": 5368, "stimulus": "Press 'Finish HIT' in order to reach the completion code. Once the data has been saved, you will receive the code either in this window or in the original browser window where you started the experiment.\n", "response": 0, "trial_type": "html-button-response", "trial_index": 54, "time_elapsed": 1889033, "internal_node_id": "0.0-5.0"}}, {"uniqueid": "w69039400:a62011803", "current_trial": 55, "dateTime": 1691073023535, "trialdata": {"success": true, "trial_type": "fullscreen", "trial_index": 55, "time_elapsed": 1890128, "internal_node_id": "0.0-6.0"}}], "questiondata": {"params": {"CODE": "C6DMOQA6", "MIN_TIME": 14, "inspectCost": 1, "startTime": "Thu Aug 03 2023 15:58:48 GMT+0200 (South Africa Standard Time)", "bonusRate": 0.002, "variance": "1_2_4_8_44", "branching": "31123"}, "final_score": -391}, "eventdata": [{"eventtype": "initialized", "value": null, "timestamp": 1691071128186, "interval": 0}, {"eventtype": "window_resize", "value": [1024, 654], "timestamp": 1691071128186, "interval": 0}, {"eventtype": "window_resize", "value": [1024, 654], "timestamp": 1691071128665, "interval": 479}, {"eventtype": "window_resize", "value": [1366, 768], "timestamp": 1691071146141, "interval": 17476}], "useragent": "Mozilla/5.0 (Windows NT 10.0; Win64; x64) AppleWebKit/537.36 (KHTML, like Gecko) Chrome/115.0.0.0 Safari/537.36", "mode": "live", "id": "w69039400:a62011803", "status": "user data saved", "Beginhit": "2023-08-03 13:58:42.289343", "Beginexp": "2023-08-03 13:59:06.850251", "Endhit": "2023-08-03 14:30:27.608344", "psiturkStatus": 3, "browser": "<redacted>", "platform": "windows", "language": "en-ZA"}