{"condition": 1, "counterbalance": 0, "assignmentId": "a66654979", "workerId": "w57213573", "hitId": "h98789148", "currenttrial": 56, "bonus": 0, "data": [{"uniqueid": "w57213573:a66654979", "current_trial": 0, "dateTime": 1693834713173, "trialdata": {"success": true, "trial_type": "fullscreen", "trial_index": 0, "time_elapsed": 17073, "internal_node_id": "0.0-0.0"}}, {"uniqueid": "w57213573:a66654979", "current_trial": 1, "dateTime": 1693834734817, "trialdata": {"view_history": [{"page_index": 0, "viewing_time": 21628}], "rt": 21629, "trial_id": "exp_instructions_misaligned", "trial_type": "instructions", "trial_index": 1, "time_elapsed": 38717, "internal_node_id": "0.0-1.0"}}, {"uniqueid": "w57213573:a66654979", "current_trial": 2, "dateTime": 1693835128932, "trialdata": {"view_history": [{"page_index": 0, "viewing_time": 139392}, {"page_index": 1, "viewing_time": 170227}, {"page_index": 2, "viewing_time": 32788}, {"page_index": 3, "viewing_time": 51700}], "rt": 394109, "trial_id": "mouselab_instructions_1_misaligned", "trial_type": "instructions", "trial_index": 2, "time_elapsed": 432831, "internal_node_id": "0.0-2.0-1.0"}}, {"uniqueid": "w57213573:a66654979", "current_trial": 3, "dateTime": 1693835148802, "trialdata": {"revealed_states": [], "clicked_states": [], "num_clicks_accrued": [0, 0, 0, 0, 0, 0, 0, 0, 0, 0, 0, 0, 0], "stateRewards": ["", 10, -10, 10, -10, 10, 10, -10, -10, -10, -10, 10, 10, 10, -10, 10, 10, -10, -10, -10, 10, -10, 10, 10, -10, -10, 10, -10, 10, 10, 10, -10, 10, 10], "withholdReward": false, "trial_id": "practice_1", "block": "test", "trialIndex": 0, "score": 13.5, "costs": 0, "simulationMode": [null, null, null, null, null], "rewards": [10, 10, -10, -10, 10], "path": ["0", "0", "12", "13", "14", "19", "20"], "rt": [3715, 1279, 2644, 321, 291], "actions": ["right", "right", "right", "down", "right"], "actionTimes": [5600, 7365, 10544, 11401, 12191], "queries": {"click": {"state": {"target": [], "time": []}, "edge": {"target": [], "time": []}}, "mouseover": {"state": {"target": ["0", "0"], "time": [2979, 3344]}, "edge": {"target": [], "time": []}}, "mouseout": {"state": {"target": ["12", "0", "0"], "time": [913, 2997, 15395]}, "edge": {"target": [], "time": []}}}, "displayed_time": "12.70", "trialTime": 17574, "trial_type": "mouselab-mdp", "trial_index": 3, "time_elapsed": 452700, "internal_node_id": "0.0-2.0-2.0-0.0"}}, {"uniqueid": "w57213573:a66654979", "current_trial": 4, "dateTime": 1693835163536, "trialdata": {"revealed_states": [], "clicked_states": [], "num_clicks_accrued": [0, 0, 0, 0, 0, 0, 0, 0, 0, 0, 0, 0, 0], "stateRewards": ["", -10, -10, -10, -10, -10, 10, 10, -10, -10, -10, -10, -10, -10, 10, 10, 10, 10, 10, 10, -10, -10, -10, 10, 10, 10, -10, 10, -10, -10, -10, 10, -10, 10], "withholdReward": false, "trial_id": "practice_2", "block": "test", "trialIndex": 1, "score": -26.5, "costs": 0, "simulationMode": [null, null, null, null, null], "rewards": [-10, -10, -10, -10, 10], "path": ["0", "0", "1", "2", "3", "4", "6"], "rt": [2208, 300, 235, 259, 94], "actions": ["up", "up", "up", "right", "right"], "actionTimes": [5239, 6042, 6774, 7541, 8133], "queries": {"click": {"state": {"target": [], "time": []}, "edge": {"target": [], "time": []}}, "mouseover": {"state": {"target": [], "time": []}, "edge": {"target": [], "time": []}}, "mouseout": {"state": {"target": [], "time": []}, "edge": {"target": [], "time": []}}}, "displayed_time": "8.64", "trialTime": 13832, "trial_type": "mouselab-mdp", "trial_index": 4, "time_elapsed": 467435, "internal_node_id": "0.0-2.0-2.0-1.0"}}, {"uniqueid": "w57213573:a66654979", "current_trial": 5, "dateTime": 1693835244582, "trialdata": {"view_history": [{"page_index": 0, "viewing_time": 66861}, {"page_index": 1, "viewing_time": 14175}], "rt": 81037, "trial_id": "mouselab_instructions_2_misaligned", "trial_type": "instructions", "trial_index": 5, "time_elapsed": 548482, "internal_node_id": "0.0-2.0-3.0"}}, {"uniqueid": "w57213573:a66654979", "current_trial": 6, "dateTime": 1693835373777, "trialdata": {"rt": 129178, "response": {"Q0": "The cost for clicking on nodes may vary between nodes.", "Q1": "The better I perform the higher my bonus will be.", "Q2": "No, the amount of cash at each node of the web may be different each time.", "Q3": "To get the highest total score.", "Q4": "Only before moving the spider.", "Q5": "3 seconds"}, "question_order": [0, 1, 2, 3, 4, 5], "correct": {"Q0": "The cost for clicking on nodes may vary between nodes.", "Q1": "The better I perform the higher my bonus will be.", "Q2": "No, the amount of cash at each node of the web may be different each time.", "Q3": "To get the highest total score.", "Q4": "Only before moving the spider.", "Q5": "3 seconds"}, "trial_id": "mouselab_quiz_misaligned", "trial_type": "survey-multi-choice", "trial_index": 6, "time_elapsed": 677677, "internal_node_id": "0.0-2.0-4.0"}}, {"uniqueid": "w57213573:a66654979", "current_trial": 7, "dateTime": 1693835389955, "trialdata": {"rt": 16163, "response": {"Q0": "No"}, "question_order": [0], "trial_id": "repeat_check", "trial_type": "survey-multi-choice", "trial_index": 7, "time_elapsed": 693855, "internal_node_id": "0.0-4.0-0.0"}}, {"uniqueid": "w57213573:a66654979", "current_trial": 8, "dateTime": 1693835421771, "trialdata": {"rt": 31799, "stimulus": "\n<h1> Get ready to start the game! </h1>\n\nThank you for reading the instructions. Get ready start with the 40 rounds of this game.\n<br><br>\nIf you need to take a break, feel free to take one after the end of a round, before continuing to the next one.\n<br><br>\nRemember, the more money the spider gets, the bigger your bonus will be!\n<br><br>\n<div style='text-align: center;'>Press <code>space</code> to begin.</div>\n\n<br><br>\n(If, at any point, the <code>space</code> key does not take you to the next page, click once on the text and try again.)", "response": " ", "trial_id": "mdp_ready", "trial_type": "html-keyboard-response", "trial_index": 8, "time_elapsed": 725671, "internal_node_id": "0.0-6.0-0.0"}}, {"uniqueid": "w57213573:a66654979", "current_trial": 9, "dateTime": 1693835442458, "trialdata": {"revealed_states": [], "clicked_states": [], "num_clicks_accrued": [0, 0, 0, 0, 0, 0, 0, 0, 0, 0, 0, 0, 0], "stateRewards": ["", 1, -1, 8, -3, 38, 85, -20, -4, 8, 23, 73, 2, -4, 6, -13, 44, 7, -28, -11, -77, 45, -69, 1, -1, -7, -11, 75, -51, -87, 7, 36, -53, -26], "withholdReward": false, "trial_id": "mdp_trial_1", "block": "test", "trialIndex": 2, "score": -84, "costs": 0, "simulationMode": [null, null, null, null, null], "rewards": [2, -4, 6, -11, -77], "path": ["0", "0", "12", "13", "14", "19", "20"], "rt": [1747, 498, 172, 331, 214], "actions": ["right", "right", "right", "down", "right"], "actionTimes": [5314, 6319, 6992, 7833, 8549], "queries": {"click": {"state": {"target": [], "time": []}, "edge": {"target": [], "time": []}}, "mouseover": {"state": {"target": [], "time": []}, "edge": {"target": [], "time": []}}, "mouseout": {"state": {"target": [], "time": []}, "edge": {"target": [], "time": []}}}, "displayed_time": "17.58", "trialTime": 19847, "trial_type": "mouselab-mdp", "trial_index": 9, "time_elapsed": 746356, "internal_node_id": "0.0-6.0-1.0-0.0"}}, {"uniqueid": "w57213573:a66654979", "current_trial": 10, "dateTime": 1693835467181, "trialdata": {"revealed_states": [], "clicked_states": [], "num_clicks_accrued": [0, 0, 0, 0, 0, 0, 0, 0, 0, 0, 0, 0, 0], "stateRewards": ["", -2, -1, -2, -15, 87, 57, 29, -10, 77, -80, -7, 1, -3, 6, 14, -11, 87, -59, 4, -71, 16, -11, 2, 2, -7, 2, -47, 61, 50, 14, -20, 17, 81], "withholdReward": false, "trial_id": "mdp_trial_2", "block": "test", "trialIndex": 3, "score": -22, "costs": 0, "simulationMode": [null, null, null, null, null], "rewards": [-2, -1, -2, -10, -7], "path": ["0", "0", "1", "2", "3", "8", "11"], "rt": [818, 309, 194, 71, 174], "actions": ["up", "up", "up", "left", "left"], "actionTimes": [7425, 8252, 8969, 9547, 10232], "queries": {"click": {"state": {"target": [], "time": []}, "edge": {"target": [], "time": []}}, "mouseover": {"state": {"target": [], "time": []}, "edge": {"target": [], "time": []}}, "mouseout": {"state": {"target": ["0", "2", "2", "1", "0", "1", "15", "1"], "time": [10, 519, 5469, 5501, 17153, 18298, 22081, 22949]}, "edge": {"target": [], "time": []}}}, "displayed_time": "20.62", "trialTime": 23870, "trial_type": "mouselab-mdp", "trial_index": 10, "time_elapsed": 771074, "internal_node_id": "0.0-6.0-1.0-1.0"}}, {"uniqueid": "w57213573:a66654979", "current_trial": 11, "dateTime": 1693835488767, "trialdata": {"revealed_states": [], "clicked_states": ["12", "13", "14", "19", "22"], "num_clicks_accrued": [0, 0, 0, 0, 0, 0, 0, 0, 0, 0, 0, 0, 0], "stateRewards": ["", 2, 3, -3, 4, 72, -28, 34, -12, 57, -64, -15, 2, 1, -4, -15, 2, 49, 31, -1, -42, -58, 31, -2, 1, -2, -13, -75, -19, -22, -6, 61, 10, -56], "withholdReward": false, "trial_id": "mdp_trial_3", "block": "test", "trialIndex": 4, "score": 28.25, "costs": -4.75, "simulationMode": [null, null, null, null, null], "rewards": [2, 1, -4, -15, 49], "path": ["0", "0", "12", "13", "14", "15", "17"], "rt": [13231, 193, 66, 156, 73], "actions": ["right", "right", "right", "up", "right"], "actionTimes": [15275, 15994, 16593, 17279, 17884], "queries": {"click": {"state": {"target": ["12", "13", "14", "19", "22"], "time": [3172, 5058, 6807, 8648, 9582]}, "edge": {"target": [], "time": []}}, "mouseover": {"state": {"target": ["12", "13", "13", "14", "19", "22", "20"], "time": [2886, 4403, 4768, 6339, 7672, 9369, 10528]}, "edge": {"target": [], "time": []}}, "mouseout": {"state": {"target": ["0", "12", "13", "13", "14", "19", "22", "19"], "time": [1121, 4370, 4436, 5901, 7615, 9299, 10201, 10383]}, "edge": {"target": [], "time": []}}}, "displayed_time": "18.38", "trialTime": 20713, "trial_type": "mouselab-mdp", "trial_index": 11, "time_elapsed": 792665, "internal_node_id": "0.0-6.0-1.0-2.0"}}, {"uniqueid": "w57213573:a66654979", "current_trial": 12, "dateTime": 1693835507973, "trialdata": {"revealed_states": [], "clicked_states": ["23", "24", "25", "30", "33"], "num_clicks_accrued": [0, 0, 0, 0, 0, 0, 0, 0, 0, 0, 0, 0, 0], "stateRewards": ["", 1, 1, 1, -3, -7, -1, -41, -10, 20, -72, -63, 1, -4, -2, 2, -66, 30, -84, -2, 49, 23, 71, -1, -4, 4, -12, 67, 5, 18, -16, 88, 56, -5], "withholdReward": false, "trial_id": "mdp_trial_4", "block": "test", "trialIndex": 5, "score": 0.25, "costs": -4.75, "simulationMode": [null, null, null, null, null, null], "rewards": [-1, -4, 4, -12, 18], "path": ["0", "0", "23", "24", "25", "26", "29"], "rt": [6430, 1638, 111, 144, 1478, 102], "actions": ["left", "left", "left", "left", "up", "left"], "actionTimes": [8678, 10322, 10946, 11596, 13613, 14221], "queries": {"click": {"state": {"target": ["23", "24", "25", "30", "33"], "time": [3316, 4359, 5266, 6083, 6736]}, "edge": {"target": [], "time": []}}, "mouseover": {"state": {"target": ["23", "24", "25", "30", "33", "30", "31"], "time": [2999, 4069, 5050, 5862, 6594, 9865, 9902]}, "edge": {"target": [], "time": []}}, "mouseout": {"state": {"target": ["20", "19", "22", "0", "23", "24", "25", "30", "33", "30"], "time": [895, 914, 949, 2950, 3900, 5010, 5813, 6534, 9835, 9884]}, "edge": {"target": [], "time": []}}}, "displayed_time": "16.25", "trialTime": 18285, "trial_type": "mouselab-mdp", "trial_index": 12, "time_elapsed": 811871, "internal_node_id": "0.0-6.0-1.0-3.0"}}, {"uniqueid": "w57213573:a66654979", "current_trial": 13, "dateTime": 1693835528397, "trialdata": {"revealed_states": [], "clicked_states": [], "num_clicks_accrued": [0, 0, 0, 0, 0, 0, 0, 0, 0, 0, 0, 0, 0], "stateRewards": ["", -2, 2, 3, -7, -31, -33, 29, -8, -57, 50, -83, -1, -1, 5, 13, -23, -62, 25, 5, -66, -85, 14, 1, -2, -1, 16, 71, 33, -19, -14, 5, -43, 79], "withholdReward": false, "trial_id": "mdp_trial_5", "block": "test", "trialIndex": 6, "score": -35, "costs": 0, "simulationMode": [null, null, null, null, null], "rewards": [-2, 2, 3, -7, -31], "path": ["0", "0", "1", "2", "3", "4", "5"], "rt": [1626, 305, 328, 215, 134], "actions": ["up", "up", "up", "right", "up"], "actionTimes": [4468, 5330, 6166, 6903, 7556], "queries": {"click": {"state": {"target": [], "time": []}, "edge": {"target": [], "time": []}}, "mouseover": {"state": {"target": [], "time": []}, "edge": {"target": [], "time": []}}, "mouseout": {"state": {"target": ["12", "0", "0", "1", "4", "5"], "time": [1469, 2166, 15234, 15252, 15740, 18303]}, "edge": {"target": [], "time": []}}}, "displayed_time": "16.85", "trialTime": 19517, "trial_type": "mouselab-mdp", "trial_index": 13, "time_elapsed": 832295, "internal_node_id": "0.0-6.0-1.0-4.0"}}, {"uniqueid": "w57213573:a66654979", "current_trial": 14, "dateTime": 1693835547164, "trialdata": {"revealed_states": [], "clicked_states": ["23", "24", "25", "26", "29"], "num_clicks_accrued": [0, 0, 0, 0, 0, 0, 0, 0, 0, 0, 0, 0, 0], "stateRewards": ["", -1, 2, 7, 8, 75, 67, -11, 6, 52, -17, 38, -1, 4, -8, 14, 74, -37, -17, -12, 52, 55, 71, -2, -1, -5, 2, 21, 6, -88, -14, 64, -61, -47], "withholdReward": false, "trial_id": "mdp_trial_6", "block": "test", "trialIndex": 7, "score": -73.75, "costs": -4.75, "simulationMode": [null, null, null, null, null], "rewards": [-2, -1, -5, -14, -47], "path": ["0", "0", "23", "24", "25", "30", "33"], "rt": [7432, 233, 189, 146, 783], "actions": ["left", "left", "left", "down", "left"], "actionTimes": [9418, 10170, 10883, 11551, 12852], "queries": {"click": {"state": {"target": ["23", "24", "25", "26", "29"], "time": [3211, 3925, 4735, 5794, 6582]}, "edge": {"target": [], "time": []}}, "mouseover": {"state": {"target": ["0", "23", "24", "25", "26", "29"], "time": [2627, 2897, 3719, 4519, 5539, 6504]}, "edge": {"target": [], "time": []}}, "mouseout": {"state": {"target": ["0", "0", "23", "24", "25", "26"], "time": [862, 2647, 3292, 4404, 5436, 6286]}, "edge": {"target": [], "time": []}}}, "displayed_time": "15.99", "trialTime": 17536, "trial_type": "mouselab-mdp", "trial_index": 14, "time_elapsed": 851062, "internal_node_id": "0.0-6.0-1.0-5.0"}}, {"uniqueid": "w57213573:a66654979", "current_trial": 15, "dateTime": 1693835568138, "trialdata": {"revealed_states": [], "clicked_states": ["3", "4", "6", "11"], "num_clicks_accrued": [0, 0, 0, 0, 0, 0, 0, 0, 0, 0, 0, 0, 0], "stateRewards": ["", 2, 3, -3, 12, -43, 81, -82, -15, 58, -7, -75, -1, -1, 3, -5, 50, -25, -8, 4, 66, 65, -66, 2, -4, 2, -1, -10, 10, 37, 11, 88, -37, 8], "withholdReward": false, "trial_id": "mdp_trial_7", "block": "test", "trialIndex": 8, "score": -35.8, "costs": -6.800000000000001, "simulationMode": [null, null, null, null, null], "rewards": [2, 3, -3, 12, -43], "path": ["0", "0", "1", "2", "3", "4", "5"], "rt": [10557, 230, 81, 80, 78], "actions": ["up", "up", "up", "right", "up"], "actionTimes": [12453, 13198, 13783, 14365, 14963], "queries": {"click": {"state": {"target": ["3", "4", "6", "11"], "time": [4377, 4998, 6346, 9524]}, "edge": {"target": [], "time": []}}, "mouseover": {"state": {"target": ["10", "8", "3", "4", "6", "8", "11", "10", "10"], "time": [3748, 3776, 4160, 4828, 6199, 7126, 9263, 10194, 10677]}, "edge": {"target": [], "time": []}}, "mouseout": {"state": {"target": ["29", "28", "23", "10", "8", "3", "4", "6", "4", "8", "11", "10"], "time": [150, 195, 817, 3768, 3798, 4767, 5449, 6686, 6730, 9230, 10134, 10219]}, "edge": {"target": [], "time": []}}}, "displayed_time": "15.90", "trialTime": 19797, "trial_type": "mouselab-mdp", "trial_index": 15, "time_elapsed": 872031, "internal_node_id": "0.0-6.0-1.0-6.0"}}, {"uniqueid": "w57213573:a66654979", "current_trial": 16, "dateTime": 1693835590593, "trialdata": {"revealed_states": [], "clicked_states": [], "num_clicks_accrued": [0, 0, 0, 0, 0, 0, 0, 0, 0, 0, 0, 0, 0], "stateRewards": ["", -2, -1, 3, -3, 71, -58, -21, 7, -10, -75, -37, 2, 4, -1, -12, -79, -29, -48, 3, -41, -10, -30, -1, -2, 1, -15, 13, 66, 22, -1, -42, -86, -55], "withholdReward": false, "trial_id": "mdp_trial_8", "block": "test", "trialIndex": 9, "score": 68, "costs": 0, "simulationMode": [null, null, null, null, null], "rewards": [-2, -1, 3, -3, 71], "path": ["0", "0", "1", "2", "3", "4", "5"], "rt": [5981, 21, 4, 11, 131], "actions": ["up", "up", "up", "right", "up"], "actionTimes": [7849, 8388, 8924, 9452, 10121], "queries": {"click": {"state": {"target": [], "time": []}, "edge": {"target": [], "time": []}}, "mouseover": {"state": {"target": ["0", "23", "1", "13", "12", "0", "31", "30", "23", "12", "12", "0", "23"], "time": [2436, 2868, 2921, 3815, 4002, 4026, 4087, 4186, 4340, 4449, 4654, 4692, 4752]}, "edge": {"target": [], "time": []}}, "mouseout": {"state": {"target": ["0", "0", "23", "1", "13", "12", "0", "31", "30", "23", "12", "12", "0", "23"], "time": [1018, 2470, 2891, 3341, 3974, 4022, 4052, 4122, 4303, 4358, 4487, 4686, 4719, 7268]}, "edge": {"target": [], "time": []}}}, "displayed_time": "15.88", "trialTime": 21416, "trial_type": "mouselab-mdp", "trial_index": 16, "time_elapsed": 894492, "internal_node_id": "0.0-6.0-1.0-7.0"}}, {"uniqueid": "w57213573:a66654979", "current_trial": 17, "dateTime": 1693835610004, "trialdata": {"revealed_states": [], "clicked_states": [], "num_clicks_accrued": [0, 0, 0, 0, 0, 0, 0, 0, 0, 0, 0, 0, 0], "stateRewards": ["", 1, -4, -6, 11, -20, 8, -30, 1, -38, 88, 42, 2, 3, 5, -12, -8, -74, 30, -8, 67, -19, 42, 2, -1, 4, 13, 50, -68, 2, -8, -15, 87, -46], "withholdReward": false, "trial_id": "mdp_trial_9", "block": "test", "trialIndex": 10, "score": 20, "costs": 0, "simulationMode": [null, null, null, null, null], "rewards": [2, -1, 4, 13, 2], "path": ["0", "0", "23", "24", "25", "26", "29"], "rt": [1364, 382, 252, 371, 333], "actions": ["left", "left", "left", "up", "left"], "actionTimes": [3791, 4689, 5508, 6404, 7263], "queries": {"click": {"state": {"target": [], "time": []}, "edge": {"target": [], "time": []}}, "mouseover": {"state": {"target": [], "time": []}, "edge": {"target": [], "time": []}}, "mouseout": {"state": {"target": ["12"], "time": [1389]}, "edge": {"target": [], "time": []}}}, "displayed_time": "16.44", "trialTime": 18247, "trial_type": "mouselab-mdp", "trial_index": 17, "time_elapsed": 913901, "internal_node_id": "0.0-6.0-1.0-8.0"}}, {"uniqueid": "w57213573:a66654979", "current_trial": 18, "dateTime": 1693835630515, "trialdata": {"revealed_states": [], "clicked_states": [], "num_clicks_accrued": [0, 0, 0, 0, 0, 0, 0, 0, 0, 0, 0, 0, 0], "stateRewards": ["", -1, -3, -7, -4, -85, -70, 79, 8, 84, -66, 42, 2, -2, -3, -16, -54, -66, 68, -3, 21, -14, 7, -2, -1, -3, -8, 75, 80, 86, -7, -84, 73, -16], "withholdReward": false, "trial_id": "mdp_trial_10", "block": "test", "trialIndex": 11, "score": -85, "costs": 0, "simulationMode": [null, null, null, null, null], "rewards": [-1, -3, -7, -4, -70], "path": ["0", "0", "1", "2", "3", "4", "6"], "rt": [656, 141, 143, 472, 298], "actions": ["up", "up", "up", "right", "right"], "actionTimes": [3275, 3927, 4577, 5558, 6364], "queries": {"click": {"state": {"target": [], "time": []}, "edge": {"target": [], "time": []}}, "mouseover": {"state": {"target": [], "time": []}, "edge": {"target": [], "time": []}}, "mouseout": {"state": {"target": ["18", "0", "0", "0"], "time": [513, 994, 15395, 17264]}, "edge": {"target": [], "time": []}}}, "displayed_time": "16.62", "trialTime": 19160, "trial_type": "mouselab-mdp", "trial_index": 18, "time_elapsed": 934413, "internal_node_id": "0.0-6.0-1.0-9.0"}}, {"uniqueid": "w57213573:a66654979", "current_trial": 19, "dateTime": 1693835648659, "trialdata": {"revealed_states": [], "clicked_states": ["23", "24", "25", "30", "33"], "num_clicks_accrued": [0, 0, 0, 0, 0, 0, 0, 0, 0, 0, 0, 0, 0], "stateRewards": ["", 2, 1, -3, 7, 46, 11, -36, 16, 71, 5, 1, 2, -2, -8, -3, -4, 6, 55, 7, 68, -54, 2, 1, 1, 6, -6, 42, -4, -84, -11, -65, 63, 25], "withholdReward": false, "trial_id": "mdp_trial_11", "block": "test", "trialIndex": 12, "score": -3.75, "costs": -4.75, "simulationMode": [null, null, null, null, null, null], "rewards": [2, -2, -8, 7, 2], "path": ["0", "0", "12", "13", "14", "19", "22"], "rt": [7693, 637, 1295, 231, 290, 475], "actions": ["right", "right", "right", "right", "down", "left"], "actionTimes": [9354, 10000, 11818, 12554, 13345, 14354], "queries": {"click": {"state": {"target": ["23", "24", "25", "30", "33"], "time": [3661, 4364, 5219, 5863, 6644]}, "edge": {"target": [], "time": []}}, "mouseover": {"state": {"target": ["23", "24", "25", "30", "33", "12"], "time": [3500, 4171, 4996, 5660, 6471, 8053]}, "edge": {"target": [], "time": []}}, "mouseout": {"state": {"target": ["0", "23", "24", "25", "30", "33", "24"], "time": [880, 4086, 4888, 5650, 6410, 7404, 7555]}, "edge": {"target": [], "time": []}}}, "displayed_time": "15.66", "trialTime": 16920, "trial_type": "mouselab-mdp", "trial_index": 19, "time_elapsed": 952557, "internal_node_id": "0.0-6.0-1.0-10.0"}}, {"uniqueid": "w57213573:a66654979", "current_trial": 20, "dateTime": 1693835668154, "trialdata": {"revealed_states": [], "clicked_states": ["1", "2", "3", "4", "6"], "num_clicks_accrued": [0, 0, 0, 0, 0, 0, 0, 0, 0, 0, 0, 0, 0], "stateRewards": ["", 1, 1, 4, 11, 83, -66, 18, -16, -23, 5, 25, 1, -3, 1, -12, 18, 24, -86, -11, -64, 36, 40, 2, 1, -6, 13, 55, 29, 72, -2, 81, -72, -41], "withholdReward": false, "trial_id": "mdp_trial_12", "block": "test", "trialIndex": 13, "score": 60.25, "costs": -4.75, "simulationMode": [null, null, null, null, null], "rewards": [2, 1, -6, 13, 55], "path": ["0", "0", "23", "24", "25", "26", "27"], "rt": [7464, 70, 7, 942, 905], "actions": ["left", "left", "left", "up", "up"], "actionTimes": [9039, 9615, 10138, 11605, 13027], "queries": {"click": {"state": {"target": ["1", "2", "3", "4", "6"], "time": [2367, 3275, 4378, 5276, 6005]}, "edge": {"target": [], "time": []}}, "mouseover": {"state": {"target": ["1", "2", "3", "4", "6", "8", "11"], "time": [1997, 3036, 4141, 5020, 5805, 6592, 7631]}, "edge": {"target": [], "time": []}}, "mouseout": {"state": {"target": ["0", "1", "2", "3", "3", "4", "6", "4", "3", "8"], "time": [1942, 2850, 3966, 4528, 4982, 5779, 6481, 6527, 6569, 7564]}, "edge": {"target": [], "time": []}}}, "displayed_time": "15.58", "trialTime": 18127, "trial_type": "mouselab-mdp", "trial_index": 20, "time_elapsed": 972043, "internal_node_id": "0.0-6.0-1.0-11.0"}}, {"uniqueid": "w57213573:a66654979", "current_trial": 21, "dateTime": 1693835712483, "trialdata": {"revealed_states": [], "clicked_states": ["12", "13", "14", "19", "20", "1", "2", "3", "8", "11", "25", "24", "23", "30", "15", "16", "4", "6", "10", "33"], "num_clicks_accrued": [0, 0, 0, 0, 0, 0, 0, 0, 0, 0, 0, 0, 0], "stateRewards": ["", 1, -2, 7, -14, 88, -56, -44, -14, 64, -51, -57, -2, 3, -4, -9, -11, 19, -77, -1, 68, 75, -67, -1, 1, -2, 5, -37, 70, -34, -10, -72, 63, -41], "withholdReward": false, "trial_id": "mdp_trial_13", "block": "test", "trialIndex": 14, "score": -54.8, "costs": -23.799999999999997, "simulationMode": [null, null, null, null, null, null, null, null], "rewards": [-1, 1, -2, 5, -34], "path": ["0", "0", "23", "24", "25", "26", "29"], "rt": [5826, 15435, 12334, 651, 701, 642, 597, 98], "actions": ["up", "up", "left", "left", "left", "left", "up", "left"], "actionTimes": [8031, 23471, 35819, 36479, 37746, 38895, 40031, 40634], "queries": {"click": {"state": {"target": ["12", "13", "14", "19", "20", "1", "2", "3", "8", "11", "25", "24", "23", "30", "15", "16", "4", "6", "10", "33"], "time": [3833, 4549, 5168, 5780, 6386, 9416, 10235, 11073, 11690, 12363, 15550, 16493, 17139, 18780, 19998, 20895, 25706, 26529, 29901, 34220]}, "edge": {"target": [], "time": []}}, "mouseover": {"state": {"target": ["0", "12", "13", "14", "19", "20", "18", "1", "2", "3", "8", "11", "10", "23", "24", "25", "24", "23", "31", "31", "30", "31", "0", "17", "15", "16", "18", "18", "15", "4", "6", "5", "5", "9", "10", "2", "7", "4", "5", "30", "33", "25"], "time": [2983, 3640, 4469, 5024, 5622, 6255, 8870, 9234, 10130, 10840, 11506, 12290, 12834, 13072, 14421, 15317, 16267, 16956, 18167, 18434, 18649, 19266, 19310, 19634, 19821, 20645, 21936, 22183, 25050, 25470, 26428, 27054, 27365, 28254, 29517, 30546, 30712, 32177, 32239, 33731, 34082, 35086]}, "edge": {"target": [], "time": []}}, "mouseout": {"state": {"target": ["1", "0", "12", "13", "14", "19", "20", "18", "1", "2", "3", "8", "11", "10", "23", "24", "25", "24", "23", "24", "31", "31", "30", "31", "0", "17", "15", "16", "18", "18", "15", "4", "6", "5", "5", "9", "10", "2", "7", "4", "5", "30", "33", "25"], "time": [1315, 3600, 4334, 4986, 5568, 6230, 6523, 8900, 9838, 10738, 11463, 12115, 12471, 12861, 14320, 15284, 16155, 16584, 17761, 17895, 18212, 18582, 19255, 19301, 19336, 19718, 20405, 21905, 21985, 22287, 25071, 25848, 26985, 27116, 28068, 29467, 30519, 30586, 32168, 32200, 33278, 33866, 35037, 35131]}, "edge": {"target": [], "time": []}}}, "displayed_time": "41.14", "trialTime": 43145, "trial_type": "mouselab-mdp", "trial_index": 21, "time_elapsed": 1016382, "internal_node_id": "0.0-6.0-1.0-12.0"}}, {"uniqueid": "w57213573:a66654979", "current_trial": 22, "dateTime": 1693835753636, "trialdata": {"revealed_states": [], "clicked_states": ["1", "2", "3", "4", "6", "12", "13", "14", "19", "20", "22", "21", "32", "33", "29"], "num_clicks_accrued": [0, 0, 0, 0, 0, 0, 0, 0, 0, 0, 0, 0, 0], "stateRewards": ["", -2, 2, 2, -6, 9, 37, 50, -13, -7, -18, -75, -2, -4, 4, 7, 23, -57, -66, -7, -81, -48, -76, 1, 1, -8, 1, 51, -2, 70, 14, 59, 71, -37], "withholdReward": false, "trial_id": "mdp_trial_14", "block": "test", "trialIndex": 15, "score": 44.75, "costs": -20.25, "simulationMode": [null, null, null, null, null, null], "rewards": [1, 1, -8, 1, 70], "path": ["0", "0", "23", "24", "25", "26", "29"], "rt": [31098, 1195, 6, 434, 195, 98], "actions": ["left", "left", "left", "left", "up", "left"], "actionTimes": [33419, 34620, 35136, 36108, 36818, 37422], "queries": {"click": {"state": {"target": ["1", "2", "3", "4", "6", "12", "13", "14", "19", "20", "22", "21", "32", "33", "29"], "time": [4938, 5650, 6458, 7090, 7700, 11253, 12020, 13350, 14119, 14967, 17808, 20970, 24783, 27657, 32007]}, "edge": {"target": [], "time": []}}, "mouseover": {"state": {"target": ["14", "12", "0", "23", "1", "2", "3", "4", "6", "12", "12", "13", "12", "13", "14", "19", "20", "22", "21", "31", "32", "33", "30", "31", "31", "26", "29"], "time": [4023, 4061, 4375, 4420, 4870, 5424, 6295, 6938, 7587, 8134, 8656, 10175, 11135, 11837, 13223, 13889, 14756, 15493, 18526, 21910, 22104, 25371, 28206, 28268, 28426, 31437, 31803]}, "edge": {"target": [], "time": []}}, "mouseout": {"state": {"target": ["0", "14", "12", "0", "23", "1", "2", "3", "4", "6", "12", "12", "13", "12", "13", "14", "19", "20", "19", "22", "21", "31", "32", "33", "30", "31", "31", "26"], "time": [1170, 4042, 4087, 4391, 4439, 5061, 5765, 6911, 7543, 8075, 8157, 10088, 11091, 11808, 12607, 13857, 14644, 15424, 15469, 18359, 21508, 21959, 25306, 28199, 28241, 28307, 31403, 31671]}, "edge": {"target": [], "time": []}}}, "displayed_time": "37.94", "trialTime": 39909, "trial_type": "mouselab-mdp", "trial_index": 22, "time_elapsed": 1057534, "internal_node_id": "0.0-6.0-1.0-13.0"}}, {"uniqueid": "w57213573:a66654979", "current_trial": 23, "dateTime": 1693835783665, "trialdata": {"revealed_states": [], "clicked_states": ["12", "13", "14", "17", "18", "20", "21"], "num_clicks_accrued": [0, 0, 0, 0, 0, 0, 0, 0, 0, 0, 0, 0, 0], "stateRewards": ["", -1, 2, 5, -6, 13, -64, -47, 8, -79, -80, -33, 1, 2, -2, -16, 56, -71, -10, 3, 29, 44, 85, -1, 4, 5, 4, -36, -56, 19, 8, 52, -13, -2], "withholdReward": false, "trial_id": "mdp_trial_15", "block": "test", "trialIndex": 16, "score": 23.35, "costs": -9.65, "simulationMode": [null, null, null, null, null, null], "rewards": [1, 2, -2, 3, 29], "path": ["0", "0", "12", "13", "14", "19", "20"], "rt": [17393, 1056, 196, 429, 797, 187], "actions": ["right", "right", "right", "right", "down", "right"], "actionTimes": [21558, 22625, 23435, 24402, 25705, 26408], "queries": {"click": {"state": {"target": ["12", "13", "14", "17", "18", "20", "21"], "time": [6178, 7059, 8107, 9069, 12137, 16753, 19803]}, "edge": {"target": [], "time": []}}, "mouseover": {"state": {"target": ["0", "12", "13", "14", "17", "16", "18", "13", "22", "19", "20", "20", "21", "21", "21", "19", "13"], "time": [5639, 6055, 6882, 7959, 8776, 9718, 11869, 12912, 13226, 16006, 16127, 16459, 17411, 17745, 19400, 20690, 20767]}, "edge": {"target": [], "time": []}}, "mouseout": {"state": {"target": ["0", "0", "12", "13", "14", "17", "16", "18", "13", "22", "19", "20", "20", "21", "21", "21", "19"], "time": [3238, 5675, 6740, 7609, 8636, 9561, 11694, 12872, 12985, 16001, 16106, 16156, 17360, 17441, 19142, 20662, 20718]}, "edge": {"target": [], "time": []}}}, "displayed_time": "26.93", "trialTime": 28756, "trial_type": "mouselab-mdp", "trial_index": 23, "time_elapsed": 1087563, "internal_node_id": "0.0-6.0-1.0-14.0"}}, {"uniqueid": "w57213573:a66654979", "current_trial": 24, "dateTime": 1693835811363, "trialdata": {"revealed_states": [], "clicked_states": ["27", "28", "29", "33", "31"], "num_clicks_accrued": [0, 0, 0, 0, 0, 0, 0, 0, 0, 0, 0, 0, 0], "stateRewards": ["", 1, 1, -3, 7, 49, 78, 26, -5, 26, 48, -43, -1, -3, 2, -5, 4, -1, -60, 10, -35, 51, 81, -2, 1, -7, -5, -39, -86, -54, 4, -3, 74, 77], "withholdReward": false, "trial_id": "mdp_trial_16", "block": "test", "trialIndex": 17, "score": 62.25, "costs": -10.75, "simulationMode": [null, null, null, null, null, null], "rewards": [-2, 1, -7, 4, 77], "path": ["0", "0", "23", "24", "25", "30", "33"], "rt": [15430, 1178, 208, 409, 239, 227], "actions": ["left", "left", "left", "left", "down", "left"], "actionTimes": [17393, 18577, 19314, 20245, 20995, 21727], "queries": {"click": {"state": {"target": ["27", "28", "29", "33", "31"], "time": [3699, 6717, 9718, 12616, 15607]}, "edge": {"target": [], "time": []}}, "mouseover": {"state": {"target": ["23", "24", "26", "27", "28", "26", "29", "29", "33", "30", "31"], "time": [2711, 2830, 3234, 3477, 4323, 7257, 7308, 7633, 10752, 13195, 13468]}, "edge": {"target": [], "time": []}}, "mouseout": {"state": {"target": ["6", "4", "1", "0", "23", "24", "26", "27", "28", "26", "29", "29", "33", "30", "31", "17"], "time": [596, 948, 1028, 2674, 2812, 2849, 3329, 4263, 7249, 7282, 7333, 10298, 13143, 13368, 16399, 23827]}, "edge": {"target": [], "time": []}}}, "displayed_time": "22.23", "trialTime": 26427, "trial_type": "mouselab-mdp", "trial_index": 24, "time_elapsed": 1115263, "internal_node_id": "0.0-6.0-1.0-15.0"}}, {"uniqueid": "w57213573:a66654979", "current_trial": 25, "dateTime": 1693835867828, "trialdata": {"revealed_states": [], "clicked_states": ["16", "18", "17", "20", "21", "22", "31", "32", "33", "29", "27", "28"], "num_clicks_accrued": [0, 0, 0, 0, 0, 0, 0, 0, 0, 0, 0, 0, 0], "stateRewards": ["", -1, -3, -6, -2, -7, 80, -45, -3, -38, -72, 76, 2, 1, 7, 4, -62, 14, -74, 14, -87, -21, -88, -2, 1, -7, -10, 66, 56, -76, 10, -29, -72, -70], "withholdReward": false, "trial_id": "mdp_trial_17", "block": "test", "trialIndex": 18, "score": 22.200000000000003, "costs": -25.799999999999994, "simulationMode": [null, null, null, null, null], "rewards": [-2, 1, -7, -10, 66], "path": ["0", "0", "23", "24", "25", "26", "27"], "rt": [43656, 106, 452, 391, 226], "actions": ["left", "left", "left", "up", "up"], "actionTimes": [45699, 46326, 47303, 48233, 48970], "queries": {"click": {"state": {"target": ["16", "18", "17", "20", "21", "22", "31", "32", "33", "29", "27", "28"], "time": [3584, 7707, 10534, 14205, 17357, 20539, 23834, 26953, 30251, 33404, 36791, 39972]}, "edge": {"target": [], "time": []}}, "mouseover": {"state": {"target": ["12", "18", "16", "17", "15", "18", "15", "17", "17", "20", "21", "22", "31", "32", "33", "29", "27", "27", "28", "23", "7", "6"], "time": [2073, 2552, 3367, 4607, 7104, 7235, 8504, 8566, 9069, 11452, 14906, 18000, 21825, 24683, 27838, 31701, 34001, 34314, 37522, 41684, 42121, 42540]}, "edge": {"target": [], "time": []}}, "mouseout": {"state": {"target": ["0", "0", "12", "18", "16", "17", "15", "18", "15", "17", "17", "20", "21", "22", "31", "32", "33", "29", "27", "27", "28", "23", "7", "6", "20", "19", "13"], "time": [1017, 2068, 2105, 2602, 4352, 7084, 7152, 8490, 8536, 8774, 11389, 14832, 17888, 21297, 24493, 27588, 30992, 33954, 34068, 37443, 41522, 42071, 42450, 52398, 53267, 53287, 54352]}, "edge": {"target": [], "time": []}}}, "displayed_time": "49.47", "trialTime": 55248, "trial_type": "mouselab-mdp", "trial_index": 25, "time_elapsed": 1171727, "internal_node_id": "0.0-6.0-1.0-16.0"}}, {"uniqueid": "w57213573:a66654979", "current_trial": 26, "dateTime": 1693835899067, "trialdata": {"revealed_states": [], "clicked_states": ["5", "6", "11", "9", "10", "7"], "num_clicks_accrued": [0, 0, 0, 0, 0, 0, 0, 0, 0, 0, 0, 0, 0], "stateRewards": ["", 2, 3, -1, 6, 44, -4, -59, -14, -3, 64, 16, 1, -3, 3, 6, 3, 49, 19, 3, -49, -14, -86, 1, 2, -3, -8, -33, 14, 32, -13, -77, -47, -67], "withholdReward": false, "trial_id": "mdp_trial_18", "block": "test", "trialIndex": 19, "score": 41.1, "costs": -12.9, "simulationMode": [null, null, null, null, null], "rewards": [2, 3, -1, -14, 64], "path": ["0", "0", "1", "2", "3", "8", "10"], "rt": [21288, 129, 441, 27, 85], "actions": ["up", "up", "up", "left", "down"], "actionTimes": [23080, 23718, 24690, 25233, 25826], "queries": {"click": {"state": {"target": ["5", "6", "11", "9", "10", "7"], "time": [3285, 6800, 9966, 13312, 16458, 19784]}, "edge": {"target": [], "time": []}}, "mouseover": {"state": {"target": ["1", "4", "5", "5", "6", "4", "11", "9", "8", "10", "2", "7"], "time": [2423, 2503, 2802, 3019, 3989, 7554, 8137, 10731, 14052, 14234, 16991, 17163]}, "edge": {"target": [], "time": []}}, "mouseout": {"state": {"target": ["1", "4", "5", "5", "5", "6", "4", "11", "9", "8", "10", "2", "7", "18", "19"], "time": [2482, 2776, 2836, 3489, 3907, 7019, 7583, 10173, 13982, 14142, 16958, 17070, 27535, 27557, 27607]}, "edge": {"target": [], "time": []}}}, "displayed_time": "26.35", "trialTime": 29817, "trial_type": "mouselab-mdp", "trial_index": 26, "time_elapsed": 1202965, "internal_node_id": "0.0-6.0-1.0-17.0"}}, {"uniqueid": "w57213573:a66654979", "current_trial": 27, "dateTime": 1693835935080, "trialdata": {"revealed_states": [], "clicked_states": ["18", "16", "17", "22", "21", "20"], "num_clicks_accrued": [0, 0, 0, 0, 0, 0, 0, 0, 0, 0, 0, 0, 0], "stateRewards": ["", 1, -3, -4, -11, -56, 61, -47, -16, -28, -9, 69, -2, -3, -4, -8, 40, -86, 59, -4, 80, 27, 54, -1, 3, -1, 8, 67, 23, 50, 6, 83, -43, -29], "withholdReward": false, "trial_id": "mdp_trial_19", "block": "test", "trialIndex": 20, "score": 54.1, "costs": -12.9, "simulationMode": [null, null, null, null, null], "rewards": [-2, -3, -4, -4, 80], "path": ["0", "0", "12", "13", "14", "19", "20"], "rt": [23782, 236, 320, 317, 517], "actions": ["right", "right", "right", "down", "right"], "actionTimes": [25997, 26753, 27638, 28459, 29488], "queries": {"click": {"state": {"target": ["18", "16", "17", "22", "21", "20"], "time": [4525, 8064, 11633, 15006, 18259, 21503]}, "edge": {"target": [], "time": []}}, "mouseover": {"state": {"target": ["12", "15", "7", "18", "16", "17", "20", "22", "22", "21", "20", "19"], "time": [3085, 3453, 3872, 4188, 5222, 8857, 12724, 13142, 13949, 15806, 18967, 23199]}, "edge": {"target": [], "time": []}}, "mouseout": {"state": {"target": ["0", "12", "15", "7", "18", "16", "17", "20", "22", "22", "21", "20", "19", "19"], "time": [3077, 3106, 3537, 4154, 4625, 8657, 12659, 12753, 13655, 15692, 18900, 23165, 23224, 31338]}, "edge": {"target": [], "time": []}}}, "displayed_time": "30.01", "trialTime": 34598, "trial_type": "mouselab-mdp", "trial_index": 27, "time_elapsed": 1238979, "internal_node_id": "0.0-6.0-1.0-18.0"}}, {"uniqueid": "w57213573:a66654979", "current_trial": 28, "dateTime": 1693835999042, "trialdata": {"revealed_states": [], "clicked_states": ["33", "32", "31", "29", "27", "28", "18", "16", "17", "22", "20", "21", "11", "9", "5"], "num_clicks_accrued": [0, 0, 0, 0, 0, 0, 0, 0, 0, 0, 0, 0, 0], "stateRewards": ["", -2, -3, 8, 14, -73, 73, 84, -12, -2, -50, -17, 2, 1, -2, -9, -44, -27, -33, 16, -63, -47, -66, -2, 1, 4, -5, -33, -11, 50, 9, 38, -79, 31], "withholdReward": false, "trial_id": "mdp_trial_20", "block": "test", "trialIndex": 21, "score": 15.750000000000007, "costs": -32.24999999999999, "simulationMode": [null, null, null, null, null], "rewards": [-2, 1, 4, -5, 50], "path": ["0", "0", "23", "24", "25", "26", "29"], "rt": [53638, 71, 284, 380, 117], "actions": ["left", "left", "left", "up", "left"], "actionTimes": [55255, 55837, 56638, 57545, 58169], "queries": {"click": {"state": {"target": ["33", "32", "31", "29", "27", "28", "18", "16", "17", "22", "20", "21", "11", "9", "5"], "time": [3830, 7033, 10248, 13569, 16708, 20927, 24015, 27223, 30493, 33693, 36795, 39919, 45256, 48861, 52062]}, "edge": {"target": [], "time": []}}, "mouseover": {"state": {"target": ["24", "25", "33", "33", "32", "31", "29", "27", "28", "28", "2", "7", "16", "18", "16", "17", "17", "14", "22", "19", "20", "21", "1", "11", "9", "5", "5"], "time": [2112, 2137, 2536, 3612, 4480, 7797, 11214, 14180, 17566, 18115, 21583, 21616, 22071, 22205, 24625, 27976, 28146, 31212, 31663, 34212, 34347, 37539, 41340, 41914, 46595, 49625, 51362]}, "edge": {"target": [], "time": []}}, "mouseout": {"state": {"target": ["0", "24", "25", "33", "33", "32", "31", "29", "27", "28", "28", "2", "7", "16", "18", "16", "17", "17", "14", "22", "19", "20", "21", "1", "11", "9", "5", "5"], "time": [695, 2132, 2163, 2597, 4449, 7530, 10751, 14081, 17328, 17613, 21532, 21611, 21645, 22142, 24544, 27765, 28008, 31170, 31262, 34164, 34280, 37372, 40986, 41376, 46008, 48995, 49713, 60332]}, "edge": {"target": [], "time": []}}}, "displayed_time": "58.70", "trialTime": 62590, "trial_type": "mouselab-mdp", "trial_index": 28, "time_elapsed": 1302941, "internal_node_id": "0.0-6.0-1.0-19.0"}}, {"uniqueid": "w57213573:a66654979", "current_trial": 29, "dateTime": 1693836018607, "trialdata": {"revealed_states": [], "clicked_states": ["16"], "num_clicks_accrued": [0, 0, 0, 0, 0, 0, 0, 0, 0, 0, 0, 0, 0], "stateRewards": ["", -2, 4, -7, -3, -76, 39, -28, 10, 14, 12, 60, 2, -3, 6, -10, 88, -34, -41, -3, 72, -13, -56, 1, 3, 2, 8, -51, 23, -57, 1, 14, -46, -16], "withholdReward": false, "trial_id": "mdp_trial_21", "block": "test", "trialIndex": 22, "score": 80.85, "costs": -2.15, "simulationMode": [null, null, null, null, null], "rewards": [2, -3, 6, -10, 88], "path": ["0", "0", "12", "13", "14", "15", "16"], "rt": [5813, 65, 29, 141, 363], "actions": ["right", "right", "right", "up", "up"], "actionTimes": [8265, 8839, 9387, 10053, 11015], "queries": {"click": {"state": {"target": ["16"], "time": [4048]}, "edge": {"target": [], "time": []}}, "mouseover": {"state": {"target": ["15", "16", "17"], "time": [3379, 3549, 5975]}, "edge": {"target": [], "time": []}}, "mouseout": {"state": {"target": ["0", "15", "16", "17", "20"], "time": [3018, 3418, 4800, 13719, 15155]}, "edge": {"target": [], "time": []}}}, "displayed_time": "16.46", "trialTime": 18458, "trial_type": "mouselab-mdp", "trial_index": 29, "time_elapsed": 1322505, "internal_node_id": "0.0-6.0-1.0-20.0"}}, {"uniqueid": "w57213573:a66654979", "current_trial": 30, "dateTime": 1693836062338, "trialdata": {"revealed_states": [], "clicked_states": ["29", "27", "33", "32", "31", "22", "21", "20"], "num_clicks_accrued": [0, 0, 0, 0, 0, 0, 0, 0, 0, 0, 0, 0, 0], "stateRewards": ["", -2, -1, -6, -14, -55, 78, -13, 11, 14, -71, 59, 2, 2, 6, -6, 9, 38, 14, 7, 85, 11, 68, 1, -4, -1, -3, -63, -85, 9, -2, 63, -86, -10], "withholdReward": false, "trial_id": "mdp_trial_22", "block": "test", "trialIndex": 23, "score": 84.8, "costs": -17.2, "simulationMode": [null, null, null, null, null], "rewards": [2, 2, 6, 7, 85], "path": ["0", "0", "12", "13", "14", "19", "20"], "rt": [29697, 36, 358, 76, 296], "actions": ["right", "right", "right", "down", "right"], "actionTimes": [35877, 36448, 37346, 37935, 38878], "queries": {"click": {"state": {"target": ["29", "27", "33", "32", "31", "22", "21", "20"], "time": [7496, 10797, 14638, 17843, 21045, 24626, 28070, 31380]}, "edge": {"target": [], "time": []}}, "mouseover": {"state": {"target": ["23", "24", "29", "27", "33", "30", "32", "31", "22", "19", "21", "20", "17"], "time": [6810, 6832, 7461, 8152, 14137, 15237, 16003, 18570, 22183, 26803, 27514, 28848, 33370]}, "edge": {"target": [], "time": []}}, "mouseout": {"state": {"target": ["25", "29", "29", "26", "24", "0", "23", "24", "29", "27", "27", "33", "30", "32", "31", "22", "19", "21", "20", "17", "21"], "time": [865, 3904, 4581, 4599, 4854, 6801, 6827, 6853, 8083, 10952, 14131, 14735, 15270, 18000, 21683, 26770, 26843, 28617, 31946, 40270, 41463]}, "edge": {"target": [], "time": []}}}, "displayed_time": "39.40", "trialTime": 42001, "trial_type": "mouselab-mdp", "trial_index": 30, "time_elapsed": 1366236, "internal_node_id": "0.0-6.0-1.0-21.0"}}, {"uniqueid": "w57213573:a66654979", "current_trial": 31, "dateTime": 1693836103632, "trialdata": {"revealed_states": [], "clicked_states": ["5", "7", "6", "11", "10", "9", "27"], "num_clicks_accrued": [0, 0, 0, 0, 0, 0, 0, 0, 0, 0, 0, 0, 0], "stateRewards": ["", 2, -4, -8, -15, 71, -43, -41, 7, -17, 20, 67, -1, -1, -4, 6, 37, -24, -47, 9, 34, 57, 45, 1, 2, -4, -5, -23, 88, -5, 13, -40, 43, 44], "withholdReward": false, "trial_id": "mdp_trial_23", "block": "test", "trialIndex": 24, "score": 40.95, "costs": -15.05, "simulationMode": [null, null, null, null, null], "rewards": [1, 2, -4, 13, 44], "path": ["0", "0", "23", "24", "25", "30", "33"], "rt": [26479, 1109, 1851, 201, 425], "actions": ["left", "left", "left", "down", "left"], "actionTimes": [28806, 30424, 32789, 33509, 34446], "queries": {"click": {"state": {"target": ["5", "7", "6", "11", "10", "9", "27"], "time": [4465, 8132, 11356, 15098, 18510, 21627, 25237]}, "edge": {"target": [], "time": []}}, "mouseover": {"state": {"target": ["1", "2", "5", "4", "7", "6", "4", "3", "8", "11", "10", "8", "9", "27", "29"], "time": [3177, 3749, 4177, 5340, 7611, 8999, 12131, 14194, 14675, 14925, 15841, 19014, 19481, 25009, 26353]}, "edge": {"target": [], "time": []}}, "mouseout": {"state": {"target": ["0", "1", "2", "5", "4", "7", "6", "4", "3", "8", "11", "10", "8", "9", "27", "29", "14"], "time": [3146, 3729, 3779, 5267, 5366, 8733, 12080, 14158, 14642, 14697, 15643, 18982, 19054, 22737, 26153, 36697, 36828]}, "edge": {"target": [], "time": []}}}, "displayed_time": "34.95", "trialTime": 39610, "trial_type": "mouselab-mdp", "trial_index": 31, "time_elapsed": 1407526, "internal_node_id": "0.0-6.0-1.0-22.0"}}, {"uniqueid": "w57213573:a66654979", "current_trial": 32, "dateTime": 1693836122633, "trialdata": {"revealed_states": [], "clicked_states": ["5", "9"], "num_clicks_accrued": [0, 0, 0, 0, 0, 0, 0, 0, 0, 0, 0, 0, 0], "stateRewards": ["", -1, 1, -6, -1, 80, 23, 2, -11, 73, -81, 59, 1, 3, 5, -1, -26, 28, -3, 16, -59, -13, -50, -2, -2, 2, 15, -50, 86, 17, -4, 37, 35, 44], "withholdReward": false, "trial_id": "mdp_trial_24", "block": "test", "trialIndex": 25, "score": 68.7, "costs": -4.3, "simulationMode": [null, null, null, null, null, null], "rewards": [-1, 1, -6, -1, 80], "path": ["0", "0", "1", "2", "3", "4", "5"], "rt": [5390, 643, 237, 289, 104, 83], "actions": ["up", "up", "up", "up", "right", "up"], "actionTimes": [7317, 7966, 8724, 9521, 10148, 10753], "queries": {"click": {"state": {"target": ["5", "9"], "time": [2949, 6138]}, "edge": {"target": [], "time": []}}, "mouseover": {"state": {"target": ["5", "9"], "time": [2739, 3919]}, "edge": {"target": [], "time": []}}, "mouseout": {"state": {"target": ["0", "5", "9", "14", "19"], "time": [1972, 3873, 13285, 15268, 16903]}, "edge": {"target": [], "time": []}}}, "displayed_time": "15.93", "trialTime": 17416, "trial_type": "mouselab-mdp", "trial_index": 32, "time_elapsed": 1426533, "internal_node_id": "0.0-6.0-1.0-23.0"}}, {"uniqueid": "w57213573:a66654979", "current_trial": 33, "dateTime": 1693836150564, "trialdata": {"revealed_states": [], "clicked_states": ["20", "21", "22", "32"], "num_clicks_accrued": [0, 0, 0, 0, 0, 0, 0, 0, 0, 0, 0, 0, 0], "stateRewards": ["", -1, 2, -2, 5, 80, -61, -27, 12, 44, -26, -75, -2, -4, 1, -16, 42, -49, -50, 4, -44, 2, 80, -2, -2, 5, -2, 59, 10, 24, 7, -48, -86, -44], "withholdReward": false, "trial_id": "mdp_trial_25", "block": "test", "trialIndex": 26, "score": 70.4, "costs": -8.6, "simulationMode": [null, null, null, null, null], "rewards": [-2, -4, 1, 4, 80], "path": ["0", "0", "12", "13", "14", "19", "22"], "rt": [15368, 320, 514, 244, 450], "actions": ["right", "right", "right", "down", "left"], "actionTimes": [17306, 18169, 19251, 20034, 21023], "queries": {"click": {"state": {"target": ["20", "21", "22", "32"], "time": [3477, 6709, 10156, 13685]}, "edge": {"target": [], "time": []}}, "mouseover": {"state": {"target": ["17", "20", "21", "22", "32"], "time": [2655, 3324, 4210, 7283, 11147]}, "edge": {"target": [], "time": []}}, "mouseout": {"state": {"target": ["23", "17", "20", "21", "22", "32", "12", "15"], "time": [693, 2722, 4123, 7228, 10323, 14334, 23051, 23073]}, "edge": {"target": [], "time": []}}}, "displayed_time": "21.55", "trialTime": 26575, "trial_type": "mouselab-mdp", "trial_index": 33, "time_elapsed": 1454462, "internal_node_id": "0.0-6.0-1.0-24.0"}}, {"uniqueid": "w57213573:a66654979", "current_trial": 34, "dateTime": 1693836215637, "trialdata": {"revealed_states": [], "clicked_states": ["33", "31", "32", "22", "21", "20", "16", "17", "18", "27", "29", "28", "11", "9", "5"], "num_clicks_accrued": [0, 0, 0, 0, 0, 0, 0, 0, 0, 0, 0, 0, 0], "stateRewards": ["", -2, -1, -5, 10, -36, -70, 68, -9, 86, 71, -10, 2, -4, 7, -7, 66, 44, -66, -13, -69, 43, 15, -2, 2, 6, -13, 62, 57, 50, -10, -69, 42, -72], "withholdReward": false, "trial_id": "mdp_trial_26", "block": "test", "trialIndex": 27, "score": 36.75000000000001, "costs": -32.24999999999999, "simulationMode": [null, null, null, null, null], "rewards": [-2, -1, -5, -9, 86], "path": ["0", "0", "1", "2", "3", "8", "9"], "rt": [53277, 354, 494, 166, 304], "actions": ["up", "up", "up", "left", "up"], "actionTimes": [55486, 56362, 57380, 58066, 58887], "queries": {"click": {"state": {"target": ["33", "31", "32", "22", "21", "20", "16", "17", "18", "27", "29", "28", "11", "9", "5"], "time": [3562, 6774, 10152, 13666, 17080, 20648, 24396, 28319, 31821, 35723, 39045, 42280, 45709, 49019, 52259]}, "edge": {"target": [], "time": []}}, "mouseover": {"state": {"target": ["23", "24", "33", "30", "31", "32", "21", "22", "21", "20", "17", "16", "17", "15", "18", "1", "28", "26", "27", "29", "26", "28", "11", "9", "5"], "time": [2829, 2857, 3350, 4404, 4538, 7588, 11450, 11748, 14489, 17832, 23783, 24134, 25294, 30937, 31599, 34163, 34563, 34619, 35498, 36699, 39686, 39951, 44070, 46433, 49775]}, "edge": {"target": [], "time": []}}, "mouseout": {"state": {"target": ["0", "23", "24", "33", "30", "31", "32", "21", "22", "21", "20", "17", "16", "17", "15", "18", "1", "28", "26", "27", "29", "26", "28", "11", "9", "5", "7", "18"], "time": [1284, 2853, 2885, 4339, 4456, 7534, 10620, 11711, 14311, 17202, 23650, 23819, 25206, 30900, 31004, 34114, 34194, 34612, 34668, 36530, 39614, 39819, 43565, 46332, 49171, 53171, 62173, 62202]}, "edge": {"target": [], "time": []}}}, "displayed_time": "59.42", "trialTime": 63685, "trial_type": "mouselab-mdp", "trial_index": 34, "time_elapsed": 1519536, "internal_node_id": "0.0-6.0-1.0-25.0"}}, {"uniqueid": "w57213573:a66654979", "current_trial": 35, "dateTime": 1693836237684, "trialdata": {"revealed_states": [], "clicked_states": ["33", "16", "27"], "num_clicks_accrued": [0, 0, 0, 0, 0, 0, 0, 0, 0, 0, 0, 0, 0], "stateRewards": ["", 1, 1, -7, -9, -44, 24, -83, -15, 44, -24, 72, -2, -3, 4, -5, 57, 55, 29, -11, 22, 12, -25, -1, 2, 7, 12, 33, -8, 47, -4, 8, 50, -4], "withholdReward": false, "trial_id": "mdp_trial_27", "block": "test", "trialIndex": 28, "score": 44.55, "costs": -6.449999999999999, "simulationMode": [null, null, null, null, null], "rewards": [-2, -3, 4, -5, 57], "path": ["0", "0", "12", "13", "14", "15", "16"], "rt": [11763, 123, 32, 469, 21], "actions": ["right", "right", "right", "up", "up"], "actionTimes": [13941, 14593, 15160, 16163, 16697], "queries": {"click": {"state": {"target": ["33", "16", "27"], "time": [3665, 6858, 10527]}, "edge": {"target": [], "time": []}}, "mouseover": {"state": {"target": ["12", "12", "0", "30", "33", "31", "15", "16", "8", "27"], "time": [2849, 2964, 2994, 3414, 3579, 4320, 5244, 5869, 7411, 9218]}, "edge": {"target": [], "time": []}}, "mouseout": {"state": {"target": ["14", "12", "12", "0", "30", "33", "31", "15", "16", "8", "27"], "time": [883, 2870, 2985, 3015, 3458, 4248, 4360, 5269, 7327, 7435, 18331]}, "edge": {"target": [], "time": []}}}, "displayed_time": "17.22", "trialTime": 20561, "trial_type": "mouselab-mdp", "trial_index": 35, "time_elapsed": 1541583, "internal_node_id": "0.0-6.0-1.0-26.0"}}, {"uniqueid": "w57213573:a66654979", "current_trial": 36, "dateTime": 1693836265490, "trialdata": {"revealed_states": [], "clicked_states": ["27", "16", "9", "5"], "num_clicks_accrued": [0, 0, 0, 0, 0, 0, 0, 0, 0, 0, 0, 0, 0], "stateRewards": ["", -2, 1, -8, 12, -65, -79, 16, 7, -80, -17, -45, -2, 2, -5, -2, -85, 23, -4, -7, 48, 27, -76, 2, 3, 5, 2, 43, 71, -13, 7, -49, 59, -31], "withholdReward": false, "trial_id": "mdp_trial_28", "block": "test", "trialIndex": 29, "score": 46.4, "costs": -8.6, "simulationMode": [null, null, null, null, null], "rewards": [2, 3, 5, 2, 43], "path": ["0", "0", "23", "24", "25", "26", "27"], "rt": [15160, 725, 555, 273, 176], "actions": ["left", "left", "left", "up", "up"], "actionTimes": [18877, 20118, 21173, 21982, 22671], "queries": {"click": {"state": {"target": ["27", "16", "9", "5"], "time": [5002, 8392, 11602, 15608]}, "edge": {"target": [], "time": []}}, "mouseover": {"state": {"target": ["23", "26", "27", "16", "4", "9", "5"], "time": [4291, 4340, 4755, 6388, 8914, 9504, 12258]}, "edge": {"target": [], "time": []}}, "mouseout": {"state": {"target": ["0", "0", "23", "26", "27", "16", "4", "9", "5", "19", "22"], "time": [1085, 4286, 4319, 4367, 5121, 8856, 8940, 12091, 15757, 25843, 25865]}, "edge": {"target": [], "time": []}}}, "displayed_time": "23.19", "trialTime": 26535, "trial_type": "mouselab-mdp", "trial_index": 36, "time_elapsed": 1569388, "internal_node_id": "0.0-6.0-1.0-27.0"}}, {"uniqueid": "w57213573:a66654979", "current_trial": 37, "dateTime": 1693836284123, "trialdata": {"revealed_states": [], "clicked_states": ["9"], "num_clicks_accrued": [0, 0, 0, 0, 0, 0, 0, 0, 0, 0, 0, 0, 0], "stateRewards": ["", 1, 2, 7, 13, 88, -71, 27, 3, 60, 5, -53, -2, 2, -6, -1, -30, 79, 47, -4, -14, 46, 68, 1, 1, 8, 10, -14, 86, 48, -11, -67, -44, 5], "withholdReward": false, "trial_id": "mdp_trial_29", "block": "test", "trialIndex": 30, "score": 70.85, "costs": -2.15, "simulationMode": [null, null, null, null, null], "rewards": [1, 2, 7, 3, 60], "path": ["0", "0", "1", "2", "3", "8", "9"], "rt": [6308, 129, 401, 376, 32], "actions": ["up", "up", "up", "left", "up"], "actionTimes": [8092, 8758, 9674, 10579, 11135], "queries": {"click": {"state": {"target": ["9"], "time": [3000]}, "edge": {"target": [], "time": []}}, "mouseover": {"state": {"target": ["8", "9", "9", "5"], "time": [2391, 2443, 2796, 5116]}, "edge": {"target": [], "time": []}}, "mouseout": {"state": {"target": ["0", "8", "9", "9", "5"], "time": [2362, 2434, 2464, 4983, 12896]}, "edge": {"target": [], "time": []}}}, "displayed_time": "15.79", "trialTime": 17209, "trial_type": "mouselab-mdp", "trial_index": 37, "time_elapsed": 1588021, "internal_node_id": "0.0-6.0-1.0-28.0"}}, {"uniqueid": "w57213573:a66654979", "current_trial": 38, "dateTime": 1693836302821, "trialdata": {"revealed_states": [], "clicked_states": ["9", "5"], "num_clicks_accrued": [0, 0, 0, 0, 0, 0, 0, 0, 0, 0, 0, 0, 0], "stateRewards": ["", 1, 3, 3, -10, 52, 68, 59, 12, 7, 49, 21, -2, -3, -4, -2, -2, 63, 63, -4, 44, 43, -76, -2, -3, -6, 13, 48, 36, 12, -5, -36, -33, -11], "withholdReward": false, "trial_id": "mdp_trial_30", "block": "test", "trialIndex": 31, "score": 44.7, "costs": -4.3, "simulationMode": [null, null, null, null, null], "rewards": [1, 3, 3, -10, 52], "path": ["0", "0", "1", "2", "3", "4", "5"], "rt": [8694, 134, 258, 58, 26], "actions": ["up", "up", "up", "right", "up"], "actionTimes": [10569, 11220, 12002, 12568, 13110], "queries": {"click": {"state": {"target": ["9", "5"], "time": [3193, 6457]}, "edge": {"target": [], "time": []}}, "mouseover": {"state": {"target": ["2", "3", "9", "5", "16", "17", "20", "21"], "time": [2491, 2541, 2955, 3882, 7010, 7093, 7939, 8341]}, "edge": {"target": [], "time": []}}, "mouseout": {"state": {"target": ["0", "2", "3", "9", "5", "16", "17", "20", "21", "21"], "time": [2469, 2521, 2588, 3766, 6959, 7040, 7760, 8237, 9890, 16752]}, "edge": {"target": [], "time": []}}}, "displayed_time": "15.88", "trialTime": 17158, "trial_type": "mouselab-mdp", "trial_index": 38, "time_elapsed": 1606719, "internal_node_id": "0.0-6.0-1.0-29.0"}}, {"uniqueid": "w57213573:a66654979", "current_trial": 39, "dateTime": 1693836336169, "trialdata": {"revealed_states": [], "clicked_states": ["33", "9", "5", "16", "21", "32"], "num_clicks_accrued": [0, 0, 0, 0, 0, 0, 0, 0, 0, 0, 0, 0, 0], "stateRewards": ["", 2, -1, 5, 6, 10, 86, 55, 10, -45, 63, -71, 1, -2, 5, -8, -50, -72, 36, 15, 61, 12, 33, -1, -4, 6, 5, 79, -56, -21, -16, -87, 60, -81], "withholdReward": false, "trial_id": "mdp_trial_31", "block": "test", "trialIndex": 32, "score": 32.1, "costs": -12.9, "simulationMode": [null, null, null, null, null], "rewards": [-1, -4, 6, -16, 60], "path": ["0", "0", "23", "24", "25", "30", "32"], "rt": [22641, 70, 468, 602, 218], "actions": ["left", "left", "left", "down", "down"], "actionTimes": [24951, 25540, 26517, 27635, 28391], "queries": {"click": {"state": {"target": ["33", "9", "5", "16", "21", "32"], "time": [3614, 6835, 10954, 14334, 17542, 20792]}, "edge": {"target": [], "time": []}}, "mouseover": {"state": {"target": ["0", "25", "33", "29", "11", "3", "5", "9", "5", "5", "17", "16", "17", "21", "32", "31", "23", "12", "14", "20", "19", "22"], "time": [2683, 2800, 3416, 4194, 4798, 4839, 5162, 5339, 7435, 10767, 11941, 13123, 14901, 15502, 18558, 21355, 21436, 21537, 21900, 22336, 22403, 22470]}, "edge": {"target": [], "time": []}}, "mouseout": {"state": {"target": ["1", "0", "25", "33", "29", "11", "3", "5", "9", "5", "5", "17", "16", "17", "21", "32", "31", "23", "12", "14", "20", "19", "22"], "time": [1014, 2750, 2821, 4185, 4231, 4830, 4878, 5189, 7305, 7663, 11380, 13030, 14821, 15032, 18001, 21326, 21387, 21466, 21846, 21934, 22367, 22436, 30141]}, "edge": {"target": [], "time": []}}}, "displayed_time": "28.89", "trialTime": 31964, "trial_type": "mouselab-mdp", "trial_index": 39, "time_elapsed": 1640068, "internal_node_id": "0.0-6.0-1.0-30.0"}}, {"uniqueid": "w57213573:a66654979", "current_trial": 40, "dateTime": 1693836365309, "trialdata": {"revealed_states": [], "clicked_states": ["11", "6", "9", "5", "32"], "num_clicks_accrued": [0, 0, 0, 0, 0, 0, 0, 0, 0, 0, 0, 0, 0], "stateRewards": ["", 1, 1, -2, 7, -31, -6, 76, 1, -36, -16, -53, 2, 1, 7, 13, -47, -10, 47, -7, 72, 46, -56, -2, -2, -2, 11, -80, 44, 38, 16, 67, 85, -78], "withholdReward": false, "trial_id": "mdp_trial_32", "block": "test", "trialIndex": 33, "score": 84.25, "costs": -10.75, "simulationMode": [null, null, null, null, null], "rewards": [-2, -2, -2, 16, 85], "path": ["0", "0", "23", "24", "25", "30", "32"], "rt": [19212, 144, 253, 191, 136], "actions": ["left", "left", "left", "down", "down"], "actionTimes": [20950, 21631, 22428, 23139, 23785], "queries": {"click": {"state": {"target": ["11", "6", "9", "5", "32"], "time": [2836, 6103, 9492, 12731, 16684]}, "edge": {"target": [], "time": []}}, "mouseover": {"state": {"target": ["1", "8", "11", "6", "5", "6", "9", "5", "30", "33", "32", "32", "21"], "time": [1801, 2407, 2553, 3635, 4554, 5055, 9226, 10206, 13825, 13889, 16318, 16568, 17784]}, "edge": {"target": [], "time": []}}, "mouseout": {"state": {"target": ["0", "1", "8", "11", "6", "5", "6", "9", "5", "30", "33", "32", "32", "21"], "time": [1771, 1840, 2453, 2957, 4424, 4689, 6643, 10038, 13332, 13857, 16285, 16351, 17239, 25519]}, "edge": {"target": [], "time": []}}}, "displayed_time": "24.30", "trialTime": 27750, "trial_type": "mouselab-mdp", "trial_index": 40, "time_elapsed": 1669207, "internal_node_id": "0.0-6.0-1.0-31.0"}}, {"uniqueid": "w57213573:a66654979", "current_trial": 41, "dateTime": 1693836396408, "trialdata": {"revealed_states": [], "clicked_states": ["9", "32", "21", "16", "27"], "num_clicks_accrued": [0, 0, 0, 0, 0, 0, 0, 0, 0, 0, 0, 0, 0], "stateRewards": ["", 2, -4, 4, 9, 69, 9, -75, 12, -86, 66, 25, -1, 3, 2, -13, -88, -3, 1, 4, -69, 49, -84, 2, -1, 4, 2, -18, -81, -52, -15, -69, -54, 25], "withholdReward": false, "trial_id": "mdp_trial_33", "block": "test", "trialIndex": 34, "score": 46.25, "costs": -10.75, "simulationMode": [null, null, null, null, null], "rewards": [-1, 3, 2, 4, 49], "path": ["0", "0", "12", "13", "14", "19", "21"], "rt": [19717, 400, 469, 383, 457], "actions": ["right", "right", "right", "down", "down"], "actionTimes": [21761, 22672, 23676, 24582, 25541], "queries": {"click": {"state": {"target": ["9", "32", "21", "16", "27"], "time": [3559, 7757, 10962, 14744, 18514]}, "edge": {"target": [], "time": []}}, "mouseover": {"state": {"target": ["3", "9", "5", "5", "1", "24", "31", "32", "32", "21", "20", "20", "16", "7", "11", "27"], "time": [2610, 3344, 4560, 6830, 6913, 7260, 7289, 7428, 7595, 8994, 11517, 11971, 12815, 15129, 15196, 15700]}, "edge": {"target": [], "time": []}}, "mouseout": {"state": {"target": ["0", "3", "9", "5", "5", "1", "24", "31", "32", "32", "21", "20", "20", "16", "7", "11", "27", "11", "5", "22"], "time": [2532, 2945, 3665, 4645, 6863, 6946, 7281, 7312, 7498, 8224, 11433, 11616, 12076, 14828, 15163, 15230, 18613, 27044, 27128, 28711]}, "edge": {"target": [], "time": []}}}, "displayed_time": "26.08", "trialTime": 29298, "trial_type": "mouselab-mdp", "trial_index": 41, "time_elapsed": 1700307, "internal_node_id": "0.0-6.0-1.0-32.0"}}, {"uniqueid": "w57213573:a66654979", "current_trial": 42, "dateTime": 1693836428456, "trialdata": {"revealed_states": [], "clicked_states": ["9", "29", "32", "21", "31", "22"], "num_clicks_accrued": [0, 0, 0, 0, 0, 0, 0, 0, 0, 0, 0, 0, 0], "stateRewards": ["", 1, -2, -3, 14, -42, -87, -37, -11, -50, 33, -44, -2, 4, -7, 13, 48, -75, -66, 12, 23, -2, 82, 1, -4, 3, 12, 51, -15, -26, -11, -52, -29, 82], "withholdReward": false, "trial_id": "mdp_trial_34", "block": "test", "trialIndex": 35, "score": -7.899999999999999, "costs": -12.9, "simulationMode": [null, null, null, null, null], "rewards": [-2, 4, -7, 12, -2], "path": ["0", "0", "12", "13", "14", "19", "21"], "rt": [21630, 14, 107, 397, 27], "actions": ["right", "right", "right", "down", "down"], "actionTimes": [23299, 23818, 24462, 25383, 25914], "queries": {"click": {"state": {"target": ["9", "29", "32", "21", "31", "22"], "time": [2844, 6095, 9618, 12937, 16086, 19293]}, "edge": {"target": [], "time": []}}, "mouseover": {"state": {"target": ["8", "9", "9", "29", "33", "32", "21", "22", "13", "31", "31", "22", "22", "19", "20", "20", "14"], "time": [2298, 2337, 2670, 3968, 6804, 9410, 10853, 13428, 13513, 13941, 14332, 16586, 16984, 19747, 19803, 20332, 22850]}, "edge": {"target": [], "time": []}}, "mouseout": {"state": {"target": ["0", "8", "9", "9", "29", "33", "32", "21", "22", "13", "31", "31", "22", "22", "19", "20", "20", "14"], "time": [681, 2332, 2367, 2954, 6647, 9385, 10083, 13368, 13459, 13836, 13967, 16482, 16692, 19715, 19777, 19834, 22817, 29218]}, "edge": {"target": [], "time": []}}}, "displayed_time": "26.44", "trialTime": 30534, "trial_type": "mouselab-mdp", "trial_index": 42, "time_elapsed": 1732356, "internal_node_id": "0.0-6.0-1.0-33.0"}}, {"uniqueid": "w57213573:a66654979", "current_trial": 43, "dateTime": 1693836473867, "trialdata": {"revealed_states": [], "clicked_states": ["27", "9", "5", "6", "10", "7", "18", "17", "22", "21"], "num_clicks_accrued": [0, 0, 0, 0, 0, 0, 0, 0, 0, 0, 0, 0, 0], "stateRewards": ["", -2, -4, -6, 12, -58, -70, -80, 2, 16, -88, -62, 1, 2, -5, 11, 77, -35, -44, -5, 18, -83, 87, 1, -3, -5, 13, -44, -21, -86, 10, -52, 8, 29], "withholdReward": false, "trial_id": "mdp_trial_35", "block": "test", "trialIndex": 36, "score": 58.5, "costs": -21.499999999999996, "simulationMode": [null, null, null, null, null, null], "rewards": [1, 2, -5, -5, 87], "path": ["0", "0", "12", "13", "14", "19", "22"], "rt": [31820, 519, 503, 276, 200, 287], "actions": ["right", "right", "right", "right", "down", "left"], "actionTimes": [36213, 36737, 37831, 38663, 39379, 40179], "queries": {"click": {"state": {"target": ["27", "9", "5", "6", "10", "7", "18", "17", "22", "21"], "time": [5851, 9086, 12412, 15877, 19070, 22317, 25537, 28670, 31853, 35049]}, "edge": {"target": [], "time": []}}, "mouseover": {"state": {"target": ["27", "24", "10", "8", "9", "5", "5", "6", "4", "10", "10", "2", "7", "7", "18", "15", "17", "21", "14", "15", "15", "19", "22", "21"], "time": [5683, 6562, 7113, 7433, 8258, 9843, 10406, 13437, 16547, 17032, 17343, 19484, 19547, 20068, 22998, 26743, 26853, 29753, 29937, 30003, 30534, 30602, 31085, 32633]}, "edge": {"target": [], "time": []}}, "mouseout": {"state": {"target": ["0", "27", "24", "10", "8", "9", "5", "5", "5", "6", "4", "10", "10", "2", "7", "7", "18", "15", "17", "21", "14", "15", "15", "19", "22", "21"], "time": [4909, 6404, 6617, 7137, 7485, 9737, 9877, 12538, 13233, 16535, 16587, 17144, 19470, 19535, 19685, 22794, 26713, 26798, 29165, 29861, 29970, 30036, 30568, 30636, 32419, 35153]}, "edge": {"target": [], "time": []}}}, "displayed_time": "40.71", "trialTime": 43566, "trial_type": "mouselab-mdp", "trial_index": 43, "time_elapsed": 1777765, "internal_node_id": "0.0-6.0-1.0-34.0"}}, {"uniqueid": "w57213573:a66654979", "current_trial": 44, "dateTime": 1693836495064, "trialdata": {"revealed_states": [], "clicked_states": ["9", "11"], "num_clicks_accrued": [0, 0, 0, 0, 0, 0, 0, 0, 0, 0, 0, 0, 0], "stateRewards": ["", -2, -3, -7, 7, -54, -69, -4, -14, -77, 22, 40, -2, -1, 5, 6, -35, 50, -60, 10, -28, 75, 57, 1, -4, -2, 2, 68, 34, -18, 12, 3, -21, -43], "withholdReward": false, "trial_id": "mdp_trial_36", "block": "test", "trialIndex": 37, "score": 9.7, "costs": -4.3, "simulationMode": [null, null, null, null, null], "rewards": [-2, -3, -7, -14, 40], "path": ["0", "0", "1", "2", "3", "8", "11"], "rt": [9507, 294, 88, 162, 342], "actions": ["up", "up", "up", "left", "left"], "actionTimes": [11574, 12401, 12995, 13695, 14565], "queries": {"click": {"state": {"target": ["9", "11"], "time": [3339, 6732]}, "edge": {"target": [], "time": []}}, "mouseover": {"state": {"target": ["2", "9", "9", "11", "5"], "time": [2635, 2702, 3100, 5939, 7423]}, "edge": {"target": [], "time": []}}, "mouseout": {"state": {"target": ["0", "0", "2", "9", "9", "11", "5"], "time": [683, 2601, 2670, 2736, 5698, 7223, 16850]}, "edge": {"target": [], "time": []}}}, "displayed_time": "16.08", "trialTime": 19511, "trial_type": "mouselab-mdp", "trial_index": 44, "time_elapsed": 1798963, "internal_node_id": "0.0-6.0-1.0-35.0"}}, {"uniqueid": "w57213573:a66654979", "current_trial": 45, "dateTime": 1693836513565, "trialdata": {"revealed_states": [], "clicked_states": ["32"], "num_clicks_accrued": [0, 0, 0, 0, 0, 0, 0, 0, 0, 0, 0, 0, 0], "stateRewards": ["", 2, -3, -8, 14, -7, -51, 73, 2, 36, 36, -43, -1, 3, -4, 1, 6, 87, -65, 15, 61, -42, -83, -1, 3, -2, -7, 30, -48, 35, 13, 26, 60, 78], "withholdReward": false, "trial_id": "mdp_trial_37", "block": "test", "trialIndex": 38, "score": 70.85, "costs": -2.15, "simulationMode": [null, null, null, null, null], "rewards": [-1, 3, -2, 13, 60], "path": ["0", "0", "23", "24", "25", "30", "32"], "rt": [5478, 431, 225, 39, 525], "actions": ["left", "left", "left", "down", "down"], "actionTimes": [7733, 8671, 9401, 10019, 11090], "queries": {"click": {"state": {"target": ["32"], "time": [3434]}, "edge": {"target": [], "time": []}}, "mouseover": {"state": {"target": ["32", "29", "27"], "time": [2969, 4021, 4487]}, "edge": {"target": [], "time": []}}, "mouseout": {"state": {"target": ["12", "0", "32", "29", "27", "3", "17"], "time": [901, 2824, 3918, 4053, 12919, 12968, 16101]}, "edge": {"target": [], "time": []}}}, "displayed_time": "16.26", "trialTime": 16857, "trial_type": "mouselab-mdp", "trial_index": 45, "time_elapsed": 1817463, "internal_node_id": "0.0-6.0-1.0-36.0"}}, {"uniqueid": "w57213573:a66654979", "current_trial": 46, "dateTime": 1693836536266, "trialdata": {"revealed_states": [], "clicked_states": ["29", "27"], "num_clicks_accrued": [0, 0, 0, 0, 0, 0, 0, 0, 0, 0, 0, 0, 0], "stateRewards": ["", 1, -2, -8, -3, 31, -84, -55, -14, 15, -58, 17, -2, -3, 7, 7, -12, 48, 67, 4, -44, -68, 46, 2, 3, -5, -7, 76, 27, 5, 11, 57, 52, 59], "withholdReward": false, "trial_id": "mdp_trial_38", "block": "test", "trialIndex": 39, "score": 64.7, "costs": -4.3, "simulationMode": [null, null, null, null, null], "rewards": [2, 3, -5, -7, 76], "path": ["0", "0", "23", "24", "25", "26", "27"], "rt": [9117, 375, 112, 257, 421], "actions": ["left", "left", "left", "up", "up"], "actionTimes": [10862, 11747, 12382, 13177, 14186], "queries": {"click": {"state": {"target": ["29", "27"], "time": [3178, 6749]}, "edge": {"target": [], "time": []}}, "mouseover": {"state": {"target": ["23", "29", "27", "26", "25", "30", "32"], "time": [2347, 2765, 4030, 7252, 7297, 7343, 7897]}, "edge": {"target": [], "time": []}}, "mouseout": {"state": {"target": ["31", "0", "23", "29", "27", "26", "25", "30", "32", "22"], "time": [163, 2314, 2398, 3853, 7212, 7287, 7335, 7835, 16600, 16663]}, "edge": {"target": [], "time": []}}}, "displayed_time": "15.75", "trialTime": 21078, "trial_type": "mouselab-mdp", "trial_index": 46, "time_elapsed": 1840165, "internal_node_id": "0.0-6.0-1.0-37.0"}}, {"uniqueid": "w57213573:a66654979", "current_trial": 47, "dateTime": 1693836578083, "trialdata": {"revealed_states": [], "clicked_states": ["9", "5", "17", "29", "33", "32", "21", "20"], "num_clicks_accrued": [0, 0, 0, 0, 0, 0, 0, 0, 0, 0, 0, 0, 0], "stateRewards": ["", 1, 4, -8, -13, -13, -87, -77, -10, -44, 54, 42, 2, -3, -4, 12, -9, -80, 52, 9, 84, -2, -65, 1, -4, -5, -6, 8, 80, 32, 13, -59, -5, -13], "withholdReward": false, "trial_id": "mdp_trial_39", "block": "test", "trialIndex": 40, "score": 70.8, "costs": -17.2, "simulationMode": [null, null, null, null, null], "rewards": [2, -3, -4, 9, 84], "path": ["0", "0", "12", "13", "14", "19", "20"], "rt": [30051, 50, 150, 87, 446], "actions": ["right", "right", "right", "down", "right"], "actionTimes": [32490, 33067, 33769, 34383, 35370], "queries": {"click": {"state": {"target": ["9", "5", "17", "29", "33", "32", "21", "20"], "time": [4136, 7641, 11887, 15056, 18503, 21802, 25111, 28279]}, "edge": {"target": [], "time": []}}, "mouseover": {"state": {"target": ["9", "5", "6", "16", "17", "17", "15", "29", "33", "32", "21", "20", "19", "22", "22"], "time": [3988, 5018, 8274, 9024, 10111, 11707, 12472, 12955, 15694, 19327, 23357, 25835, 28810, 28975, 29675]}, "edge": {"target": [], "time": []}}, "mouseout": {"state": {"target": ["31", "0", "9", "5", "6", "16", "17", "17", "15", "29", "33", "32", "21", "20", "19", "22", "22"], "time": [906, 3054, 4305, 8234, 8371, 9936, 11059, 12467, 12505, 15554, 19150, 22303, 25640, 28741, 28894, 29136, 36915]}, "edge": {"target": [], "time": []}}}, "displayed_time": "35.91", "trialTime": 39922, "trial_type": "mouselab-mdp", "trial_index": 47, "time_elapsed": 1881981, "internal_node_id": "0.0-6.0-1.0-38.0"}}, {"uniqueid": "w57213573:a66654979", "current_trial": 48, "dateTime": 1693836601005, "trialdata": {"revealed_states": [], "clicked_states": ["27", "9", "5"], "num_clicks_accrued": [0, 0, 0, 0, 0, 0, 0, 0, 0, 0, 0, 0, 0], "stateRewards": ["", -1, -3, 3, 5, 56, 39, 50, -1, -80, 33, -46, 1, -2, -6, -8, 87, 48, 54, -11, -20, -64, -54, -2, 3, -7, -3, 12, 88, 35, -16, -46, -70, -3], "withholdReward": false, "trial_id": "mdp_trial_40", "block": "test", "trialIndex": 41, "score": 53.55, "costs": -6.449999999999999, "simulationMode": [null, null, null, null, null], "rewards": [-1, -3, 3, 5, 56], "path": ["0", "0", "1", "2", "3", "4", "5"], "rt": [12456, 680, 11, 168, 33], "actions": ["up", "up", "up", "right", "up"], "actionTimes": [14852, 16082, 16608, 17302, 17862], "queries": {"click": {"state": {"target": ["27", "9", "5"], "time": [3593, 6985, 10380]}, "edge": {"target": [], "time": []}}, "mouseover": {"state": {"target": ["23", "26", "27", "11", "9", "5", "5", "4", "7", "6"], "time": [3062, 3179, 3414, 4252, 4752, 7646, 8083, 11019, 11368, 12915]}, "edge": {"target": [], "time": []}}, "mouseout": {"state": {"target": ["0", "23", "26", "27", "11", "9", "5", "5", "4", "7", "6"], "time": [3051, 3095, 3212, 4217, 4316, 7497, 7679, 10934, 11210, 12601, 19143]}, "edge": {"target": [], "time": []}}}, "displayed_time": "18.41", "trialTime": 21211, "trial_type": "mouselab-mdp", "trial_index": 48, "time_elapsed": 1904899, "internal_node_id": "0.0-6.0-1.0-39.0"}}, {"uniqueid": "w57213573:a66654979", "current_trial": 49, "dateTime": 1693836664834, "trialdata": {"rt": 63758, "response": {"Q0": "$-2 to $2", "Q1": "$-4 to $4", "Q2": "$-32 to $32", "Q3": "The cost for clicking on nodes varied between nodes.", "Q4": "Slightly motivated"}, "question_order": [0, 1, 2, 3, 4], "trial_id": "final_quiz_control", "trial_type": "survey-multi-choice", "trial_index": 49, "time_elapsed": 1968734, "internal_node_id": "0.0-6.0-2.0"}}, {"uniqueid": "w57213573:a66654979", "current_trial": 50, "dateTime": 1693836760316, "trialdata": {"rt": 95408, "response": {"Q0": "To click on the last nodes to see the final price ", "Q1": "Yes at first i was clicking on the nodes step by step until I figured that clicking on the final node shows the final price ", "Q2": "No difficulty "}, "trial_id": "self_report_control", "trial_type": "survey-text", "trial_index": 50, "time_elapsed": 2064216, "internal_node_id": "0.0-6.0-3.0"}}, {"uniqueid": "w57213573:a66654979", "current_trial": 51, "dateTime": 1693836827881, "trialdata": {"rt": 67540, "response": {"Q0": "Strongly disagree", "Q1": "Disagree", "Q2": "Disagree", "Q3": "Strongly agree", "Q4": "Strongly disagree", "Q5": "Agree", "Q6": "Strongly disagree"}, "question_order": [0, 1, 2, 3, 4, 5, 6], "trial_id": "self_report_2", "trial_type": "survey-multi-choice", "trial_index": 51, "time_elapsed": 2131781, "internal_node_id": "0.0-6.0-4.0"}}, {"uniqueid": "w57213573:a66654979", "current_trial": 52, "dateTime": 1693836855499, "trialdata": {"rt": 27582, "response": {"gender": "male", "age": "26", "colorblind": "0", "effort": "1"}, "trial_type": "survey-html-form", "trial_index": 52, "time_elapsed": 2159399, "internal_node_id": "0.0-6.0-5.0"}}, {"uniqueid": "w57213573:a66654979", "current_trial": 53, "dateTime": 1693836871635, "trialdata": {"rt": 16111, "response": {"Q0": "", "Q1": "No", "Q2": ""}, "trial_type": "survey-text", "trial_index": 53, "time_elapsed": 2175535, "internal_node_id": "0.0-6.0-6.0"}}, {"uniqueid": "w57213573:a66654979", "current_trial": 54, "dateTime": 1693836953643, "trialdata": {"rt": 81969, "stimulus": "<h1>Completion Code Instructions (1/2)</h1>\n<br><br><br><br>\nYou have reached the end of the experiment! The completion code consists of two parts: (1) a code with 2 characters (2) a code with 6 characters. On this page, you will receive the second part of the code. The first part of the completion code will be on the next page.\n<br><br>\nThe second part of your completion code is: <b>EWEK22</b>\n<br><br>\nPlease note this down. Then, press 'Next' in order to find the first part of your completion code. Once the data has been saved, you will receive this code either in this window or in the original browser window where you started the experiment.\n <br><br>\n<h2 style='color: red;'>Note: this is <strong>NOT</strong> the full completion code. Copy this down and click 'Next' to get the full completion code on the next page.</h2>", "response": 0, "trial_type": "html-button-response", "trial_index": 54, "time_elapsed": 2257542, "internal_node_id": "0.0-6.0-7.0"}}, {"uniqueid": "w57213573:a66654979", "current_trial": 55, "dateTime": 1693836954671, "trialdata": {"success": true, "trial_type": "fullscreen", "trial_index": 55, "time_elapsed": 2258567, "internal_node_id": "0.0-7.0"}}], "questiondata": {"params": {"CODE": "C6DMOQA6", "MIN_TIME": 14, "inspectCost": 1, "startTime": "Mon Sep 04 2023 15:38:13 GMT+0200 (South Africa Standard Time)", "bonusRate": 0.002, "variance": "1_2_4_8_44", "branching": "31123"}, "final_score": 1117.9}, "eventdata": [{"eventtype": "initialized", "value": null, "timestamp": 1693834692353, "interval": 0}, {"eventtype": "window_resize", "value": [1024, 646], "timestamp": 1693834692353, "interval": 0}, {"eventtype": "window_resize", "value": [1024, 646], "timestamp": 1693834693020, "interval": 667}, {"eventtype": "window_resize", "value": [1366, 768], "timestamp": 1693834712511, "interval": 19491}, {"eventtype": "focus", "value": "off", "timestamp": 1693836046076, "interval": 1333565}, {"eventtype": "focus", "value": "on", "timestamp": 1693836046118, "interval": 42}, {"eventtype": "window_resize", "value": [1024, 646], "timestamp": 1693836954207, "interval": 908089}], "useragent": "Mozilla/5.0 (Windows NT 10.0; Win64; x64) AppleWebKit/537.36 (KHTML, like Gecko) Chrome/116.0.0.0 Safari/537.36", "mode": "live", "id": "w57213573:a66654979", "status": "user data saved", "Beginhit": "2023-09-04 13:38:06.575536", "Beginexp": "2023-09-04 13:38:33.719594", "Endhit": "2023-09-04 14:15:56.78933", "psiturkStatus": 3, "browser": "<redacted>", "platform": "windows", "language": "en-US"}