{"condition": 1, "counterbalance": 0, "assignmentId": "a11302186", "workerId": "w97138169", "hitId": "h36572418", "currenttrial": 41, "bonus": 0, "data": [{"uniqueid": "w97138169:a11302186", "current_trial": 0, "dateTime": 1693390029814, "trialdata": {"success": true, "trial_type": "fullscreen", "trial_index": 0, "time_elapsed": 3968, "internal_node_id": "0.0-0.0"}}, {"uniqueid": "w97138169:a11302186", "current_trial": 1, "dateTime": 1693390053005, "trialdata": {"view_history": [{"page_index": 0, "viewing_time": 23186}], "rt": 23187, "trial_id": "exp_instructions_misaligned", "trial_type": "instructions", "trial_index": 1, "time_elapsed": 27159, "internal_node_id": "0.0-1.0"}}, {"uniqueid": "w97138169:a11302186", "current_trial": 2, "dateTime": 1693390348533, "trialdata": {"view_history": [{"page_index": 0, "viewing_time": 105082}, {"page_index": 1, "viewing_time": 115642}, {"page_index": 2, "viewing_time": 31686}, {"page_index": 3, "viewing_time": 43129}], "rt": 295540, "trial_id": "mouselab_instructions_1_misaligned", "trial_type": "instructions", "trial_index": 2, "time_elapsed": 322687, "internal_node_id": "0.0-2.0-1.0"}}, {"uniqueid": "w97138169:a11302186", "current_trial": 3, "dateTime": 1693390424785, "trialdata": {"revealed_states": [], "clicked_states": ["13", "12", "14", "19", "21", "23", "24", "30", "25", "32", "1", "2", "3", "4", "5", "6", "8", "9", "26", "27", "15", "16", "17"], "num_clicks_accrued": [0, 0, 0, 0, 0, 0, 0, 0, 0, 0, 0, 0, 0], "stateRewards": ["", -10, 10, 10, -10, -10, -10, -10, -10, 10, 10, 10, 10, 10, -10, 10, 10, 10, -10, 10, 10, -10, -10, 10, -10, -10, -10, 10, -10, -10, -10, -10, 10, -10], "withholdReward": false, "trial_id": "practice_1", "block": "test", "trialIndex": 0, "score": 2, "costs": -11.5, "simulationMode": [null, null, null, null, null], "rewards": [10, 10, -10, 10, -10], "path": ["0", "0", "12", "13", "14", "19", "21"], "rt": [62506, 636, 24, 1269, 24], "actions": ["right", "right", "right", "down", "down"], "actionTimes": [66367, 67548, 68087, 69865, 70404], "queries": {"click": {"state": {"target": ["13", "12", "14", "19", "21", "23", "24", "30", "25", "32", "1", "2", "3", "4", "5", "6", "8", "9", "26", "27", "15", "16", "17"], "time": [6779, 9943, 12162, 15248, 16767, 24358, 25759, 27128, 28712, 30163, 33801, 35319, 36503, 38072, 39324, 42060, 44646, 46064, 49584, 50685, 52037, 53138, 55390]}, "edge": {"target": [], "time": []}}, "mouseover": {"state": {"target": ["12", "13", "12", "12", "13", "14", "13", "12", "13", "19", "21", "23", "24", "24", "25", "30", "32", "25", "32", "1", "2", "3", "4", "5", "7", "6", "4", "3", "8", "9", "11", "26", "27", "10", "2", "7", "16", "15", "16", "17", "17", "15", "18", "13", "7"], "time": [4696, 6203, 9387, 9758, 11591, 11659, 14237, 14314, 14618, 14821, 16362, 24192, 24926, 25225, 26143, 26787, 27579, 28489, 29367, 33147, 34336, 35987, 37004, 38492, 41078, 41742, 43553, 43678, 43789, 45770, 47401, 49280, 50068, 51372, 51439, 51476, 51686, 51833, 52373, 53589, 55118, 56592, 57559, 60383, 65165]}, "edge": {"target": [], "time": []}}, "mouseout": {"state": {"target": ["12", "13", "12", "0", "12", "13", "12", "12", "13", "14", "13", "12", "13", "19", "21", "19", "21", "23", "24", "24", "25", "30", "32", "30", "25", "30", "32", "1", "2", "3", "4", "5", "4", "7", "4", "6", "4", "3", "8", "9", "11", "26", "27", "10", "2", "7", "16", "15", "16", "17", "15", "17", "15", "18", "13"], "time": [657, 2209, 2524, 2816, 6079, 9342, 9432, 11558, 11627, 14202, 14270, 14539, 14709, 16294, 18195, 19287, 21448, 24894, 24958, 26077, 26680, 27428, 28265, 28376, 29131, 29232, 31470, 34218, 35886, 36972, 38139, 40955, 41046, 41483, 41686, 43385, 43632, 43767, 45447, 47089, 48627, 49985, 51319, 51404, 51459, 51504, 51721, 52069, 53521, 54353, 55050, 56357, 56728, 60327, 60406]}, "edge": {"target": [], "time": []}}}, "displayed_time": "70.93", "trialTime": 75074, "trial_type": "mouselab-mdp", "trial_index": 3, "time_elapsed": 398939, "internal_node_id": "0.0-2.0-2.0-0.0"}}, {"uniqueid": "w97138169:a11302186", "current_trial": 4, "dateTime": 1693390472630, "trialdata": {"revealed_states": [], "clicked_states": ["1", "2", "3", "4", "5", "8", "23", "24", "25", "26", "29", "12", "13", "14", "15", "16", "19", "30", "32", "33", "31"], "num_clicks_accrued": [0, 0, 0, 0, 0, 0, 0, 0, 0, 0, 0, 0, 0], "stateRewards": ["", 10, 10, -10, 10, 10, 10, 10, -10, -10, 10, -10, -10, 10, 10, -10, -10, -10, -10, -10, -10, 10, -10, 10, -10, -10, 10, -10, -10, -10, -10, 10, 10, 10], "withholdReward": false, "trial_id": "practice_2", "block": "test", "trialIndex": 1, "score": -17, "costs": -10.5, "simulationMode": [null, null, null, null, null], "rewards": [-10, 10, 10, -10, -10], "path": ["0", "0", "12", "13", "14", "15", "16"], "rt": [31920, 335, 361, 1245, 129], "actions": ["right", "right", "right", "up", "up"], "actionTimes": [36817, 37672, 38549, 40332, 41002], "queries": {"click": {"state": {"target": ["1", "2", "3", "4", "5", "8", "23", "24", "25", "26", "29", "12", "13", "14", "15", "16", "19", "30", "32", "33", "31"], "time": [5779, 7114, 8448, 9783, 10967, 11998, 13370, 14737, 15922, 17157, 18341, 19375, 20677, 21811, 23079, 24547, 25965, 28352, 29653, 30821, 32122]}, "edge": {"target": [], "time": []}}, "mouseover": {"state": {"target": ["1", "2", "2", "3", "4", "5", "8", "24", "31", "23", "24", "25", "26", "29", "24", "23", "0", "12", "13", "14", "15", "16", "19", "21", "31", "24", "30", "32", "32", "33", "31", "13", "14", "13", "12", "12"], "time": [5431, 6231, 7086, 7549, 8896, 10199, 11718, 12700, 12768, 12970, 13753, 15152, 16420, 17607, 18808, 18848, 18910, 19179, 19809, 21163, 22277, 23566, 25805, 26701, 27481, 27706, 28089, 28718, 28969, 30106, 31338, 33077, 33298, 34524, 34614, 35120]}, "edge": {"target": [], "time": []}}, "mouseout": {"state": {"target": ["7", "7", "1", "1", "2", "2", "3", "4", "5", "8", "8", "24", "31", "23", "24", "25", "26", "29", "24", "23", "0", "12", "13", "14", "15", "16", "15", "14", "19", "19", "21", "31", "24", "30", "32", "32", "33", "31", "13", "14", "13", "12", "12", "12"], "time": [1315, 1470, 3788, 6143, 6894, 7148, 8851, 9932, 11349, 12032, 12653, 12734, 12903, 13701, 15074, 16188, 17559, 18707, 18828, 18879, 19076, 19760, 20994, 22179, 23112, 24984, 25300, 25604, 25999, 26515, 27346, 27504, 27887, 28687, 28768, 30021, 31240, 32473, 33197, 34141, 34580, 34963, 35424, 45290]}, "edge": {"target": [], "time": []}}}, "displayed_time": "41.52", "trialTime": 46830, "trial_type": "mouselab-mdp", "trial_index": 4, "time_elapsed": 446784, "internal_node_id": "0.0-2.0-2.0-1.0"}}, {"uniqueid": "w97138169:a11302186", "current_trial": 5, "dateTime": 1693390501315, "trialdata": {"view_history": [{"page_index": 0, "viewing_time": 19187}, {"page_index": 1, "viewing_time": 9496}], "rt": 28683, "trial_id": "mouselab_instructions_2_misaligned", "trial_type": "instructions", "trial_index": 5, "time_elapsed": 475469, "internal_node_id": "0.0-2.0-3.0"}}, {"uniqueid": "w97138169:a11302186", "current_trial": 6, "dateTime": 1693390539660, "trialdata": {"rt": 38342, "response": {"Q0": "The cost for clicking on nodes may vary between nodes.", "Q1": "The better I perform the higher my bonus will be.", "Q2": "No, the amount of cash at each node of the web may be different each time.", "Q3": "To get the highest total score.", "Q4": "Only before moving the spider.", "Q5": "3 seconds"}, "question_order": [0, 1, 2, 3, 4, 5], "correct": {"Q0": "The cost for clicking on nodes may vary between nodes.", "Q1": "The better I perform the higher my bonus will be.", "Q2": "No, the amount of cash at each node of the web may be different each time.", "Q3": "To get the highest total score.", "Q4": "Only before moving the spider.", "Q5": "3 seconds"}, "trial_id": "mouselab_quiz_misaligned", "trial_type": "survey-multi-choice", "trial_index": 6, "time_elapsed": 513813, "internal_node_id": "0.0-2.0-4.0"}}, {"uniqueid": "w97138169:a11302186", "current_trial": 7, "dateTime": 1693390544877, "trialdata": {"rt": 5199, "response": {"Q0": "No"}, "question_order": [0], "trial_id": "repeat_check", "trial_type": "survey-multi-choice", "trial_index": 7, "time_elapsed": 519031, "internal_node_id": "0.0-4.0-0.0"}}, {"uniqueid": "w97138169:a11302186", "current_trial": 8, "dateTime": 1693390552066, "trialdata": {"rt": 7172, "stimulus": "\n<h1> Get ready to start the game! </h1>\n\nThank you for reading the instructions. Get ready start with the 40 rounds of this game.\n<br><br>\nIf you need to take a break, feel free to take one after the end of a round, before continuing to the next one.\n<br><br>\nRemember, the more money the spider gets, the bigger your bonus will be!\n<br><br>\n<div style='text-align: center;'>Press <code>space</code> to begin.</div>\n\n<br><br>\n(If, at any point, the <code>space</code> key does not take you to the next page, click once on the text and try again.)", "response": " ", "trial_id": "mdp_ready", "trial_type": "html-keyboard-response", "trial_index": 8, "time_elapsed": 526220, "internal_node_id": "0.0-6.0-0.0"}}, {"uniqueid": "w97138169:a11302186", "current_trial": 9, "dateTime": 1693390596326, "trialdata": {"revealed_states": [], "clicked_states": ["12", "13", "14", "15", "16", "19", "21", "18", "24", "25", "30", "32", "2", "1", "3", "4", "5", "11"], "num_clicks_accrued": [0, 0, 0, 0, 0, 0, 0, 0, 0, 0, 0, 0, 0], "stateRewards": ["", -1, 2, -7, -12, -62, 12, -13, 5, 77, -71, 83, 1, -4, 7, 15, -42, -87, -4, 5, -25, 44, 88, -1, 4, -5, -8, 14, 51, 8, -5, 83, -24, -19], "withholdReward": false, "trial_id": "mdp_trial_1", "block": "test", "trialIndex": 2, "score": -90.5, "costs": -22.499999999999996, "simulationMode": [null, null, null, null, null], "rewards": [1, -4, 7, 15, -87], "path": ["0", "0", "12", "13", "14", "15", "17"], "rt": [32073, 79, 80, 1450, 684], "actions": ["right", "right", "right", "up", "right"], "actionTimes": [35188, 35806, 36425, 38395, 39598], "queries": {"click": {"state": {"target": ["12", "13", "14", "15", "16", "19", "21", "18", "24", "25", "30", "32", "2", "1", "3", "4", "5", "11"], "time": [3985, 4770, 5656, 6356, 6992, 9909, 10861, 13779, 18751, 20035, 20938, 21757, 24590, 25360, 26095, 26778, 27361, 30412]}, "edge": {"target": [], "time": []}}, "mouseover": {"state": {"target": ["12", "13", "14", "15", "16", "19", "19", "21", "19", "21", "23", "15", "15", "18", "15", "17", "15", "23", "31", "25", "24", "25", "30", "32", "31", "23", "1", "1", "2", "1", "2", "1", "3", "4", "5", "8", "11", "8", "9", "8", "10", "0", "0", "0"], "time": [3623, 4352, 5236, 6019, 6787, 7640, 8458, 8977, 9157, 10408, 11792, 13144, 13365, 13579, 14370, 14405, 15747, 16065, 18191, 18259, 18575, 19572, 20569, 21469, 22106, 22161, 22198, 22490, 23591, 23855, 24390, 25058, 25910, 26527, 27168, 28059, 30251, 30796, 32018, 32918, 32983, 33323, 33964, 34256]}, "edge": {"target": [], "time": []}}, "mouseout": {"state": {"target": ["0", "12", "13", "14", "15", "16", "15", "14", "19", "19", "21", "19", "21", "23", "15", "15", "18", "15", "17", "15", "18", "23", "31", "25", "24", "25", "30", "32", "31", "23", "1", "1", "2", "1", "2", "1", "2", "3", "4", "5", "8", "11", "8", "9", "8", "10", "0", "0", "0"], "time": [2283, 4235, 5118, 5939, 6668, 7425, 7525, 7590, 8290, 8875, 9123, 10307, 11293, 12994, 13165, 13428, 14348, 14389, 15714, 15763, 15783, 17494, 18202, 18439, 19338, 20468, 21436, 22073, 22137, 22178, 22218, 23522, 23790, 24277, 25007, 25658, 25740, 26492, 27117, 27727, 29982, 30746, 31914, 32884, 32951, 33015, 33401, 34009, 34391]}, "edge": {"target": [], "time": []}}}, "displayed_time": "40.12", "trialTime": 43300, "trial_type": "mouselab-mdp", "trial_index": 9, "time_elapsed": 570480, "internal_node_id": "0.0-6.0-1.0-0.0"}}, {"uniqueid": "w97138169:a11302186", "current_trial": 10, "dateTime": 1693390631459, "trialdata": {"revealed_states": [], "clicked_states": ["23", "24", "25", "30", "31", "32", "1", "2", "3", "4", "6", "8", "9", "13", "12", "14", "15", "16"], "num_clicks_accrued": [0, 0, 0, 0, 0, 0, 0, 0, 0, 0, 0, 0, 0], "stateRewards": ["", -1, 4, -5, 9, 29, -75, -42, -16, 24, -28, -41, 2, -3, 1, 10, 60, 47, 55, -1, -53, 22, -40, 2, -3, -6, 4, -26, 44, 54, 15, -76, 42, 14], "withholdReward": false, "trial_id": "mdp_trial_2", "block": "test", "trialIndex": 3, "score": 0.8999999999999986, "costs": -20.1, "simulationMode": [null, null, null, null, null, null], "rewards": [2, -3, 1, -1, 22], "path": ["0", "0", "12", "13", "14", "19", "21"], "rt": [25690, 129, 87, 89, 929, 22], "actions": ["right", "right", "right", "right", "down", "down"], "actionTimes": [27854, 27986, 28602, 29220, 30661, 31223], "queries": {"click": {"state": {"target": ["23", "24", "25", "30", "31", "32", "1", "2", "3", "4", "6", "8", "9", "13", "12", "14", "15", "16"], "time": [2997, 3782, 4599, 5516, 6283, 9586, 12673, 13576, 14327, 15126, 15962, 18812, 19581, 22366, 23070, 24036, 24871, 25403]}, "edge": {"target": [], "time": []}}, "mouseover": {"state": {"target": ["23", "24", "25", "30", "31", "33", "32", "30", "25", "26", "28", "1", "2", "3", "4", "6", "7", "5", "8", "9", "11", "10", "2", "18", "13", "12", "14", "15", "15", "16", "17", "18"], "time": [2706, 3465, 4280, 5048, 5935, 6835, 9288, 9986, 10052, 10603, 11755, 12370, 13293, 13974, 14811, 15758, 16611, 17879, 18562, 19263, 20463, 21516, 21556, 21782, 22181, 22851, 23685, 24367, 24667, 25172, 25877, 26937]}, "edge": {"target": [], "time": []}}, "mouseout": {"state": {"target": ["0", "23", "24", "25", "30", "31", "30", "33", "32", "30", "25", "26", "28", "1", "2", "3", "4", "6", "7", "4", "5", "8", "9", "11", "10", "2", "18", "13", "13", "12", "13", "14", "15", "15", "16", "17", "15", "18"], "time": [2662, 3413, 4195, 5001, 5899, 6649, 6750, 9197, 9952, 10019, 10059, 11707, 12222, 12881, 13877, 14691, 15574, 16309, 17511, 17594, 18345, 18855, 20200, 21416, 21536, 21588, 21900, 22432, 22736, 23620, 23653, 24302, 24518, 24913, 25766, 26805, 26904, 33037]}, "edge": {"target": [], "time": []}}}, "displayed_time": "31.73", "trialTime": 34148, "trial_type": "mouselab-mdp", "trial_index": 10, "time_elapsed": 605612, "internal_node_id": "0.0-6.0-1.0-1.0"}}, {"uniqueid": "w97138169:a11302186", "current_trial": 11, "dateTime": 1693390657053, "trialdata": {"revealed_states": [], "clicked_states": ["1", "2", "3", "4", "7", "6", "23", "24", "25", "30", "32", "14"], "num_clicks_accrued": [0, 0, 0, 0, 0, 0, 0, 0, 0, 0, 0, 0, 0], "stateRewards": ["", -1, -2, 4, 9, 10, -75, 39, 16, -43, 88, -19, -1, 1, 2, 4, -31, 10, 73, 12, 41, -64, -81, -2, 2, -6, 1, -81, -1, -26, 3, -59, -3, -20], "withholdReward": false, "trial_id": "mdp_trial_3", "block": "test", "trialIndex": 4, "score": -62.6, "costs": -12.6, "simulationMode": [null, null, null, null, null], "rewards": [-1, 1, 2, 12, -64], "path": ["0", "0", "12", "13", "14", "19", "21"], "rt": [17002, 59, 43, 631, 24], "actions": ["right", "right", "right", "down", "down"], "actionTimes": [18938, 19511, 20096, 21266, 21828], "queries": {"click": {"state": {"target": ["1", "2", "3", "4", "7", "6", "23", "24", "25", "30", "32", "14"], "time": [2776, 3461, 4480, 5164, 5814, 9116, 11893, 12571, 13343, 14030, 14791, 17608]}, "edge": {"target": [], "time": []}}, "mouseover": {"state": {"target": ["1", "2", "7", "3", "4", "7", "6", "5", "6", "4", "3", "8", "10", "23", "24", "25", "30", "32", "12", "13", "14", "13", "12"], "time": [2537, 3209, 3909, 4246, 4831, 5557, 6224, 7246, 8893, 9433, 9501, 9702, 10869, 11705, 12251, 13053, 13708, 14473, 15456, 16790, 17440, 18191, 18325]}, "edge": {"target": [], "time": []}}, "mouseout": {"state": {"target": ["12", "12", "0", "1", "2", "7", "3", "4", "7", "6", "5", "6", "4", "3", "8", "10", "23", "23", "24", "25", "30", "32", "12", "13", "14", "13", "12"], "time": [22, 758, 2300, 2808, 3843, 4192, 4764, 5525, 6115, 6864, 8736, 9216, 9467, 9549, 10738, 11418, 12001, 12189, 12988, 13671, 14403, 15106, 16722, 17342, 18125, 18260, 18391]}, "edge": {"target": [], "time": []}}}, "displayed_time": "22.36", "trialTime": 24652, "trial_type": "mouselab-mdp", "trial_index": 11, "time_elapsed": 631206, "internal_node_id": "0.0-6.0-1.0-2.0"}}, {"uniqueid": "w97138169:a11302186", "current_trial": 12, "dateTime": 1693390675041, "trialdata": {"revealed_states": [], "clicked_states": ["12", "1", "2", "23", "24"], "num_clicks_accrued": [0, 0, 0, 0, 0, 0, 0, 0, 0, 0, 0, 0, 0], "stateRewards": ["", 2, -1, 8, -2, -16, 69, -39, -7, -13, -27, -86, 2, -2, 2, 13, -34, -16, -20, -5, 19, 81, 32, -2, -1, 2, -14, 20, 80, 58, 4, 70, 12, 73], "withholdReward": false, "trial_id": "mdp_trial_4", "block": "test", "trialIndex": 5, "score": -18.95, "costs": 0.050000000000000044, "simulationMode": [null, null, null, null, null], "rewards": [2, -2, 2, 13, -34], "path": ["0", "0", "12", "13", "14", "15", "16"], "rt": [7717, 71, 39, 1402, 77], "actions": ["right", "right", "right", "up", "up"], "actionTimes": [9613, 10220, 10773, 12686, 13281], "queries": {"click": {"state": {"target": ["12", "1", "2", "23", "24"], "time": [2833, 3670, 4718, 5587, 7354]}, "edge": {"target": [], "time": []}}, "mouseover": {"state": {"target": ["12", "1", "2", "23", "24"], "time": [2562, 3200, 4266, 5285, 6501]}, "edge": {"target": [], "time": []}}, "mouseout": {"state": {"target": ["0", "0", "23", "23", "0", "12", "1", "2", "23", "23", "24", "12"], "time": [24, 390, 469, 918, 1143, 3115, 3972, 5168, 5647, 6219, 7788, 15297]}, "edge": {"target": [], "time": []}}}, "displayed_time": "15.93", "trialTime": 16937, "trial_type": "mouselab-mdp", "trial_index": 12, "time_elapsed": 649195, "internal_node_id": "0.0-6.0-1.0-3.0"}}, {"uniqueid": "w97138169:a11302186", "current_trial": 13, "dateTime": 1693390697215, "trialdata": {"revealed_states": [], "clicked_states": ["23", "24", "25", "26", "27", "13", "12", "14", "15", "16"], "num_clicks_accrued": [0, 0, 0, 0, 0, 0, 0, 0, 0, 0, 0, 0, 0], "stateRewards": ["", -2, 1, -8, 12, -65, -79, 16, 7, -80, -17, -45, -2, 2, -5, -2, -85, 23, -4, -7, 48, 27, -76, 2, 3, 5, 2, 43, 71, -13, 7, -49, 59, -31], "withholdReward": false, "trial_id": "mdp_trial_5", "block": "test", "trialIndex": 6, "score": 66.5, "costs": -9.5, "simulationMode": [null, null, null, null, null], "rewards": [2, 3, 5, 7, 59], "path": ["0", "0", "23", "24", "25", "30", "32"], "rt": [13587, 67, 63, 987, 69], "actions": ["left", "left", "left", "down", "down"], "actionTimes": [15399, 16006, 16602, 18111, 18694], "queries": {"click": {"state": {"target": ["23", "24", "25", "26", "27", "13", "12", "14", "15", "16"], "time": [2584, 3303, 3970, 4620, 5221, 8138, 9125, 10033, 10626, 11192]}, "edge": {"target": [], "time": []}}, "mouseover": {"state": {"target": ["23", "24", "25", "26", "27", "1", "13", "12", "12", "13", "12", "12", "14", "15", "16", "18", "17", "17", "19", "14"], "time": [2351, 2982, 3669, 4353, 4945, 5685, 5802, 6070, 6885, 7921, 8873, 9073, 9739, 10358, 10991, 11925, 13441, 13778, 14276, 14590]}, "edge": {"target": [], "time": []}}, "mouseout": {"state": {"target": ["0", "23", "24", "25", "26", "27", "1", "13", "12", "12", "13", "12", "12", "14", "15", "16", "16", "18", "15", "17", "17", "19", "14"], "time": [1123, 2936, 3626, 4212, 4878, 5568, 5718, 6019, 6703, 7840, 8840, 8972, 9472, 10209, 10780, 11313, 11744, 13126, 13410, 13463, 14129, 14501, 21104]}, "edge": {"target": [], "time": []}}}, "displayed_time": "19.23", "trialTime": 21226, "trial_type": "mouselab-mdp", "trial_index": 13, "time_elapsed": 671369, "internal_node_id": "0.0-6.0-1.0-4.0"}}, {"uniqueid": "w97138169:a11302186", "current_trial": 14, "dateTime": 1693390716791, "trialdata": {"revealed_states": [], "clicked_states": ["23", "24", "12", "13", "14", "19", "21"], "num_clicks_accrued": [0, 0, 0, 0, 0, 0, 0, 0, 0, 0, 0, 0, 0], "stateRewards": ["", -1, 2, 7, 8, 75, 67, -11, 6, 52, -17, 38, -1, 4, -8, 14, 74, -37, -17, -12, 52, 55, 71, -2, -1, -5, 2, 21, 6, -88, -14, 64, -61, -47], "withholdReward": false, "trial_id": "mdp_trial_6", "block": "test", "trialIndex": 7, "score": 78.15, "costs": -4.85, "simulationMode": [null, null, null, null, null, null], "rewards": [-1, 2, 7, 8, 67], "path": ["0", "0", "1", "2", "3", "4", "6"], "rt": [6892, 162, 59, 98, 494, 109], "actions": ["up", "up", "up", "up", "right", "right"], "actionTimes": [8844, 9009, 9595, 10209, 11215, 11867], "queries": {"click": {"state": {"target": ["23", "24", "12", "13", "14", "19", "21"], "time": [2755, 3610, 4377, 5110, 5977, 6779, 7579]}, "edge": {"target": [], "time": []}}, "mouseover": {"state": {"target": ["23", "24", "0", "12", "13", "14", "19", "21"], "time": [2521, 3161, 4039, 4081, 4806, 5759, 6442, 7225]}, "edge": {"target": [], "time": []}}, "mouseout": {"state": {"target": ["19", "22", "0", "23", "24", "23", "0", "12", "13", "14", "19", "21", "19", "22", "22"], "time": [562, 619, 2476, 3074, 3939, 4006, 4060, 4726, 5706, 6345, 7112, 7942, 13535, 14086, 15087]}, "edge": {"target": [], "time": []}}}, "displayed_time": "16.02", "trialTime": 18516, "trial_type": "mouselab-mdp", "trial_index": 14, "time_elapsed": 690944, "internal_node_id": "0.0-6.0-1.0-5.0"}}, {"uniqueid": "w97138169:a11302186", "current_trial": 15, "dateTime": 1693390736512, "trialdata": {"revealed_states": [], "clicked_states": ["23", "24", "25", "26", "27", "12", "13", "14", "15", "16"], "num_clicks_accrued": [0, 0, 0, 0, 0, 0, 0, 0, 0, 0, 0, 0, 0], "stateRewards": ["", 1, 2, 7, 13, 88, -71, 27, 3, 60, 5, -53, -2, 2, -6, -1, -30, 79, 47, -4, -14, 46, 68, 1, 1, 8, 10, -14, 86, 48, -11, -67, -44, 5], "withholdReward": false, "trial_id": "mdp_trial_7", "block": "test", "trialIndex": 8, "score": -49.5, "costs": -9.5, "simulationMode": [null, null, null, null, null, null], "rewards": [1, 2, 7, 3, -53], "path": ["0", "0", "1", "2", "3", "8", "11"], "rt": [10698, 175, 915, 45, 1093, 93], "actions": ["up", "up", "up", "up", "left", "left"], "actionTimes": [12391, 12569, 14011, 14596, 16227, 16846], "queries": {"click": {"state": {"target": ["23", "24", "25", "26", "27", "12", "13", "14", "15", "16"], "time": [2964, 3714, 4351, 4866, 5388, 8870, 9440, 9956, 10498, 10986]}, "edge": {"target": [], "time": []}}, "mouseover": {"state": {"target": ["0", "23", "23", "24", "25", "26", "27", "29", "30", "32", "12", "13", "14", "15", "16"], "time": [2066, 2460, 2797, 3483, 4065, 4584, 5109, 5898, 7268, 7817, 8647, 9169, 9750, 10263, 10782]}, "edge": {"target": [], "time": []}}, "mouseout": {"state": {"target": ["0", "0", "23", "23", "24", "25", "26", "27", "29", "30", "32", "12", "13", "14", "15", "16"], "time": [974, 2110, 2516, 3349, 4015, 4498, 4990, 5734, 7117, 7751, 8286, 9104, 9623, 10128, 10674, 11035]}, "edge": {"target": [], "time": []}}}, "displayed_time": "17.37", "trialTime": 18758, "trial_type": "mouselab-mdp", "trial_index": 15, "time_elapsed": 710665, "internal_node_id": "0.0-6.0-1.0-6.0"}}, {"uniqueid": "w97138169:a11302186", "current_trial": 16, "dateTime": 1693390753983, "trialdata": {"revealed_states": [], "clicked_states": ["1", "2", "3", "4", "7"], "num_clicks_accrued": [0, 0, 0, 0, 0, 0, 0, 0, 0, 0, 0, 0, 0], "stateRewards": ["", 1, -1, -7, -7, -22, 15, -13, 13, 26, -32, 38, -1, 1, -7, -4, 16, -62, 86, 12, -54, 56, 64, -2, -1, 6, 14, -57, 37, 62, -6, -25, 50, -70], "withholdReward": false, "trial_id": "mdp_trial_8", "block": "test", "trialIndex": 9, "score": 42.25, "costs": -4.75, "simulationMode": [null, null, null, null, null, null], "rewards": [-2, -1, 6, -6, 50], "path": ["0", "0", "23", "24", "25", "30", "32"], "rt": [5441, 162, 78, 126, 945, 104], "actions": ["left", "left", "left", "left", "down", "down"], "actionTimes": [6896, 7061, 7670, 8334, 9819, 10449], "queries": {"click": {"state": {"target": ["1", "2", "3", "4", "7"], "time": [2344, 2896, 3546, 4130, 4713]}, "edge": {"target": [], "time": []}}, "mouseover": {"state": {"target": ["1", "2", "3", "4", "7", "13", "12"], "time": [2149, 2692, 3346, 3915, 4463, 5297, 5529]}, "edge": {"target": [], "time": []}}, "mouseout": {"state": {"target": ["16", "16", "0", "1", "2", "3", "3", "4", "7", "13", "12", "22"], "time": [24, 38, 686, 2579, 3238, 3652, 3848, 4436, 5107, 5332, 12128, 12420]}, "edge": {"target": [], "time": []}}}, "displayed_time": "15.54", "trialTime": 16423, "trial_type": "mouselab-mdp", "trial_index": 16, "time_elapsed": 728137, "internal_node_id": "0.0-6.0-1.0-7.0"}}, {"uniqueid": "w97138169:a11302186", "current_trial": 17, "dateTime": 1693390771406, "trialdata": {"revealed_states": [], "clicked_states": ["23", "24", "25", "26", "28", "1"], "num_clicks_accrued": [0, 0, 0, 0, 0, 0, 0, 0, 0, 0, 0, 0, 0], "stateRewards": ["", 2, -1, 5, 6, 10, 86, 55, 10, -45, 63, -71, 1, -2, 5, -8, -50, -72, 36, 15, 61, 12, 33, -1, -4, 6, 5, 79, -56, -21, -16, -87, 60, -81], "withholdReward": false, "trial_id": "mdp_trial_9", "block": "test", "trialIndex": 10, "score": 93.5, "costs": -4.5, "simulationMode": [null, null, null, null, null], "rewards": [2, -1, 5, 6, 86], "path": ["0", "0", "1", "2", "3", "4", "6"], "rt": [8189, 13, 135, 396, 119], "actions": ["up", "up", "up", "right", "right"], "actionTimes": [9709, 10256, 10913, 11824, 12465], "queries": {"click": {"state": {"target": ["23", "24", "25", "26", "28", "1"], "time": [2310, 2864, 3413, 3929, 5163, 8484]}, "edge": {"target": [], "time": []}}, "mouseover": {"state": {"target": ["23", "24", "25", "26", "28", "30", "12", "13", "2", "1"], "time": [2062, 2611, 3221, 3685, 5020, 5798, 6936, 7517, 8071, 8373]}, "edge": {"target": [], "time": []}}, "mouseout": {"state": {"target": ["0", "23", "24", "25", "26", "26", "28", "25", "30", "12", "13", "2", "1", "1"], "time": [778, 2410, 2922, 3599, 4192, 4797, 5650, 5746, 6398, 7448, 7916, 8226, 8600, 14110]}, "edge": {"target": [], "time": []}}}, "displayed_time": "15.57", "trialTime": 16403, "trial_type": "mouselab-mdp", "trial_index": 17, "time_elapsed": 745560, "internal_node_id": "0.0-6.0-1.0-8.0"}}, {"uniqueid": "w97138169:a11302186", "current_trial": 18, "dateTime": 1693390788813, "trialdata": {"revealed_states": [], "clicked_states": ["1", "2", "3", "8", "10"], "num_clicks_accrued": [0, 0, 0, 0, 0, 0, 0, 0, 0, 0, 0, 0, 0], "stateRewards": ["", 2, 4, -5, 7, 81, 35, 6, 11, 14, -72, 42, -1, 2, 3, -7, -77, -44, -40, -15, -85, 51, -32, -2, -1, -5, 7, -74, 47, 52, 16, -49, 48, -46], "withholdReward": false, "trial_id": "mdp_trial_10", "block": "test", "trialIndex": 11, "score": -84.75, "costs": -4.75, "simulationMode": [null, null, null, null, null, null], "rewards": [-1, 2, 3, -7, -77], "path": ["0", "0", "12", "13", "14", "15", "16"], "rt": [4335, 147, 100, 114, 679, 119], "actions": ["right", "right", "right", "right", "up", "up"], "actionTimes": [5897, 6046, 6660, 7305, 8520, 9161], "queries": {"click": {"state": {"target": ["1", "2", "3", "8", "10"], "time": [2143, 2629, 3095, 3847, 4317]}, "edge": {"target": [], "time": []}}, "mouseover": {"state": {"target": ["1", "2", "3", "8", "8", "10"], "time": [1930, 2416, 2879, 3378, 3674, 4086]}, "edge": {"target": [], "time": []}}, "mouseout": {"state": {"target": ["0", "1", "2", "3", "3", "8", "8", "10", "23"], "time": [781, 2324, 2812, 3168, 3350, 3407, 4039, 4862, 11346]}, "edge": {"target": [], "time": []}}}, "displayed_time": "15.60", "trialTime": 16350, "trial_type": "mouselab-mdp", "trial_index": 18, "time_elapsed": 762967, "internal_node_id": "0.0-6.0-1.0-9.0"}}, {"uniqueid": "w97138169:a11302186", "current_trial": 19, "dateTime": 1693390808849, "trialdata": {"revealed_states": [], "clicked_states": ["1", "2", "3", "4", "7", "10", "12", "13", "14"], "num_clicks_accrued": [0, 0, 0, 0, 0, 0, 0, 0, 0, 0, 0, 0, 0], "stateRewards": ["", 1, 4, 5, -5, 58, -80, 75, 6, 25, -39, 46, 2, -2, 4, 2, 59, 31, -22, -12, -61, 15, 72, 1, -2, -7, 8, 77, 76, -23, -7, 71, -15, -3], "withholdReward": false, "trial_id": "mdp_trial_11", "block": "test", "trialIndex": 12, "score": 68.05, "costs": -7.95, "simulationMode": [null, null, null, null, null], "rewards": [1, -2, -7, 8, 76], "path": ["0", "0", "23", "24", "25", "26", "28"], "rt": [12105, 96, 99, 842, 345], "actions": ["left", "left", "left", "up", "right"], "actionTimes": [13852, 14460, 15081, 16441, 17329], "queries": {"click": {"state": {"target": ["1", "2", "3", "4", "7", "10", "12", "13", "14"], "time": [2762, 3247, 3846, 4381, 4950, 7983, 11253, 12056, 12823]}, "edge": {"target": [], "time": []}}, "mouseover": {"state": {"target": ["0", "0", "1", "2", "3", "4", "7", "6", "5", "8", "10", "23", "23", "24", "25", "24", "23", "0", "12", "13", "14"], "time": [1777, 2414, 2516, 3044, 3581, 4222, 4744, 5316, 6114, 7117, 7836, 8751, 9120, 9569, 10189, 10840, 10885, 10943, 11110, 11851, 12674]}, "edge": {"target": [], "time": []}}, "mouseout": {"state": {"target": ["0", "0", "0", "1", "2", "3", "3", "4", "7", "6", "5", "8", "10", "10", "23", "23", "24", "25", "24", "23", "0", "12", "13"], "time": [962, 2077, 2447, 2946, 3290, 3986, 4148, 4642, 4988, 6013, 6948, 7700, 8025, 8670, 8807, 9522, 10143, 10807, 10863, 10919, 11031, 11785, 12571]}, "edge": {"target": [], "time": []}}}, "displayed_time": "17.87", "trialTime": 19084, "trial_type": "mouselab-mdp", "trial_index": 19, "time_elapsed": 783003, "internal_node_id": "0.0-6.0-1.0-10.0"}}, {"uniqueid": "w97138169:a11302186", "current_trial": 20, "dateTime": 1693390826760, "trialdata": {"revealed_states": [], "clicked_states": ["23", "24", "25", "30", "32"], "num_clicks_accrued": [0, 0, 0, 0, 0, 0, 0, 0, 0, 0, 0, 0, 0], "stateRewards": ["", 2, -1, -1, -9, -81, -30, 55, -6, 78, 25, 62, 2, 4, -1, 9, -85, 1, -19, 1, -60, 12, -34, 1, 4, -1, -13, -24, -16, -83, -8, 16, 43, 9], "withholdReward": false, "trial_id": "mdp_trial_12", "block": "test", "trialIndex": 13, "score": -58.75, "costs": -4.75, "simulationMode": [null, null, null, null, null, null], "rewards": [2, 4, -1, 1, -60], "path": ["0", "0", "12", "13", "14", "19", "20"], "rt": [5963, 176, 101, 143, 725, 328], "actions": ["right", "right", "right", "right", "down", "right"], "actionTimes": [8252, 8432, 9061, 9736, 10986, 11840], "queries": {"click": {"state": {"target": ["23", "24", "25", "30", "32"], "time": [3646, 4149, 4699, 5134, 5704]}, "edge": {"target": [], "time": []}}, "mouseover": {"state": {"target": ["0", "23", "23", "24", "25", "30", "32"], "time": [2323, 3157, 3450, 3930, 4445, 4886, 5315]}, "edge": {"target": [], "time": []}}, "mouseout": {"state": {"target": ["14", "14", "0", "0", "23", "23", "23", "24", "25", "30", "30", "32"], "time": [25, 41, 692, 2729, 3191, 3728, 3832, 4381, 4841, 5222, 5312, 5958]}, "edge": {"target": [], "time": []}}}, "displayed_time": "16.32", "trialTime": 16857, "trial_type": "mouselab-mdp", "trial_index": 20, "time_elapsed": 800914, "internal_node_id": "0.0-6.0-1.0-11.0"}}, {"uniqueid": "w97138169:a11302186", "current_trial": 21, "dateTime": 1693390844625, "trialdata": {"revealed_states": [], "clicked_states": ["12", "13", "14", "15", "18"], "num_clicks_accrued": [0, 0, 0, 0, 0, 0, 0, 0, 0, 0, 0, 0, 0], "stateRewards": ["", 2, 4, 7, 7, -79, -2, -21, -5, -53, 47, -21, 1, -3, -1, 7, 83, 7, 84, -7, 80, -37, 69, 2, -4, 5, 2, 4, -20, -30, 7, 71, 44, -81], "withholdReward": false, "trial_id": "mdp_trial_13", "block": "test", "trialIndex": 14, "score": 49.25, "costs": -4.75, "simulationMode": [null, null, null, null, null, null], "rewards": [2, -4, 5, 7, 44], "path": ["0", "0", "23", "24", "25", "30", "32"], "rt": [5065, 133, 56, 90, 216, 78], "actions": ["left", "left", "left", "left", "down", "down"], "actionTimes": [6626, 6762, 7343, 7953, 8706, 9303], "queries": {"click": {"state": {"target": ["12", "13", "14", "15", "18"], "time": [3009, 3595, 4097, 4528, 5079]}, "edge": {"target": [], "time": []}}, "mouseover": {"state": {"target": ["0", "12", "13", "12", "13", "14", "15", "18"], "time": [1880, 1937, 2420, 2825, 3377, 3977, 4361, 4825]}, "edge": {"target": [], "time": []}}, "mouseout": {"state": {"target": ["0", "0", "12", "13", "12", "13", "14", "15", "18", "14", "22"], "time": [833, 1903, 1993, 2791, 3308, 3820, 4222, 4759, 5483, 11083, 13615]}, "edge": {"target": [], "time": []}}}, "displayed_time": "15.63", "trialTime": 16852, "trial_type": "mouselab-mdp", "trial_index": 21, "time_elapsed": 818779, "internal_node_id": "0.0-6.0-1.0-12.0"}}, {"uniqueid": "w97138169:a11302186", "current_trial": 22, "dateTime": 1693390862411, "trialdata": {"revealed_states": [], "clicked_states": ["1", "2", "3", "8", "10"], "num_clicks_accrued": [0, 0, 0, 0, 0, 0, 0, 0, 0, 0, 0, 0, 0], "stateRewards": ["", -1, -3, -6, 14, 41, 18, 63, -14, 80, 21, 17, -2, -4, -2, -5, 13, 70, 8, -4, -64, -10, -20, 2, -1, 4, -1, -17, -55, 42, -7, 47, 54, 15], "withholdReward": false, "trial_id": "mdp_trial_14", "block": "test", "trialIndex": 15, "score": -4.75, "costs": -4.75, "simulationMode": [null, null, null, null, null], "rewards": [-2, -4, -2, -5, 13], "path": ["0", "0", "12", "13", "14", "15", "16"], "rt": [8881, 71, 147, 717, 761], "actions": ["right", "right", "right", "up", "up"], "actionTimes": [10483, 11079, 11754, 12992, 14286], "queries": {"click": {"state": {"target": ["1", "2", "3", "8", "10"], "time": [2791, 3442, 4110, 4711, 5295]}, "edge": {"target": [], "time": []}}, "mouseover": {"state": {"target": ["1", "2", "3", "8", "10", "23"], "time": [2532, 3171, 3862, 4467, 5106, 6128]}, "edge": {"target": [], "time": []}}, "mouseout": {"state": {"target": ["0", "1", "1", "2", "3", "8", "10", "23"], "time": [787, 2873, 3094, 3584, 4415, 5011, 5995, 6193]}, "edge": {"target": [], "time": []}}}, "displayed_time": "15.69", "trialTime": 16817, "trial_type": "mouselab-mdp", "trial_index": 22, "time_elapsed": 836565, "internal_node_id": "0.0-6.0-1.0-13.0"}}, {"uniqueid": "w97138169:a11302186", "current_trial": 23, "dateTime": 1693390880153, "trialdata": {"revealed_states": [], "clicked_states": ["1", "2", "3", "4", "7"], "num_clicks_accrued": [0, 0, 0, 0, 0, 0, 0, 0, 0, 0, 0, 0, 0], "stateRewards": ["", 2, -3, -5, 5, 11, -9, -33, 6, 67, 6, -30, -1, -2, -6, 13, 55, 13, 72, -14, 75, 21, -66, -2, -4, 6, 15, -1, -35, 60, 2, 51, -73, 12], "withholdReward": false, "trial_id": "mdp_trial_15", "block": "test", "trialIndex": 16, "score": 47.25, "costs": -4.75, "simulationMode": [null, null, null, null, null], "rewards": [-1, -2, -6, -14, 75], "path": ["0", "0", "12", "13", "14", "19", "20"], "rt": [5815, 102, 14, 639, 1197], "actions": ["right", "right", "right", "down", "right"], "actionTimes": [7483, 8102, 8632, 9789, 11499], "queries": {"click": {"state": {"target": ["1", "2", "3", "4", "7"], "time": [2387, 3055, 3523, 4015, 4475]}, "edge": {"target": [], "time": []}}, "mouseover": {"state": {"target": ["1", "2", "3", "4", "7", "12", "13", "14"], "time": [2187, 2886, 3354, 3800, 4298, 4939, 5657, 6158]}, "edge": {"target": [], "time": []}}, "mouseout": {"state": {"target": ["0", "1", "2", "3", "4", "7", "7", "12", "13", "14", "22"], "time": [1838, 2804, 3258, 3751, 4249, 4549, 4802, 5609, 6086, 12593, 12705]}, "edge": {"target": [], "time": []}}}, "displayed_time": "15.75", "trialTime": 16719, "trial_type": "mouselab-mdp", "trial_index": 23, "time_elapsed": 854307, "internal_node_id": "0.0-6.0-1.0-14.0"}}, {"uniqueid": "w97138169:a11302186", "current_trial": 24, "dateTime": 1693390897680, "trialdata": {"revealed_states": [], "clicked_states": ["23", "24", "25", "30", "31"], "num_clicks_accrued": [0, 0, 0, 0, 0, 0, 0, 0, 0, 0, 0, 0, 0], "stateRewards": ["", 1, -2, -2, 10, -31, -77, 35, 9, -47, 8, 48, -2, 1, -4, -3, -26, -50, 43, -11, 76, -38, 17, 1, -1, 6, 10, 15, -9, 12, -8, 85, 11, -55], "withholdReward": false, "trial_id": "mdp_trial_16", "block": "test", "trialIndex": 17, "score": 30.25, "costs": -4.75, "simulationMode": [null, null, null, null, null, null], "rewards": [-2, 1, -4, -3, 43], "path": ["0", "0", "12", "13", "14", "15", "18"], "rt": [5232, 180, 36, 10, 711, 173], "actions": ["right", "right", "right", "right", "up", "left"], "actionTimes": [7264, 7446, 8002, 8536, 9769, 10466], "queries": {"click": {"state": {"target": ["23", "24", "25", "30", "31"], "time": [3128, 3696, 4199, 4687, 5225]}, "edge": {"target": [], "time": []}}, "mouseover": {"state": {"target": ["23", "24", "23", "24", "25", "30", "31", "32"], "time": [2313, 2436, 2886, 3445, 4028, 4494, 5047, 5766]}, "edge": {"target": [], "time": []}}, "mouseout": {"state": {"target": ["0", "23", "24", "23", "23", "24", "25", "30", "30", "31", "32", "31"], "time": [995, 2391, 2819, 3160, 3381, 3940, 4411, 4759, 4980, 5458, 6197, 6449]}, "edge": {"target": [], "time": []}}}, "displayed_time": "16.09", "trialTime": 16519, "trial_type": "mouselab-mdp", "trial_index": 24, "time_elapsed": 871834, "internal_node_id": "0.0-6.0-1.0-15.0"}}, {"uniqueid": "w97138169:a11302186", "current_trial": 25, "dateTime": 1693390919048, "trialdata": {"revealed_states": [], "clicked_states": ["1", "2", "3", "4", "7"], "num_clicks_accrued": [0, 0, 0, 0, 0, 0, 0, 0, 0, 0, 0, 0, 0], "stateRewards": ["", -1, 2, -2, 13, -56, -28, 10, 14, 53, -80, -29, 1, -3, -3, -14, 14, 9, -40, -9, 18, 18, 48, 1, 1, 1, -9, 64, -39, -9, 7, -52, -78, 7], "withholdReward": false, "trial_id": "mdp_trial_17", "block": "test", "trialIndex": 18, "score": 29.25, "costs": -4.75, "simulationMode": [null, null, null, null, null, null], "rewards": [1, -3, -3, -9, 48], "path": ["0", "0", "12", "13", "14", "19", "22"], "rt": [5375, 212, 18, 12, 778, 709], "actions": ["right", "right", "right", "right", "down", "left"], "actionTimes": [7041, 7255, 7784, 8329, 9628, 10877], "queries": {"click": {"state": {"target": ["1", "2", "3", "4", "7"], "time": [2435, 2904, 3822, 4373, 4906]}, "edge": {"target": [], "time": []}}, "mouseover": {"state": {"target": ["0", "1", "2", "3", "4", "7"], "time": [2048, 2228, 2686, 3601, 4140, 4662]}, "edge": {"target": [], "time": []}}, "mouseout": {"state": {"target": ["0", "1", "2", "3", "4", "7", "1"], "time": [2138, 2573, 3011, 4086, 4600, 5394, 13613]}, "edge": {"target": [], "time": []}}}, "displayed_time": "15.70", "trialTime": 20410, "trial_type": "mouselab-mdp", "trial_index": 25, "time_elapsed": 893202, "internal_node_id": "0.0-6.0-1.0-16.0"}}, {"uniqueid": "w97138169:a11302186", "current_trial": 26, "dateTime": 1693390937068, "trialdata": {"revealed_states": [], "clicked_states": ["12", "13", "14", "15", "17"], "num_clicks_accrued": [0, 0, 0, 0, 0, 0, 0, 0, 0, 0, 0, 0, 0], "stateRewards": ["", -1, -4, -1, -11, 43, 69, 39, 4, 17, -20, -82, -2, -1, 4, 8, -79, 24, -79, 11, 36, 64, 41, 2, 4, -1, 11, -79, -47, 75, -3, 63, -36, -19], "withholdReward": false, "trial_id": "mdp_trial_18", "block": "test", "trialIndex": 19, "score": 48.25, "costs": -4.75, "simulationMode": [null, null, null, null, null], "rewards": [-2, -1, 4, 11, 41], "path": ["0", "0", "12", "13", "14", "19", "22"], "rt": [6280, 130, 116, 286, 824], "actions": ["right", "right", "right", "down", "left"], "actionTimes": [8005, 8669, 9321, 10142, 11481], "queries": {"click": {"state": {"target": ["12", "13", "14", "15", "17"], "time": [2557, 3092, 3569, 4036, 4500]}, "edge": {"target": [], "time": []}}, "mouseover": {"state": {"target": ["12", "13", "14", "15", "17"], "time": [2349, 2877, 3355, 3818, 4342]}, "edge": {"target": [], "time": []}}, "mouseout": {"state": {"target": ["1", "1", "10", "12", "13", "14", "15", "17"], "time": [21, 33, 311, 2823, 3306, 3749, 4079, 4820]}, "edge": {"target": [], "time": []}}}, "displayed_time": "15.79", "trialTime": 17028, "trial_type": "mouselab-mdp", "trial_index": 26, "time_elapsed": 911221, "internal_node_id": "0.0-6.0-1.0-17.0"}}, {"uniqueid": "w97138169:a11302186", "current_trial": 27, "dateTime": 1693390955359, "trialdata": {"revealed_states": [], "clicked_states": ["1", "2", "3", "8", "10"], "num_clicks_accrued": [0, 0, 0, 0, 0, 0, 0, 0, 0, 0, 0, 0, 0], "stateRewards": ["", 2, 1, -3, 7, 46, 11, -36, 16, 71, 5, 1, 2, -2, -8, -3, -4, 6, 55, 7, 68, -54, 2, 1, 1, 6, -6, 42, -4, -84, -11, -65, 63, 25], "withholdReward": false, "trial_id": "mdp_trial_19", "block": "test", "trialIndex": 20, "score": 17.25, "costs": -4.75, "simulationMode": [null, null, null, null, null, null], "rewards": [1, 1, 6, -11, 25], "path": ["0", "0", "23", "24", "25", "30", "33"], "rt": [4258, 164, 86, 23, 274, 547], "actions": ["left", "left", "left", "left", "down", "left"], "actionTimes": [5649, 5816, 6433, 6981, 7769, 8827], "queries": {"click": {"state": {"target": ["1", "2", "3", "8", "10"], "time": [2465, 2933, 3423, 3915, 4391]}, "edge": {"target": [], "time": []}}, "mouseover": {"state": {"target": ["23", "1", "2", "3", "8", "10"], "time": [1899, 2247, 2700, 3208, 3661, 4214]}, "edge": {"target": [], "time": []}}, "mouseout": {"state": {"target": ["0", "23", "1", "2", "3", "8", "10", "10", "12"], "time": [1798, 2203, 2649, 3027, 3495, 4120, 4498, 4811, 10325]}, "edge": {"target": [], "time": []}}}, "displayed_time": "15.49", "trialTime": 17309, "trial_type": "mouselab-mdp", "trial_index": 27, "time_elapsed": 929513, "internal_node_id": "0.0-6.0-1.0-18.0"}}, {"uniqueid": "w97138169:a11302186", "current_trial": 28, "dateTime": 1693390973192, "trialdata": {"revealed_states": [], "clicked_states": ["23", "24", "25", "30", "31"], "num_clicks_accrued": [0, 0, 0, 0, 0, 0, 0, 0, 0, 0, 0, 0, 0], "stateRewards": ["", 2, 4, -3, 16, -58, 30, -35, 11, -60, 47, 27, -2, -1, -7, -16, 23, -70, 68, -10, -65, -43, -34, -2, 1, 7, 9, -63, 34, -31, -8, -12, -86, 59], "withholdReward": false, "trial_id": "mdp_trial_20", "block": "test", "trialIndex": 21, "score": -100.75, "costs": -4.75, "simulationMode": [null, null, null, null, null, null], "rewards": [-2, -1, -7, -16, -70], "path": ["0", "0", "12", "13", "14", "15", "17"], "rt": [5883, 168, 20, 190, 659, 149], "actions": ["right", "right", "right", "right", "up", "right"], "actionTimes": [7152, 7322, 7850, 8571, 9741, 10416], "queries": {"click": {"state": {"target": ["23", "24", "25", "30", "31"], "time": [2350, 2852, 3370, 3894, 4396]}, "edge": {"target": [], "time": []}}, "mouseover": {"state": {"target": ["23", "24", "25", "30", "31", "1", "12"], "time": [2014, 2634, 3170, 3625, 4176, 4851, 5736]}, "edge": {"target": [], "time": []}}, "mouseout": {"state": {"target": ["0", "23", "24", "25", "30", "31", "1"], "time": [427, 2567, 3102, 3597, 4123, 4688, 5620]}, "edge": {"target": [], "time": []}}}, "displayed_time": "15.33", "trialTime": 16874, "trial_type": "mouselab-mdp", "trial_index": 28, "time_elapsed": 947345, "internal_node_id": "0.0-6.0-1.0-19.0"}}, {"uniqueid": "w97138169:a11302186", "current_trial": 29, "dateTime": 1693390991697, "trialdata": {"revealed_states": [], "clicked_states": ["1", "2", "3", "4", "7"], "num_clicks_accrued": [0, 0, 0, 0, 0, 0, 0, 0, 0, 0, 0, 0, 0], "stateRewards": ["", 2, 3, -3, 12, -43, 81, -82, -15, 58, -7, -75, -1, -1, 3, -5, 50, -25, -8, 4, 66, 65, -66, 2, -4, 2, -1, -10, 10, 37, 11, 88, -37, 8], "withholdReward": false, "trial_id": "mdp_trial_21", "block": "test", "trialIndex": 22, "score": -33.75, "costs": -4.75, "simulationMode": [null, null, null, null, null, null], "rewards": [-1, -1, 3, -5, -25], "path": ["0", "0", "12", "13", "14", "15", "17"], "rt": [4680, 246, 129, 126, 763, 130], "actions": ["right", "right", "right", "right", "up", "right"], "actionTimes": [6649, 6898, 7553, 8201, 9473, 10125], "queries": {"click": {"state": {"target": ["1", "2", "3", "4", "7"], "time": [2596, 3165, 3681, 4232, 4783]}, "edge": {"target": [], "time": []}}, "mouseover": {"state": {"target": ["1", "2", "3", "4", "7"], "time": [2331, 2993, 3510, 4044, 4567]}, "edge": {"target": [], "time": []}}, "mouseout": {"state": {"target": ["12", "12", "1", "2", "3", "4", "7", "18"], "time": [745, 935, 2794, 3378, 3821, 4516, 5283, 16404]}, "edge": {"target": [], "time": []}}}, "displayed_time": "16.01", "trialTime": 17539, "trial_type": "mouselab-mdp", "trial_index": 29, "time_elapsed": 965851, "internal_node_id": "0.0-6.0-1.0-20.0"}}, {"uniqueid": "w97138169:a11302186", "current_trial": 30, "dateTime": 1693391009709, "trialdata": {"revealed_states": [], "clicked_states": ["1", "2", "3", "8", "10"], "num_clicks_accrued": [0, 0, 0, 0, 0, 0, 0, 0, 0, 0, 0, 0, 0], "stateRewards": ["", -1, 1, 8, -8, -49, 62, -78, 16, 28, -81, 78, -2, -3, -1, -4, 67, 49, -2, -13, -16, -39, 83, 1, -4, 4, -5, -20, 7, 84, 7, -32, -59, 19], "withholdReward": false, "trial_id": "mdp_trial_22", "block": "test", "trialIndex": 23, "score": -53.75, "costs": -4.75, "simulationMode": [null, null, null, null, null, null], "rewards": [-1, 1, 8, -8, -49], "path": ["0", "0", "1", "2", "3", "4", "5"], "rt": [4953, 258, 137, 245, 175, 2107], "actions": ["up", "up", "up", "up", "right", "up"], "actionTimes": [6467, 6727, 7381, 8156, 8854, 11487], "queries": {"click": {"state": {"target": ["1", "2", "3", "8", "10"], "time": [2181, 2566, 3038, 3425, 3854]}, "edge": {"target": [], "time": []}}, "mouseover": {"state": {"target": ["1", "2", "3", "8", "10", "4"], "time": [1971, 2378, 2857, 3270, 3690, 4748]}, "edge": {"target": [], "time": []}}, "mouseout": {"state": {"target": ["12", "12", "1", "2", "3", "8", "10", "2", "4", "4", "7"], "time": [20, 294, 2332, 2741, 3216, 3645, 4405, 4466, 9812, 12771, 12929]}, "edge": {"target": [], "time": []}}}, "displayed_time": "15.56", "trialTime": 17066, "trial_type": "mouselab-mdp", "trial_index": 30, "time_elapsed": 983862, "internal_node_id": "0.0-6.0-1.0-21.0"}}, {"uniqueid": "w97138169:a11302186", "current_trial": 31, "dateTime": 1693391027159, "trialdata": {"revealed_states": [], "clicked_states": ["12", "13", "14", "15", "16"], "num_clicks_accrued": [0, 0, 0, 0, 0, 0, 0, 0, 0, 0, 0, 0, 0], "stateRewards": ["", 1, 2, -6, -13, -51, 22, -4, -12, -44, -12, 6, -2, -2, -2, -14, -46, -4, -77, -2, 36, -79, 41, 2, -4, 2, -6, -55, 59, 70, -5, 39, -19, 24], "withholdReward": false, "trial_id": "mdp_trial_23", "block": "test", "trialIndex": 24, "score": -91.75, "costs": -4.75, "simulationMode": [null, null, null, null, null, null], "rewards": [-2, -2, -2, -2, -79], "path": ["0", "0", "12", "13", "14", "19", "21"], "rt": [4551, 889, 221, 195, 823, 230], "actions": ["right", "right", "right", "right", "down", "down"], "actionTimes": [5969, 6861, 7604, 8313, 9674, 10450], "queries": {"click": {"state": {"target": ["12", "13", "14", "15", "16"], "time": [2204, 2638, 3064, 3509, 3950]}, "edge": {"target": [], "time": []}}, "mouseover": {"state": {"target": ["12", "13", "14", "15", "16"], "time": [2049, 2452, 2856, 3298, 3786]}, "edge": {"target": [], "time": []}}, "mouseout": {"state": {"target": ["0", "12", "13", "14", "15", "16", "12"], "time": [688, 2403, 2830, 3219, 3737, 12061, 13265]}, "edge": {"target": [], "time": []}}}, "displayed_time": "15.45", "trialTime": 16469, "trial_type": "mouselab-mdp", "trial_index": 31, "time_elapsed": 1001312, "internal_node_id": "0.0-6.0-1.0-22.0"}}, {"uniqueid": "w97138169:a11302186", "current_trial": 32, "dateTime": 1693391046577, "trialdata": {"revealed_states": [], "clicked_states": ["23", "24", "25", "26", "27"], "num_clicks_accrued": [0, 0, 0, 0, 0, 0, 0, 0, 0, 0, 0, 0, 0], "stateRewards": ["", -1, 4, -3, 3, 57, -61, 5, -11, 23, -1, 34, -2, -4, -1, -13, 27, 38, -36, 4, -45, 21, 88, 1, -2, -1, 1, -69, -5, -78, -12, -9, 38, -54], "withholdReward": false, "trial_id": "mdp_trial_24", "block": "test", "trialIndex": 25, "score": 55.25, "costs": -4.75, "simulationMode": [null, null, null, null, null, null], "rewards": [-1, 4, -3, 3, 57], "path": ["0", "0", "1", "2", "3", "4", "5"], "rt": [7880, 638, 92, 87, 364, 2568], "actions": ["up", "up", "up", "up", "right", "up"], "actionTimes": [10420, 11061, 11691, 12287, 13164, 16270], "queries": {"click": {"state": {"target": ["23", "24", "25", "26", "27"], "time": [4367, 5154, 6054, 7437, 8139]}, "edge": {"target": [], "time": []}}, "mouseover": {"state": {"target": ["23", "23", "23", "24", "25", "26", "26", "27", "12"], "time": [3143, 3526, 4033, 4867, 5819, 6500, 7092, 7937, 9308]}, "edge": {"target": [], "time": []}}, "mouseout": {"state": {"target": ["0", "23", "23", "23", "24", "25", "26", "26", "27", "12"], "time": [2567, 3233, 3671, 4767, 5668, 6453, 6700, 7504, 8620, 9556]}, "edge": {"target": [], "time": []}}}, "displayed_time": "16.79", "trialTime": 18431, "trial_type": "mouselab-mdp", "trial_index": 32, "time_elapsed": 1020731, "internal_node_id": "0.0-6.0-1.0-23.0"}}, {"uniqueid": "w97138169:a11302186", "current_trial": 33, "dateTime": 1693391063934, "trialdata": {"revealed_states": [], "clicked_states": ["12", "13", "14", "19", "21"], "num_clicks_accrued": [0, 0, 0, 0, 0, 0, 0, 0, 0, 0, 0, 0, 0], "stateRewards": ["", 1, -4, -6, -1, -21, 17, -72, 10, 77, 67, -46, -1, 4, -2, 14, -66, -49, -45, -15, -52, 23, -67, 2, -2, -2, 15, -3, 45, -64, 5, -44, 83, 61], "withholdReward": false, "trial_id": "mdp_trial_25", "block": "test", "trialIndex": 26, "score": -45.75, "costs": -4.75, "simulationMode": [null, null, null, null, null, null], "rewards": [2, -2, -2, 5, -44], "path": ["0", "0", "23", "24", "25", "30", "31"], "rt": [4826, 546, 141, 65, 314, 289], "actions": ["left", "left", "left", "left", "down", "right"], "actionTimes": [6306, 6854, 7508, 8082, 8915, 9724], "queries": {"click": {"state": {"target": ["12", "13", "14", "19", "21"], "time": [2254, 2822, 3406, 3923, 4558]}, "edge": {"target": [], "time": []}}, "mouseover": {"state": {"target": ["12", "13", "14", "19", "21"], "time": [1886, 2571, 3219, 3682, 4351]}, "edge": {"target": [], "time": []}}, "mouseout": {"state": {"target": ["12", "12", "13", "14", "19", "21"], "time": [659, 2502, 3132, 3649, 4191, 4947]}, "edge": {"target": [], "time": []}}}, "displayed_time": "15.51", "trialTime": 16374, "trial_type": "mouselab-mdp", "trial_index": 33, "time_elapsed": 1038088, "internal_node_id": "0.0-6.0-1.0-24.0"}}, {"uniqueid": "w97138169:a11302186", "current_trial": 34, "dateTime": 1693391082170, "trialdata": {"revealed_states": [], "clicked_states": ["1", "2", "3", "4", "7"], "num_clicks_accrued": [0, 0, 0, 0, 0, 0, 0, 0, 0, 0, 0, 0, 0], "stateRewards": ["", -2, -1, -1, 5, -54, -87, 35, 2, -8, 20, -22, 1, 3, 6, 13, -75, -32, -55, -3, 56, 62, -22, -1, -4, -1, -7, -51, 84, 70, 7, -15, 5, 55], "withholdReward": false, "trial_id": "mdp_trial_26", "block": "test", "trialIndex": 27, "score": -56.75, "costs": -4.75, "simulationMode": [null, null, null, null, null, null], "rewards": [1, 3, 6, 13, -75], "path": ["0", "0", "12", "13", "14", "15", "16"], "rt": [5375, 508, 78, 146, 752, 125], "actions": ["right", "right", "right", "right", "up", "up"], "actionTimes": [7523, 8033, 8629, 9315, 10588, 11228], "queries": {"click": {"state": {"target": ["1", "2", "3", "4", "7"], "time": [2805, 3256, 3848, 4310, 4818]}, "edge": {"target": [], "time": []}}, "mouseover": {"state": {"target": ["1", "2", "3", "4", "7", "8"], "time": [2613, 3041, 3629, 4143, 4651, 5492]}, "edge": {"target": [], "time": []}}, "mouseout": {"state": {"target": ["0", "1", "2", "3", "4", "7", "8", "10", "23"], "time": [1374, 3004, 3363, 3888, 4550, 5242, 12591, 12974, 13076]}, "edge": {"target": [], "time": []}}}, "displayed_time": "16.21", "trialTime": 17258, "trial_type": "mouselab-mdp", "trial_index": 34, "time_elapsed": 1056324, "internal_node_id": "0.0-6.0-1.0-25.0"}}, {"uniqueid": "w97138169:a11302186", "current_trial": 35, "dateTime": 1693391099417, "trialdata": {"revealed_states": [], "clicked_states": ["1", "2", "3", "4", "5"], "num_clicks_accrued": [0, 0, 0, 0, 0, 0, 0, 0, 0, 0, 0, 0, 0], "stateRewards": ["", -2, -3, 8, 14, -73, 73, 84, -12, -2, -50, -17, 2, 1, -2, -9, -44, -27, -33, 16, -63, -47, -66, -2, 1, 4, -5, -33, -11, 50, 9, 38, -79, 31], "withholdReward": false, "trial_id": "mdp_trial_27", "block": "test", "trialIndex": 28, "score": -53.75, "costs": -4.75, "simulationMode": [null, null, null, null, null, null], "rewards": [2, 1, -2, 16, -66], "path": ["0", "0", "12", "13", "14", "19", "22"], "rt": [4792, 251, 54, 34, 344, 162], "actions": ["right", "right", "right", "right", "down", "left"], "actionTimes": [6323, 6576, 7145, 7702, 8579, 9265], "queries": {"click": {"state": {"target": ["1", "2", "3", "4", "5"], "time": [2488, 3057, 3608, 4126, 4652]}, "edge": {"target": [], "time": []}}, "mouseover": {"state": {"target": ["0", "1", "2", "3", "4", "5", "7"], "time": [1787, 2282, 2807, 3423, 3998, 4453, 5373]}, "edge": {"target": [], "time": []}}, "mouseout": {"state": {"target": ["0", "0", "1", "2", "3", "4", "5", "4", "7", "7", "0"], "time": [593, 2068, 2770, 3102, 3929, 4347, 5046, 5276, 10337, 10854, 11056]}, "edge": {"target": [], "time": []}}}, "displayed_time": "15.58", "trialTime": 16319, "trial_type": "mouselab-mdp", "trial_index": 35, "time_elapsed": 1073571, "internal_node_id": "0.0-6.0-1.0-26.0"}}, {"uniqueid": "w97138169:a11302186", "current_trial": 36, "dateTime": 1693391117405, "trialdata": {"revealed_states": [], "clicked_states": ["1", "2", "4", "7"], "num_clicks_accrued": [0, 0, 0, 0, 0, 0, 0, 0, 0, 0, 0, 0, 0], "stateRewards": ["", -1, -3, 3, 5, 56, 39, 50, -1, -80, 33, -46, 1, -2, -6, -8, 87, 48, 54, -11, -20, -64, -54, -2, 3, -7, -3, 12, 88, 35, -16, -46, -70, -3], "withholdReward": false, "trial_id": "mdp_trial_28", "block": "test", "trialIndex": 29, "score": 75.2, "costs": -3.8, "simulationMode": [null, null, null, null, null, null], "rewards": [-2, 3, -7, -3, 88], "path": ["0", "0", "23", "24", "25", "26", "28"], "rt": [5029, 193, 12, 13, 3003, 314], "actions": ["left", "left", "left", "left", "up", "right"], "actionTimes": [6625, 6821, 7347, 7882, 11404, 12236], "queries": {"click": {"state": {"target": ["1", "2", "4", "7"], "time": [2289, 2823, 3757, 4307]}, "edge": {"target": [], "time": []}}, "mouseover": {"state": {"target": ["1", "2", "3", "3", "4", "7", "3"], "time": [2091, 2571, 3048, 3394, 3506, 4093, 4990]}, "edge": {"target": [], "time": []}}, "mouseout": {"state": {"target": ["0", "1", "2", "3", "3", "4", "7", "3", "2", "7", "18", "13"], "time": [931, 2454, 2959, 3205, 3440, 3990, 4807, 5591, 6050, 12812, 13442, 13690]}, "edge": {"target": [], "time": []}}}, "displayed_time": "15.65", "trialTime": 17040, "trial_type": "mouselab-mdp", "trial_index": 36, "time_elapsed": 1091559, "internal_node_id": "0.0-6.0-1.0-27.0"}}, {"uniqueid": "w97138169:a11302186", "current_trial": 37, "dateTime": 1693391135087, "trialdata": {"revealed_states": [], "clicked_states": ["1", "2", "3", "4", "7", "5"], "num_clicks_accrued": [0, 0, 0, 0, 0, 0, 0, 0, 0, 0, 0, 0, 0], "stateRewards": ["", 1, -2, 4, 7, -43, -83, -60, -5, -86, -80, 83, -1, -2, 6, 11, -15, 21, 13, 9, 29, -49, 11, -1, 4, -6, -11, 87, 40, 63, -8, -39, -11, 62], "withholdReward": false, "trial_id": "mdp_trial_29", "block": "test", "trialIndex": 30, "score": 44.1, "costs": -6.9, "simulationMode": [null, null, null, null, null, null], "rewards": [-1, 4, -6, -8, 62], "path": ["0", "0", "23", "24", "25", "30", "33"], "rt": [8518, 208, 33, 79, 334, 328], "actions": ["left", "left", "left", "left", "down", "left"], "actionTimes": [10086, 10302, 10866, 11463, 12318, 13161], "queries": {"click": {"state": {"target": ["1", "2", "3", "4", "7", "5"], "time": [2400, 3117, 3734, 4301, 4837, 7721]}, "edge": {"target": [], "time": []}}, "mouseover": {"state": {"target": ["1", "2", "3", "4", "7", "6", "5"], "time": [2228, 2631, 3392, 4115, 4603, 5323, 7437]}, "edge": {"target": [], "time": []}}, "mouseout": {"state": {"target": ["0", "1", "2", "3", "4", "7", "6", "5", "16", "18", "13", "12"], "time": [2183, 2534, 3204, 4064, 4554, 5186, 7235, 9108, 15313, 15718, 15752, 15808]}, "edge": {"target": [], "time": []}}}, "displayed_time": "16.13", "trialTime": 16739, "trial_type": "mouselab-mdp", "trial_index": 37, "time_elapsed": 1109235, "internal_node_id": "0.0-6.0-1.0-28.0"}}, {"uniqueid": "w97138169:a11302186", "current_trial": 38, "dateTime": 1693391155320, "trialdata": {"revealed_states": [], "clicked_states": ["23", "24", "25", "26", "27"], "num_clicks_accrued": [0, 0, 0, 0, 0, 0, 0, 0, 0, 0, 0, 0, 0], "stateRewards": ["", 1, 1, 7, -11, 80, -20, -53, -14, 3, 31, 27, 2, -1, -8, -10, 33, 41, 86, 9, 78, -37, -13, -1, -2, -6, -8, -80, 75, 4, -16, -49, -74, 24], "withholdReward": false, "trial_id": "mdp_trial_30", "block": "test", "trialIndex": 31, "score": -15.75, "costs": -4.75, "simulationMode": [null, null, null, null, null, null], "rewards": [2, -1, -8, 9, -13], "path": ["0", "0", "12", "13", "14", "19", "22"], "rt": [4347, 234, 84, 153, 719, 1561], "actions": ["right", "right", "right", "right", "down", "left"], "actionTimes": [6044, 6282, 6891, 7554, 8803, 10896], "queries": {"click": {"state": {"target": ["23", "24", "25", "26", "27"], "time": [2518, 3008, 3542, 4011, 4545]}, "edge": {"target": [], "time": []}}, "mouseover": {"state": {"target": ["23", "24", "25", "26", "27"], "time": [2269, 2773, 3271, 3797, 4282]}, "edge": {"target": [], "time": []}}, "mouseout": {"state": {"target": ["0", "23", "24", "25", "26", "27", "23"], "time": [829, 2723, 3223, 3702, 4192, 4900, 12529]}, "edge": {"target": [], "time": []}}}, "displayed_time": "15.80", "trialTime": 19209, "trial_type": "mouselab-mdp", "trial_index": 38, "time_elapsed": 1129474, "internal_node_id": "0.0-6.0-1.0-29.0"}}, {"uniqueid": "w97138169:a11302186", "current_trial": 39, "dateTime": 1693391173556, "trialdata": {"revealed_states": [], "clicked_states": ["12", "13", "14", "15", "18"], "num_clicks_accrued": [0, 0, 0, 0, 0, 0, 0, 0, 0, 0, 0, 0, 0], "stateRewards": ["", 1, -2, 7, -14, 88, -56, -44, -14, 64, -51, -57, -2, 3, -4, -9, -11, 19, -77, -1, 68, 75, -67, -1, 1, -2, 5, -37, 70, -34, -10, -72, 63, -41], "withholdReward": false, "trial_id": "mdp_trial_31", "block": "test", "trialIndex": 32, "score": 68.25, "costs": -4.75, "simulationMode": [null, null, null, null, null], "rewards": [-1, 1, -2, 5, 70], "path": ["0", "0", "23", "24", "25", "26", "28"], "rt": [6182, 111, 91, 1366, 395], "actions": ["left", "left", "left", "up", "right"], "actionTimes": [7946, 8594, 9224, 11116, 12047], "queries": {"click": {"state": {"target": ["12", "13", "14", "15", "18"], "time": [2665, 3191, 3676, 4187, 4775]}, "edge": {"target": [], "time": []}}, "mouseover": {"state": {"target": ["12", "13", "14", "15", "18", "22", "19", "22"], "time": [2510, 2973, 3484, 3953, 4562, 5973, 6230, 6674]}, "edge": {"target": [], "time": []}}, "mouseout": {"state": {"target": ["12", "12", "13", "14", "15", "18", "12", "22", "19", "22"], "time": [856, 2919, 3435, 3888, 4428, 5505, 5640, 6021, 6628, 6727]}, "edge": {"target": [], "time": []}}}, "displayed_time": "15.84", "trialTime": 17222, "trial_type": "mouselab-mdp", "trial_index": 39, "time_elapsed": 1147709, "internal_node_id": "0.0-6.0-1.0-30.0"}}, {"uniqueid": "w97138169:a11302186", "current_trial": 40, "dateTime": 1693391203370, "trialdata": {"revealed_states": [], "clicked_states": ["1", "2", "3", "4", "5"], "num_clicks_accrued": [0, 0, 0, 0, 0, 0, 0, 0, 0, 0, 0, 0, 0], "stateRewards": ["", -1, 2, 5, -6, 13, -64, -47, 8, -79, -80, -33, 1, 2, -2, -16, 56, -71, -10, 3, 29, 44, 85, -1, 4, 5, 4, -36, -56, 19, 8, 52, -13, -2], "withholdReward": false, "trial_id": "mdp_trial_32", "block": "test", "trialIndex": 33, "score": 43.25, "costs": -4.75, "simulationMode": [null, null, null, null, null, null], "rewards": [1, 2, -2, 3, 44], "path": ["0", "0", "12", "13", "14", "19", "21"], "rt": [5630, 347, 12, 172, 202, 75], "actions": ["right", "right", "right", "right", "down", "down"], "actionTimes": [7877, 8228, 8764, 9460, 10191, 10799], "queries": {"click": {"state": {"target": ["1", "2", "3", "4", "5"], "time": [3438, 4346, 4796, 5253, 5949]}, "edge": {"target": [], "time": []}}, "mouseover": {"state": {"target": ["12", "1", "2", "3", "4", "5", "7"], "time": [2848, 3185, 3876, 4539, 5046, 5697, 6563]}, "edge": {"target": [], "time": []}}, "mouseout": {"state": {"target": ["0", "12", "1", "2", "3", "4", "5", "4", "7", "12"], "time": [2803, 3016, 3693, 4443, 4998, 5604, 6394, 6516, 6698, 12794]}, "edge": {"target": [], "time": []}}}, "displayed_time": "16.32", "trialTime": 28857, "trial_type": "mouselab-mdp", "trial_index": 40, "time_elapsed": 1177524, "internal_node_id": "0.0-6.0-1.0-31.0"}}], "questiondata": {"params": {"CODE": "C6DMOQA6", "MIN_TIME": 14, "inspectCost": 1, "startTime": "Wed Aug 30 2023 11:07:05 GMT+0100 (British Summer Time)", "bonusRate": 0.002, "variance": "1_2_4_8_44", "branching": "31123"}}, "eventdata": [{"eventtype": "initialized", "value": null, "timestamp": 1693390024842, "interval": 0}, {"eventtype": "window_resize", "value": [1920, 1000], "timestamp": 1693390024842, "interval": 0}, {"eventtype": "window_resize", "value": [1920, 1000], "timestamp": 1693390025143, "interval": 301}, {"eventtype": "window_resize", "value": [1920, 1080], "timestamp": 1693390029072, "interval": 3929}, {"eventtype": "window_resize", "value": [1920, 1000], "timestamp": 1693391230346, "interval": 1201274}, {"eventtype": "focus", "value": "off", "timestamp": 1693391241852, "interval": 11506}, {"eventtype": "focus", "value": "on", "timestamp": 1693391246610, "interval": 4758}, {"eventtype": "focus", "value": "on", "timestamp": 1693391246611, "interval": 1}, {"eventtype": "focus", "value": "off", "timestamp": 1693391248709, "interval": 2098}, {"eventtype": "focus", "value": "on", "timestamp": 1693391248767, "interval": 58}, {"eventtype": "focus", "value": "off", "timestamp": 1693391254970, "interval": 6203}, {"eventtype": "focus", "value": "on", "timestamp": 1693391263459, "interval": 8489}], "useragent": "Mozilla/5.0 (Macintosh; Intel Mac OS X 10_15_7) AppleWebKit/605.1.15 (KHTML, like Gecko) Version/16.2 Safari/605.1.15", "mode": "live", "id": "w97138169:a11302186", "status": "user data saved", "Beginhit": "2023-08-30 10:07:03.566505", "Beginexp": "2023-08-30 10:07:09.935958", "Endhit": null, "psiturkStatus": 6, "browser": "<redacted>", "platform": "macos", "language": "en-GB", "excludeReason": "dataincomplete"}