{"condition": 1, "counterbalance": 0, "assignmentId": "a63789678", "workerId": "w52675512", "hitId": "h83423521", "currenttrial": 56, "bonus": 0, "data": [{"uniqueid": "w52675512:a63789678", "current_trial": 0, "dateTime": 1691070981597, "trialdata": {"success": true, "trial_type": "fullscreen", "trial_index": 0, "time_elapsed": 9977, "internal_node_id": "0.0-0.0"}}, {"uniqueid": "w52675512:a63789678", "current_trial": 1, "dateTime": 1691071004801, "trialdata": {"view_history": [{"page_index": 0, "viewing_time": 23195}], "rt": 23195, "trial_id": "exp_instructions_misaligned", "trial_type": "instructions", "trial_index": 1, "time_elapsed": 33181, "internal_node_id": "0.0-1.0"}}, {"uniqueid": "w52675512:a63789678", "current_trial": 2, "dateTime": 1691071010406, "trialdata": {"success": true, "trial_type": "fullscreen", "trial_index": 2, "time_elapsed": 38786, "internal_node_id": "0.0-2.0-0.0"}}, {"uniqueid": "w52675512:a63789678", "current_trial": 3, "dateTime": 1691071217717, "trialdata": {"view_history": [{"page_index": 0, "viewing_time": 69473}, {"page_index": 1, "viewing_time": 83079}, {"page_index": 2, "viewing_time": 21148}, {"page_index": 3, "viewing_time": 33605}], "rt": 207306, "trial_id": "mouselab_instructions_1_misaligned", "trial_type": "instructions", "trial_index": 3, "time_elapsed": 246097, "internal_node_id": "0.0-2.0-1.0"}}, {"uniqueid": "w52675512:a63789678", "current_trial": 4, "dateTime": 1691071237545, "trialdata": {"revealed_states": [], "clicked_states": ["24", "25", "26", "27", "29", "28"], "num_clicks_accrued": [0, 0, 0, 0, 0, 0, 0, 0, 0, 0, 0, 0, 0], "stateRewards": ["", -10, 10, -10, -10, 10, -10, -10, -10, 10, 10, 10, 10, -10, 10, 10, -10, -10, -10, -10, -10, 10, -10, 10, 10, -10, 10, 10, -10, 10, 10, 10, -10, -10], "withholdReward": false, "trial_id": "practice_1", "block": "test", "trialIndex": 0, "score": 30.5, "costs": -3, "simulationMode": [null, null, null, null, null], "rewards": [10, 10, -10, 10, 10], "path": ["0", "0", "23", "24", "25", "26", "27"], "rt": [9465, 313, 179, 309, 320], "actions": ["left", "left", "left", "up", "up"], "actionTimes": [12939, 13764, 14462, 15279, 16116], "queries": {"click": {"state": {"target": ["24", "25", "26", "27", "29", "28"], "time": [4714, 5913, 6948, 8175, 9218, 10495]}, "edge": {"target": [], "time": []}}, "mouseover": {"state": {"target": ["23", "24", "25", "25", "26", "27", "29", "28", "23"], "time": [4045, 4470, 5394, 5726, 6465, 7911, 8986, 10142, 11715]}, "edge": {"target": [], "time": []}}, "mouseout": {"state": {"target": ["12", "13", "15", "18", "12", "0", "23", "24", "25", "25", "26", "27", "29", "26", "28", "23"], "time": [1087, 1158, 2173, 2351, 2680, 4006, 4378, 5344, 5452, 6332, 6964, 8713, 9733, 9877, 11682, 11757]}, "edge": {"target": [], "time": []}}}, "displayed_time": "16.63", "trialTime": 19284, "trial_type": "mouselab-mdp", "trial_index": 4, "time_elapsed": 265924, "internal_node_id": "0.0-2.0-2.0-0.0"}}, {"uniqueid": "w52675512:a63789678", "current_trial": 5, "dateTime": 1691071263407, "trialdata": {"revealed_states": [], "clicked_states": ["1", "12", "23", "24", "2", "3", "8", "11", "4", "6"], "num_clicks_accrued": [0, 0, 0, 0, 0, 0, 0, 0, 0, 0, 0, 0, 0], "stateRewards": ["", 10, -10, -10, -10, 10, 10, 10, 10, 10, -10, -10, 10, 10, 10, -10, 10, -10, -10, 10, -10, -10, -10, -10, 10, -10, -10, -10, -10, -10, -10, 10, 10, -10], "withholdReward": false, "trial_id": "practice_2", "block": "test", "trialIndex": 1, "score": -11.5, "costs": -5, "simulationMode": [null, null, null, null, null], "rewards": [10, -10, -10, -10, 10], "path": ["0", "0", "1", "2", "3", "4", "6"], "rt": [17902, 22, 38, 499, 301], "actions": ["up", "up", "up", "right", "right"], "actionTimes": [19621, 20167, 20723, 21733, 22541], "queries": {"click": {"state": {"target": ["1", "12", "23", "24", "2", "3", "8", "11", "4", "6"], "time": [2576, 3693, 5393, 6672, 8481, 9836, 11489, 13026, 15265, 16730]}, "edge": {"target": [], "time": []}}, "mouseover": {"state": {"target": ["1", "1", "12", "13", "0", "23", "23", "24", "2", "3", "8", "11", "3", "4", "6", "7"], "time": [2265, 2438, 3197, 4334, 4869, 4967, 5262, 6033, 7313, 9127, 11290, 12878, 14867, 15174, 16671, 18257]}, "edge": {"target": [], "time": []}}, "mouseout": {"state": {"target": ["1", "1", "12", "13", "12", "0", "23", "23", "24", "2", "3", "3", "3", "8", "11", "3", "4", "4", "6", "6", "7"], "time": [2297, 3020, 4234, 4777, 4843, 4909, 5121, 5887, 6939, 9043, 9930, 10625, 11133, 12853, 14446, 15150, 15276, 16331, 16741, 17224, 18685]}, "edge": {"target": [], "time": []}}}, "displayed_time": "23.06", "trialTime": 25488, "trial_type": "mouselab-mdp", "trial_index": 5, "time_elapsed": 291786, "internal_node_id": "0.0-2.0-2.0-1.0"}}, {"uniqueid": "w52675512:a63789678", "current_trial": 6, "dateTime": 1691071301012, "trialdata": {"view_history": [{"page_index": 0, "viewing_time": 27199}, {"page_index": 1, "viewing_time": 10400}], "rt": 37599, "trial_id": "mouselab_instructions_2_misaligned", "trial_type": "instructions", "trial_index": 6, "time_elapsed": 329392, "internal_node_id": "0.0-2.0-3.0"}}, {"uniqueid": "w52675512:a63789678", "current_trial": 7, "dateTime": 1691071339440, "trialdata": {"rt": 38424, "response": {"Q0": "The cost for clicking on nodes may vary between nodes.", "Q1": "The better I perform the higher my bonus will be.", "Q2": "No, the amount of cash at each node of the web may be different each time.", "Q3": "To get the highest total score.", "Q4": "Only before moving the spider.", "Q5": "3 seconds"}, "question_order": [0, 1, 2, 3, 4, 5], "correct": {"Q0": "The cost for clicking on nodes may vary between nodes.", "Q1": "The better I perform the higher my bonus will be.", "Q2": "No, the amount of cash at each node of the web may be different each time.", "Q3": "To get the highest total score.", "Q4": "Only before moving the spider.", "Q5": "3 seconds"}, "trial_id": "mouselab_quiz_misaligned", "trial_type": "survey-multi-choice", "trial_index": 7, "time_elapsed": 367820, "internal_node_id": "0.0-2.0-4.0"}}, {"uniqueid": "w52675512:a63789678", "current_trial": 8, "dateTime": 1691071350195, "trialdata": {"rt": 10747, "stimulus": "\n<h1> Get ready to start the game! </h1>\n\nThank you for reading the instructions. Get ready start with the 40 rounds of this game.\n<br><br>\nIf you need to take a break, feel free to take one after the end of a round, before continuing to the next one.\n<br><br>\nRemember, the more money the spider gets, the bigger your bonus will be!\n<br><br>\n<div style='text-align: center;'>Press <code>space</code> to begin.</div>\n\n<br><br>\n(If, at any point, the <code>space</code> key does not take you to the next page, click once on the text and try again.)", "response": " ", "trial_id": "mdp_ready", "trial_type": "html-keyboard-response", "trial_index": 8, "time_elapsed": 378575, "internal_node_id": "0.0-4.0-0.0"}}, {"uniqueid": "w52675512:a63789678", "current_trial": 9, "dateTime": 1691071377942, "trialdata": {"revealed_states": [], "clicked_states": ["23", "1", "12", "2", "13", "3", "4", "6"], "num_clicks_accrued": [0, 0, 0, 0, 0, 0, 0, 0, 0, 0, 0, 0, 0], "stateRewards": ["", 2, 3, 8, 14, 69, -27, 17, 2, -71, -65, -10, 2, -3, 7, 8, 65, -10, 65, -12, 73, -12, 13, -2, -2, 6, 10, -79, -69, -18, 10, -85, 67, 74], "withholdReward": false, "trial_id": "mdp_trial_1", "block": "test", "trialIndex": 2, "score": 0.40000000000000036, "costs": -4.6, "simulationMode": [null, null, null, null, null], "rewards": [2, 3, 8, 2, -10], "path": ["0", "0", "1", "2", "3", "8", "11"], "rt": [11335, 1187, 1859, 973, 710], "actions": ["up", "up", "up", "left", "left"], "actionTimes": [13879, 15582, 17961, 19439, 20663], "queries": {"click": {"state": {"target": ["23", "1", "12", "2", "13", "3", "4", "6"], "time": [3202, 4216, 5301, 6473, 7462, 8656, 9537, 10902]}, "edge": {"target": [], "time": []}}, "mouseover": {"state": {"target": ["23", "1", "12", "2", "13", "1", "3", "4", "6", "16"], "time": [2968, 4007, 4788, 6279, 7187, 8042, 8445, 9257, 10255, 11985]}, "edge": {"target": [], "time": []}}, "mouseout": {"state": {"target": ["2", "1", "0", "23", "1", "12", "12", "12", "2", "12", "13", "13", "1", "2", "3", "3", "4", "6", "16", "16"], "time": [1863, 1952, 2902, 3892, 4705, 5324, 5689, 5837, 6778, 7096, 7473, 8009, 8085, 8268, 8668, 9064, 9543, 11382, 12508, 15180]}, "edge": {"target": [], "time": []}}}, "displayed_time": "21.17", "trialTime": 27320, "trial_type": "mouselab-mdp", "trial_index": 9, "time_elapsed": 406321, "internal_node_id": "0.0-4.0-1.0-0.0"}}, {"uniqueid": "w52675512:a63789678", "current_trial": 10, "dateTime": 1691071404589, "trialdata": {"revealed_states": [], "clicked_states": ["1", "23", "12", "24", "25", "30", "26", "27", "29", "28"], "num_clicks_accrued": [0, 0, 0, 0, 0, 0, 0, 0, 0, 0, 0, 0, 0], "stateRewards": ["", 1, -1, 1, -14, -10, 67, -28, -11, 72, 40, -65, -1, 1, 1, -2, 8, -55, 34, -10, 61, 33, -15, 2, -4, 7, 4, -75, 63, -21, -16, 61, 19, 21], "withholdReward": false, "trial_id": "mdp_trial_2", "block": "test", "trialIndex": 3, "score": 61.9, "costs": -10.100000000000001, "simulationMode": [null, null, null, null, null], "rewards": [2, -4, 7, 4, 63], "path": ["0", "0", "23", "24", "25", "26", "28"], "rt": [17933, 295, 160, 287, 282], "actions": ["left", "left", "left", "up", "right"], "actionTimes": [19581, 20391, 21062, 21868, 22658], "queries": {"click": {"state": {"target": ["1", "23", "12", "24", "25", "30", "26", "27", "29", "28"], "time": [2225, 3115, 3829, 4830, 5849, 6889, 7824, 8701, 11550, 15271]}, "edge": {"target": [], "time": []}}, "mouseover": {"state": {"target": ["1", "23", "0", "12", "24", "25", "30", "26", "27", "29", "26", "28"], "time": [2017, 2783, 3452, 3530, 4610, 5601, 6534, 7533, 8494, 9361, 12106, 12432]}, "edge": {"target": [], "time": []}}, "mouseout": {"state": {"target": ["18", "12", "0", "1", "23", "0", "12", "12", "12", "24", "25", "30", "25", "26", "27", "29", "26", "28"], "time": [759, 992, 1935, 2700, 3439, 3490, 3865, 4186, 4227, 5295, 6517, 6963, 7406, 8395, 9153, 12081, 12172, 15760]}, "edge": {"target": [], "time": []}}}, "displayed_time": "23.17", "trialTime": 26272, "trial_type": "mouselab-mdp", "trial_index": 10, "time_elapsed": 432968, "internal_node_id": "0.0-4.0-1.0-1.0"}}, {"uniqueid": "w52675512:a63789678", "current_trial": 11, "dateTime": 1691071431428, "trialdata": {"revealed_states": [], "clicked_states": ["23", "12", "1", "2", "3", "4", "8", "6", "5"], "num_clicks_accrued": [0, 0, 0, 0, 0, 0, 0, 0, 0, 0, 0, 0, 0], "stateRewards": ["", 2, 3, 8, 11, 25, -80, 6, -4, -56, 84, -23, -2, -4, -3, 4, -51, -9, -61, -15, -64, 67, -35, 1, -1, -7, -6, 83, 59, -15, 12, -79, 56, 41], "withholdReward": false, "trial_id": "mdp_trial_3", "block": "test", "trialIndex": 4, "score": 41.05, "costs": -7.950000000000001, "simulationMode": [null, null, null, null, null], "rewards": [2, 3, 8, 11, 25], "path": ["0", "0", "1", "2", "3", "4", "5"], "rt": [18707, 206, 221, 271, 286], "actions": ["up", "up", "up", "right", "up"], "actionTimes": [20782, 21501, 22230, 23012, 23810], "queries": {"click": {"state": {"target": ["23", "12", "1", "2", "3", "4", "8", "6", "5"], "time": [2735, 4698, 6241, 7538, 8825, 10012, 11167, 12312, 16122]}, "edge": {"target": [], "time": []}}, "mouseover": {"state": {"target": ["0", "23", "0", "12", "12", "1", "2", "3", "4", "8", "6", "4", "5", "4", "7"], "time": [2234, 2516, 3242, 3277, 3540, 5570, 7136, 8380, 9679, 10834, 12065, 15618, 15660, 16535, 16749]}, "edge": {"target": [], "time": []}}, "mouseout": {"state": {"target": ["23", "0", "0", "23", "0", "12", "12", "1", "2", "2", "3", "4", "4", "3", "8", "3", "4", "6", "6", "4", "5", "5", "4", "7"], "time": [1492, 1673, 2447, 3088, 3251, 3377, 5322, 6959, 7767, 8288, 9621, 10023, 10386, 10463, 11566, 11651, 11931, 12416, 12643, 15629, 16133, 16476, 16573, 19710]}, "edge": {"target": [], "time": []}}}, "displayed_time": "24.32", "trialTime": 26417, "trial_type": "mouselab-mdp", "trial_index": 11, "time_elapsed": 459807, "internal_node_id": "0.0-4.0-1.0-2.0"}}, {"uniqueid": "w52675512:a63789678", "current_trial": 12, "dateTime": 1691071449384, "trialdata": {"revealed_states": [], "clicked_states": [], "num_clicks_accrued": [0, 0, 0, 0, 0, 0, 0, 0, 0, 0, 0, 0, 0], "stateRewards": ["", -1, 1, -5, -6, -78, 47, -13, 12, 48, -88, 20, 2, -3, -2, 13, -20, 37, -57, 14, -38, 30, 31, -2, -2, 8, 2, -23, 78, 28, 12, -74, -88, 8], "withholdReward": false, "trial_id": "mdp_trial_4", "block": "test", "trialIndex": 5, "score": -81, "costs": 0, "simulationMode": [null, null, null, null, null], "rewards": [-1, 1, -5, 12, -88], "path": ["0", "0", "1", "2", "3", "8", "10"], "rt": [1319, 777, 833, 522, 494], "actions": ["up", "up", "up", "left", "down"], "actionTimes": [3323, 4607, 5951, 6981, 7986], "queries": {"click": {"state": {"target": [], "time": []}, "edge": {"target": [], "time": []}}, "mouseover": {"state": {"target": [], "time": []}, "edge": {"target": [], "time": []}}, "mouseout": {"state": {"target": ["7", "1", "24", "31", "23"], "time": [989, 1006, 1082, 1264, 1351]}, "edge": {"target": [], "time": []}}}, "displayed_time": "16.01", "trialTime": 17484, "trial_type": "mouselab-mdp", "trial_index": 12, "time_elapsed": 477763, "internal_node_id": "0.0-4.0-1.0-3.0"}}, {"uniqueid": "w52675512:a63789678", "current_trial": 13, "dateTime": 1691071470343, "trialdata": {"revealed_states": [], "clicked_states": ["1", "12", "23", "24", "13", "2", "25", "26", "30", "27"], "num_clicks_accrued": [0, 0, 0, 0, 0, 0, 0, 0, 0, 0, 0, 0, 0], "stateRewards": ["", -2, -2, -3, -6, -15, -11, 41, -12, -63, -76, 2, -2, -3, 8, 9, -36, -2, -18, -16, -32, -85, -17, -2, 1, 5, -16, 82, 35, -88, -1, 80, -82, -20], "withholdReward": false, "trial_id": "mdp_trial_5", "block": "test", "trialIndex": 6, "score": 63.5, "costs": -6.5, "simulationMode": [null, null, null, null, null], "rewards": [-2, 1, 5, -16, 82], "path": ["0", "0", "23", "24", "25", "26", "27"], "rt": [13767, 209, 152, 266, 419], "actions": ["left", "left", "left", "up", "up"], "actionTimes": [15129, 15854, 16529, 17309, 18245], "queries": {"click": {"state": {"target": ["1", "12", "23", "24", "13", "2", "25", "26", "30", "27"], "time": [2056, 2953, 3937, 4940, 5882, 6937, 8162, 9028, 9812, 10816]}, "edge": {"target": [], "time": []}}, "mouseover": {"state": {"target": ["1", "0", "12", "23", "24", "0", "13", "13", "2", "25", "26", "30", "27", "29"], "time": [1856, 2580, 2788, 3737, 4725, 5330, 5381, 5717, 6612, 8011, 8760, 9542, 10707, 11640]}, "edge": {"target": [], "time": []}}, "mouseout": {"state": {"target": ["0", "1", "0", "12", "23", "24", "23", "0", "12", "13", "13", "2", "24", "25", "26", "25", "30", "30", "25", "26", "27"], "time": [541, 2538, 2596, 3280, 4591, 5258, 5317, 5341, 5365, 5407, 6295, 7486, 7821, 8651, 9433, 9492, 9823, 10349, 10409, 10482, 11242]}, "edge": {"target": [], "time": []}}}, "displayed_time": "18.76", "trialTime": 20559, "trial_type": "mouselab-mdp", "trial_index": 13, "time_elapsed": 498722, "internal_node_id": "0.0-4.0-1.0-4.0"}}, {"uniqueid": "w52675512:a63789678", "current_trial": 14, "dateTime": 1691071489609, "trialdata": {"revealed_states": [], "clicked_states": ["27", "32", "25", "24", "23", "26"], "num_clicks_accrued": [0, 0, 0, 0, 0, 0, 0, 0, 0, 0, 0, 0, 0], "stateRewards": ["", 2, -1, -1, 7, 11, -40, -22, -2, 69, 37, 8, -2, 4, -8, -12, -2, -72, -3, -12, 17, 63, 12, 1, 3, -7, 6, 25, 61, 61, -9, 28, -17, 27], "withholdReward": false, "trial_id": "mdp_trial_6", "block": "test", "trialIndex": 7, "score": 21.1, "costs": -6.8999999999999995, "simulationMode": [null, null, null, null, null], "rewards": [1, 3, -7, 6, 25], "path": ["0", "0", "23", "24", "25", "26", "27"], "rt": [11139, 77, 31, 154, 87], "actions": ["left", "left", "left", "up", "up"], "actionTimes": [14830, 15422, 15966, 16638, 17237], "queries": {"click": {"state": {"target": ["27", "32", "25", "24", "23", "26"], "time": [4810, 7836, 11246, 12026, 12707, 13508]}, "edge": {"target": [], "time": []}}, "mouseover": {"state": {"target": ["28", "27", "27", "26", "25", "30", "32", "22", "21", "31", "25", "24", "23", "26", "0"], "time": [4348, 4436, 4598, 5259, 5308, 5591, 5932, 8562, 8741, 10392, 11081, 11768, 12521, 13169, 14009]}, "edge": {"target": [], "time": []}}, "mouseout": {"state": {"target": ["29", "29", "26", "28", "28", "27", "27", "26", "25", "30", "32", "22", "21", "31", "25", "24", "23", "24", "25", "26", "0"], "time": [2322, 2584, 2621, 2663, 4372, 4480, 5200, 5291, 5342, 5683, 8253, 8595, 9675, 10493, 11616, 12389, 12946, 13028, 13060, 13953, 14026]}, "edge": {"target": [], "time": []}}}, "displayed_time": "17.75", "trialTime": 18788, "trial_type": "mouselab-mdp", "trial_index": 14, "time_elapsed": 517988, "internal_node_id": "0.0-4.0-1.0-5.0"}}, {"uniqueid": "w52675512:a63789678", "current_trial": 15, "dateTime": 1691071508542, "trialdata": {"revealed_states": [], "clicked_states": ["23", "12", "13"], "num_clicks_accrued": [0, 0, 0, 0, 0, 0, 0, 0, 0, 0, 0, 0, 0], "stateRewards": ["", 2, -1, 8, -2, -16, 69, -39, -7, -13, -27, -86, 2, -2, 2, 13, -34, -16, -20, -5, 19, 81, 32, -2, -1, 2, -14, 20, 80, 58, 4, 70, 12, 73], "withholdReward": false, "trial_id": "mdp_trial_7", "block": "test", "trialIndex": 8, "score": 16.15, "costs": 0.15000000000000002, "simulationMode": [null, null, null, null, null], "rewards": [2, -2, 2, -5, 19], "path": ["0", "0", "12", "13", "14", "19", "20"], "rt": [5363, 62, 8, 492, 167], "actions": ["right", "right", "right", "down", "right"], "actionTimes": [8158, 8735, 9252, 10260, 10939], "queries": {"click": {"state": {"target": ["23", "12", "13"], "time": [4112, 6052, 7071]}, "edge": {"target": [], "time": []}}, "mouseover": {"state": {"target": ["23", "23", "12", "13", "22"], "time": [3438, 3955, 5759, 6828, 7480]}, "edge": {"target": [], "time": []}}, "mouseout": {"state": {"target": ["13", "13", "12", "0", "23", "23", "23", "23", "12", "12", "13"], "time": [1694, 2098, 2147, 3416, 3664, 4221, 4579, 5427, 6143, 6625, 7307]}, "edge": {"target": [], "time": []}}}, "displayed_time": "16.80", "trialTime": 18504, "trial_type": "mouselab-mdp", "trial_index": 15, "time_elapsed": 536921, "internal_node_id": "0.0-4.0-1.0-6.0"}}, {"uniqueid": "w52675512:a63789678", "current_trial": 16, "dateTime": 1691071526352, "trialdata": {"revealed_states": [], "clicked_states": ["1", "2", "3"], "num_clicks_accrued": [0, 0, 0, 0, 0, 0, 0, 0, 0, 0, 0, 0, 0], "stateRewards": ["", -2, -3, 1, -7, 39, -67, 16, 5, -20, 73, 66, -1, 4, 5, -3, 23, -68, -87, -8, 3, -3, 17, 1, -4, -2, -13, -32, 34, 61, -5, -11, -18, 12], "withholdReward": false, "trial_id": "mdp_trial_8", "block": "test", "trialIndex": 9, "score": -79.05, "costs": -1.0499999999999998, "simulationMode": [null, null, null, null, null], "rewards": [-2, -3, 1, -7, -67], "path": ["0", "0", "1", "2", "3", "4", "6"], "rt": [5499, 203, 73, 130, 355], "actions": ["up", "up", "up", "right", "right"], "actionTimes": [7177, 7888, 8475, 9116, 9978], "queries": {"click": {"state": {"target": ["1", "2", "3"], "time": [2411, 3642, 5042]}, "edge": {"target": [], "time": []}}, "mouseover": {"state": {"target": ["1", "2", "3", "4", "16"], "time": [2227, 3483, 4422, 6221, 6278]}, "edge": {"target": [], "time": []}}, "mouseout": {"state": {"target": ["22", "12", "0", "1", "2", "2", "3", "4", "16"], "time": [519, 1085, 2065, 3273, 3912, 4304, 6205, 6236, 6301]}, "edge": {"target": [], "time": []}}}, "displayed_time": "15.68", "trialTime": 17359, "trial_type": "mouselab-mdp", "trial_index": 16, "time_elapsed": 554731, "internal_node_id": "0.0-4.0-1.0-7.0"}}, {"uniqueid": "w52675512:a63789678", "current_trial": 17, "dateTime": 1691071545063, "trialdata": {"revealed_states": [], "clicked_states": ["23", "24", "25", "30", "26", "32", "27"], "num_clicks_accrued": [0, 0, 0, 0, 0, 0, 0, 0, 0, 0, 0, 0, 0], "stateRewards": ["", 2, -1, -1, -9, -81, -30, 55, -6, 78, 25, 62, 2, 4, -1, 9, -85, 1, -19, 1, -60, 12, -34, 1, 4, -1, -13, -24, -16, -83, -8, 16, 43, 9], "withholdReward": false, "trial_id": "mdp_trial_9", "block": "test", "trialIndex": 10, "score": 30.55, "costs": -8.45, "simulationMode": [null, null, null, null, null], "rewards": [1, 4, -1, -8, 43], "path": ["0", "0", "23", "24", "25", "30", "32"], "rt": [12223, 125, 61, 177, 145], "actions": ["left", "left", "left", "down", "down"], "actionTimes": [14007, 14648, 15224, 15912, 16580], "queries": {"click": {"state": {"target": ["23", "24", "25", "30", "26", "32", "27"], "time": [2565, 3496, 4340, 5550, 6398, 7443, 10796]}, "edge": {"target": [], "time": []}}, "mouseover": {"state": {"target": ["23", "24", "25", "31", "30", "26", "26", "31", "32", "25", "27", "12"], "time": [2258, 3120, 4052, 4817, 5266, 6032, 6265, 7056, 7214, 7711, 8098, 11153]}, "edge": {"target": [], "time": []}}, "mouseout": {"state": {"target": ["16", "18", "12", "0", "23", "24", "25", "25", "31", "30", "30", "25", "26", "26", "31", "32", "30", "25", "26", "27", "12"], "time": [927, 1101, 1300, 2200, 3089, 3744, 4370, 4758, 5208, 5578, 5942, 5991, 6098, 6640, 7089, 7638, 7695, 7720, 7838, 11067, 11173]}, "edge": {"target": [], "time": []}}}, "displayed_time": "17.10", "trialTime": 18233, "trial_type": "mouselab-mdp", "trial_index": 17, "time_elapsed": 573442, "internal_node_id": "0.0-4.0-1.0-8.0"}}, {"uniqueid": "w52675512:a63789678", "current_trial": 18, "dateTime": 1691071562564, "trialdata": {"revealed_states": [], "clicked_states": ["24", "13", "32", "21"], "num_clicks_accrued": [0, 0, 0, 0, 0, 0, 0, 0, 0, 0, 0, 0, 0], "stateRewards": ["", 1, 2, -5, 14, 54, -14, -25, 16, -5, -87, 78, -1, 1, 3, -3, 52, 53, 53, -10, 73, -69, -48, 2, 3, 1, 8, -62, -7, 85, 7, 82, 52, -28], "withholdReward": false, "trial_id": "mdp_trial_10", "block": "test", "trialIndex": 11, "score": 60, "costs": -5, "simulationMode": [null, null, null, null, null], "rewards": [2, 3, 1, 7, 52], "path": ["0", "0", "23", "24", "25", "30", "32"], "rt": [9801, 160, 142, 137, 202], "actions": ["left", "left", "left", "down", "down"], "actionTimes": [11694, 12402, 13052, 13708, 14423], "queries": {"click": {"state": {"target": ["24", "13", "32", "21"], "time": [3493, 4422, 5414, 8445]}, "edge": {"target": [], "time": []}}, "mouseover": {"state": {"target": ["31", "33", "25", "24", "23", "12", "13", "32", "32", "21"], "time": [2579, 2612, 2957, 3108, 3791, 3975, 4193, 4995, 5223, 6254]}, "edge": {"target": [], "time": []}}, "mouseout": {"state": {"target": ["12", "0", "31", "33", "25", "24", "23", "12", "13", "13", "32", "32"], "time": [1192, 2558, 2591, 2626, 3065, 3763, 3818, 4160, 4432, 4817, 5011, 5610]}, "edge": {"target": [], "time": []}}}, "displayed_time": "15.90", "trialTime": 17044, "trial_type": "mouselab-mdp", "trial_index": 18, "time_elapsed": 590943, "internal_node_id": "0.0-4.0-1.0-9.0"}}, {"uniqueid": "w52675512:a63789678", "current_trial": 19, "dateTime": 1691071580492, "trialdata": {"revealed_states": [], "clicked_states": ["32", "21"], "num_clicks_accrued": [0, 0, 0, 0, 0, 0, 0, 0, 0, 0, 0, 0, 0], "stateRewards": ["", -1, 3, 8, 10, -86, 61, -36, 10, 17, -60, 24, -1, -3, 3, 11, 50, 60, 33, -3, -20, 58, -6, 1, -4, -4, 13, -70, -71, 43, 14, 52, 82, -11], "withholdReward": false, "trial_id": "mdp_trial_11", "block": "test", "trialIndex": 12, "score": 84.7, "costs": -4.3, "simulationMode": [null, null, null, null, null], "rewards": [1, -4, -4, 14, 82], "path": ["0", "0", "23", "24", "25", "30", "32"], "rt": [6972, 152, 112, 80, 141], "actions": ["left", "left", "left", "down", "down"], "actionTimes": [9040, 9710, 10333, 10927, 11582], "queries": {"click": {"state": {"target": ["32", "21"], "time": [2784, 5818]}, "edge": {"target": [], "time": []}}, "mouseover": {"state": {"target": ["32", "21", "21"], "time": [2488, 3360, 3592]}, "edge": {"target": [], "time": []}}, "mouseout": {"state": {"target": ["21", "21", "0", "32", "21", "21"], "time": [748, 1035, 2255, 2978, 3420, 6142]}, "edge": {"target": [], "time": []}}}, "displayed_time": "16.07", "trialTime": 17475, "trial_type": "mouselab-mdp", "trial_index": 19, "time_elapsed": 608871, "internal_node_id": "0.0-4.0-1.0-10.0"}}, {"uniqueid": "w52675512:a63789678", "current_trial": 20, "dateTime": 1691071602138, "trialdata": {"revealed_states": [], "clicked_states": ["32", "21", "9", "5"], "num_clicks_accrued": [0, 0, 0, 0, 0, 0, 0, 0, 0, 0, 0, 0, 0], "stateRewards": ["", 1, -3, -4, -11, -56, 61, -47, -16, -28, -9, 69, -2, -3, -4, -8, 40, -86, 59, -4, 80, 27, 54, -1, 3, -1, 8, 67, 23, 50, 6, 83, -43, -29], "withholdReward": false, "trial_id": "mdp_trial_12", "block": "test", "trialIndex": 13, "score": 5.399999999999999, "costs": -8.6, "simulationMode": [null, null, null, null, null], "rewards": [-2, -3, -4, -4, 27], "path": ["0", "0", "12", "13", "14", "19", "21"], "rt": [15017, 120, 18, 120, 99], "actions": ["right", "right", "right", "down", "down"], "actionTimes": [16850, 17483, 18012, 18640, 19250], "queries": {"click": {"state": {"target": ["32", "21", "9", "5"], "time": [2624, 5866, 10253, 13672]}, "edge": {"target": [], "time": []}}, "mouseover": {"state": {"target": ["32", "21", "0", "1", "8", "9", "5"], "time": [2364, 4011, 9651, 9676, 9984, 10075, 10589]}, "edge": {"target": [], "time": []}}, "mouseout": {"state": {"target": ["0", "32", "21", "0", "1", "8", "9", "5"], "time": [1871, 3218, 6217, 9663, 9689, 9997, 10459, 13933]}, "edge": {"target": [], "time": []}}}, "displayed_time": "19.76", "trialTime": 21236, "trial_type": "mouselab-mdp", "trial_index": 20, "time_elapsed": 630517, "internal_node_id": "0.0-4.0-1.0-11.0"}}, {"uniqueid": "w52675512:a63789678", "current_trial": 21, "dateTime": 1691071626944, "trialdata": {"revealed_states": [], "clicked_states": ["32", "21", "27", "16", "17"], "num_clicks_accrued": [0, 0, 0, 0, 0, 0, 0, 0, 0, 0, 0, 0, 0], "stateRewards": ["", -1, -2, 4, 9, 10, -75, 39, 16, -43, 88, -19, -1, 1, 2, 4, -31, 10, 73, 12, 41, -64, -81, -2, 2, -6, 1, -81, -1, -26, 3, -59, -3, -20], "withholdReward": false, "trial_id": "mdp_trial_13", "block": "test", "trialIndex": 14, "score": 5.25, "costs": -10.75, "simulationMode": [null, null, null, null, null], "rewards": [-1, 1, 2, 4, 10], "path": ["0", "0", "12", "13", "14", "15", "17"], "rt": [18638, 94, 43, 56, 78], "actions": ["right", "right", "right", "up", "right"], "actionTimes": [20539, 21143, 21697, 22260, 22845], "queries": {"click": {"state": {"target": ["32", "21", "27", "16", "17"], "time": [3159, 6242, 10314, 13159, 16506]}, "edge": {"target": [], "time": []}}, "mouseover": {"state": {"target": ["31", "32", "32", "21", "31", "30", "26", "27", "10", "2", "7", "16", "17"], "time": [2369, 2620, 3018, 4669, 9641, 9854, 10006, 10080, 10700, 10730, 10761, 11324, 16170]}, "edge": {"target": [], "time": []}}, "mouseout": {"state": {"target": ["0", "31", "32", "32", "32", "21", "21", "31", "30", "26", "27", "10", "2", "7", "16", "17"], "time": [1528, 2536, 2762, 3549, 4050, 6637, 9581, 9660, 9882, 10016, 10641, 10713, 10746, 10776, 13800, 16904]}, "edge": {"target": [], "time": []}}}, "displayed_time": "23.36", "trialTime": 24345, "trial_type": "mouselab-mdp", "trial_index": 21, "time_elapsed": 655323, "internal_node_id": "0.0-4.0-1.0-12.0"}}, {"uniqueid": "w52675512:a63789678", "current_trial": 22, "dateTime": 1691071646801, "trialdata": {"revealed_states": [], "clicked_states": ["9", "5", "7"], "num_clicks_accrued": [0, 0, 0, 0, 0, 0, 0, 0, 0, 0, 0, 0, 0], "stateRewards": ["", 1, 2, -8, 9, 18, -83, -11, 6, -64, -48, 17, -2, -2, -5, -3, -24, -3, -86, -2, 48, -41, -22, -2, 4, 7, 8, 81, 13, -48, 10, 61, 19, 57], "withholdReward": false, "trial_id": "mdp_trial_14", "block": "test", "trialIndex": 15, "score": 15.55, "costs": -6.449999999999999, "simulationMode": [null, null, null, null, null], "rewards": [1, 2, -8, 9, 18], "path": ["0", "0", "1", "2", "3", "4", "5"], "rt": [13029, 91, 131, 2, 148], "actions": ["up", "up", "up", "right", "up"], "actionTimes": [14894, 15502, 16143, 16659, 17329], "queries": {"click": {"state": {"target": ["9", "5", "7"], "time": [3257, 8437, 11825]}, "edge": {"target": [], "time": []}}, "mouseover": {"state": {"target": ["9", "5", "4", "7", "4", "5", "4", "7"], "time": [2809, 4199, 7310, 7634, 8000, 8374, 8918, 9546]}, "edge": {"target": [], "time": []}}, "mouseout": {"state": {"target": ["0", "9", "5", "4", "7", "4", "5", "4", "7"], "time": [1535, 3941, 7285, 7335, 7954, 8027, 8829, 9405, 12440]}, "edge": {"target": [], "time": []}}}, "displayed_time": "17.86", "trialTime": 19369, "trial_type": "mouselab-mdp", "trial_index": 22, "time_elapsed": 675180, "internal_node_id": "0.0-4.0-1.0-13.0"}}, {"uniqueid": "w52675512:a63789678", "current_trial": 23, "dateTime": 1691071663909, "trialdata": {"revealed_states": [], "clicked_states": ["29", "33"], "num_clicks_accrued": [0, 0, 0, 0, 0, 0, 0, 0, 0, 0, 0, 0, 0], "stateRewards": ["", -1, 3, -5, -2, -13, -9, -34, -7, -81, 32, 35, -2, -2, 1, -14, -32, 81, 7, 4, 82, 56, -8, -1, 3, -8, 6, -24, -24, -53, 2, 38, 61, 54], "withholdReward": false, "trial_id": "mdp_trial_15", "block": "test", "trialIndex": 16, "score": 45.7, "costs": -4.3, "simulationMode": [null, null, null, null, null], "rewards": [-1, 3, -8, 2, 54], "path": ["0", "0", "23", "24", "25", "30", "33"], "rt": [8535, 19, 36, 669, 380], "actions": ["left", "left", "left", "down", "left"], "actionTimes": [10133, 10677, 11233, 12428, 13328], "queries": {"click": {"state": {"target": ["29", "33"], "time": [3075, 6153]}, "edge": {"target": [], "time": []}}, "mouseover": {"state": {"target": ["31", "30", "25", "26", "29", "33", "30", "24", "28", "27"], "time": [2112, 2146, 2387, 2612, 2857, 3760, 6699, 6896, 7040, 7635]}, "edge": {"target": [], "time": []}}, "mouseout": {"state": {"target": ["0", "31", "30", "25", "26", "29", "33", "30", "24", "28"], "time": [1922, 2122, 2262, 2538, 2736, 3526, 6657, 6747, 6929, 7587]}, "edge": {"target": [], "time": []}}}, "displayed_time": "15.60", "trialTime": 16614, "trial_type": "mouselab-mdp", "trial_index": 23, "time_elapsed": 692288, "internal_node_id": "0.0-4.0-1.0-14.0"}}, {"uniqueid": "w52675512:a63789678", "current_trial": 24, "dateTime": 1691071681361, "trialdata": {"revealed_states": [], "clicked_states": ["29", "17"], "num_clicks_accrued": [0, 0, 0, 0, 0, 0, 0, 0, 0, 0, 0, 0, 0], "stateRewards": ["", 1, 4, -8, -13, -13, -87, -77, -10, -44, 54, 42, 2, -3, -4, 12, -9, -80, 52, 9, 84, -2, -65, 1, -4, -5, -6, 8, 80, 32, 13, -59, -5, -13], "withholdReward": false, "trial_id": "mdp_trial_16", "block": "test", "trialIndex": 17, "score": 13.7, "costs": -4.3, "simulationMode": [null, null, null, null, null], "rewards": [1, -4, -5, -6, 32], "path": ["0", "0", "23", "24", "25", "26", "29"], "rt": [7397, 4, 58, 3, 40], "actions": ["left", "left", "left", "up", "left"], "actionTimes": [9105, 9643, 10217, 10731, 11295], "queries": {"click": {"state": {"target": ["29", "17"], "time": [2846, 5947]}, "edge": {"target": [], "time": []}}, "mouseover": {"state": {"target": ["28", "26", "29", "26", "28", "1", "18", "15", "17"], "time": [2323, 2407, 2647, 3334, 3379, 3415, 3436, 3458, 3500]}, "edge": {"target": [], "time": []}}, "mouseout": {"state": {"target": ["27", "28", "28", "26", "29", "26", "28", "1", "18", "15"], "time": [760, 866, 2364, 2514, 3296, 3359, 3411, 3433, 3448, 3470]}, "edge": {"target": [], "time": []}}}, "displayed_time": "15.71", "trialTime": 16916, "trial_type": "mouselab-mdp", "trial_index": 24, "time_elapsed": 709740, "internal_node_id": "0.0-4.0-1.0-15.0"}}, {"uniqueid": "w52675512:a63789678", "current_trial": 25, "dateTime": 1691071699076, "trialdata": {"revealed_states": [], "clicked_states": ["32"], "num_clicks_accrued": [0, 0, 0, 0, 0, 0, 0, 0, 0, 0, 0, 0, 0], "stateRewards": ["", -1, -2, -8, 8, -27, -82, 19, -14, -62, 4, 1, -2, 2, 6, 10, 73, -51, -2, 2, 73, -48, 54, -1, 2, -4, 11, -25, 47, 86, 15, 33, 43, -42], "withholdReward": false, "trial_id": "mdp_trial_17", "block": "test", "trialIndex": 18, "score": 52.85, "costs": -2.15, "simulationMode": [null, null, null, null, null], "rewards": [-1, 2, -4, 15, 43], "path": ["0", "0", "23", "24", "25", "30", "32"], "rt": [4889, 81, 22, 20, 299], "actions": ["left", "left", "left", "down", "down"], "actionTimes": [6597, 7192, 7727, 8265, 9084], "queries": {"click": {"state": {"target": ["32"], "time": [2572]}, "edge": {"target": [], "time": []}}, "mouseover": {"state": {"target": ["32", "32", "21"], "time": [2138, 2407, 4924]}, "edge": {"target": [], "time": []}}, "mouseout": {"state": {"target": ["17", "14", "13", "12", "0", "32", "32"], "time": [965, 1031, 1064, 1106, 2034, 2175, 2664]}, "edge": {"target": [], "time": []}}}, "displayed_time": "15.71", "trialTime": 17177, "trial_type": "mouselab-mdp", "trial_index": 25, "time_elapsed": 727455, "internal_node_id": "0.0-4.0-1.0-16.0"}}, {"uniqueid": "w52675512:a63789678", "current_trial": 26, "dateTime": 1691071732762, "trialdata": {"revealed_states": [], "clicked_states": ["21", "32", "16", "27", "9", "5", "6"], "num_clicks_accrued": [0, 0, 0, 0, 0, 0, 0, 0, 0, 0, 0, 0, 0], "stateRewards": ["", 1, 2, -6, -13, -51, 22, -4, -12, -44, -12, 6, -2, -2, -2, -14, -46, -4, -77, -2, 36, -79, 41, 2, -4, 2, -6, -55, 59, 70, -5, 39, -19, 24], "withholdReward": false, "trial_id": "mdp_trial_18", "block": "test", "trialIndex": 19, "score": -9.05, "costs": -15.05, "simulationMode": [null, null, null, null, null], "rewards": [1, 2, -6, -13, 22], "path": ["0", "0", "1", "2", "3", "4", "6"], "rt": [26217, 8, 279, 288, 241], "actions": ["up", "up", "up", "right", "right"], "actionTimes": [28166, 28691, 29479, 30280, 31045], "queries": {"click": {"state": {"target": ["21", "32", "16", "27", "9", "5", "6"], "time": [2455, 5949, 10030, 13218, 16985, 20183, 23909]}, "edge": {"target": [], "time": []}}, "mouseover": {"state": {"target": ["21", "32", "13", "15", "16", "18", "24", "24", "28", "27", "11", "9", "3", "4", "5", "4", "7", "6", "2", "10", "13"], "time": [2263, 5774, 9326, 9443, 9850, 10440, 11139, 11275, 11384, 11756, 16564, 16796, 17423, 17709, 18283, 20746, 21019, 23467, 26353, 26668, 27202]}, "edge": {"target": [], "time": []}}, "mouseout": {"state": {"target": ["21", "0", "21", "32", "13", "15", "16", "18", "24", "24", "28", "27", "11", "9", "3", "4", "5", "4", "7", "6", "6", "2", "10"], "time": [1200, 1426, 2704, 6048, 9384, 9462, 10408, 10467, 11153, 11357, 11483, 13685, 16646, 17373, 17452, 17747, 20602, 20777, 23361, 23930, 24289, 26411, 27113]}, "edge": {"target": [], "time": []}}}, "displayed_time": "31.56", "trialTime": 33154, "trial_type": "mouselab-mdp", "trial_index": 26, "time_elapsed": 761142, "internal_node_id": "0.0-4.0-1.0-17.0"}}, {"uniqueid": "w52675512:a63789678", "current_trial": 27, "dateTime": 1691071765389, "trialdata": {"revealed_states": [], "clicked_states": ["32"], "num_clicks_accrued": [0, 0, 0, 0, 0, 0, 0, 0, 0, 0, 0, 0, 0], "stateRewards": ["", -1, 2, 6, 11, 21, -21, -21, -6, 48, -71, 88, -1, -3, 3, 7, 64, 2, 9, -4, 37, -67, 72, 2, 2, -8, -8, -10, 71, -40, -3, 73, 80, 47], "withholdReward": false, "trial_id": "mdp_trial_19", "block": "test", "trialIndex": 20, "score": 70.85, "costs": -2.15, "simulationMode": [null, null, null, null, null], "rewards": [2, 2, -8, -3, 80], "path": ["0", "0", "23", "24", "25", "30", "32"], "rt": [5393, 24, 12, 365, 87], "actions": ["left", "left", "left", "down", "down"], "actionTimes": [7184, 7715, 8245, 9123, 9716], "queries": {"click": {"state": {"target": ["32"], "time": [3045]}, "edge": {"target": [], "time": []}}, "mouseover": {"state": {"target": ["0", "31", "32", "21", "31"], "time": [1820, 2206, 2711, 4061, 5190]}, "edge": {"target": [], "time": []}}, "mouseout": {"state": {"target": ["13", "15", "18", "0", "31", "32", "21", "31"], "time": [684, 875, 968, 2001, 2479, 3282, 4828, 30758]}, "edge": {"target": [], "time": []}}}, "displayed_time": "15.79", "trialTime": 32133, "trial_type": "mouselab-mdp", "trial_index": 27, "time_elapsed": 793767, "internal_node_id": "0.0-4.0-1.0-18.0"}}, {"uniqueid": "w52675512:a63789678", "current_trial": 28, "dateTime": 1691071810098, "trialdata": {"revealed_states": [], "clicked_states": ["32", "21", "27", "5"], "num_clicks_accrued": [0, 0, 0, 0, 0, 0, 0, 0, 0, 0, 0, 0, 0], "stateRewards": ["", 1, 2, -3, -5, 66, -50, -47, -5, 1, 28, -27, 1, 1, -1, -6, 37, -25, 56, 1, -82, -66, -40, -1, -4, -7, 15, -61, -23, 26, 10, 14, -56, 29], "withholdReward": false, "trial_id": "mdp_trial_20", "block": "test", "trialIndex": 21, "score": 52.4, "costs": -8.6, "simulationMode": [null, null, null, null, null], "rewards": [1, 2, -3, -5, 66], "path": ["0", "0", "1", "2", "3", "4", "5"], "rt": [15989, 352, 79, 14, 131], "actions": ["up", "up", "up", "right", "up"], "actionTimes": [19044, 19908, 20499, 21031, 21684], "queries": {"click": {"state": {"target": ["32", "21", "27", "5"], "time": [4010, 7189, 11496, 15044]}, "edge": {"target": [], "time": []}}, "mouseover": {"state": {"target": ["0", "23", "31", "30", "30", "30", "32", "21", "25", "27", "10", "2", "4", "5", "9", "4"], "time": [3216, 3243, 3282, 3306, 3391, 3543, 3824, 4790, 10547, 11169, 13131, 13419, 14696, 14837, 15498, 18292]}, "edge": {"target": [], "time": []}}, "mouseout": {"state": {"target": ["0", "0", "23", "31", "30", "30", "30", "32", "21", "21", "25", "27", "10", "2", "4", "5", "9", "4"], "time": [2286, 3227, 3257, 3292, 3323, 3449, 3560, 4250, 7758, 7848, 10562, 11606, 13164, 14609, 14720, 15420, 18263, 18308]}, "edge": {"target": [], "time": []}}}, "displayed_time": "22.20", "trialTime": 44145, "trial_type": "mouselab-mdp", "trial_index": 28, "time_elapsed": 838478, "internal_node_id": "0.0-4.0-1.0-19.0"}}, {"uniqueid": "w52675512:a63789678", "current_trial": 29, "dateTime": 1691071831355, "trialdata": {"revealed_states": [], "clicked_states": ["27", "16", "32"], "num_clicks_accrued": [0, 0, 0, 0, 0, 0, 0, 0, 0, 0, 0, 0, 0], "stateRewards": ["", -1, 3, 1, -7, 56, 76, 57, 3, 11, -9, 14, 1, -2, 2, 8, -77, -3, 79, -5, 88, 24, -66, -2, -1, 7, -7, -30, 14, -76, 11, -36, 28, -6], "withholdReward": false, "trial_id": "mdp_trial_21", "block": "test", "trialIndex": 22, "score": 36.55, "costs": -6.449999999999999, "simulationMode": [null, null, null, null, null], "rewards": [-2, -1, 7, 11, 28], "path": ["0", "0", "23", "24", "25", "30", "32"], "rt": [12249, 17, 525, 36, 183], "actions": ["left", "left", "left", "down", "down"], "actionTimes": [15990, 16528, 17564, 18120, 18829], "queries": {"click": {"state": {"target": ["27", "16", "32"], "time": [5022, 8158, 11875]}, "edge": {"target": [], "time": []}}, "mouseover": {"state": {"target": ["27", "28", "7", "16", "18", "12", "32"], "time": [4716, 5355, 6373, 6797, 8638, 9096, 11645]}, "edge": {"target": [], "time": []}}, "mouseout": {"state": {"target": ["16", "12", "0", "27", "28", "7", "16", "18", "12", "32", "32"], "time": [2651, 3034, 4340, 5239, 6083, 6419, 8606, 8662, 9114, 11980, 12166]}, "edge": {"target": [], "time": []}}}, "displayed_time": "19.36", "trialTime": 20682, "trial_type": "mouselab-mdp", "trial_index": 29, "time_elapsed": 859734, "internal_node_id": "0.0-4.0-1.0-20.0"}}, {"uniqueid": "w52675512:a63789678", "current_trial": 30, "dateTime": 1691071849974, "trialdata": {"revealed_states": [], "clicked_states": ["32", "21"], "num_clicks_accrued": [0, 0, 0, 0, 0, 0, 0, 0, 0, 0, 0, 0, 0], "stateRewards": ["", 2, 4, 7, -6, -76, -81, 2, 5, -66, -3, 36, -2, -4, 6, -2, -69, 4, -49, -6, 67, 38, -67, 2, 1, 1, 6, -68, -21, 52, -16, -16, 6, -70], "withholdReward": false, "trial_id": "mdp_trial_22", "block": "test", "trialIndex": 23, "score": 27.7, "costs": -4.3, "simulationMode": [null, null, null, null, null], "rewards": [-2, -4, 6, -6, 38], "path": ["0", "0", "12", "13", "14", "19", "21"], "rt": [9307, 113, 28, 14, 159], "actions": ["right", "right", "right", "down", "down"], "actionTimes": [11752, 12383, 12927, 13462, 14129], "queries": {"click": {"state": {"target": ["32", "21"], "time": [4101, 7830]}, "edge": {"target": [], "time": []}}, "mouseover": {"state": {"target": ["0", "31", "32", "32", "21"], "time": [3540, 3618, 3655, 3943, 7653]}, "edge": {"target": [], "time": []}}, "mouseout": {"state": {"target": ["22", "12", "0", "31", "32", "32", "21"], "time": [1721, 1904, 3563, 3631, 3678, 4366, 8061]}, "edge": {"target": [], "time": []}}}, "displayed_time": "16.45", "trialTime": 18124, "trial_type": "mouselab-mdp", "trial_index": 30, "time_elapsed": 878353, "internal_node_id": "0.0-4.0-1.0-21.0"}}, {"uniqueid": "w52675512:a63789678", "current_trial": 31, "dateTime": 1691071872149, "trialdata": {"revealed_states": [], "clicked_states": ["16", "27", "32", "21"], "num_clicks_accrued": [0, 0, 0, 0, 0, 0, 0, 0, 0, 0, 0, 0, 0], "stateRewards": ["", -1, 1, 8, -3, -24, 11, -65, -6, -77, 48, 44, -2, 1, -2, -7, -55, -35, 33, 8, -28, 19, -53, -1, -1, -5, -5, -70, 10, 44, 8, -58, -70, 51], "withholdReward": false, "trial_id": "mdp_trial_23", "block": "test", "trialIndex": 24, "score": 15.4, "costs": -8.6, "simulationMode": [null, null, null, null, null], "rewards": [-2, 1, -2, 8, 19], "path": ["0", "0", "12", "13", "14", "19", "21"], "rt": [14718, 102, 127, 82, 301], "actions": ["right", "right", "right", "down", "down"], "actionTimes": [17202, 17816, 18456, 19044, 19855], "queries": {"click": {"state": {"target": ["16", "27", "32", "21"], "time": [3384, 6751, 10076, 13215]}, "edge": {"target": [], "time": []}}, "mouseover": {"state": {"target": ["12", "15", "16", "15", "18", "1", "28", "26", "27", "28", "24", "32", "21"], "time": [2862, 2911, 3199, 3782, 3917, 4297, 4364, 4397, 4709, 9150, 9214, 9568, 10756]}, "edge": {"target": [], "time": []}}, "mouseout": {"state": {"target": ["22", "0", "12", "15", "16", "16", "15", "18", "1", "28", "26", "27", "28", "24", "32", "21"], "time": [1647, 2833, 2880, 2980, 3401, 3728, 3803, 3939, 4330, 4377, 4545, 7055, 9172, 9251, 10354, 13709]}, "edge": {"target": [], "time": []}}}, "displayed_time": "20.37", "trialTime": 21668, "trial_type": "mouselab-mdp", "trial_index": 31, "time_elapsed": 900528, "internal_node_id": "0.0-4.0-1.0-22.0"}}, {"uniqueid": "w52675512:a63789678", "current_trial": 32, "dateTime": 1691071898211, "trialdata": {"revealed_states": [], "clicked_states": ["6", "11", "27", "32", "21"], "num_clicks_accrued": [0, 0, 0, 0, 0, 0, 0, 0, 0, 0, 0, 0, 0], "stateRewards": ["", 1, 2, -3, -6, 50, -7, 7, -7, -80, 21, -1, 2, 2, 4, -1, 33, 84, 1, 14, -53, 81, 6, -2, -2, -3, -9, -87, -38, -59, -5, -74, -3, -71], "withholdReward": false, "trial_id": "mdp_trial_24", "block": "test", "trialIndex": 25, "score": 92.25, "costs": -10.75, "simulationMode": [null, null, null, null, null], "rewards": [2, 2, 4, 14, 81], "path": ["0", "0", "12", "13", "14", "19", "21"], "rt": [19542, 129, 23, 95, 81], "actions": ["right", "right", "right", "down", "down"], "actionTimes": [21374, 22025, 22563, 23184, 23780], "queries": {"click": {"state": {"target": ["6", "11", "27", "32", "21"], "time": [3351, 6552, 10337, 13554, 17399]}, "edge": {"target": [], "time": []}}, "mouseover": {"state": {"target": ["1", "7", "6", "2", "11", "27", "32", "21", "16"], "time": [2413, 2687, 3045, 4399, 4707, 9833, 11765, 16920, 18619]}, "edge": {"target": [], "time": []}}, "mouseout": {"state": {"target": ["21", "0", "1", "7", "6", "2", "11", "27", "32", "21", "21"], "time": [1130, 2329, 2529, 2904, 3641, 4427, 6976, 11337, 13911, 17726, 18000]}, "edge": {"target": [], "time": []}}}, "displayed_time": "24.29", "trialTime": 25551, "trial_type": "mouselab-mdp", "trial_index": 32, "time_elapsed": 926590, "internal_node_id": "0.0-4.0-1.0-23.0"}}, {"uniqueid": "w52675512:a63789678", "current_trial": 33, "dateTime": 1691071916914, "trialdata": {"revealed_states": [], "clicked_states": ["21", "32"], "num_clicks_accrued": [0, 0, 0, 0, 0, 0, 0, 0, 0, 0, 0, 0, 0], "stateRewards": ["", 2, -2, -8, 9, -20, 55, -58, 14, 42, 2, 36, 1, -3, -5, 5, -58, 57, 60, 16, 57, 30, -70, -2, 1, 3, 10, 59, 23, 77, -13, -26, 88, -72], "withholdReward": false, "trial_id": "mdp_trial_25", "block": "test", "trialIndex": 26, "score": 72.7, "costs": -4.3, "simulationMode": [null, null, null, null, null], "rewards": [-2, 1, 3, -13, 88], "path": ["0", "0", "23", "24", "25", "30", "32"], "rt": [7664, 83, 55, 71, 107], "actions": ["left", "left", "left", "down", "down"], "actionTimes": [10779, 11376, 11944, 12531, 13149], "queries": {"click": {"state": {"target": ["21", "32"], "time": [4017, 7254]}, "edge": {"target": [], "time": []}}, "mouseover": {"state": {"target": ["12", "22", "21", "32"], "time": [3538, 3565, 3902, 4696]}, "edge": {"target": [], "time": []}}, "mouseout": {"state": {"target": ["16", "1", "12", "22", "21"], "time": [2084, 2384, 3560, 3582, 4243]}, "edge": {"target": [], "time": []}}}, "displayed_time": "17.12", "trialTime": 18196, "trial_type": "mouselab-mdp", "trial_index": 33, "time_elapsed": 945293, "internal_node_id": "0.0-4.0-1.0-24.0"}}, {"uniqueid": "w52675512:a63789678", "current_trial": 34, "dateTime": 1691071934175, "trialdata": {"revealed_states": [], "clicked_states": ["27", "32"], "num_clicks_accrued": [0, 0, 0, 0, 0, 0, 0, 0, 0, 0, 0, 0, 0], "stateRewards": ["", -1, 1, -6, -1, 80, 23, 2, -11, 73, -81, 59, 1, 3, 5, -1, -26, 28, -3, 16, -59, -13, -50, -2, -2, 2, 15, -50, 86, 17, -4, 37, 35, 44], "withholdReward": false, "trial_id": "mdp_trial_26", "block": "test", "trialIndex": 27, "score": 24.7, "costs": -4.3, "simulationMode": [null, null, null, null, null], "rewards": [-2, -2, 2, -4, 35], "path": ["0", "0", "23", "24", "25", "30", "32"], "rt": [9027, 111, 91, 244, 394], "actions": ["left", "left", "left", "down", "down"], "actionTimes": [10775, 11394, 11995, 12757, 13664], "queries": {"click": {"state": {"target": ["27", "32"], "time": [3678, 6843]}, "edge": {"target": [], "time": []}}, "mouseover": {"state": {"target": ["0", "32", "30", "25", "26", "27", "26", "25", "30", "30", "32", "21", "21", "21"], "time": [2005, 2736, 3011, 3078, 3127, 3535, 4062, 4483, 4551, 5057, 5748, 7332, 7463, 7844]}, "edge": {"target": [], "time": []}}, "mouseout": {"state": {"target": ["32", "24", "23", "0", "32", "30", "25", "26", "27", "26", "25", "30", "30", "32", "21", "21"], "time": [708, 966, 1013, 2162, 2963, 3053, 3104, 3169, 4030, 4092, 4524, 4568, 5066, 7137, 7368, 7517]}, "edge": {"target": [], "time": []}}}, "displayed_time": "15.75", "trialTime": 16735, "trial_type": "mouselab-mdp", "trial_index": 34, "time_elapsed": 962554, "internal_node_id": "0.0-4.0-1.0-25.0"}}, {"uniqueid": "w52675512:a63789678", "current_trial": 35, "dateTime": 1691071958974, "trialdata": {"revealed_states": [], "clicked_states": ["16", "27", "32", "21", "11"], "num_clicks_accrued": [0, 0, 0, 0, 0, 0, 0, 0, 0, 0, 0, 0, 0], "stateRewards": ["", -1, 1, -2, 5, 73, 15, 61, 8, 7, 38, 76, 2, 2, -4, -6, -6, -26, 43, -5, -45, -85, -35, -2, 1, -4, 15, -10, 69, 72, -11, 84, -49, -38], "withholdReward": false, "trial_id": "mdp_trial_27", "block": "test", "trialIndex": 28, "score": 71.25, "costs": -10.75, "simulationMode": [null, null, null, null, null], "rewards": [-1, 1, -2, 8, 76], "path": ["0", "0", "1", "2", "3", "8", "11"], "rt": [18028, 23, 109, 141, 94], "actions": ["up", "up", "up", "left", "left"], "actionTimes": [19921, 20465, 21081, 21728, 22328], "queries": {"click": {"state": {"target": ["16", "27", "32", "21", "11"], "time": [2752, 5929, 9045, 12210, 15856]}, "edge": {"target": [], "time": []}}, "mouseover": {"state": {"target": ["12", "18", "16", "16", "1", "28", "26", "27", "26", "33", "32", "21", "21", "22", "13", "7", "3", "9", "9", "11", "8", "6"], "time": [2203, 2237, 2295, 2638, 3504, 3566, 3615, 3893, 6325, 6412, 7019, 9754, 10090, 12847, 12871, 12934, 13275, 13382, 13640, 15650, 16215, 16534]}, "edge": {"target": [], "time": []}}, "mouseout": {"state": {"target": ["21", "20", "13", "12", "0", "12", "18", "16", "16", "1", "28", "26", "27", "26", "33", "32", "21", "21", "22", "13", "7", "3", "9", "9", "11", "8"], "time": [633, 988, 1047, 1239, 2186, 2217, 2250, 2403, 3161, 3518, 3581, 3784, 6302, 6360, 6425, 9344, 9841, 12803, 12859, 12885, 12998, 13313, 13392, 15418, 16147, 16245]}, "edge": {"target": [], "time": []}}}, "displayed_time": "22.83", "trialTime": 24264, "trial_type": "mouselab-mdp", "trial_index": 35, "time_elapsed": 987353, "internal_node_id": "0.0-4.0-1.0-26.0"}}, {"uniqueid": "w52675512:a63789678", "current_trial": 36, "dateTime": 1691071977040, "trialdata": {"revealed_states": [], "clicked_states": ["6", "16"], "num_clicks_accrued": [0, 0, 0, 0, 0, 0, 0, 0, 0, 0, 0, 0, 0], "stateRewards": ["", -1, -4, -6, -15, 21, -67, -63, 9, 51, 69, -14, -1, 3, 8, -8, 39, 72, 63, 15, 19, 47, 15, 1, 4, 5, 16, -18, 34, 35, -14, -80, 40, 1], "withholdReward": false, "trial_id": "mdp_trial_28", "block": "test", "trialIndex": 29, "score": 36.7, "costs": -4.3, "simulationMode": [null, null, null, null, null], "rewards": [-1, 3, 8, -8, 39], "path": ["0", "0", "12", "13", "14", "15", "16"], "rt": [8476, 13, 72, 178, 112], "actions": ["right", "right", "right", "up", "up"], "actionTimes": [10437, 10966, 11559, 12261, 12886], "queries": {"click": {"state": {"target": ["6", "16"], "time": [2738, 6398]}, "edge": {"target": [], "time": []}}, "mouseover": {"state": {"target": ["0", "1", "2", "4", "6", "16", "15", "14", "19", "19", "21", "21"], "time": [1976, 2099, 2125, 2425, 2549, 4976, 6607, 6641, 6667, 6909, 6948, 7253]}, "edge": {"target": [], "time": []}}, "mouseout": {"state": {"target": ["6", "7", "1", "23", "0", "0", "1", "2", "4", "6", "6", "6", "16", "15", "14", "19", "19", "21"], "time": [1094, 1119, 1232, 1364, 1592, 2041, 2108, 2182, 2459, 2760, 3254, 3523, 6593, 6629, 6653, 6680, 6923, 6995]}, "edge": {"target": [], "time": []}}}, "displayed_time": "15.96", "trialTime": 17494, "trial_type": "mouselab-mdp", "trial_index": 36, "time_elapsed": 1005419, "internal_node_id": "0.0-4.0-1.0-27.0"}}, {"uniqueid": "w52675512:a63789678", "current_trial": 37, "dateTime": 1691071996333, "trialdata": {"revealed_states": [], "clicked_states": ["32"], "num_clicks_accrued": [0, 0, 0, 0, 0, 0, 0, 0, 0, 0, 0, 0, 0], "stateRewards": ["", 1, 1, 6, -14, -40, 37, 16, -13, 33, -68, 49, 2, 4, 3, 6, 55, 27, 32, 10, -65, 20, -87, 2, 1, -6, -5, -42, 12, 29, -8, 16, 76, -33], "withholdReward": false, "trial_id": "mdp_trial_29", "block": "test", "trialIndex": 30, "score": 62.85, "costs": -2.15, "simulationMode": [null, null, null, null, null], "rewards": [2, 1, -6, -8, 76], "path": ["0", "0", "23", "24", "25", "30", "32"], "rt": [5436, 82, 12, 421, 146], "actions": ["left", "left", "left", "down", "down"], "actionTimes": [8901, 9490, 10012, 10954, 11617], "queries": {"click": {"state": {"target": ["32"], "time": [4752]}, "edge": {"target": [], "time": []}}, "mouseover": {"state": {"target": ["32"], "time": [4341]}, "edge": {"target": [], "time": []}}, "mouseout": {"state": {"target": ["21", "0", "32"], "time": [2302, 3868, 4975]}, "edge": {"target": [], "time": []}}}, "displayed_time": "17.47", "trialTime": 18781, "trial_type": "mouselab-mdp", "trial_index": 37, "time_elapsed": 1024712, "internal_node_id": "0.0-4.0-1.0-28.0"}}, {"uniqueid": "w52675512:a63789678", "current_trial": 38, "dateTime": 1691072014370, "trialdata": {"revealed_states": [], "clicked_states": ["16", "21"], "num_clicks_accrued": [0, 0, 0, 0, 0, 0, 0, 0, 0, 0, 0, 0, 0], "stateRewards": ["", -1, 3, 2, 9, 41, 4, -46, -12, -54, -87, -25, 2, 3, -1, 11, -77, 12, -33, -9, -32, 35, 72, 1, 3, -7, 4, 37, 65, -73, 6, 77, -43, 8], "withholdReward": false, "trial_id": "mdp_trial_30", "block": "test", "trialIndex": 31, "score": 25.7, "costs": -4.3, "simulationMode": [null, null, null, null, null], "rewards": [2, 3, -1, -9, 35], "path": ["0", "0", "12", "13", "14", "19", "21"], "rt": [8557, 45, 28, 105, 92], "actions": ["right", "right", "right", "down", "down"], "actionTimes": [10498, 11058, 11600, 12238, 12838], "queries": {"click": {"state": {"target": ["16", "21"], "time": [3119, 6424]}, "edge": {"target": [], "time": []}}, "mouseover": {"state": {"target": ["0", "12", "18", "16", "18", "22", "21", "32"], "time": [2129, 2668, 2794, 2869, 3609, 4277, 4548, 7440]}, "edge": {"target": [], "time": []}}, "mouseout": {"state": {"target": ["0", "0", "12", "18", "16", "16", "18", "22", "21"], "time": [1437, 2184, 2729, 2824, 3225, 3555, 3682, 4318, 6674]}, "edge": {"target": [], "time": []}}}, "displayed_time": "15.94", "trialTime": 17436, "trial_type": "mouselab-mdp", "trial_index": 38, "time_elapsed": 1042749, "internal_node_id": "0.0-4.0-1.0-29.0"}}, {"uniqueid": "w52675512:a63789678", "current_trial": 39, "dateTime": 1691072032142, "trialdata": {"revealed_states": [], "clicked_states": ["32"], "num_clicks_accrued": [0, 0, 0, 0, 0, 0, 0, 0, 0, 0, 0, 0, 0], "stateRewards": ["", 2, -4, 1, -12, -59, -53, -74, 16, -88, -66, 66, 1, -2, 8, -9, -14, 22, 25, -1, -39, 47, -14, -1, -1, -2, 1, -4, 52, -26, 15, -7, 46, 43], "withholdReward": false, "trial_id": "mdp_trial_31", "block": "test", "trialIndex": 32, "score": 54.85, "costs": -2.15, "simulationMode": [null, null, null, null, null], "rewards": [-1, -1, -2, 15, 46], "path": ["0", "0", "23", "24", "25", "30", "32"], "rt": [5171, 143, 107, 219, 327], "actions": ["left", "left", "left", "down", "down"], "actionTimes": [7302, 7957, 8573, 9302, 10160], "queries": {"click": {"state": {"target": ["32"], "time": [3119]}, "edge": {"target": [], "time": []}}, "mouseover": {"state": {"target": ["0", "32", "32"], "time": [2155, 2701, 2901]}, "edge": {"target": [], "time": []}}, "mouseout": {"state": {"target": ["32", "33", "28", "0", "32", "32"], "time": [841, 904, 1245, 2232, 2731, 3316]}, "edge": {"target": [], "time": []}}}, "displayed_time": "16.13", "trialTime": 17196, "trial_type": "mouselab-mdp", "trial_index": 39, "time_elapsed": 1060519, "internal_node_id": "0.0-4.0-1.0-30.0"}}, {"uniqueid": "w52675512:a63789678", "current_trial": 40, "dateTime": 1691072049521, "trialdata": {"revealed_states": [], "clicked_states": ["32"], "num_clicks_accrued": [0, 0, 0, 0, 0, 0, 0, 0, 0, 0, 0, 0, 0], "stateRewards": ["", -1, 4, -8, 12, 14, 69, -8, 5, -72, -14, 56, -1, -1, -1, 9, 67, 19, 11, -9, -88, -58, 3, 2, -4, -8, 4, 62, 77, -74, 5, -31, 65, 88], "withholdReward": false, "trial_id": "mdp_trial_32", "block": "test", "trialIndex": 33, "score": 57.85, "costs": -2.15, "simulationMode": [null, null, null, null, null], "rewards": [2, -4, -8, 5, 65], "path": ["0", "0", "23", "24", "25", "30", "32"], "rt": [5497, 122, 126, 353, 310], "actions": ["left", "left", "left", "down", "down"], "actionTimes": [7225, 7881, 8520, 9389, 10207], "queries": {"click": {"state": {"target": ["32"], "time": [2815]}, "edge": {"target": [], "time": []}}, "mouseover": {"state": {"target": ["31", "30", "32", "32"], "time": [2264, 2338, 2471, 2727]}, "edge": {"target": [], "time": []}}, "mouseout": {"state": {"target": ["12", "0", "31", "30", "32", "32"], "time": [1115, 2141, 2299, 2362, 2491, 3053]}, "edge": {"target": [], "time": []}}}, "displayed_time": "15.73", "trialTime": 16737, "trial_type": "mouselab-mdp", "trial_index": 40, "time_elapsed": 1077900, "internal_node_id": "0.0-4.0-1.0-31.0"}}, {"uniqueid": "w52675512:a63789678", "current_trial": 41, "dateTime": 1691072067021, "trialdata": {"revealed_states": [], "clicked_states": ["16", "21"], "num_clicks_accrued": [0, 0, 0, 0, 0, 0, 0, 0, 0, 0, 0, 0, 0], "stateRewards": ["", 2, -1, 4, -9, -43, 7, 54, -13, 38, -40, -83, -1, 2, -8, -10, 34, -33, 11, -14, -79, 65, 26, 1, 2, 4, 10, 21, 1, 86, 4, -53, 28, -29], "withholdReward": false, "trial_id": "mdp_trial_33", "block": "test", "trialIndex": 34, "score": 39.7, "costs": -4.3, "simulationMode": [null, null, null, null, null], "rewards": [-1, 2, -8, -14, 65], "path": ["0", "0", "12", "13", "14", "19", "21"], "rt": [9292, 29, 41, 87, 74], "actions": ["right", "right", "right", "down", "down"], "actionTimes": [11051, 11597, 12157, 12767, 13347], "queries": {"click": {"state": {"target": ["16", "21"], "time": [3281, 7156]}, "edge": {"target": [], "time": []}}, "mouseover": {"state": {"target": ["16", "16", "15", "15", "13", "12", "21", "32"], "time": [2541, 2920, 3782, 4949, 6595, 6681, 6900, 9678]}, "edge": {"target": [], "time": []}}, "mouseout": {"state": {"target": ["0", "16", "16", "15", "15", "13", "12", "21", "21"], "time": [1283, 2585, 3760, 3871, 5850, 6614, 6700, 7236, 7381]}, "edge": {"target": [], "time": []}}}, "displayed_time": "15.76", "trialTime": 16862, "trial_type": "mouselab-mdp", "trial_index": 41, "time_elapsed": 1095400, "internal_node_id": "0.0-4.0-1.0-32.0"}}, {"uniqueid": "w52675512:a63789678", "current_trial": 42, "dateTime": 1691072088422, "trialdata": {"revealed_states": [], "clicked_states": ["11", "6", "27", "32"], "num_clicks_accrued": [0, 0, 0, 0, 0, 0, 0, 0, 0, 0, 0, 0, 0], "stateRewards": ["", 1, 1, -2, 7, -31, -6, 76, 1, -36, -16, -53, 2, 1, 7, 13, -47, -10, 47, -7, 72, 46, -56, -2, -2, -2, 11, -80, 44, 38, 16, 67, 85, -78], "withholdReward": false, "trial_id": "mdp_trial_34", "block": "test", "trialIndex": 35, "score": 86.4, "costs": -8.6, "simulationMode": [null, null, null, null, null], "rewards": [-2, -2, -2, 16, 85], "path": ["0", "0", "23", "24", "25", "30", "32"], "rt": [14794, 92, 75, 139, 154], "actions": ["left", "left", "left", "down", "down"], "actionTimes": [16601, 17212, 17804, 18461, 19133], "queries": {"click": {"state": {"target": ["11", "6", "27", "32"], "time": [2715, 6220, 9413, 12608]}, "edge": {"target": [], "time": []}}, "mouseover": {"state": {"target": ["23", "28", "11", "18", "18", "7", "6", "7", "2", "27", "26", "32", "21", "21"], "time": [2218, 2274, 2498, 3399, 4609, 5868, 6159, 6638, 6672, 6999, 9871, 10423, 13382, 13641]}, "edge": {"target": [], "time": []}}, "mouseout": {"state": {"target": ["32", "31", "0", "23", "28", "11", "18", "18", "7", "6", "7", "2", "27", "26", "32", "21"], "time": [953, 1008, 1913, 2244, 2294, 2940, 4334, 4620, 5925, 6585, 6654, 6686, 9853, 9904, 13033, 13400]}, "edge": {"target": [], "time": []}}}, "displayed_time": "19.64", "trialTime": 20752, "trial_type": "mouselab-mdp", "trial_index": 42, "time_elapsed": 1116801, "internal_node_id": "0.0-4.0-1.0-33.0"}}, {"uniqueid": "w52675512:a63789678", "current_trial": 43, "dateTime": 1691072113209, "trialdata": {"revealed_states": [], "clicked_states": ["21", "18", "16", "6"], "num_clicks_accrued": [0, 0, 0, 0, 0, 0, 0, 0, 0, 0, 0, 0, 0], "stateRewards": ["", -1, 2, -6, 6, 43, 78, 78, -2, 55, -29, -17, -2, -4, 1, -15, 13, 7, -79, 8, -28, -68, 36, -1, -3, 3, -16, 84, -18, 87, 10, 32, 13, -81], "withholdReward": false, "trial_id": "mdp_trial_35", "block": "test", "trialIndex": 36, "score": 70.4, "costs": -8.6, "simulationMode": [null, null, null, null, null], "rewards": [-1, 2, -6, 6, 78], "path": ["0", "0", "1", "2", "3", "4", "6"], "rt": [17314, 459, 244, 298, 253], "actions": ["up", "up", "up", "right", "right"], "actionTimes": [19084, 20076, 20848, 21646, 22415], "queries": {"click": {"state": {"target": ["21", "18", "16", "6"], "time": [2761, 7865, 11510, 15073]}, "edge": {"target": [], "time": []}}, "mouseover": {"state": {"target": ["21", "14", "15", "18", "15", "17", "16", "17", "6"], "time": [2566, 6289, 7173, 7398, 8634, 8683, 11292, 14351, 14870]}, "edge": {"target": [], "time": []}}, "mouseout": {"state": {"target": ["21", "0", "23", "0", "21", "21", "14", "15", "18", "15", "17", "16", "17", "16", "6"], "time": [820, 885, 1141, 1999, 2804, 3363, 6975, 7264, 8603, 8668, 8701, 11888, 14435, 14601, 15467]}, "edge": {"target": [], "time": []}}}, "displayed_time": "22.93", "trialTime": 24202, "trial_type": "mouselab-mdp", "trial_index": 43, "time_elapsed": 1141588, "internal_node_id": "0.0-4.0-1.0-34.0"}}, {"uniqueid": "w52675512:a63789678", "current_trial": 44, "dateTime": 1691072131270, "trialdata": {"revealed_states": [], "clicked_states": ["27"], "num_clicks_accrued": [0, 0, 0, 0, 0, 0, 0, 0, 0, 0, 0, 0, 0], "stateRewards": ["", 1, 1, 4, 11, 83, -66, 18, -16, -23, 5, 25, 1, -3, 1, -12, 18, 24, -86, -11, -64, 36, 40, 2, 1, -6, 13, 55, 29, 72, -2, 81, -72, -41], "withholdReward": false, "trial_id": "mdp_trial_36", "block": "test", "trialIndex": 37, "score": 62.85, "costs": -2.15, "simulationMode": [null, null, null, null, null], "rewards": [2, 1, -6, 13, 55], "path": ["0", "0", "23", "24", "25", "26", "27"], "rt": [6035, 60, 12, 214, 120], "actions": ["left", "left", "left", "up", "up"], "actionTimes": [8174, 8755, 9292, 10019, 10644], "queries": {"click": {"state": {"target": ["27"], "time": [4248]}, "edge": {"target": [], "time": []}}, "mouseover": {"state": {"target": ["23", "26", "29", "29", "27", "26", "25", "30", "32"], "time": [2612, 2711, 2770, 3038, 3826, 4794, 4852, 4914, 5120]}, "edge": {"target": [], "time": []}}, "mouseout": {"state": {"target": ["27", "28", "0", "0", "23", "26", "29", "29", "27", "26", "25", "30"], "time": [980, 1047, 1246, 2155, 2637, 2740, 2961, 3169, 4760, 4831, 4894, 5034]}, "edge": {"target": [], "time": []}}}, "displayed_time": "16.14", "trialTime": 17453, "trial_type": "mouselab-mdp", "trial_index": 44, "time_elapsed": 1159649, "internal_node_id": "0.0-4.0-1.0-35.0"}}, {"uniqueid": "w52675512:a63789678", "current_trial": 45, "dateTime": 1691072148299, "trialdata": {"revealed_states": [], "clicked_states": ["32", "27"], "num_clicks_accrued": [0, 0, 0, 0, 0, 0, 0, 0, 0, 0, 0, 0, 0], "stateRewards": ["", -2, 1, -3, -16, -39, -52, 30, -7, -41, -59, 11, 2, 1, 8, 2, -11, -26, -42, -13, 87, -59, -48, -1, -1, -1, 16, -79, 31, 50, -1, -84, 34, -82], "withholdReward": false, "trial_id": "mdp_trial_37", "block": "test", "trialIndex": 38, "score": 25.7, "costs": -4.3, "simulationMode": [null, null, null, null, null], "rewards": [-1, -1, -1, -1, 34], "path": ["0", "0", "23", "24", "25", "30", "32"], "rt": [8087, 4, 626, 347, 159], "actions": ["left", "left", "left", "down", "down"], "actionTimes": [10008, 10523, 11670, 12531, 13200], "queries": {"click": {"state": {"target": ["32", "27"], "time": [3021, 6877]}, "edge": {"target": [], "time": []}}, "mouseover": {"state": {"target": ["0", "31", "30", "32", "23", "28", "27"], "time": [2011, 2464, 2515, 2830, 6199, 6307, 6674]}, "edge": {"target": [], "time": []}}, "mouseout": {"state": {"target": ["32", "0", "0", "31", "30", "32", "23", "28", "27"], "time": [912, 1340, 2056, 2490, 2606, 3130, 6219, 6343, 7274]}, "edge": {"target": [], "time": []}}}, "displayed_time": "15.92", "trialTime": 16417, "trial_type": "mouselab-mdp", "trial_index": 45, "time_elapsed": 1176678, "internal_node_id": "0.0-4.0-1.0-36.0"}}, {"uniqueid": "w52675512:a63789678", "current_trial": 46, "dateTime": 1691072167319, "trialdata": {"revealed_states": [], "clicked_states": ["16", "21", "32"], "num_clicks_accrued": [0, 0, 0, 0, 0, 0, 0, 0, 0, 0, 0, 0, 0], "stateRewards": ["", -2, -4, 6, 14, -34, 49, 36, -8, -3, 32, -4, 1, -2, 1, -8, -20, -71, -57, -7, -86, -62, -16, -2, -3, -5, 11, 23, -21, 53, 5, -5, 85, 73], "withholdReward": false, "trial_id": "mdp_trial_38", "block": "test", "trialIndex": 39, "score": 73.55, "costs": -6.449999999999999, "simulationMode": [null, null, null, null, null], "rewards": [-2, -3, -5, 5, 85], "path": ["0", "0", "23", "24", "25", "30", "32"], "rt": [12049, 157, 86, 115, 169], "actions": ["left", "left", "left", "down", "down"], "actionTimes": [14108, 14783, 15391, 16039, 16718], "queries": {"click": {"state": {"target": ["16", "21", "32"], "time": [3099, 6658, 10082]}, "edge": {"target": [], "time": []}}, "mouseover": {"state": {"target": ["0", "18", "16", "17", "20", "21", "32", "28", "27"], "time": [2442, 2747, 2873, 3731, 6224, 6470, 9885, 10859, 11066]}, "edge": {"target": [], "time": []}}, "mouseout": {"state": {"target": ["28", "24", "23", "0", "0", "18", "16", "17", "20", "21", "32", "28"], "time": [1149, 1299, 1415, 1590, 2627, 2782, 3634, 3744, 6267, 6972, 10265, 10985]}, "edge": {"target": [], "time": []}}}, "displayed_time": "17.23", "trialTime": 18459, "trial_type": "mouselab-mdp", "trial_index": 46, "time_elapsed": 1195698, "internal_node_id": "0.0-4.0-1.0-37.0"}}, {"uniqueid": "w52675512:a63789678", "current_trial": 47, "dateTime": 1691072185095, "trialdata": {"revealed_states": [], "clicked_states": ["11", "6"], "num_clicks_accrued": [0, 0, 0, 0, 0, 0, 0, 0, 0, 0, 0, 0, 0], "stateRewards": ["", 2, -1, 5, 6, 10, 86, 55, 10, -45, 63, -71, 1, -2, 5, -8, -50, -72, 36, 15, 61, 12, 33, -1, -4, 6, 5, 79, -56, -21, -16, -87, 60, -81], "withholdReward": false, "trial_id": "mdp_trial_39", "block": "test", "trialIndex": 40, "score": 93.7, "costs": -4.3, "simulationMode": [null, null, null, null, null], "rewards": [2, -1, 5, 6, 86], "path": ["0", "0", "1", "2", "3", "4", "6"], "rt": [8459, 89, 90, 4, 91], "actions": ["up", "up", "up", "right", "right"], "actionTimes": [10545, 11148, 11746, 12258, 12868], "queries": {"click": {"state": {"target": ["11", "6"], "time": [3296, 6449]}, "edge": {"target": [], "time": []}}, "mouseover": {"state": {"target": ["24", "26", "11", "3", "6", "6", "16"], "time": [2516, 2554, 3040, 4117, 4143, 5481, 6907]}, "edge": {"target": [], "time": []}}, "mouseout": {"state": {"target": ["27", "1", "24", "26", "11", "3", "6", "6"], "time": [807, 1353, 2531, 2570, 4098, 4133, 4157, 6880]}, "edge": {"target": [], "time": []}}}, "displayed_time": "16.09", "trialTime": 17167, "trial_type": "mouselab-mdp", "trial_index": 47, "time_elapsed": 1213474, "internal_node_id": "0.0-4.0-1.0-38.0"}}, {"uniqueid": "w52675512:a63789678", "current_trial": 48, "dateTime": 1691072204253, "trialdata": {"revealed_states": [], "clicked_states": ["6", "11", "27"], "num_clicks_accrued": [0, 0, 0, 0, 0, 0, 0, 0, 0, 0, 0, 0, 0], "stateRewards": ["", -1, -4, -3, 1, -45, -67, -24, 14, 32, 22, 22, -1, 1, -5, -7, 72, 84, -79, -5, 19, -40, -2, -1, -2, 8, -3, 84, -25, -28, 11, 64, -66, 77], "withholdReward": false, "trial_id": "mdp_trial_40", "block": "test", "trialIndex": 41, "score": 79.55, "costs": -6.449999999999999, "simulationMode": [null, null, null, null, null], "rewards": [-1, -2, 8, -3, 84], "path": ["0", "0", "23", "24", "25", "26", "27"], "rt": [12572, 95, 137, 147, 256], "actions": ["left", "left", "left", "up", "up"], "actionTimes": [14236, 14848, 15495, 16152, 16916], "queries": {"click": {"state": {"target": ["6", "11", "27"], "time": [2690, 6738, 10193]}, "edge": {"target": [], "time": []}}, "mouseover": {"state": {"target": ["6", "6", "8", "11", "27", "26", "25", "32"], "time": [2245, 2494, 6054, 6145, 7351, 10572, 10608, 11237]}, "edge": {"target": [], "time": []}}, "mouseout": {"state": {"target": ["16", "16", "0", "6", "6", "8", "11", "27", "26", "25"], "time": [640, 812, 1682, 2268, 2982, 6083, 6937, 10546, 10589, 10636]}, "edge": {"target": [], "time": []}}}, "displayed_time": "17.43", "trialTime": 18529, "trial_type": "mouselab-mdp", "trial_index": 48, "time_elapsed": 1232632, "internal_node_id": "0.0-4.0-1.0-39.0"}}, {"uniqueid": "w52675512:a63789678", "current_trial": 49, "dateTime": 1691072257397, "trialdata": {"rt": 53139, "response": {"Q0": "$-16 to 16", "Q1": "$-32 to $32", "Q2": "$-88 to $88", "Q3": "The cost for clicking on nodes varied between nodes.", "Q4": "Slightly motivated"}, "question_order": [0, 1, 2, 3, 4], "trial_id": "final_quiz_control", "trial_type": "survey-multi-choice", "trial_index": 49, "time_elapsed": 1285777, "internal_node_id": "0.0-4.0-2.0"}}, {"uniqueid": "w52675512:a63789678", "current_trial": 50, "dateTime": 1691072343556, "trialdata": {"rt": 86150, "response": {"Q0": "Check the outside nodes. The one with the highest number, it's the one i decided to go for.", "Q1": "Not really.", "Q2": "No that hard. It's a game of luck more than strategy. If you hit a nice + number on first check it's a go."}, "trial_id": "self_report_control", "trial_type": "survey-text", "trial_index": 50, "time_elapsed": 1371936, "internal_node_id": "0.0-4.0-3.0"}}, {"uniqueid": "w52675512:a63789678", "current_trial": 51, "dateTime": 1691072389527, "trialdata": {"rt": 45965, "response": {"Q0": "Disagree", "Q1": "Neither disagree nor agree", "Q2": "Neither disagree nor agree", "Q3": "Agree", "Q4": "Disagree", "Q5": "Agree", "Q6": "Disagree"}, "question_order": [0, 1, 2, 3, 4, 5, 6], "trial_id": "self_report_2", "trial_type": "survey-multi-choice", "trial_index": 51, "time_elapsed": 1417907, "internal_node_id": "0.0-4.0-4.0"}}, {"uniqueid": "w52675512:a63789678", "current_trial": 52, "dateTime": 1691072424823, "trialdata": {"rt": 35289, "response": {"gender": "male", "age": "37", "colorblind": "0", "effort": "0"}, "trial_type": "survey-html-form", "trial_index": 52, "time_elapsed": 1453203, "internal_node_id": "0.0-4.0-5.0"}}, {"uniqueid": "w52675512:a63789678", "current_trial": 53, "dateTime": 1691072471710, "trialdata": {"rt": 46880, "response": {"Q0": "No, not really.", "Q1": "Never seen Web of Cash HIT before.", "Q2": "No, i'm good thanks."}, "trial_type": "survey-text", "trial_index": 53, "time_elapsed": 1500089, "internal_node_id": "0.0-4.0-6.0"}}, {"uniqueid": "w52675512:a63789678", "current_trial": 54, "dateTime": 1691072476658, "trialdata": {"rt": 4944, "stimulus": "Press 'Finish HIT' in order to reach the completion code. Once the data has been saved, you will receive the code either in this window or in the original browser window where you started the experiment.\n", "response": 0, "trial_type": "html-button-response", "trial_index": 54, "time_elapsed": 1505038, "internal_node_id": "0.0-5.0"}}, {"uniqueid": "w52675512:a63789678", "current_trial": 55, "dateTime": 1691072477663, "trialdata": {"success": true, "trial_type": "fullscreen", "trial_index": 55, "time_elapsed": 1506043, "internal_node_id": "0.0-6.0"}}], "questiondata": {"params": {"CODE": "C6DMOQA6", "MIN_TIME": 14, "inspectCost": 1, "startTime": "Thu Aug 03 2023 15:56:10 GMT+0200 (centraleuropeisk sommartid)", "bonusRate": 0.002, "variance": "1_2_4_8_44", "branching": "31123"}, "final_score": 1582.3}, "eventdata": [{"eventtype": "initialized", "value": null, "timestamp": 1691070970268, "interval": 0}, {"eventtype": "window_resize", "value": [1028, 752], "timestamp": 1691070970268, "interval": 0}, {"eventtype": "window_resize", "value": [1028, 752], "timestamp": 1691070970645, "interval": 377}, {"eventtype": "window_resize", "value": [1536, 766], "timestamp": 1691070972713, "interval": 2068}, {"eventtype": "window_resize", "value": [1536, 864], "timestamp": 1691070980819, "interval": 8106}, {"eventtype": "window_resize", "value": [1536, 766], "timestamp": 1691072476893, "interval": 1496074}], "useragent": "Mozilla/5.0 (Windows NT 10.0; Win64; x64) AppleWebKit/537.36 (KHTML, like Gecko) Chrome/115.0.0.0 Safari/537.36", "mode": "live", "id": "w52675512:a63789678", "status": "user data saved", "Beginhit": "2023-08-03 13:56:08.659018", "Beginexp": "2023-08-03 13:56:21.658673", "Endhit": "2023-08-03 14:21:18.204693", "psiturkStatus": 3, "browser": "<redacted>", "platform": "windows", "language": "sv-SE"}