{"condition": 0, "counterbalance": 0, "assignmentId": "a22975914", "workerId": "w91860587", "hitId": "h93669588", "currenttrial": 55, "bonus": 0, "data": [{"uniqueid": "w91860587:a22975914", "current_trial": 0, "dateTime": 1693579896177, "trialdata": {"success": true, "trial_type": "fullscreen", "trial_index": 0, "time_elapsed": 9217, "internal_node_id": "0.0-0.0"}}, {"uniqueid": "w91860587:a22975914", "current_trial": 1, "dateTime": 1693579926386, "trialdata": {"view_history": [{"page_index": 0, "viewing_time": 30204}], "rt": 30205, "trial_id": "exp_instructions_control", "trial_type": "instructions", "trial_index": 1, "time_elapsed": 39425, "internal_node_id": "0.0-1.0"}}, {"uniqueid": "w91860587:a22975914", "current_trial": 2, "dateTime": 1693580255161, "trialdata": {"view_history": [{"page_index": 0, "viewing_time": 141553}, {"page_index": 1, "viewing_time": 105005}, {"page_index": 2, "viewing_time": 27001}, {"page_index": 3, "viewing_time": 55219}], "rt": 328779, "trial_id": "mouselab_instructions_1_control", "trial_type": "instructions", "trial_index": 2, "time_elapsed": 368201, "internal_node_id": "0.0-2.0-1.0"}}, {"uniqueid": "w91860587:a22975914", "current_trial": 3, "dateTime": 1693580302595, "trialdata": {"revealed_states": [], "clicked_states": ["12", "23", "1", "2", "3", "4", "6"], "num_clicks_accrued": [0, 0, 0, 0, 0, 0, 0, 0, 0, 0, 0, 0, 0], "stateRewards": ["", -10, 10, 10, -10, 10, 10, 10, 10, -10, 10, -10, -10, -10, -10, 10, -10, -10, -10, 10, 10, -10, -10, -10, -10, -10, -10, -10, 10, -10, -10, -10, 10, 10], "withholdReward": false, "trial_id": "practice_1", "block": "test", "trialIndex": 0, "score": -30, "costs": -3.5, "simulationMode": [null, null, null, null, null], "rewards": [-10, -10, -10, 10, -10], "path": ["0", "0", "12", "13", "14", "19", "21"], "rt": [20376, 734, 313, 1013, 630], "actions": ["right", "right", "right", "down", "down"], "actionTimes": [25225, 26481, 27310, 28841, 29975], "queries": {"click": {"state": {"target": ["12", "23", "1", "2", "3", "4", "6"], "time": [10794, 12537, 13650, 17806, 19289, 20904, 22171]}, "edge": {"target": [], "time": []}}, "mouseover": {"state": {"target": ["12", "13", "0", "23", "1", "2", "3", "4", "6", "7"], "time": [10384, 11630, 12031, 12282, 13328, 16064, 18697, 20080, 21693, 24432]}, "edge": {"target": [], "time": []}}, "mouseout": {"state": {"target": ["0", "12", "13", "12", "0", "23", "1", "2", "3", "4", "6", "7"], "time": [10228, 11430, 11918, 11999, 12065, 13177, 15714, 18498, 20027, 21430, 23448, 24444]}, "edge": {"target": [], "time": []}}}, "displayed_time": "30.48", "trialTime": 46379, "trial_type": "mouselab-mdp", "trial_index": 3, "time_elapsed": 415634, "internal_node_id": "0.0-2.0-2.0-0.0"}}, {"uniqueid": "w91860587:a22975914", "current_trial": 4, "dateTime": 1693580344860, "trialdata": {"revealed_states": [], "clicked_states": ["12", "23"], "num_clicks_accrued": [0, 0, 0, 0, 0, 0, 0, 0, 0, 0, 0, 0, 0], "stateRewards": ["", 10, -10, 10, 10, -10, 10, 10, -10, 10, 10, -10, 10, 10, -10, -10, 10, 10, -10, 10, 10, -10, -10, 10, -10, 10, 10, -10, -10, -10, -10, -10, -10, -10], "withholdReward": false, "trial_id": "practice_2", "block": "test", "trialIndex": 1, "score": 12.5, "costs": -1, "simulationMode": [null, null, null, null, null], "rewards": [10, 10, -10, -10, 10], "path": ["0", "0", "12", "13", "14", "15", "16"], "rt": [10123, 238, 514, 1350, 801], "actions": ["right", "right", "right", "up", "up"], "actionTimes": [25447, 26205, 27228, 29097, 30415], "queries": {"click": {"state": {"target": ["12", "23"], "time": [17776, 18972]}, "edge": {"target": [], "time": []}}, "mouseover": {"state": {"target": ["12", "23", "1", "12", "0"], "time": [17566, 18683, 20915, 22132, 23100]}, "edge": {"target": [], "time": []}}, "mouseout": {"state": {"target": ["12", "23", "1", "12"], "time": [18433, 20049, 21451, 22565]}, "edge": {"target": [], "time": []}}}, "displayed_time": "30.93", "trialTime": 42178, "trial_type": "mouselab-mdp", "trial_index": 4, "time_elapsed": 457898, "internal_node_id": "0.0-2.0-2.0-1.0"}}, {"uniqueid": "w91860587:a22975914", "current_trial": 5, "dateTime": 1693580535637, "trialdata": {"view_history": [{"page_index": 0, "viewing_time": 166993}, {"page_index": 1, "viewing_time": 23784}], "rt": 190778, "trial_id": "mouselab_instructions_2_control", "trial_type": "instructions", "trial_index": 5, "time_elapsed": 648677, "internal_node_id": "0.0-2.0-3.0"}}, {"uniqueid": "w91860587:a22975914", "current_trial": 6, "dateTime": 1693580635925, "trialdata": {"rt": 100284, "response": {"Q0": "The cost for clicking on nodes may vary between nodes.", "Q1": "The better I perform the higher my bonus will be.", "Q2": "No, the amount of cash at each node of the web may be different each time.", "Q3": "To get the highest total score.", "Q4": "Only before moving the spider.", "Q5": "3 seconds"}, "question_order": [0, 1, 2, 3, 4, 5], "correct": {"Q0": "The cost for clicking on nodes may vary between nodes.", "Q1": "The better I perform the higher my bonus will be.", "Q2": "No, the amount of cash at each node of the web may be different each time.", "Q3": "To get the highest total score.", "Q4": "Only before moving the spider.", "Q5": "3 seconds"}, "trial_id": "mouselab_quiz_control", "trial_type": "survey-multi-choice", "trial_index": 6, "time_elapsed": 748965, "internal_node_id": "0.0-2.0-4.0"}}, {"uniqueid": "w91860587:a22975914", "current_trial": 7, "dateTime": 1693580647057, "trialdata": {"rt": 11125, "response": {"Q0": "No"}, "question_order": [0], "trial_id": "repeat_check", "trial_type": "survey-multi-choice", "trial_index": 7, "time_elapsed": 760097, "internal_node_id": "0.0-4.0-0.0"}}, {"uniqueid": "w91860587:a22975914", "current_trial": 8, "dateTime": 1693580853011, "trialdata": {"rt": 205952, "stimulus": "\n<h1> Get ready to start the game! </h1>\n\nThank you for reading the instructions. Get ready start with the 40 rounds of this game.\n<br><br>\nIf you need to take a break, feel free to take one after the end of a round, before continuing to the next one.\n<br><br>\nRemember, the more money the spider gets, the bigger your bonus will be!\n<br><br>\n<div style='text-align: center;'>Press <code>space</code> to begin.</div>\n\n<br><br>\n(If, at any point, the <code>space</code> key does not take you to the next page, click once on the text and try again.)", "response": " ", "trial_id": "mdp_ready", "trial_type": "html-keyboard-response", "trial_index": 8, "time_elapsed": 966051, "internal_node_id": "0.0-6.0-0.0"}}, {"uniqueid": "w91860587:a22975914", "current_trial": 9, "dateTime": 1693580881464, "trialdata": {"revealed_states": [], "clicked_states": ["1", "12"], "num_clicks_accrued": [0, 0, 0, 0, 0, 0, 0, 0, 0, 0, 0, 0, 0], "stateRewards": ["", 1, -3, -1, 9, -34, -40, 22, -7, 45, 53, -11, 2, 4, 5, 15, 21, 37, -49, -3, 80, -28, -34, 1, -3, 1, 1, -40, -6, -5, -16, -85, -86, 59], "withholdReward": false, "trial_id": "mdp_trial_1", "block": "test", "trialIndex": 2, "score": -42.8, "costs": -2.8, "simulationMode": [null, null, null, null, null], "rewards": [1, -3, 1, 1, -40], "path": ["0", "0", "23", "24", "25", "26", "27"], "rt": [14981, 1515, 500, 1065, 500], "actions": ["left", "left", "left", "up", "up"], "actionTimes": [17749, 19759, 20774, 22358, 23376], "queries": {"click": {"state": {"target": ["1", "12"], "time": [4069, 6930]}, "edge": {"target": [], "time": []}}, "mouseover": {"state": {"target": ["1", "12", "23", "0", "12", "23", "23", "23"], "time": [3791, 4490, 4926, 6227, 6675, 7224, 10646, 12680]}, "edge": {"target": [], "time": []}}, "mouseout": {"state": {"target": ["4", "7", "0", "0", "1", "12", "23", "0", "12", "12", "23", "23"], "time": [1778, 1807, 1877, 3726, 4273, 4842, 6029, 6595, 6943, 7142, 8475, 12378]}, "edge": {"target": [], "time": []}}}, "displayed_time": "23.89", "trialTime": 28360, "trial_type": "mouselab-mdp", "trial_index": 9, "time_elapsed": 994502, "internal_node_id": "0.0-6.0-1.0-0.0"}}, {"uniqueid": "w91860587:a22975914", "current_trial": 10, "dateTime": 1693580935342, "trialdata": {"revealed_states": [], "clicked_states": ["1", "23"], "num_clicks_accrued": [0, 0, 0, 0, 0, 0, 0, 0, 0, 0, 0, 0, 0], "stateRewards": ["", 2, -3, -5, 5, 11, -9, -33, 6, 67, 6, -30, -1, -2, -6, 13, 55, 13, 72, -14, 75, 21, -66, -2, -4, 6, 15, -1, -35, 60, 2, 51, -73, 12], "withholdReward": false, "trial_id": "mdp_trial_2", "block": "test", "trialIndex": 3, "score": -12.8, "costs": -2.8, "simulationMode": [null, null, null, null, null], "rewards": [2, -3, -5, 5, -9], "path": ["0", "0", "1", "2", "3", "4", "6"], "rt": [9198, 1595, 11589, 1379, 979], "actions": ["up", "up", "up", "right", "right"], "actionTimes": [11066, 13173, 25281, 27157, 28658], "queries": {"click": {"state": {"target": ["1", "23"], "time": [2504, 5131]}, "edge": {"target": [], "time": []}}, "mouseover": {"state": {"target": ["1", "12", "0", "23", "12", "1"], "time": [2279, 2743, 3109, 3359, 5940, 9727]}, "edge": {"target": [], "time": []}}, "mouseout": {"state": {"target": ["23", "0", "1", "12", "0", "23", "12", "1", "0", "1", "2", "7", "6"], "time": [1293, 2211, 2693, 3077, 3160, 5809, 8179, 42594, 43980, 44163, 44511, 44563, 44844]}, "edge": {"target": [], "time": []}}}, "displayed_time": "29.18", "trialTime": 53788, "trial_type": "mouselab-mdp", "trial_index": 10, "time_elapsed": 1048380, "internal_node_id": "0.0-6.0-1.0-1.0"}}, {"uniqueid": "w91860587:a22975914", "current_trial": 11, "dateTime": 1693580968757, "trialdata": {"revealed_states": [], "clicked_states": [], "num_clicks_accrued": [0, 0, 0, 0, 0, 0, 0, 0, 0, 0, 0, 0, 0], "stateRewards": ["", 1, 2, -8, 9, 18, -83, -11, 6, -64, -48, 17, -2, -2, -5, -3, -24, -3, -86, -2, 48, -41, -22, -2, 4, 7, 8, 81, 13, -48, 10, 61, 19, 57], "withholdReward": false, "trial_id": "mdp_trial_3", "block": "test", "trialIndex": 4, "score": -36, "costs": 0, "simulationMode": [null, null, null, null, null], "rewards": [-2, -2, -5, -3, -24], "path": ["0", "0", "12", "13", "14", "15", "16"], "rt": [8042, 599, 400, 456, 395], "actions": ["right", "right", "right", "up", "up"], "actionTimes": [9858, 10961, 11878, 12851, 13757], "queries": {"click": {"state": {"target": [], "time": []}, "edge": {"target": [], "time": []}}, "mouseover": {"state": {"target": ["1", "12", "12", "1"], "time": [2931, 6091, 6847, 7426]}, "edge": {"target": [], "time": []}}, "mouseout": {"state": {"target": ["7", "0", "1", "12", "12", "1", "0", "0", "23", "24", "25", "26", "27", "12", "13", "12", "12", "13", "14", "15", "16", "4", "3", "8", "3", "2"], "time": [929, 2529, 6046, 6127, 6894, 8613, 26132, 26195, 26665, 27031, 27413, 28080, 28965, 29148, 29514, 29677, 29862, 29913, 30146, 30429, 30530, 31082, 31147, 31211, 32562, 32612]}, "edge": {"target": [], "time": []}}}, "displayed_time": "15.82", "trialTime": 33318, "trial_type": "mouselab-mdp", "trial_index": 11, "time_elapsed": 1081795, "internal_node_id": "0.0-6.0-1.0-2.0"}}, {"uniqueid": "w91860587:a22975914", "current_trial": 12, "dateTime": 1693580998837, "trialdata": {"revealed_states": [], "clicked_states": ["3", "15"], "num_clicks_accrued": [0, 0, 0, 0, 0, 0, 0, 0, 0, 0, 0, 0, 0], "stateRewards": ["", 2, -4, 4, 9, 69, 9, -75, 12, -86, 66, 25, -1, 3, 2, -13, -88, -3, 1, 4, -69, 49, -84, 2, -1, 4, 2, -18, -81, -52, -15, -69, -54, 25], "withholdReward": false, "trial_id": "mdp_trial_4", "block": "test", "trialIndex": 5, "score": 36.2, "costs": -2.8, "simulationMode": [null, null, null, null, null], "rewards": [2, -4, 4, 12, 25], "path": ["0", "0", "1", "2", "3", "8", "11"], "rt": [8390, 249, 500, 1266, 777], "actions": ["up", "up", "up", "left", "left"], "actionTimes": [9753, 10515, 11534, 13316, 14595], "queries": {"click": {"state": {"target": ["3", "15"], "time": [2311, 4142]}, "edge": {"target": [], "time": []}}, "mouseover": {"state": {"target": ["1", "2", "3", "10", "28", "26", "15"], "time": [1752, 1816, 2100, 2501, 2685, 2918, 4005]}, "edge": {"target": [], "time": []}}, "mouseout": {"state": {"target": ["0", "1", "2", "3", "3", "10", "28", "26"], "time": [1700, 1781, 1952, 2316, 2485, 2518, 2768, 3368]}, "edge": {"target": [], "time": []}}}, "displayed_time": "15.37", "trialTime": 29989, "trial_type": "mouselab-mdp", "trial_index": 12, "time_elapsed": 1111877, "internal_node_id": "0.0-6.0-1.0-3.0"}}, {"uniqueid": "w91860587:a22975914", "current_trial": 13, "dateTime": 1693581025551, "trialdata": {"revealed_states": [], "clicked_states": [], "num_clicks_accrued": [0, 0, 0, 0, 0, 0, 0, 0, 0, 0, 0, 0, 0], "stateRewards": ["", 1, 2, -6, -13, -51, 22, -4, -12, -44, -12, 6, -2, -2, -2, -14, -46, -4, -77, -2, 36, -79, 41, 2, -4, 2, -6, -55, 59, 70, -5, 39, -19, 24], "withholdReward": false, "trial_id": "mdp_trial_5", "block": "test", "trialIndex": 6, "score": 6, "costs": 0, "simulationMode": [null, null, null, null, null], "rewards": [1, 2, -6, -13, 22], "path": ["0", "0", "1", "2", "3", "4", "6"], "rt": [14231, 60, 305, 736, 137], "actions": ["up", "up", "up", "right", "right"], "actionTimes": [19611, 20162, 20988, 22236, 22890], "queries": {"click": {"state": {"target": [], "time": []}, "edge": {"target": [], "time": []}}, "mouseover": {"state": {"target": ["1", "2", "9", "11", "27", "26", "28", "18", "15", "15", "15", "14", "13", "13", "14", "13", "12", "0", "1"], "time": [7733, 7766, 8104, 8782, 8832, 9085, 9665, 9752, 9766, 10033, 10412, 10706, 10832, 11222, 11456, 11984, 12049, 12134, 14835]}, "edge": {"target": [], "time": []}}, "mouseout": {"state": {"target": ["15", "13", "12", "1", "2", "9", "11", "27", "26", "28", "18", "15", "15", "15", "14", "13", "13", "14", "13", "12", "0"], "time": [999, 1066, 1400, 7765, 7781, 8767, 8816, 8849, 9653, 9683, 9765, 9797, 10105, 10601, 10755, 11020, 11333, 11956, 12037, 12085, 12471]}, "edge": {"target": [], "time": []}}}, "displayed_time": "23.40", "trialTime": 26618, "trial_type": "mouselab-mdp", "trial_index": 13, "time_elapsed": 1138589, "internal_node_id": "0.0-6.0-1.0-4.0"}}, {"uniqueid": "w91860587:a22975914", "current_trial": 14, "dateTime": 1693581048692, "trialdata": {"revealed_states": [], "clicked_states": ["25", "3"], "num_clicks_accrued": [0, 0, 0, 0, 0, 0, 0, 0, 0, 0, 0, 0, 0], "stateRewards": ["", -2, -3, 4, 1, 33, -53, 15, 9, -12, 61, -6, -2, 4, 6, -11, 47, -43, -7, -11, 46, 23, -28, -1, -1, 3, -10, 11, 76, -76, 10, 18, -38, 87], "withholdReward": false, "trial_id": "mdp_trial_6", "block": "test", "trialIndex": 7, "score": -55.8, "costs": -2.8, "simulationMode": [null, null, null, null, null], "rewards": [-2, -3, 4, 1, -53], "path": ["0", "0", "1", "2", "3", "4", "6"], "rt": [9007, 215, 295, 456, 2935], "actions": ["up", "up", "up", "right", "right"], "actionTimes": [11379, 12115, 12928, 13874, 17323], "queries": {"click": {"state": {"target": ["25", "3"], "time": [3941, 5455]}, "edge": {"target": [], "time": []}}, "mouseover": {"state": {"target": ["12", "13", "14", "13", "25", "28", "10", "3", "3"], "time": [2737, 2765, 3051, 3389, 3739, 4167, 4199, 4233, 4698]}, "edge": {"target": [], "time": []}}, "mouseout": {"state": {"target": ["1", "12", "13", "14", "13", "25", "28", "10", "3"], "time": [1816, 2747, 2801, 3117, 3398, 3951, 4182, 4217, 4317]}, "edge": {"target": [], "time": []}}}, "displayed_time": "17.84", "trialTime": 23041, "trial_type": "mouselab-mdp", "trial_index": 14, "time_elapsed": 1161732, "internal_node_id": "0.0-6.0-1.0-5.0"}}, {"uniqueid": "w91860587:a22975914", "current_trial": 15, "dateTime": 1693581070485, "trialdata": {"revealed_states": [], "clicked_states": ["25", "3"], "num_clicks_accrued": [0, 0, 0, 0, 0, 0, 0, 0, 0, 0, 0, 0, 0], "stateRewards": ["", 1, 1, 1, -3, -7, -1, -41, -10, 20, -72, -63, 1, -4, -2, 2, -66, 30, -84, -2, 49, 23, 71, -1, -4, 4, -12, 67, 5, 18, -16, 88, 56, -5], "withholdReward": false, "trial_id": "mdp_trial_7", "block": "test", "trialIndex": 8, "score": 51.2, "costs": -2.8, "simulationMode": [null, null, null, null, null], "rewards": [-1, -4, 4, -12, 67], "path": ["0", "0", "23", "24", "25", "26", "27"], "rt": [5759, 248, 49, 1068, 542], "actions": ["left", "left", "left", "up", "up"], "actionTimes": [8709, 9472, 10041, 11625, 12668], "queries": {"click": {"state": {"target": ["25", "3"], "time": [3964, 5562]}, "edge": {"target": [], "time": []}}, "mouseover": {"state": {"target": ["23", "24", "25", "23", "12", "13", "14", "14", "18", "7", "3", "2", "24"], "time": [3409, 3473, 3794, 4156, 4208, 4241, 4273, 4524, 4958, 5073, 5308, 6922, 7225]}, "edge": {"target": [], "time": []}}, "mouseout": {"state": {"target": ["3", "2", "1", "0", "23", "24", "25", "23", "12", "13", "14", "14", "18", "7", "3", "2", "24"], "time": [909, 956, 1061, 3377, 3441, 3542, 4140, 4172, 4223, 4257, 4324, 4890, 4992, 5124, 6891, 6956, 7259]}, "edge": {"target": [], "time": []}}}, "displayed_time": "16.95", "trialTime": 21692, "trial_type": "mouselab-mdp", "trial_index": 15, "time_elapsed": 1183524, "internal_node_id": "0.0-6.0-1.0-6.0"}}, {"uniqueid": "w91860587:a22975914", "current_trial": 16, "dateTime": 1693581105363, "trialdata": {"revealed_states": [], "clicked_states": ["14"], "num_clicks_accrued": [0, 0, 0, 0, 0, 0, 0, 0, 0, 0, 0, 0, 0], "stateRewards": ["", 2, -1, -2, -5, -47, -57, -33, -11, 31, -18, -72, -2, 1, -4, -8, -46, -53, -50, 15, -85, -9, 39, -2, -2, 1, 14, -1, -8, 53, -12, -41, -74, 62], "withholdReward": false, "trial_id": "mdp_trial_8", "block": "test", "trialIndex": 9, "score": -90.4, "costs": -1.4, "simulationMode": [null, null, null, null, null], "rewards": [-2, -2, 1, -12, -74], "path": ["0", "0", "23", "24", "25", "30", "32"], "rt": [7698, 603, 354, 815, 405], "actions": ["left", "left", "left", "down", "down"], "actionTimes": [9020, 10130, 10982, 12308, 13233], "queries": {"click": {"state": {"target": ["14"], "time": [2702]}, "edge": {"target": [], "time": []}}, "mouseover": {"state": {"target": ["23", "24", "25", "25", "24", "23", "0", "12", "13", "14", "13", "18", "7", "3", "10", "28", "25"], "time": [1593, 1627, 1676, 2128, 2178, 2211, 2228, 2262, 2309, 2395, 2994, 3042, 3109, 3228, 5281, 5448, 6646]}, "edge": {"target": [], "time": []}}, "mouseout": {"state": {"target": ["0", "23", "24", "25", "25", "24", "23", "0", "12", "13", "14", "13", "18", "7", "3", "10", "28", "25", "0", "1", "1"], "time": [1581, 1611, 1642, 1745, 2162, 2193, 2227, 2261, 2295, 2345, 2864, 3010, 3061, 3161, 5044, 5362, 5878, 31396, 33416, 34029, 34449]}, "edge": {"target": [], "time": []}}}, "displayed_time": "15.32", "trialTime": 34789, "trial_type": "mouselab-mdp", "trial_index": 16, "time_elapsed": 1218402, "internal_node_id": "0.0-6.0-1.0-7.0"}}, {"uniqueid": "w91860587:a22975914", "current_trial": 17, "dateTime": 1693581126141, "trialdata": {"revealed_states": [], "clicked_states": ["9", "30"], "num_clicks_accrued": [0, 0, 0, 0, 0, 0, 0, 0, 0, 0, 0, 0, 0], "stateRewards": ["", 2, 3, 6, -5, -74, -53, 17, -12, 46, 44, 18, -2, 4, 1, -8, 22, -23, -49, 9, -45, 55, 81, 1, -1, -7, -16, -83, -71, -45, 2, 51, 82, 61], "withholdReward": false, "trial_id": "mdp_trial_9", "block": "test", "trialIndex": 10, "score": 42.2, "costs": -2.8, "simulationMode": [null, null, null, null, null], "rewards": [2, 3, 6, -12, 46], "path": ["0", "0", "1", "2", "3", "8", "9"], "rt": [7003, 292, 434, 691, 1250], "actions": ["up", "up", "up", "left", "up"], "actionTimes": [8367, 9179, 10125, 11330, 13091], "queries": {"click": {"state": {"target": ["9", "30"], "time": [2365, 4697]}, "edge": {"target": [], "time": []}}, "mouseover": {"state": {"target": ["9", "3", "18", "20", "21", "31", "30", "31", "23", "0"], "time": [2075, 2570, 2603, 2655, 3286, 4144, 4438, 5204, 5319, 5586]}, "edge": {"target": [], "time": []}}, "mouseout": {"state": {"target": ["2", "1", "9", "3", "18", "20", "21", "31", "30", "31", "23", "0"], "time": [774, 856, 2537, 2585, 2622, 2669, 3873, 4393, 5172, 5236, 5470, 5939]}, "edge": {"target": [], "time": []}}}, "displayed_time": "15.37", "trialTime": 20676, "trial_type": "mouselab-mdp", "trial_index": 17, "time_elapsed": 1239180, "internal_node_id": "0.0-6.0-1.0-8.0"}}, {"uniqueid": "w91860587:a22975914", "current_trial": 18, "dateTime": 1693581148778, "trialdata": {"revealed_states": [], "clicked_states": ["21", "29"], "num_clicks_accrued": [0, 0, 0, 0, 0, 0, 0, 0, 0, 0, 0, 0, 0], "stateRewards": ["", 1, 2, 2, -15, -84, 28, -26, 13, 31, 86, 30, -2, 1, -1, -8, 66, -40, -1, -10, -32, 57, -17, 1, 2, -2, 9, -23, 77, 85, 12, -32, -62, -35], "withholdReward": false, "trial_id": "mdp_trial_10", "block": "test", "trialIndex": 11, "score": 92.2, "costs": -2.8, "simulationMode": [null, null, null, null, null], "rewards": [1, 2, -2, 9, 85], "path": ["0", "0", "23", "24", "25", "26", "29"], "rt": [9390, 327, 398, 606, 600], "actions": ["left", "left", "left", "up", "left"], "actionTimes": [10817, 11658, 12576, 13687, 14794], "queries": {"click": {"state": {"target": ["21", "29"], "time": [2222, 3799]}, "edge": {"target": [], "time": []}}, "mouseover": {"state": {"target": ["12", "22", "21", "22", "12", "2", "9", "8", "26", "29", "25", "30", "23", "0"], "time": [1727, 1761, 1828, 2460, 2496, 2546, 2877, 3296, 3413, 3662, 4679, 4795, 5847, 5930]}, "edge": {"target": [], "time": []}}, "mouseout": {"state": {"target": ["0", "0", "12", "22", "21", "22", "12", "2", "9", "8", "26", "29", "25", "30", "23", "0"], "time": [932, 1713, 1743, 1796, 2427, 2480, 2512, 2579, 3280, 3313, 3579, 4479, 4746, 5732, 5898, 5983]}, "edge": {"target": [], "time": []}}}, "displayed_time": "15.43", "trialTime": 22536, "trial_type": "mouselab-mdp", "trial_index": 18, "time_elapsed": 1261816, "internal_node_id": "0.0-6.0-1.0-9.0"}}, {"uniqueid": "w91860587:a22975914", "current_trial": 19, "dateTime": 1693581170706, "trialdata": {"revealed_states": [], "clicked_states": ["9", "26", "21"], "num_clicks_accrued": [0, 0, 0, 0, 0, 0, 0, 0, 0, 0, 0, 0, 0], "stateRewards": ["", -1, -3, -5, -14, -13, -47, 79, 8, -60, -64, 41, -1, 2, 3, 13, -46, 61, -79, -11, -64, -65, 23, 1, -2, 6, -14, 46, 32, 21, 7, 75, -66, 15], "withholdReward": false, "trial_id": "mdp_trial_11", "block": "test", "trialIndex": 12, "score": -33.2, "costs": -4.199999999999999, "simulationMode": [null, null, null, null, null], "rewards": [-1, 2, 3, 13, -46], "path": ["0", "0", "12", "13", "14", "15", "16"], "rt": [12990, 622, 632, 281, 673], "actions": ["right", "right", "right", "up", "up"], "actionTimes": [14167, 15309, 16454, 17251, 18442], "queries": {"click": {"state": {"target": ["9", "26", "21"], "time": [1946, 4261, 8146]}, "edge": {"target": [], "time": []}}, "mouseover": {"state": {"target": ["10", "8", "9", "12", "22", "21", "25", "29", "26", "28", "23", "21", "22", "12", "0"], "time": [1523, 1569, 1740, 2237, 2255, 2618, 3671, 3924, 4038, 6701, 6820, 7772, 10021, 10590, 10906]}, "edge": {"target": [], "time": []}}, "mouseout": {"state": {"target": ["0", "10", "8", "9", "9", "12", "22", "21", "25", "29", "26", "26", "28", "23", "21", "22", "12"], "time": [1454, 1555, 1640, 1951, 2154, 2254, 2288, 3571, 3684, 3989, 4423, 6688, 6737, 6872, 9939, 10504, 10838]}, "edge": {"target": [], "time": []}}}, "displayed_time": "18.95", "trialTime": 21821, "trial_type": "mouselab-mdp", "trial_index": 19, "time_elapsed": 1283745, "internal_node_id": "0.0-6.0-1.0-10.0"}}, {"uniqueid": "w91860587:a22975914", "current_trial": 20, "dateTime": 1693581193082, "trialdata": {"revealed_states": [], "clicked_states": ["26", "3", "30"], "num_clicks_accrued": [0, 0, 0, 0, 0, 0, 0, 0, 0, 0, 0, 0, 0], "stateRewards": ["", -2, 2, 2, -6, 9, 37, 50, -13, -7, -18, -75, -2, -4, 4, 7, 23, -57, -66, -7, -81, -48, -76, 1, 1, -8, 1, 51, -2, 70, 14, 59, 71, -37], "withholdReward": false, "trial_id": "mdp_trial_12", "block": "test", "trialIndex": 13, "score": 74.8, "costs": -4.199999999999999, "simulationMode": [null, null, null, null, null], "rewards": [1, 1, -8, 14, 71], "path": ["0", "0", "23", "24", "25", "30", "32"], "rt": [11958, 436, 416, 560, 774], "actions": ["left", "left", "left", "down", "down"], "actionTimes": [13597, 14550, 15479, 16558, 17840], "queries": {"click": {"state": {"target": ["26", "3", "30"], "time": [2374, 4189, 6539]}, "edge": {"target": [], "time": []}}, "mouseover": {"state": {"target": ["28", "26", "25", "24", "18", "15", "4", "3", "7", "18", "21", "21", "30", "31"], "time": [2147, 2214, 2630, 2715, 2947, 3279, 3883, 4111, 4564, 4582, 4928, 5147, 6383, 9783]}, "edge": {"target": [], "time": []}}, "mouseout": {"state": {"target": ["0", "28", "26", "25", "24", "18", "15", "4", "3", "7", "18", "21", "21", "30", "31"], "time": [2062, 2180, 2598, 2714, 2730, 3013, 3780, 3929, 4531, 4581, 4597, 4948, 5880, 9613, 9981]}, "edge": {"target": [], "time": []}}}, "displayed_time": "18.35", "trialTime": 22272, "trial_type": "mouselab-mdp", "trial_index": 20, "time_elapsed": 1306121, "internal_node_id": "0.0-6.0-1.0-11.0"}}, {"uniqueid": "w91860587:a22975914", "current_trial": 21, "dateTime": 1693581213957, "trialdata": {"revealed_states": [], "clicked_states": ["14", "25", "21"], "num_clicks_accrued": [0, 0, 0, 0, 0, 0, 0, 0, 0, 0, 0, 0, 0], "stateRewards": ["", 1, 2, -5, 14, 54, -14, -25, 16, -5, -87, 78, -1, 1, 3, -3, 52, 53, 53, -10, 73, -69, -48, 2, 3, 1, 8, -62, -7, 85, 7, 82, 52, -28], "withholdReward": false, "trial_id": "mdp_trial_13", "block": "test", "trialIndex": 14, "score": 47.8, "costs": -4.199999999999999, "simulationMode": [null, null, null, null, null], "rewards": [-1, 1, 3, -3, 52], "path": ["0", "0", "12", "13", "14", "15", "16"], "rt": [11549, 1110, 100, 396, 618], "actions": ["right", "right", "right", "up", "up"], "actionTimes": [13031, 14651, 15272, 16182, 17308], "queries": {"click": {"state": {"target": ["14", "25", "21"], "time": [2263, 3892, 5861]}, "edge": {"target": [], "time": []}}, "mouseover": {"state": {"target": ["12", "13", "14", "14", "13", "25", "3", "2", "12", "13", "20", "21", "22", "0"], "time": [1803, 1853, 1955, 2155, 2472, 3055, 4602, 5154, 5286, 5303, 5337, 5675, 11090, 11574]}, "edge": {"target": [], "time": []}}, "mouseout": {"state": {"target": ["0", "12", "13", "14", "14", "13", "25", "3", "2", "12", "13", "20", "21", "22"], "time": [1791, 1839, 1889, 2040, 2268, 2490, 4235, 5120, 5187, 5302, 5321, 5352, 5871, 11158]}, "edge": {"target": [], "time": []}}}, "displayed_time": "17.82", "trialTime": 20773, "trial_type": "mouselab-mdp", "trial_index": 21, "time_elapsed": 1326997, "internal_node_id": "0.0-6.0-1.0-12.0"}}, {"uniqueid": "w91860587:a22975914", "current_trial": 22, "dateTime": 1693581232239, "trialdata": {"revealed_states": [], "clicked_states": ["8", "25", "14"], "num_clicks_accrued": [0, 0, 0, 0, 0, 0, 0, 0, 0, 0, 0, 0, 0], "stateRewards": ["", -2, -1, -6, -14, -55, 78, -13, 11, 14, -71, 59, 2, 2, 6, -6, 9, 38, 14, 7, 85, 11, 68, 1, -4, -1, -3, -63, -85, 9, -2, 63, -86, -10], "withholdReward": false, "trial_id": "mdp_trial_14", "block": "test", "trialIndex": 15, "score": 8.8, "costs": -4.199999999999999, "simulationMode": [null, null, null, null, null], "rewards": [2, 2, 6, -6, 9], "path": ["0", "0", "12", "13", "14", "15", "16"], "rt": [10386, 548, 371, 815, 44], "actions": ["right", "right", "right", "up", "up"], "actionTimes": [11145, 12187, 13070, 14398, 14962], "queries": {"click": {"state": {"target": ["8", "25", "14"], "time": [1592, 3272, 5042]}, "edge": {"target": [], "time": []}}, "mouseover": {"state": {"target": ["1", "8", "8", "13", "21", "31", "25", "24", "23", "0", "12", "13", "14", "13", "12", "0"], "time": [1087, 1154, 1420, 1951, 2233, 2801, 3099, 3498, 3533, 3567, 3616, 3699, 4084, 6066, 6381, 7601]}, "edge": {"target": [], "time": []}}, "mouseout": {"state": {"target": ["0", "1", "8", "8", "13", "21", "31", "25", "24", "23", "0", "12", "13", "14", "13", "12"], "time": [1029, 1100, 1201, 1902, 1965, 2685, 2817, 3276, 3533, 3550, 3601, 3666, 3798, 6000, 6349, 7387]}, "edge": {"target": [], "time": []}}}, "displayed_time": "15.48", "trialTime": 18183, "trial_type": "mouselab-mdp", "trial_index": 22, "time_elapsed": 1345277, "internal_node_id": "0.0-6.0-1.0-13.0"}}, {"uniqueid": "w91860587:a22975914", "current_trial": 23, "dateTime": 1693581257475, "trialdata": {"revealed_states": [], "clicked_states": [], "num_clicks_accrued": [0, 0, 0, 0, 0, 0, 0, 0, 0, 0, 0, 0, 0], "stateRewards": ["", 1, 4, 5, -5, 58, -80, 75, 6, 25, -39, 46, 2, -2, 4, 2, 59, 31, -22, -12, -61, 15, 72, 1, -2, -7, 8, 77, 76, -23, -7, 71, -15, -3], "withholdReward": false, "trial_id": "mdp_trial_15", "block": "test", "trialIndex": 16, "score": -75, "costs": 0, "simulationMode": [null, null, null, null, null], "rewards": [1, 4, 5, -5, -80], "path": ["0", "0", "1", "2", "3", "4", "6"], "rt": [1540, 309, 124, 391, 203], "actions": ["up", "up", "up", "right", "right"], "actionTimes": [9548, 10372, 11015, 11917, 12628], "queries": {"click": {"state": {"target": [], "time": []}, "edge": {"target": [], "time": []}}, "mouseover": {"state": {"target": ["12"], "time": [8775]}, "edge": {"target": [], "time": []}}, "mouseout": {"state": {"target": ["0", "12", "0", "7", "7"], "time": [8745, 14876, 15512, 15613, 24930]}, "edge": {"target": [], "time": []}}}, "displayed_time": "22.01", "trialTime": 25145, "trial_type": "mouselab-mdp", "trial_index": 23, "time_elapsed": 1370514, "internal_node_id": "0.0-6.0-1.0-14.0"}}, {"uniqueid": "w91860587:a22975914", "current_trial": 24, "dateTime": 1693581533787, "trialdata": {"revealed_states": [], "clicked_states": ["29", "9"], "num_clicks_accrued": [0, 0, 0, 0, 0, 0, 0, 0, 0, 0, 0, 0, 0], "stateRewards": ["", 1, -4, -4, 8, 1, -79, 68, -10, -79, 8, -74, -1, -3, -6, 14, 43, 23, 9, 5, -51, 63, 61, -2, 4, 6, -10, 69, -32, 57, 15, -80, -80, -77], "withholdReward": false, "trial_id": "mdp_trial_16", "block": "test", "trialIndex": 17, "score": 52.2, "costs": -2.8, "simulationMode": [null, null, null, null, null], "rewards": [-2, 4, 6, -10, 57], "path": ["0", "0", "23", "24", "25", "26", "29"], "rt": [9184, 71, 479, 672, 521], "actions": ["left", "left", "left", "up", "left"], "actionTimes": [10502, 11094, 12086, 13279, 14296], "queries": {"click": {"state": {"target": ["29", "9"], "time": [2218, 4144]}, "edge": {"target": [], "time": []}}, "mouseover": {"state": {"target": ["26", "29", "15", "17", "17", "4", "9", "2", "1", "0", "12", "22", "21", "22", "12", "0"], "time": [1757, 1974, 2469, 2506, 2773, 3573, 3924, 4622, 4706, 4938, 5107, 5172, 5590, 6577, 7261, 7508]}, "edge": {"target": [], "time": []}}, "mouseout": {"state": {"target": ["7", "0", "26", "29", "15", "17", "17", "4", "9", "2", "1", "0", "12", "22", "21", "22", "12", "0"], "time": [590, 1640, 1820, 2354, 2490, 2539, 3474, 3607, 4490, 4655, 4837, 5088, 5137, 5221, 6426, 6660, 7310, 17177]}, "edge": {"target": [], "time": []}}}, "displayed_time": "15.32", "trialTime": 276204, "trial_type": "mouselab-mdp", "trial_index": 24, "time_elapsed": 1646827, "internal_node_id": "0.0-6.0-1.0-15.0"}}, {"uniqueid": "w91860587:a22975914", "current_trial": 25, "dateTime": 1693581552259, "trialdata": {"revealed_states": [], "clicked_states": ["9", "32", "21"], "num_clicks_accrued": [0, 0, 0, 0, 0, 0, 0, 0, 0, 0, 0, 0, 0], "stateRewards": ["", 1, -2, 7, -14, 88, -56, -44, -14, 64, -51, -57, -2, 3, -4, -9, -11, 19, -77, -1, 68, 75, -67, -1, 1, -2, 5, -37, 70, -34, -10, -72, 63, -41], "withholdReward": false, "trial_id": "mdp_trial_17", "block": "test", "trialIndex": 18, "score": 66.8, "costs": -4.199999999999999, "simulationMode": [null, null, null, null, null], "rewards": [-2, 3, -4, -1, 75], "path": ["0", "0", "12", "13", "14", "19", "21"], "rt": [10767, 444, 338, 318, 244], "actions": ["right", "right", "right", "down", "down"], "actionTimes": [11696, 12660, 13506, 14336, 15095], "queries": {"click": {"state": {"target": ["9", "32", "21"], "time": [1943, 4408, 7524]}, "edge": {"target": [], "time": []}}, "mouseover": {"state": {"target": ["1", "2", "3", "8", "9", "28", "24", "31", "32", "32", "21", "21", "22", "12", "0"], "time": [1236, 1271, 1456, 1575, 1709, 2322, 2357, 2405, 2522, 2855, 5088, 5272, 10037, 10387, 10502]}, "edge": {"target": [], "time": []}}, "mouseout": {"state": {"target": ["0", "1", "2", "3", "8", "9", "28", "24", "31", "32", "32", "21", "21", "22", "12", "0"], "time": [1175, 1256, 1306, 1470, 1638, 2239, 2356, 2388, 2422, 2639, 4953, 5120, 8599, 10100, 10397, 10752]}, "edge": {"target": [], "time": []}}}, "displayed_time": "15.62", "trialTime": 18359, "trial_type": "mouselab-mdp", "trial_index": 25, "time_elapsed": 1665297, "internal_node_id": "0.0-6.0-1.0-16.0"}}, {"uniqueid": "w91860587:a22975914", "current_trial": 26, "dateTime": 1693581577788, "trialdata": {"revealed_states": [], "clicked_states": ["3", "20"], "num_clicks_accrued": [0, 0, 0, 0, 0, 0, 0, 0, 0, 0, 0, 0, 0], "stateRewards": ["", 1, -2, -8, -3, 31, -84, -55, -14, 15, -58, 17, -2, -3, 7, 7, -12, 48, 67, 4, -44, -68, 46, 2, 3, -5, -7, 76, 27, 5, 11, 57, 52, 59], "withholdReward": false, "trial_id": "mdp_trial_18", "block": "test", "trialIndex": 19, "score": -98.8, "costs": -2.8, "simulationMode": [null, null, null, null, null], "rewards": [1, -2, -8, -3, -84], "path": ["0", "0", "1", "2", "3", "4", "6"], "rt": [10768, 571, 15, 1247, 629], "actions": ["up", "up", "up", "right", "right"], "actionTimes": [14157, 15239, 15762, 17530, 18678], "queries": {"click": {"state": {"target": ["3", "20"], "time": [4307, 6458]}, "edge": {"target": [], "time": []}}, "mouseover": {"state": {"target": ["4", "3", "29", "22", "19", "20", "21"], "time": [3986, 4050, 4899, 5765, 5849, 6299, 6965]}, "edge": {"target": [], "time": []}}, "mouseout": {"state": {"target": ["0", "0", "0", "4", "3", "29", "22", "19", "20", "20", "21"], "time": [733, 1249, 3686, 4013, 4597, 5582, 5814, 5982, 6463, 6696, 12419]}, "edge": {"target": [], "time": []}}}, "displayed_time": "19.20", "trialTime": 25422, "trial_type": "mouselab-mdp", "trial_index": 26, "time_elapsed": 1690827, "internal_node_id": "0.0-6.0-1.0-17.0"}}, {"uniqueid": "w91860587:a22975914", "current_trial": 27, "dateTime": 1693581598400, "trialdata": {"revealed_states": [], "clicked_states": ["9", "29", "21"], "num_clicks_accrued": [0, 0, 0, 0, 0, 0, 0, 0, 0, 0, 0, 0, 0], "stateRewards": ["", 1, 1, -5, 8, -6, 45, 16, -6, -7, -22, -38, -1, -4, 8, -11, -16, 21, -45, -15, -59, -32, 42, -1, 3, 6, 11, -7, 34, -27, -8, 85, 43, -9], "withholdReward": false, "trial_id": "mdp_trial_19", "block": "test", "trialIndex": 20, "score": 38.8, "costs": -4.199999999999999, "simulationMode": [null, null, null, null, null], "rewards": [-1, 3, 6, -8, 43], "path": ["0", "0", "23", "24", "25", "30", "32"], "rt": [12008, 409, 323, 567, 487], "actions": ["left", "left", "left", "down", "down"], "actionTimes": [13274, 14202, 15034, 16111, 17115], "queries": {"click": {"state": {"target": ["9", "29", "21"], "time": [2365, 4586, 7017]}, "edge": {"target": [], "time": []}}, "mouseover": {"state": {"target": ["8", "9", "11", "27", "29", "26", "24", "22", "21", "22"], "time": [2028, 2110, 2824, 2909, 3224, 5826, 6189, 6612, 6727, 10310]}, "edge": {"target": [], "time": []}}, "mouseout": {"state": {"target": ["0", "8", "9", "11", "27", "29", "26", "24", "22", "21", "21"], "time": [1677, 2041, 2774, 2860, 2941, 5710, 6141, 6242, 6623, 8408, 9879]}, "edge": {"target": [], "time": []}}}, "displayed_time": "17.63", "trialTime": 20493, "trial_type": "mouselab-mdp", "trial_index": 27, "time_elapsed": 1711438, "internal_node_id": "0.0-6.0-1.0-18.0"}}, {"uniqueid": "w91860587:a22975914", "current_trial": 28, "dateTime": 1693581616965, "trialdata": {"revealed_states": [], "clicked_states": ["11", "17", "29"], "num_clicks_accrued": [0, 0, 0, 0, 0, 0, 0, 0, 0, 0, 0, 0, 0], "stateRewards": ["", -1, 3, 8, 9, -53, 20, -84, 2, -28, -62, -31, -1, -2, -7, 2, 51, 58, 45, -4, -17, -41, 36, 2, -2, -7, -15, 29, -54, -37, -16, -43, 65, -17], "withholdReward": false, "trial_id": "mdp_trial_20", "block": "test", "trialIndex": 21, "score": 45.8, "costs": -4.199999999999999, "simulationMode": [null, null, null, null, null], "rewards": [-1, -2, -7, 2, 58], "path": ["0", "0", "12", "13", "14", "15", "17"], "rt": [10373, 1084, 659, 351, 101], "actions": ["right", "right", "right", "up", "right"], "actionTimes": [11832, 13430, 14602, 15464, 16079], "queries": {"click": {"state": {"target": ["11", "17", "29"], "time": [2587, 4587, 7133]}, "edge": {"target": [], "time": []}}, "mouseover": {"state": {"target": ["1", "2", "8", "11", "8", "7", "15", "17", "15", "18", "1", "28", "26", "29", "29", "26", "0", "0"], "time": [1896, 1929, 2198, 2279, 2877, 2908, 2961, 3242, 5244, 5296, 5661, 5726, 5994, 6225, 6864, 7777, 9531, 9845]}, "edge": {"target": [], "time": []}}, "mouseout": {"state": {"target": ["22", "12", "1", "2", "8", "11", "8", "7", "15", "17", "17", "15", "18", "1", "28", "26", "29", "29", "26", "0", "0"], "time": [928, 1028, 1928, 1943, 2245, 2876, 2892, 2925, 2976, 4697, 5175, 5295, 5344, 5692, 5974, 6060, 6397, 7143, 7825, 9575, 9894]}, "edge": {"target": [], "time": []}}}, "displayed_time": "16.59", "trialTime": 18459, "trial_type": "mouselab-mdp", "trial_index": 28, "time_elapsed": 1730003, "internal_node_id": "0.0-6.0-1.0-19.0"}}, {"uniqueid": "w91860587:a22975914", "current_trial": 29, "dateTime": 1693581634289, "trialdata": {"revealed_states": [], "clicked_states": ["9", "21"], "num_clicks_accrued": [0, 0, 0, 0, 0, 0, 0, 0, 0, 0, 0, 0, 0], "stateRewards": ["", -2, 1, -5, 2, -68, 80, 33, 10, 67, -59, 20, -1, -3, 3, 14, 74, -2, 24, -16, 63, 80, 46, -1, 4, 6, 12, 83, -38, -43, -4, 43, 14, -79], "withholdReward": false, "trial_id": "mdp_trial_21", "block": "test", "trialIndex": 22, "score": 60.2, "costs": -2.8, "simulationMode": [null, null, null, null, null], "rewards": [-1, -3, 3, -16, 80], "path": ["0", "0", "12", "13", "14", "19", "21"], "rt": [8705, 1089, 907, 1099, 42], "actions": ["right", "right", "right", "down", "down"], "actionTimes": [9873, 11482, 12901, 14493, 15051], "queries": {"click": {"state": {"target": ["9", "21"], "time": [2967, 4771]}, "edge": {"target": [], "time": []}}, "mouseover": {"state": {"target": ["1", "2", "3", "9", "3", "13", "21", "21", "31", "30", "23", "0"], "time": [2462, 2493, 2527, 2746, 3143, 3209, 3426, 3943, 5810, 5893, 7228, 9161]}, "edge": {"target": [], "time": []}}, "mouseout": {"state": {"target": ["0", "0", "1", "2", "3", "9", "9", "3", "13", "21", "21", "31", "30", "23", "0"], "time": [570, 2427, 2492, 2509, 2560, 3062, 3108, 3159, 3243, 3593, 5209, 5860, 6241, 7347, 9174]}, "edge": {"target": [], "time": []}}}, "displayed_time": "15.58", "trialTime": 17216, "trial_type": "mouselab-mdp", "trial_index": 29, "time_elapsed": 1747327, "internal_node_id": "0.0-6.0-1.0-20.0"}}, {"uniqueid": "w91860587:a22975914", "current_trial": 30, "dateTime": 1693581653361, "trialdata": {"revealed_states": [], "clicked_states": ["11", "33"], "num_clicks_accrued": [0, 0, 0, 0, 0, 0, 0, 0, 0, 0, 0, 0, 0], "stateRewards": ["", 1, 4, -4, 14, 35, 51, 19, -13, 54, 78, -74, -2, -1, -3, 13, -11, -42, -73, -15, -24, -3, -69, 2, -1, 5, 16, -27, 73, 58, 9, -60, 5, -60], "withholdReward": false, "trial_id": "mdp_trial_22", "block": "test", "trialIndex": 23, "score": -26.8, "costs": -2.8, "simulationMode": [null, null, null, null, null], "rewards": [-2, -1, -3, -15, -3], "path": ["0", "0", "12", "13", "14", "19", "21"], "rt": [8574, 1825, 1276, 321, 468], "actions": ["right", "right", "right", "down", "down"], "actionTimes": [10374, 12716, 14500, 15327, 16292], "queries": {"click": {"state": {"target": ["11", "33"], "time": [2967, 5348]}, "edge": {"target": [], "time": []}}, "mouseover": {"state": {"target": ["1", "10", "11", "8", "7", "18", "14", "17", "17", "15", "23", "24", "33", "30", "31"], "time": [2226, 2573, 2710, 3190, 3223, 3241, 3340, 3604, 3789, 4324, 4423, 4456, 4991, 6107, 6324]}, "edge": {"target": [], "time": []}}, "mouseout": {"state": {"target": ["0", "1", "10", "11", "8", "7", "18", "14", "17", "17", "15", "23", "24", "33", "30", "31", "12"], "time": [2151, 2237, 2625, 3174, 3207, 3240, 3273, 3390, 3623, 4304, 4337, 4438, 4473, 6039, 6191, 6540, 18655]}, "edge": {"target": [], "time": []}}}, "displayed_time": "16.81", "trialTime": 18967, "trial_type": "mouselab-mdp", "trial_index": 30, "time_elapsed": 1766399, "internal_node_id": "0.0-6.0-1.0-21.0"}}, {"uniqueid": "w91860587:a22975914", "current_trial": 31, "dateTime": 1693581670536, "trialdata": {"revealed_states": [], "clicked_states": ["11", "25"], "num_clicks_accrued": [0, 0, 0, 0, 0, 0, 0, 0, 0, 0, 0, 0, 0], "stateRewards": ["", 1, 1, 4, 11, 83, -66, 18, -16, -23, 5, 25, 1, -3, 1, -12, 18, 24, -86, -11, -64, 36, 40, 2, 1, -6, 13, 55, 29, 72, -2, 81, -72, -41], "withholdReward": false, "trial_id": "mdp_trial_23", "block": "test", "trialIndex": 24, "score": 12.2, "costs": -2.8, "simulationMode": [null, null, null, null, null], "rewards": [1, 1, 4, -16, 25], "path": ["0", "0", "1", "2", "3", "8", "11"], "rt": [7828, 821, 786, 423, 481], "actions": ["up", "up", "up", "left", "left"], "actionTimes": [8828, 10161, 11458, 12395, 13385], "queries": {"click": {"state": {"target": ["11", "25"], "time": [1980, 5179]}, "edge": {"target": [], "time": []}}, "mouseover": {"state": {"target": ["10", "11", "12", "13", "14", "20", "19", "22", "24", "25", "24"], "time": [1457, 1772, 2351, 2601, 2637, 3054, 3586, 3618, 4271, 4556, 5837]}, "edge": {"target": [], "time": []}}, "mouseout": {"state": {"target": ["0", "0", "10", "11", "12", "13", "14", "20", "19", "22", "24", "25", "24"], "time": [566, 1367, 1487, 2221, 2388, 2618, 2653, 3585, 3603, 3636, 4323, 5588, 5870]}, "edge": {"target": [], "time": []}}}, "displayed_time": "15.01", "trialTime": 17073, "trial_type": "mouselab-mdp", "trial_index": 31, "time_elapsed": 1783574, "internal_node_id": "0.0-6.0-1.0-22.0"}}, {"uniqueid": "w91860587:a22975914", "current_trial": 32, "dateTime": 1693581688844, "trialdata": {"revealed_states": [], "clicked_states": ["26", "3", "15"], "num_clicks_accrued": [0, 0, 0, 0, 0, 0, 0, 0, 0, 0, 0, 0, 0], "stateRewards": ["", 1, -3, -4, -11, -56, 61, -47, -16, -28, -9, 69, -2, -3, -4, -8, 40, -86, 59, -4, 80, 27, 54, -1, 3, -1, 8, 67, 23, 50, 6, 83, -43, -29], "withholdReward": false, "trial_id": "mdp_trial_24", "block": "test", "trialIndex": 25, "score": 71.8, "costs": -4.199999999999999, "simulationMode": [null, null, null, null, null], "rewards": [-1, 3, -1, 8, 67], "path": ["0", "0", "23", "24", "25", "26", "27"], "rt": [8837, 551, 1127, 679, 420], "actions": ["left", "left", "left", "up", "up"], "actionTimes": [10676, 11728, 13368, 14557, 15496], "queries": {"click": {"state": {"target": ["26", "3", "15"], "time": [2820, 4817, 6362]}, "edge": {"target": [], "time": []}}, "mouseover": {"state": {"target": ["28", "26", "18", "15", "17", "15", "4", "3", "15"], "time": [2263, 2477, 3126, 3144, 3226, 3609, 4126, 4358, 6059]}, "edge": {"target": [], "time": []}}, "mouseout": {"state": {"target": ["12", "0", "28", "26", "18", "15", "17", "15", "4", "3", "15"], "time": [759, 1694, 2309, 3043, 3143, 3177, 3376, 4007, 4261, 5925, 7057]}, "edge": {"target": [], "time": []}}}, "displayed_time": "16.01", "trialTime": 18202, "trial_type": "mouselab-mdp", "trial_index": 32, "time_elapsed": 1801882, "internal_node_id": "0.0-6.0-1.0-23.0"}}, {"uniqueid": "w91860587:a22975914", "current_trial": 33, "dateTime": 1693581709644, "trialdata": {"revealed_states": [], "clicked_states": ["32", "21", "2"], "num_clicks_accrued": [0, 0, 0, 0, 0, 0, 0, 0, 0, 0, 0, 0, 0], "stateRewards": ["", -2, -1, -5, 10, -36, -70, 68, -9, 86, 71, -10, 2, -4, 7, -7, 66, 44, -66, -13, -69, 43, 15, -2, 2, 6, -13, 62, 57, 50, -10, -69, 42, -72], "withholdReward": false, "trial_id": "mdp_trial_25", "block": "test", "trialIndex": 26, "score": 30.8, "costs": -4.199999999999999, "simulationMode": [null, null, null, null, null], "rewards": [2, -4, 7, -13, 43], "path": ["0", "0", "12", "13", "14", "19", "21"], "rt": [9801, 836, 98, 673, 76], "actions": ["right", "right", "right", "down", "down"], "actionTimes": [14345, 15702, 16315, 17504, 18090], "queries": {"click": {"state": {"target": ["32", "21", "2"], "time": [5423, 7138, 10057]}, "edge": {"target": [], "time": []}}, "mouseover": {"state": {"target": ["0", "23", "30", "32", "21", "19", "13", "2", "2", "2", "0"], "time": [4820, 4849, 4950, 5169, 6100, 7615, 7646, 7714, 8066, 9885, 13100]}, "edge": {"target": [], "time": []}}, "mouseout": {"state": {"target": ["20", "19", "22", "12", "0", "23", "30", "32", "21", "19", "13", "2", "2", "2", "0"], "time": [3619, 3648, 3666, 3985, 4831, 4866, 5052, 5428, 7565, 7630, 7663, 7732, 9803, 12485, 13332]}, "edge": {"target": [], "time": []}}}, "displayed_time": "18.60", "trialTime": 20692, "trial_type": "mouselab-mdp", "trial_index": 33, "time_elapsed": 1822682, "internal_node_id": "0.0-6.0-1.0-24.0"}}, {"uniqueid": "w91860587:a22975914", "current_trial": 34, "dateTime": 1693581728978, "trialdata": {"revealed_states": [], "clicked_states": ["11", "33", "21"], "num_clicks_accrued": [0, 0, 0, 0, 0, 0, 0, 0, 0, 0, 0, 0, 0], "stateRewards": ["", 2, -3, -4, -1, 25, -16, 16, 10, -71, -20, -55, 1, 3, -4, -9, 1, 32, 11, -6, 32, -50, -41, -1, 4, 4, -8, 7, -81, 70, 2, -52, 45, -10], "withholdReward": false, "trial_id": "mdp_trial_26", "block": "test", "trialIndex": 27, "score": -26.2, "costs": -4.199999999999999, "simulationMode": [null, null, null, null, null], "rewards": [2, -3, -4, -1, -16], "path": ["0", "0", "1", "2", "3", "4", "6"], "rt": [11207, 478, 41, 1206, 87], "actions": ["up", "up", "up", "right", "right"], "actionTimes": [12000, 12995, 13525, 15237, 15837], "queries": {"click": {"state": {"target": ["11", "33", "21"], "time": [1841, 4291, 7355]}, "edge": {"target": [], "time": []}}, "mouseover": {"state": {"target": ["10", "11", "27", "33", "33", "30", "31", "31", "30", "33", "33", "30", "21"], "time": [1185, 1465, 2166, 2298, 2467, 3215, 3250, 3654, 3683, 3701, 4032, 4684, 5366]}, "edge": {"target": [], "time": []}}, "mouseout": {"state": {"target": ["0", "10", "11", "27", "33", "33", "30", "31", "31", "30", "33", "33", "30", "21", "21"], "time": [392, 1216, 2149, 2181, 2349, 3200, 3234, 3299, 3665, 3700, 3752, 4650, 4716, 9736, 10318]}, "edge": {"target": [], "time": []}}}, "displayed_time": "16.35", "trialTime": 19228, "trial_type": "mouselab-mdp", "trial_index": 34, "time_elapsed": 1842017, "internal_node_id": "0.0-6.0-1.0-25.0"}}, {"uniqueid": "w91860587:a22975914", "current_trial": 35, "dateTime": 1693581747928, "trialdata": {"revealed_states": [], "clicked_states": ["15", "3", "26"], "num_clicks_accrued": [0, 0, 0, 0, 0, 0, 0, 0, 0, 0, 0, 0, 0], "stateRewards": ["", -1, 4, -6, -5, -22, -38, -38, -2, -56, 88, 14, -1, -1, -7, -6, 61, -60, 21, 11, 57, 31, -30, -2, -2, 6, -9, -44, -70, -44, -15, 34, 16, -78], "withholdReward": false, "trial_id": "mdp_trial_27", "block": "test", "trialIndex": 28, "score": 28.8, "costs": -4.199999999999999, "simulationMode": [null, null, null, null, null], "rewards": [-1, -1, -7, 11, 31], "path": ["0", "0", "12", "13", "14", "19", "21"], "rt": [10202, 25, 20, 1222, 39], "actions": ["right", "right", "right", "down", "down"], "actionTimes": [11614, 12157, 12685, 14421, 14957], "queries": {"click": {"state": {"target": ["15", "3", "26"], "time": [2358, 4576, 6503]}, "edge": {"target": [], "time": []}}, "mouseover": {"state": {"target": ["12", "15", "18", "1", "28", "26", "28", "0", "1", "2", "3", "3", "26", "26", "24", "23"], "time": [1715, 2067, 2530, 2582, 2648, 2798, 3265, 3465, 3999, 4032, 4068, 4418, 5996, 6300, 8550, 9719]}, "edge": {"target": [], "time": []}}, "mouseout": {"state": {"target": ["12", "15", "18", "1", "28", "26", "28", "0", "1", "2", "3", "3", "26", "26", "24", "23"], "time": [1731, 2513, 2546, 2601, 2698, 3249, 3299, 3931, 4015, 4068, 4200, 5916, 6067, 8519, 8583, 9852]}, "edge": {"target": [], "time": []}}}, "displayed_time": "15.46", "trialTime": 18843, "trial_type": "mouselab-mdp", "trial_index": 35, "time_elapsed": 1860967, "internal_node_id": "0.0-6.0-1.0-26.0"}}, {"uniqueid": "w91860587:a22975914", "current_trial": 36, "dateTime": 1693581765493, "trialdata": {"revealed_states": [], "clicked_states": ["26", "19", "8"], "num_clicks_accrued": [0, 0, 0, 0, 0, 0, 0, 0, 0, 0, 0, 0, 0], "stateRewards": ["", -1, 4, -5, 9, 29, -75, -42, -16, 24, -28, -41, 2, -3, 1, 10, 60, 47, 55, -1, -53, 22, -40, 2, -3, -6, 4, -26, 44, 54, 15, -76, 42, 14], "withholdReward": false, "trial_id": "mdp_trial_28", "block": "test", "trialIndex": 29, "score": -33.2, "costs": -4.199999999999999, "simulationMode": [null, null, null, null, null], "rewards": [2, -3, -6, 4, -26], "path": ["0", "0", "23", "24", "25", "26", "27"], "rt": [9465, 2, 147, 393, 102], "actions": ["left", "left", "left", "up", "up"], "actionTimes": [10820, 11335, 12011, 12922, 13532], "queries": {"click": {"state": {"target": ["26", "19", "8"], "time": [2389, 4522, 7534]}, "edge": {"target": [], "time": []}}, "mouseover": {"state": {"target": ["0", "23", "26", "28", "12", "13", "19", "13", "18", "7", "4", "3", "8", "3", "2", "1"], "time": [1629, 1761, 2047, 2613, 2730, 2796, 4011, 6594, 6613, 6629, 6645, 6999, 7281, 8677, 9747, 9880]}, "edge": {"target": [], "time": []}}, "mouseout": {"state": {"target": ["23", "0", "23", "26", "28", "12", "13", "19", "19", "13", "18", "7", "4", "3", "8", "8", "3", "2", "1"], "time": [829, 1748, 1778, 2596, 2631, 2762, 2846, 5129, 6583, 6612, 6628, 6644, 6661, 7215, 7546, 8462, 9062, 9794, 10050]}, "edge": {"target": [], "time": []}}}, "displayed_time": "15.36", "trialTime": 17454, "trial_type": "mouselab-mdp", "trial_index": 36, "time_elapsed": 1878531, "internal_node_id": "0.0-6.0-1.0-27.0"}}, {"uniqueid": "w91860587:a22975914", "current_trial": 37, "dateTime": 1693581783222, "trialdata": {"revealed_states": [], "clicked_states": ["29", "17", "9"], "num_clicks_accrued": [0, 0, 0, 0, 0, 0, 0, 0, 0, 0, 0, 0, 0], "stateRewards": ["", -1, 4, -8, 12, 14, 69, -8, 5, -72, -14, 56, -1, -1, -1, 9, 67, 19, 11, -9, -88, -58, 3, 2, -4, -8, 4, 62, 77, -74, 5, -31, 65, 88], "withholdReward": false, "trial_id": "mdp_trial_29", "block": "test", "trialIndex": 30, "score": 20.8, "costs": -4.199999999999999, "simulationMode": [null, null, null, null, null], "rewards": [-1, -1, -1, 9, 19], "path": ["0", "0", "12", "13", "14", "15", "17"], "rt": [8258, 585, 130, 568, 577], "actions": ["right", "right", "right", "up", "right"], "actionTimes": [9204, 10302, 10931, 12019, 13111], "queries": {"click": {"state": {"target": ["29", "17", "9"], "time": [2226, 3837, 6122]}, "edge": {"target": [], "time": []}}, "mouseover": {"state": {"target": ["26", "29", "26", "28", "1", "18", "15", "17", "17", "15", "3", "9", "3", "2", "1", "12"], "time": [1902, 1965, 2432, 2466, 2500, 2533, 2566, 2616, 2882, 4315, 4432, 4616, 8267, 8298, 8331, 8534]}, "edge": {"target": [], "time": []}}, "mouseout": {"state": {"target": ["0", "26", "29", "26", "28", "1", "18", "15", "17", "17", "15", "3", "9", "3", "2", "1", "12"], "time": [497, 1935, 2416, 2448, 2483, 2515, 2547, 2581, 2650, 4299, 4331, 4448, 7448, 8282, 8315, 8353, 8548]}, "edge": {"target": [], "time": []}}}, "displayed_time": "14.95", "trialTime": 17621, "trial_type": "mouselab-mdp", "trial_index": 37, "time_elapsed": 1896261, "internal_node_id": "0.0-6.0-1.0-28.0"}}, {"uniqueid": "w91860587:a22975914", "current_trial": 38, "dateTime": 1693581800111, "trialdata": {"revealed_states": [], "clicked_states": ["32", "9", "21"], "num_clicks_accrued": [0, 0, 0, 0, 0, 0, 0, 0, 0, 0, 0, 0, 0], "stateRewards": ["", 1, -1, -7, -7, -22, 15, -13, 13, 26, -32, 38, -1, 1, -7, -4, 16, -62, 86, 12, -54, 56, 64, -2, -1, 6, 14, -57, 37, 62, -6, -25, 50, -70], "withholdReward": false, "trial_id": "mdp_trial_30", "block": "test", "trialIndex": 31, "score": 56.8, "costs": -4.199999999999999, "simulationMode": [null, null, null, null, null], "rewards": [-1, 1, -7, 12, 56], "path": ["0", "0", "12", "13", "14", "19", "21"], "rt": [8619, 118, 326, 292, 45], "actions": ["right", "right", "right", "down", "down"], "actionTimes": [10052, 10685, 11528, 12329, 12865], "queries": {"click": {"state": {"target": ["32", "9", "21"], "time": [2226, 3976, 5945]}, "edge": {"target": [], "time": []}}, "mouseover": {"state": {"target": ["0", "31", "32", "24", "3", "9", "7", "18", "14", "19", "21"], "time": [1768, 1850, 1916, 2552, 2633, 2935, 4369, 4401, 4436, 4519, 4668]}, "edge": {"target": [], "time": []}}, "mouseout": {"state": {"target": ["0", "0", "31", "32", "24", "3", "9", "9", "7", "18", "14", "19", "21"], "time": [1270, 1783, 1884, 2516, 2567, 2702, 4156, 4316, 4385, 4419, 4469, 4603, 6903]}, "edge": {"target": [], "time": []}}}, "displayed_time": "15.44", "trialTime": 16778, "trial_type": "mouselab-mdp", "trial_index": 38, "time_elapsed": 1913151, "internal_node_id": "0.0-6.0-1.0-29.0"}}, {"uniqueid": "w91860587:a22975914", "current_trial": 39, "dateTime": 1693581818257, "trialdata": {"revealed_states": [], "clicked_states": ["29", "32", "17"], "num_clicks_accrued": [0, 0, 0, 0, 0, 0, 0, 0, 0, 0, 0, 0, 0], "stateRewards": ["", 1, -1, 1, -14, -10, 67, -28, -11, 72, 40, -65, -1, 1, 1, -2, 8, -55, 34, -10, 61, 33, -15, 2, -4, 7, 4, -75, 63, -21, -16, 61, 19, 21], "withholdReward": false, "trial_id": "mdp_trial_31", "block": "test", "trialIndex": 32, "score": 3.8000000000000007, "costs": -4.199999999999999, "simulationMode": [null, null, null, null, null], "rewards": [2, -4, 7, -16, 19], "path": ["0", "0", "23", "24", "25", "30", "32"], "rt": [11012, 153, 57, 577, 140], "actions": ["left", "left", "left", "down", "down"], "actionTimes": [12290, 12951, 13520, 14607, 15254], "queries": {"click": {"state": {"target": ["29", "32", "17"], "time": [2354, 4821, 7204]}, "edge": {"target": [], "time": []}}, "mouseover": {"state": {"target": ["23", "28", "26", "29", "26", "28", "1", "18", "15", "17", "32", "22", "17", "19", "22"], "time": [1663, 1712, 1730, 1793, 2565, 2595, 2680, 2810, 3046, 3146, 4613, 5296, 5677, 9399, 9463]}, "edge": {"target": [], "time": []}}, "mouseout": {"state": {"target": ["21", "0", "23", "28", "26", "29", "26", "28", "1", "18", "15", "17", "32", "22", "17", "19", "22"], "time": [564, 1630, 1678, 1729, 1763, 2529, 2577, 2613, 2713, 2879, 3112, 3963, 5212, 5313, 9231, 9431, 9477]}, "edge": {"target": [], "time": []}}}, "displayed_time": "15.76", "trialTime": 18033, "trial_type": "mouselab-mdp", "trial_index": 39, "time_elapsed": 1931295, "internal_node_id": "0.0-6.0-1.0-30.0"}}, {"uniqueid": "w91860587:a22975914", "current_trial": 40, "dateTime": 1693581836271, "trialdata": {"revealed_states": [], "clicked_states": ["8", "26", "21", "20"], "num_clicks_accrued": [0, 0, 0, 0, 0, 0, 0, 0, 0, 0, 0, 0, 0], "stateRewards": ["", 1, 1, -3, 7, 49, 78, 26, -5, 26, 48, -43, -1, -3, 2, -5, 4, -1, -60, 10, -35, 51, 81, -2, 1, -7, -5, -39, -86, -54, 4, -3, 74, 77], "withholdReward": false, "trial_id": "mdp_trial_32", "block": "test", "trialIndex": 33, "score": 53.4, "costs": -5.6, "simulationMode": [null, null, null, null, null], "rewards": [-1, -3, 2, 10, 51], "path": ["0", "0", "12", "13", "14", "19", "21"], "rt": [11750, 191, 49, 885, 17], "actions": ["right", "right", "right", "down", "down"], "actionTimes": [12992, 13691, 14248, 15647, 16181], "queries": {"click": {"state": {"target": ["8", "26", "21", "20"], "time": [2173, 3851, 5653, 8007]}, "edge": {"target": [], "time": []}}, "mouseover": {"state": {"target": ["1", "2", "8", "3", "7", "15", "18", "1", "28", "26", "25", "30", "32", "30", "31", "21", "19", "20", "19", "22", "12", "13", "14"], "time": [1599, 1646, 1968, 2383, 2431, 2780, 3197, 3278, 3528, 3680, 4196, 4230, 4345, 4545, 5027, 5444, 6146, 6346, 11163, 11213, 11795, 11833, 11864]}, "edge": {"target": [], "time": []}}, "mouseout": {"state": {"target": ["1", "2", "8", "8", "3", "7", "15", "18", "1", "28", "26", "25", "30", "32", "30", "31", "21", "19", "20", "19", "22", "12", "13", "14"], "time": [1632, 1679, 2180, 2382, 2398, 2461, 3182, 3230, 3314, 3597, 4180, 4211, 4263, 4478, 5011, 5063, 5883, 6162, 11133, 11199, 11229, 11832, 11846, 11880]}, "edge": {"target": [], "time": []}}}, "displayed_time": "16.70", "trialTime": 17900, "trial_type": "mouselab-mdp", "trial_index": 40, "time_elapsed": 1949310, "internal_node_id": "0.0-6.0-1.0-31.0"}}, {"uniqueid": "w91860587:a22975914", "current_trial": 41, "dateTime": 1693581853315, "trialdata": {"revealed_states": [], "clicked_states": ["8", "14", "20"], "num_clicks_accrued": [0, 0, 0, 0, 0, 0, 0, 0, 0, 0, 0, 0, 0], "stateRewards": ["", 2, -1, -1, -9, -81, -30, 55, -6, 78, 25, 62, 2, 4, -1, 9, -85, 1, -19, 1, -60, 12, -34, 1, 4, -1, -13, -24, -16, -83, -8, 16, 43, 9], "withholdReward": false, "trial_id": "mdp_trial_33", "block": "test", "trialIndex": 34, "score": 34.8, "costs": -4.199999999999999, "simulationMode": [null, null, null, null, null], "rewards": [1, 4, -1, -8, 43], "path": ["0", "0", "23", "24", "25", "30", "32"], "rt": [10537, 505, 273, 172, 93], "actions": ["left", "left", "left", "down", "down"], "actionTimes": [12217, 13236, 14022, 14706, 15309], "queries": {"click": {"state": {"target": ["8", "14", "20"], "time": [2573, 4820, 6773]}, "edge": {"target": [], "time": []}}, "mouseover": {"state": {"target": ["10", "8", "8", "26", "25", "24", "13", "14", "14", "15", "16", "15", "20", "20", "19", "22", "0"], "time": [2134, 2181, 2400, 2965, 3663, 4267, 4334, 4365, 4680, 5147, 5280, 6163, 6264, 6598, 11119, 11148, 11453]}, "edge": {"target": [], "time": []}}, "mouseout": {"state": {"target": ["13", "12", "10", "8", "8", "26", "25", "24", "13", "14", "14", "15", "16", "15", "20", "20", "20", "19", "22"], "time": [1118, 1150, 2165, 2216, 2765, 3631, 4266, 4280, 4347, 4382, 5080, 5215, 6113, 6181, 6298, 6780, 11117, 11131, 11184]}, "edge": {"target": [], "time": []}}}, "displayed_time": "15.82", "trialTime": 16928, "trial_type": "mouselab-mdp", "trial_index": 41, "time_elapsed": 1966353, "internal_node_id": "0.0-6.0-1.0-32.0"}}, {"uniqueid": "w91860587:a22975914", "current_trial": 42, "dateTime": 1693581870077, "trialdata": {"revealed_states": [], "clicked_states": ["10", "20", "16", "32"], "num_clicks_accrued": [0, 0, 0, 0, 0, 0, 0, 0, 0, 0, 0, 0, 0], "stateRewards": ["", -1, 2, -6, 6, 43, 78, 78, -2, 55, -29, -17, -2, -4, 1, -15, 13, 7, -79, 8, -28, -68, 36, -1, -3, 3, -16, 84, -18, 87, 10, 32, 13, -81], "withholdReward": false, "trial_id": "mdp_trial_34", "block": "test", "trialIndex": 35, "score": 16.4, "costs": -5.6, "simulationMode": [null, null, null, null, null], "rewards": [-1, -3, 3, 10, 13], "path": ["0", "0", "23", "24", "25", "30", "32"], "rt": [10641, 5, 43, 754, 6], "actions": ["left", "left", "left", "down", "down"], "actionTimes": [11642, 12157, 12728, 13992, 14492], "queries": {"click": {"state": {"target": ["10", "20", "16", "32"], "time": [1742, 4242, 6991, 8722]}, "edge": {"target": [], "time": []}}, "mouseover": {"state": {"target": ["10", "29", "26", "28", "3", "5", "18", "19", "20", "17", "16", "16", "18", "12", "0", "31", "30", "32"], "time": [1588, 2084, 2268, 2851, 2901, 3102, 3350, 3434, 3900, 4818, 5137, 5352, 7665, 7865, 7915, 8301, 8334, 8433]}, "edge": {"target": [], "time": []}}, "mouseout": {"state": {"target": ["0", "0", "10", "29", "26", "28", "3", "5", "18", "19", "20", "17", "16", "16", "18", "12", "0", "31", "30", "32"], "time": [565, 801, 1915, 2233, 2850, 2868, 2916, 3135, 3384, 3688, 4552, 4985, 5185, 7534, 7783, 7901, 7968, 8319, 8349, 9967]}, "edge": {"target": [], "time": []}}}, "displayed_time": "15.02", "trialTime": 16644, "trial_type": "mouselab-mdp", "trial_index": 42, "time_elapsed": 1983116, "internal_node_id": "0.0-6.0-1.0-33.0"}}, {"uniqueid": "w91860587:a22975914", "current_trial": 43, "dateTime": 1693581888858, "trialdata": {"revealed_states": [], "clicked_states": ["3", "26", "21"], "num_clicks_accrued": [0, 0, 0, 0, 0, 0, 0, 0, 0, 0, 0, 0, 0], "stateRewards": ["", 1, 1, 7, -11, 80, -20, -53, -14, 3, 31, 27, 2, -1, -8, -10, 33, 41, 86, 9, 78, -37, -13, -1, -2, -6, -8, -80, 75, 4, -16, -49, -74, 24], "withholdReward": false, "trial_id": "mdp_trial_35", "block": "test", "trialIndex": 36, "score": -26.2, "costs": -4.199999999999999, "simulationMode": [null, null, null, null, null], "rewards": [1, 1, 7, -11, -20], "path": ["0", "0", "1", "2", "3", "4", "6"], "rt": [10364, 441, 403, 92, 113], "actions": ["up", "up", "up", "right", "right"], "actionTimes": [12339, 13301, 14213, 14819, 15439], "queries": {"click": {"state": {"target": ["3", "26", "21"], "time": [2954, 5184, 8369]}, "edge": {"target": [], "time": []}}, "mouseover": {"state": {"target": ["1", "2", "3", "7", "13", "22", "21", "23", "24", "26", "28", "1", "13", "19", "20", "21", "22", "12"], "time": [2363, 2424, 2695, 3225, 3289, 3327, 3739, 4610, 4641, 4894, 5657, 5708, 5790, 5957, 6740, 7861, 10796, 10876]}, "edge": {"target": [], "time": []}}, "mouseout": {"state": {"target": ["0", "1", "2", "3", "3", "7", "13", "22", "21", "23", "24", "26", "28", "1", "13", "19", "20", "21", "22"], "time": [2278, 2411, 2562, 3046, 3191, 3242, 3308, 3359, 4375, 4624, 4677, 5295, 5673, 5724, 5857, 6390, 6776, 9110, 10827]}, "edge": {"target": [], "time": []}}}, "displayed_time": "15.98", "trialTime": 18665, "trial_type": "mouselab-mdp", "trial_index": 43, "time_elapsed": 2001897, "internal_node_id": "0.0-6.0-1.0-34.0"}}, {"uniqueid": "w91860587:a22975914", "current_trial": 44, "dateTime": 1693581910337, "trialdata": {"revealed_states": [], "clicked_states": ["29", "3"], "num_clicks_accrued": [0, 0, 0, 0, 0, 0, 0, 0, 0, 0, 0, 0, 0], "stateRewards": ["", -1, 2, 6, 11, 21, -21, -21, -6, 48, -71, 88, -1, -3, 3, 7, 64, 2, 9, -4, 37, -67, 72, 2, 2, -8, -8, -10, 71, -40, -3, 73, 80, 47], "withholdReward": false, "trial_id": "mdp_trial_36", "block": "test", "trialIndex": 37, "score": -5.800000000000001, "costs": -2.8, "simulationMode": [null, null, null, null, null], "rewards": [-1, 2, 6, 11, -21], "path": ["0", "0", "1", "2", "3", "4", "6"], "rt": [6192, 45, 460, 2358, 148], "actions": ["up", "up", "up", "right", "right"], "actionTimes": [7539, 8095, 9073, 11939, 12581], "queries": {"click": {"state": {"target": ["29", "3"], "time": [2008, 3841]}, "edge": {"target": [], "time": []}}, "mouseover": {"state": {"target": ["23", "24", "29", "1", "18", "15", "17", "4", "3", "7", "12", "22", "21"], "time": [1634, 1666, 1731, 2365, 2398, 2415, 2780, 3415, 3663, 4316, 4615, 4696, 5079]}, "edge": {"target": [], "time": []}}, "mouseout": {"state": {"target": ["12", "23", "24", "29", "1", "18", "15", "17", "4", "3", "7", "12", "22", "21"], "time": [912, 1666, 1679, 2102, 2382, 2415, 2429, 3282, 3498, 4263, 4348, 4647, 4731, 6612]}, "edge": {"target": [], "time": []}}}, "displayed_time": "15.35", "trialTime": 21366, "trial_type": "mouselab-mdp", "trial_index": 44, "time_elapsed": 2023376, "internal_node_id": "0.0-6.0-1.0-35.0"}}, {"uniqueid": "w91860587:a22975914", "current_trial": 45, "dateTime": 1693581927420, "trialdata": {"revealed_states": [], "clicked_states": ["29", "17", "32", "21"], "num_clicks_accrued": [0, 0, 0, 0, 0, 0, 0, 0, 0, 0, 0, 0, 0], "stateRewards": ["", 2, 4, 7, 7, -79, -2, -21, -5, -53, 47, -21, 1, -3, -1, 7, 83, 7, 84, -7, 80, -37, 69, 2, -4, 5, 2, 4, -20, -30, 7, 71, 44, -81], "withholdReward": false, "trial_id": "mdp_trial_37", "block": "test", "trialIndex": 38, "score": 48.4, "costs": -5.6, "simulationMode": [null, null, null, null, null], "rewards": [2, -4, 5, 7, 44], "path": ["0", "0", "23", "24", "25", "30", "32"], "rt": [10039, 65, 91, 333, 126], "actions": ["left", "left", "left", "down", "down"], "actionTimes": [11299, 11886, 12495, 13335, 13981], "queries": {"click": {"state": {"target": ["29", "17", "32", "21"], "time": [2011, 3880, 5677, 7190]}, "edge": {"target": [], "time": []}}, "mouseover": {"state": {"target": ["23", "24", "29", "26", "1", "15", "17", "17", "15", "4", "3", "3", "2", "24", "32", "21", "22", "12", "0", "23"], "time": [1523, 1553, 1773, 2321, 2370, 2404, 2768, 3619, 4154, 4237, 4339, 4503, 5051, 5120, 5220, 6421, 9439, 9487, 9772, 10020]}, "edge": {"target": [], "time": []}}, "mouseout": {"state": {"target": ["23", "24", "29", "26", "1", "15", "17", "17", "15", "4", "3", "3", "2", "24", "32", "21", "22", "12", "0"], "time": [1552, 1568, 2320, 2336, 2387, 2437, 3537, 4137, 4171, 4287, 4384, 5035, 5071, 5136, 6004, 8203, 9451, 9502, 9804]}, "edge": {"target": [], "time": []}}}, "displayed_time": "15.27", "trialTime": 16955, "trial_type": "mouselab-mdp", "trial_index": 45, "time_elapsed": 2040459, "internal_node_id": "0.0-6.0-1.0-36.0"}}, {"uniqueid": "w91860587:a22975914", "current_trial": 46, "dateTime": 1693581944369, "trialdata": {"revealed_states": [], "clicked_states": ["27", "17", "21"], "num_clicks_accrued": [0, 0, 0, 0, 0, 0, 0, 0, 0, 0, 0, 0, 0], "stateRewards": ["", 1, 4, -8, -13, -13, -87, -77, -10, -44, 54, 42, 2, -3, -4, 12, -9, -80, 52, 9, 84, -2, -65, 1, -4, -5, -6, 8, 80, 32, 13, -59, -5, -13], "withholdReward": false, "trial_id": "mdp_trial_38", "block": "test", "trialIndex": 39, "score": -10.2, "costs": -4.199999999999999, "simulationMode": [null, null, null, null, null], "rewards": [1, -4, -5, -6, 8], "path": ["0", "0", "23", "24", "25", "26", "27"], "rt": [8151, 171, 962, 311, 14], "actions": ["left", "left", "left", "up", "up"], "actionTimes": [9459, 10145, 11617, 12434, 12952], "queries": {"click": {"state": {"target": ["27", "17", "21"], "time": [2132, 4011, 6266]}, "edge": {"target": [], "time": []}}, "mouseover": {"state": {"target": ["27", "8", "9", "7", "17", "15", "12", "0", "23", "30", "31", "22", "19", "20", "21", "19", "22"], "time": [1974, 2423, 2691, 3121, 3506, 4340, 4390, 4407, 4439, 4924, 5256, 5338, 5357, 5388, 6169, 7790, 8074]}, "edge": {"target": [], "time": []}}, "mouseout": {"state": {"target": ["23", "23", "27", "8", "9", "7", "17", "15", "12", "0", "23", "30", "31", "22", "19", "20", "21", "19", "22"], "time": [526, 625, 2278, 2473, 3055, 3140, 4321, 4356, 4407, 4421, 4459, 5240, 5273, 5357, 5373, 5423, 7724, 7821, 8124]}, "edge": {"target": [], "time": []}}}, "displayed_time": "15.31", "trialTime": 16839, "trial_type": "mouselab-mdp", "trial_index": 46, "time_elapsed": 2057407, "internal_node_id": "0.0-6.0-1.0-37.0"}}, {"uniqueid": "w91860587:a22975914", "current_trial": 47, "dateTime": 1693581962331, "trialdata": {"revealed_states": [], "clicked_states": ["27"], "num_clicks_accrued": [0, 0, 0, 0, 0, 0, 0, 0, 0, 0, 0, 0, 0], "stateRewards": ["", 2, 3, 8, 11, 25, -80, 6, -4, -56, 84, -23, -2, -4, -3, 4, -51, -9, -61, -15, -64, 67, -35, 1, -1, -7, -6, 83, 59, -15, 12, -79, 56, 41], "withholdReward": false, "trial_id": "mdp_trial_39", "block": "test", "trialIndex": 40, "score": 68.6, "costs": -1.4, "simulationMode": [null, null, null, null, null], "rewards": [1, -1, -7, -6, 83], "path": ["0", "0", "23", "24", "25", "26", "27"], "rt": [5763, 455, 132, 616, 303], "actions": ["left", "left", "left", "up", "up"], "actionTimes": [7053, 8011, 8655, 9789, 10613], "queries": {"click": {"state": {"target": ["27"], "time": [2201]}, "edge": {"target": [], "time": []}}, "mouseover": {"state": {"target": ["28", "27", "8", "3", "4", "5", "5", "6", "15", "15", "18", "1", "28", "26"], "time": [1659, 1975, 2423, 2458, 2574, 2774, 3040, 3988, 4243, 4691, 4723, 4773, 5543, 5641]}, "edge": {"target": [], "time": []}}, "mouseout": {"state": {"target": ["22", "12", "0", "28", "27", "8", "3", "4", "5", "5", "6", "15", "15", "18", "1", "28", "26"], "time": [738, 925, 1141, 1672, 2355, 2440, 2508, 2673, 2854, 3957, 4040, 4307, 4705, 4738, 4905, 5589, 5672]}, "edge": {"target": [], "time": []}}}, "displayed_time": "15.30", "trialTime": 17835, "trial_type": "mouselab-mdp", "trial_index": 47, "time_elapsed": 2075370, "internal_node_id": "0.0-6.0-1.0-38.0"}}, {"uniqueid": "w91860587:a22975914", "current_trial": 48, "dateTime": 1693581982124, "trialdata": {"revealed_states": [], "clicked_states": ["33", "27", "5", "9"], "num_clicks_accrued": [0, 0, 0, 0, 0, 0, 0, 0, 0, 0, 0, 0, 0], "stateRewards": ["", 1, 4, 5, 8, -55, -11, 8, 16, -37, 77, -22, -2, 3, -8, -10, 45, 87, -67, 4, 17, -33, -22, -1, -3, 7, 6, -39, -85, 75, -1, 7, -48, 45], "withholdReward": false, "trial_id": "mdp_trial_40", "block": "test", "trialIndex": 41, "score": -35.6, "costs": -5.6, "simulationMode": [null, null, null, null, null], "rewards": [-1, -3, 7, 6, -39], "path": ["0", "0", "23", "24", "25", "26", "27"], "rt": [10447, 933, 324, 422, 89], "actions": ["left", "left", "left", "up", "up"], "actionTimes": [11904, 13356, 14197, 15129, 15726], "queries": {"click": {"state": {"target": ["33", "27", "5", "9"], "time": [2478, 4544, 6995, 9014]}, "edge": {"target": [], "time": []}}, "mouseover": {"state": {"target": ["23", "24", "25", "33", "14", "20", "1", "10", "27", "8", "3", "9", "5", "9"], "time": [1774, 1806, 1856, 2142, 2905, 3272, 3889, 3921, 4306, 4955, 4988, 5421, 6604, 7473]}, "edge": {"target": [], "time": []}}, "mouseout": {"state": {"target": ["27", "23", "24", "25", "33", "14", "20", "1", "10", "27", "8", "3", "9", "5", "9"], "time": [857, 1805, 1836, 1887, 2804, 2921, 3805, 3904, 3955, 4903, 4971, 5005, 6457, 7389, 10525]}, "edge": {"target": [], "time": []}}}, "displayed_time": "16.24", "trialTime": 19661, "trial_type": "mouselab-mdp", "trial_index": 48, "time_elapsed": 2095163, "internal_node_id": "0.0-6.0-1.0-39.0"}}, {"uniqueid": "w91860587:a22975914", "current_trial": 49, "dateTime": 1693582049223, "trialdata": {"rt": 67094, "response": {"Q0": "$-2 to $2", "Q1": "$-32 to $32", "Q2": "$-88 to $88", "Q3": "The cost for clicking on nodes varied between nodes.", "Q4": "Very unmotivated"}, "question_order": [0, 1, 2, 3, 4], "trial_id": "final_quiz_control", "trial_type": "survey-multi-choice", "trial_index": 49, "time_elapsed": 2162262, "internal_node_id": "0.0-6.0-2.0"}}, {"uniqueid": "w91860587:a22975914", "current_trial": 50, "dateTime": 1693582167179, "trialdata": {"rt": 117952, "response": {"Q0": "I tried to click as many nodes as possible in the given 3 seconds. ", "Q1": "Yes. as the game progressed i was able to click more nodes and direct the spider. ", "Q2": "I did not find it difficult. "}, "trial_id": "self_report_control", "trial_type": "survey-text", "trial_index": 50, "time_elapsed": 2280219, "internal_node_id": "0.0-6.0-3.0"}}, {"uniqueid": "w91860587:a22975914", "current_trial": 51, "dateTime": 1693582215791, "trialdata": {"rt": 48610, "response": {"gender": "female", "age": "30", "colorblind": "0", "effort": "0"}, "trial_type": "survey-html-form", "trial_index": 51, "time_elapsed": 2328831, "internal_node_id": "0.0-6.0-4.0"}}, {"uniqueid": "w91860587:a22975914", "current_trial": 52, "dateTime": 1693582233373, "trialdata": {"rt": 17576, "response": {"Q0": "no", "Q1": "no", "Q2": ""}, "trial_type": "survey-text", "trial_index": 52, "time_elapsed": 2346413, "internal_node_id": "0.0-6.0-5.0"}}, {"uniqueid": "w91860587:a22975914", "current_trial": 53, "dateTime": 1693582284976, "trialdata": {"rt": 51598, "stimulus": "<h1>Completion Code Instructions (1/2)</h1>\n<br><br><br><br>\nYou have reached the end of the experiment! The completion code consists of two parts: (1) a code with 2 characters (2) a code with 6 characters. On this page, you will receive the second part of the code. The first part of the completion code will be on the next page.\n<br><br>\nThe second part of your completion code is: <b>EWEK22</b>\n<br><br>\nPlease note this down. Then, press 'Next' in order to find the first part of your completion code. Once the data has been saved, you will receive this code either in this window or in the original browser window where you started the experiment.\n <br><br>\n<h2 style='color: red;'>Note: this is <strong>NOT</strong> the full completion code. Copy this down and click 'Next' to get the full completion code on the next page.</h2>", "response": 0, "trial_type": "html-button-response", "trial_index": 53, "time_elapsed": 2398016, "internal_node_id": "0.0-6.0-6.0"}}, {"uniqueid": "w91860587:a22975914", "current_trial": 54, "dateTime": 1693582285985, "trialdata": {"success": true, "trial_type": "fullscreen", "trial_index": 54, "time_elapsed": 2399025, "internal_node_id": "0.0-7.0"}}], "questiondata": {"params": {"CODE": "C6DMOQA6", "MIN_TIME": 14, "inspectCost": 1, "startTime": "Fri Sep 01 2023 16:51:22 GMT+0200 (South Africa Standard Time)", "bonusRate": 0.002, "variance": "1_2_4_8_44", "branching": "31123"}}, "eventdata": [{"eventtype": "initialized", "value": null, "timestamp": 1693579881940, "interval": 0}, {"eventtype": "window_resize", "value": [1024, 760], "timestamp": 1693579881940, "interval": 0}, {"eventtype": "window_resize", "value": [1024, 760], "timestamp": 1693579882752, "interval": 812}, {"eventtype": "window_resize", "value": [1440, 900], "timestamp": 1693579895400, "interval": 12648}, {"eventtype": "focus", "value": "off", "timestamp": 1693581407343, "interval": 1511943}, {"eventtype": "focus", "value": "on", "timestamp": 1693581530307, "interval": 122964}, {"eventtype": "window_resize", "value": [1024, 760], "timestamp": 1693582285225, "interval": 754918}], "useragent": "Mozilla/5.0 (Macintosh; Intel Mac OS X 10_15_7) AppleWebKit/537.36 (KHTML, like Gecko) Chrome/115.0.0.0 Safari/537.36", "mode": "live", "id": "w91860587:a22975914", "status": "user data saved", "Beginhit": "2023-09-01 14:51:20.087184", "Beginexp": "2023-09-01 14:51:38.421637", "Endhit": "2023-09-01 15:31:30.590939", "psiturkStatus": 3, "browser": "<redacted>", "platform": "macos", "language": "en-US"}