{"condition": 1, "counterbalance": 0, "assignmentId": "a45034797", "workerId": "w40654226", "hitId": "h87240733", "currenttrial": 56, "bonus": 0, "data": [{"uniqueid": "w40654226:a45034797", "current_trial": 0, "dateTime": 1693580999979, "trialdata": {"success": true, "trial_type": "fullscreen", "trial_index": 0, "time_elapsed": 14840, "internal_node_id": "0.0-0.0"}}, {"uniqueid": "w40654226:a45034797", "current_trial": 1, "dateTime": 1693581015692, "trialdata": {"view_history": [{"page_index": 0, "viewing_time": 15709}], "rt": 15710, "trial_id": "exp_instructions_misaligned", "trial_type": "instructions", "trial_index": 1, "time_elapsed": 30554, "internal_node_id": "0.0-1.0"}}, {"uniqueid": "w40654226:a45034797", "current_trial": 2, "dateTime": 1693581344516, "trialdata": {"view_history": [{"page_index": 0, "viewing_time": 76781}, {"page_index": 1, "viewing_time": 121178}, {"page_index": 2, "viewing_time": 66281}, {"page_index": 3, "viewing_time": 64598}], "rt": 328839, "trial_id": "mouselab_instructions_1_misaligned", "trial_type": "instructions", "trial_index": 2, "time_elapsed": 359378, "internal_node_id": "0.0-2.0-1.0"}}, {"uniqueid": "w40654226:a45034797", "current_trial": 3, "dateTime": 1693581366508, "trialdata": {"revealed_states": [], "clicked_states": ["23", "24", "25", "30", "31"], "num_clicks_accrued": [0, 0, 0, 0, 0, 0, 0, 0, 0, 0, 0, 0, 0], "stateRewards": ["", -10, 10, -10, -10, -10, -10, 10, -10, 10, -10, 10, 10, 10, -10, 10, -10, 10, -10, 10, 10, -10, -10, 10, -10, -10, -10, 10, -10, -10, 10, 10, 10, -10], "withholdReward": false, "trial_id": "practice_1", "block": "test", "trialIndex": 0, "score": 11, "costs": -2.5, "simulationMode": [null, null, null, null, null], "rewards": [10, -10, -10, 10, 10], "path": ["0", "0", "23", "24", "25", "30", "31"], "rt": [13003, 237, 229, 366, 326], "actions": ["left", "left", "left", "down", "right"], "actionTimes": [15288, 16030, 16756, 17622, 18453], "queries": {"click": {"state": {"target": ["23", "24", "25", "30", "31"], "time": [5895, 7419, 9102, 10469, 11820]}, "edge": {"target": [], "time": []}}, "mouseover": {"state": {"target": ["23", "24", "25", "30", "31", "23"], "time": [5471, 6602, 8090, 10053, 11007, 14488]}, "edge": {"target": [], "time": []}}, "mouseout": {"state": {"target": ["0", "23", "24", "25", "30", "31", "31", "31"], "time": [5373, 6522, 8007, 9971, 10971, 12539, 13088, 13557]}, "edge": {"target": [], "time": []}}}, "displayed_time": "18.96", "trialTime": 21318, "trial_type": "mouselab-mdp", "trial_index": 3, "time_elapsed": 381370, "internal_node_id": "0.0-2.0-2.0-0.0"}}, {"uniqueid": "w40654226:a45034797", "current_trial": 4, "dateTime": 1693581387411, "trialdata": {"revealed_states": [], "clicked_states": ["1", "2", "3", "4", "7", "6"], "num_clicks_accrued": [0, 0, 0, 0, 0, 0, 0, 0, 0, 0, 0, 0, 0], "stateRewards": ["", 10, -10, 10, 10, -10, 10, -10, 10, 10, 10, 10, 10, -10, 10, -10, 10, 10, 10, 10, 10, 10, 10, -10, 10, -10, 10, 10, 10, -10, 10, 10, -10, 10], "withholdReward": false, "trial_id": "practice_2", "block": "test", "trialIndex": 1, "score": 30.5, "costs": -3, "simulationMode": [null, null, null, null, null], "rewards": [10, -10, 10, 10, 10], "path": ["0", "0", "1", "2", "3", "4", "6"], "rt": [11469, 598, 326, 165, 234], "actions": ["up", "up", "up", "right", "right"], "actionTimes": [13779, 14882, 15706, 16362, 17099], "queries": {"click": {"state": {"target": ["1", "2", "3", "4", "7", "6"], "time": [3427, 4611, 6127, 7627, 9044, 10845]}, "edge": {"target": [], "time": []}}, "mouseover": {"state": {"target": ["1", "2", "3", "4", "7", "6", "5", "2"], "time": [3115, 4314, 5176, 7111, 8444, 10580, 11712, 12696]}, "edge": {"target": [], "time": []}}, "mouseout": {"state": {"target": ["23", "0", "1", "2", "3", "4", "7", "7", "6", "5", "2", "1", "0"], "time": [1644, 3046, 3523, 4626, 7014, 8215, 9059, 10512, 10977, 12499, 12777, 19462, 19515]}, "edge": {"target": [], "time": []}}}, "displayed_time": "17.60", "trialTime": 20443, "trial_type": "mouselab-mdp", "trial_index": 4, "time_elapsed": 402273, "internal_node_id": "0.0-2.0-2.0-1.0"}}, {"uniqueid": "w40654226:a45034797", "current_trial": 5, "dateTime": 1693581438712, "trialdata": {"view_history": [{"page_index": 0, "viewing_time": 40299}, {"page_index": 1, "viewing_time": 11002}], "rt": 51302, "trial_id": "mouselab_instructions_2_misaligned", "trial_type": "instructions", "trial_index": 5, "time_elapsed": 453574, "internal_node_id": "0.0-2.0-3.0"}}, {"uniqueid": "w40654226:a45034797", "current_trial": 6, "dateTime": 1693581479171, "trialdata": {"rt": 40456, "response": {"Q0": "The cost for clicking on nodes may vary between nodes.", "Q1": "The better I perform the higher my bonus will be.", "Q2": "No, the amount of cash at each node of the web may be different each time.", "Q3": "To get the highest total score.", "Q4": "Only before moving the spider.", "Q5": "3 seconds"}, "question_order": [0, 1, 2, 3, 4, 5], "correct": {"Q0": "The cost for clicking on nodes may vary between nodes.", "Q1": "The better I perform the higher my bonus will be.", "Q2": "No, the amount of cash at each node of the web may be different each time.", "Q3": "To get the highest total score.", "Q4": "Only before moving the spider.", "Q5": "3 seconds"}, "trial_id": "mouselab_quiz_misaligned", "trial_type": "survey-multi-choice", "trial_index": 6, "time_elapsed": 494033, "internal_node_id": "0.0-2.0-4.0"}}, {"uniqueid": "w40654226:a45034797", "current_trial": 7, "dateTime": 1693581485820, "trialdata": {"rt": 6642, "response": {"Q0": "No"}, "question_order": [0], "trial_id": "repeat_check", "trial_type": "survey-multi-choice", "trial_index": 7, "time_elapsed": 500682, "internal_node_id": "0.0-4.0-0.0"}}, {"uniqueid": "w40654226:a45034797", "current_trial": 8, "dateTime": 1693581498611, "trialdata": {"rt": 12785, "stimulus": "\n<h1> Get ready to start the game! </h1>\n\nThank you for reading the instructions. Get ready start with the 40 rounds of this game.\n<br><br>\nIf you need to take a break, feel free to take one after the end of a round, before continuing to the next one.\n<br><br>\nRemember, the more money the spider gets, the bigger your bonus will be!\n<br><br>\n<div style='text-align: center;'>Press <code>space</code> to begin.</div>\n\n<br><br>\n(If, at any point, the <code>space</code> key does not take you to the next page, click once on the text and try again.)", "response": " ", "trial_id": "mdp_ready", "trial_type": "html-keyboard-response", "trial_index": 8, "time_elapsed": 513473, "internal_node_id": "0.0-6.0-0.0"}}, {"uniqueid": "w40654226:a45034797", "current_trial": 9, "dateTime": 1693581520987, "trialdata": {"revealed_states": [], "clicked_states": ["23", "24", "25", "30", "31", "26", "28"], "num_clicks_accrued": [0, 0, 0, 0, 0, 0, 0, 0, 0, 0, 0, 0, 0], "stateRewards": ["", -2, 2, 8, -6, -25, 3, 87, 2, -62, -2, 74, -2, -1, 2, -1, 79, 49, -37, -14, 5, 67, -9, -1, 2, -2, 5, 15, 38, 32, -14, -38, -38, 30], "withholdReward": false, "trial_id": "mdp_trial_1", "block": "test", "trialIndex": 2, "score": 33.55, "costs": -8.45, "simulationMode": [null, null, null, null, null], "rewards": [-1, 2, -2, 5, 38], "path": ["0", "0", "23", "24", "25", "26", "28"], "rt": [14049, 211, 182, 249, 222], "actions": ["left", "left", "left", "up", "right"], "actionTimes": [16807, 17518, 18204, 18957, 19677], "queries": {"click": {"state": {"target": ["23", "24", "25", "30", "31", "26", "28"], "time": [3923, 4620, 5604, 6386, 7304, 10207, 11069]}, "edge": {"target": [], "time": []}}, "mouseover": {"state": {"target": ["23", "24", "25", "30", "31", "26", "28", "29", "26", "0", "23"], "time": [3136, 4367, 5170, 6068, 7035, 8802, 10852, 11985, 15204, 15838, 16055]}, "edge": {"target": [], "time": []}}, "mouseout": {"state": {"target": ["0", "0", "23", "24", "25", "30", "31", "30", "26", "28", "29", "26", "28", "0", "23"], "time": [1386, 3037, 4335, 5104, 6036, 6852, 8150, 8400, 10786, 11785, 15172, 15256, 15521, 15851, 21474]}, "edge": {"target": [], "time": []}}}, "displayed_time": "20.17", "trialTime": 21861, "trial_type": "mouselab-mdp", "trial_index": 9, "time_elapsed": 535849, "internal_node_id": "0.0-6.0-1.0-0.0"}}, {"uniqueid": "w40654226:a45034797", "current_trial": 10, "dateTime": 1693581587200, "trialdata": {"revealed_states": [], "clicked_states": ["23", "24", "25", "26", "28", "29", "27", "30", "33", "32", "31", "22", "21", "20", "17", "16", "18", "6", "7", "5"], "num_clicks_accrued": [0, 0, 0, 0, 0, 0, 0, 0, 0, 0, 0, 0, 0], "stateRewards": ["", -2, 3, -1, -9, 44, 48, -37, -3, 71, -39, 87, -1, 3, -4, 4, -21, 59, -15, -8, -1, 28, -38, 2, 4, 4, 8, -85, -72, -63, 14, 58, 63, -46], "withholdReward": false, "trial_id": "mdp_trial_2", "block": "test", "trialIndex": 3, "score": 24.60000000000001, "costs": -36.39999999999999, "simulationMode": [null, null, null, null, null], "rewards": [-1, 3, -4, 4, 59], "path": ["0", "0", "12", "13", "14", "15", "17"], "rt": [58794, 142, 235, 333, 162], "actions": ["right", "right", "right", "up", "right"], "actionTimes": [60579, 61218, 61944, 62776, 63440], "queries": {"click": {"state": {"target": ["23", "24", "25", "26", "28", "29", "27", "30", "33", "32", "31", "22", "21", "20", "17", "16", "18", "6", "7", "5"], "time": [2507, 3148, 3953, 4656, 5223, 8707, 12091, 15008, 16424, 19591, 23076, 27176, 30343, 33960, 38677, 42061, 45210, 49612, 53112, 56429]}, "edge": {"target": [], "time": []}}, "mouseover": {"state": {"target": ["23", "24", "25", "26", "28", "29", "27", "26", "25", "33", "30", "33", "33", "32", "31", "22", "21", "20", "17", "16", "16", "18", "15", "1", "2", "7", "4", "6", "7", "4", "5", "3", "2", "1", "12"], "time": [2268, 2953, 3620, 4387, 5037, 6702, 9353, 12656, 12703, 12954, 13317, 15658, 16003, 17287, 20053, 26940, 27721, 31222, 35139, 39341, 39939, 42672, 47759, 48740, 48923, 49040, 49243, 49477, 50275, 53741, 53791, 58257, 59475, 59574, 59961]}, "edge": {"target": [], "time": []}}, "mouseout": {"state": {"target": ["0", "23", "24", "25", "26", "28", "26", "29", "27", "26", "25", "33", "30", "33", "33", "32", "31", "22", "22", "21", "20", "17", "16", "16", "16", "18", "15", "18", "1", "2", "7", "4", "6", "7", "4", "5", "5", "3", "2", "1", "12"], "time": [2235, 2868, 3571, 4319, 5004, 5988, 6102, 9186, 12620, 12673, 12721, 13269, 15623, 15706, 17185, 19718, 26623, 27191, 27672, 30890, 34623, 39272, 39441, 42204, 42607, 47424, 48641, 48676, 48842, 48956, 49107, 49410, 50141, 53705, 53775, 56589, 58160, 59443, 59526, 59676, 65226]}, "edge": {"target": [], "time": []}}}, "displayed_time": "63.95", "trialTime": 65721, "trial_type": "mouselab-mdp", "trial_index": 10, "time_elapsed": 602061, "internal_node_id": "0.0-6.0-1.0-1.0"}}, {"uniqueid": "w40654226:a45034797", "current_trial": 11, "dateTime": 1693581610006, "trialdata": {"revealed_states": [], "clicked_states": ["1", "2", "3", "4", "6", "7", "5"], "num_clicks_accrued": [0, 0, 0, 0, 0, 0, 0, 0, 0, 0, 0, 0, 0], "stateRewards": ["", -2, -1, -6, -14, -55, 78, -13, 11, 14, -71, 59, 2, 2, 6, -6, 9, 38, 14, 7, 85, 11, 68, 1, -4, -1, -3, -63, -85, 9, -2, 63, -86, -10], "withholdReward": false, "trial_id": "mdp_trial_3", "block": "test", "trialIndex": 4, "score": 45.95, "costs": -9.05, "simulationMode": [null, null, null, null, null], "rewards": [-2, -1, -6, -14, 78], "path": ["0", "0", "1", "2", "3", "4", "6"], "rt": [15017, 202, 232, 166, 238], "actions": ["up", "up", "up", "right", "right"], "actionTimes": [17532, 18234, 18963, 19634, 20370], "queries": {"click": {"state": {"target": ["1", "2", "3", "4", "6", "7", "5"], "time": [3417, 4247, 5215, 6129, 6824, 10833, 14050]}, "edge": {"target": [], "time": []}}, "mouseover": {"state": {"target": ["1", "2", "3", "4", "6", "7", "4", "5", "5"], "time": [3144, 3931, 4846, 5830, 6559, 7594, 11329, 11363, 11680]}, "edge": {"target": [], "time": []}}, "mouseout": {"state": {"target": ["0", "1", "2", "3", "4", "6", "7", "4", "5", "5"], "time": [3062, 3543, 4676, 5711, 6513, 7461, 11277, 11345, 11397, 21849]}, "edge": {"target": [], "time": []}}}, "displayed_time": "20.86", "trialTime": 22329, "trial_type": "mouselab-mdp", "trial_index": 11, "time_elapsed": 624867, "internal_node_id": "0.0-6.0-1.0-2.0"}}, {"uniqueid": "w40654226:a45034797", "current_trial": 12, "dateTime": 1693581642917, "trialdata": {"revealed_states": [], "clicked_states": ["1", "2", "3", "8", "11", "9", "10", "4", "5", "6", "7"], "num_clicks_accrued": [0, 0, 0, 0, 0, 0, 0, 0, 0, 0, 0, 0, 0], "stateRewards": ["", -2, -3, 1, -14, 48, -49, 67, -1, -35, -48, 3, -2, 1, -4, -5, 86, -84, 39, 1, 48, 41, -42, -1, -4, 2, -7, 18, -86, 17, 7, -9, 57, -69], "withholdReward": false, "trial_id": "mdp_trial_4", "block": "test", "trialIndex": 5, "score": 31.950000000000003, "costs": -17.05, "simulationMode": [null, null, null, null, null], "rewards": [-2, -3, 1, -14, 67], "path": ["0", "0", "1", "2", "3", "4", "7"], "rt": [25912, 167, 195, 175, 259], "actions": ["up", "up", "up", "right", "down"], "actionTimes": [27748, 28419, 29114, 29794, 30546], "queries": {"click": {"state": {"target": ["1", "2", "3", "8", "11", "9", "10", "4", "5", "6", "7"], "time": [2838, 3501, 4252, 5200, 5918, 9137, 12272, 15773, 16546, 19789, 23040]}, "edge": {"target": [], "time": []}}, "mouseover": {"state": {"target": ["1", "2", "1", "2", "3", "8", "11", "9", "8", "10", "3", "4", "5", "4", "5", "6", "7", "16", "18"], "time": [2217, 2263, 2650, 3218, 3999, 4730, 5615, 6380, 9585, 9700, 13103, 13986, 14485, 15386, 16221, 17201, 20386, 24102, 26587]}, "edge": {"target": [], "time": []}}, "mouseout": {"state": {"target": ["0", "1", "2", "1", "2", "3", "8", "11", "9", "8", "10", "3", "4", "5", "4", "5", "6", "7", "16", "18", "7", "7", "12"], "time": [2183, 2251, 2549, 3131, 3883, 4700, 5564, 6285, 9549, 9617, 12918, 13218, 14383, 15003, 16168, 17082, 20335, 23954, 26504, 26787, 26919, 31918, 31953]}, "edge": {"target": [], "time": []}}}, "displayed_time": "31.04", "trialTime": 32442, "trial_type": "mouselab-mdp", "trial_index": 12, "time_elapsed": 657778, "internal_node_id": "0.0-6.0-1.0-3.0"}}, {"uniqueid": "w40654226:a45034797", "current_trial": 13, "dateTime": 1693581715401, "trialdata": {"revealed_states": [], "clicked_states": ["12", "13", "14", "19", "22", "21", "20", "17", "16", "18", "31", "32", "33", "29", "27", "28", "11", "9", "10", "5", "6", "7"], "num_clicks_accrued": [0, 0, 0, 0, 0, 0, 0, 0, 0, 0, 0, 0, 0], "stateRewards": ["", 2, -3, -2, 14, -4, 85, 46, 15, -28, 41, 31, -1, -1, -1, 5, 62, 79, 57, 12, -73, -64, 86, -1, 1, -3, -5, 68, 11, -32, 8, -80, -21, -56], "withholdReward": false, "trial_id": "mdp_trial_5", "block": "test", "trialIndex": 6, "score": 53.70000000000001, "costs": -41.29999999999999, "simulationMode": [null, null, null, null, null], "rewards": [-1, -1, -1, 12, 86], "path": ["0", "0", "12", "13", "14", "19", "22"], "rt": [65387, 13, 130, 857, 252], "actions": ["right", "right", "right", "down", "left"], "actionTimes": [67285, 67794, 68445, 69805, 70548], "queries": {"click": {"state": {"target": ["12", "13", "14", "19", "22", "21", "20", "17", "16", "18", "31", "32", "33", "29", "27", "28", "11", "9", "10", "5", "6", "7"], "time": [2611, 3401, 4201, 4927, 5841, 9595, 12796, 15978, 19413, 22729, 27363, 30514, 33630, 36780, 39932, 43665, 47149, 50266, 53866, 56817, 60083, 63935]}, "edge": {"target": [], "time": []}}, "mouseover": {"state": {"target": ["12", "13", "14", "19", "22", "21", "20", "17", "16", "18", "0", "23", "31", "32", "33", "29", "27", "28", "11", "9", "8", "10", "3", "5", "5", "6", "7", "7"], "time": [2339, 2971, 3938, 4672, 5341, 6323, 10290, 13589, 16840, 20356, 26591, 26643, 27109, 28042, 31209, 34606, 37358, 40428, 46026, 47660, 50694, 50780, 54796, 55244, 55513, 57777, 60859, 61380]}, "edge": {"target": [], "time": []}}, "mouseout": {"state": {"target": ["23", "1", "0", "12", "13", "14", "19", "22", "21", "20", "17", "16", "16", "18", "18", "0", "23", "31", "32", "33", "29", "27", "28", "11", "9", "8", "10", "3", "5", "5", "6", "7"], "time": [456, 1155, 2272, 2938, 3886, 4638, 5292, 6289, 10108, 13458, 16760, 19428, 20009, 22866, 24941, 26612, 26710, 27976, 31144, 33765, 37224, 40360, 45278, 47577, 50661, 50726, 54576, 54813, 55329, 57360, 60812, 60944]}, "edge": {"target": [], "time": []}}}, "displayed_time": "71.05", "trialTime": 72013, "trial_type": "mouselab-mdp", "trial_index": 13, "time_elapsed": 730262, "internal_node_id": "0.0-6.0-1.0-4.0"}}, {"uniqueid": "w40654226:a45034797", "current_trial": 14, "dateTime": 1693581779439, "trialdata": {"revealed_states": [], "clicked_states": ["33", "32", "31", "29", "27", "28", "22", "21", "20", "17", "16", "18", "7", "9", "10"], "num_clicks_accrued": [0, 0, 0, 0, 0, 0, 0, 0, 0, 0, 0, 0, 0], "stateRewards": ["", 1, -2, -8, -13, 4, 34, -84, -4, -49, 88, -70, -1, 3, -4, 10, -77, 13, -34, 15, -21, -16, 27, 1, -2, 8, -8, -6, 38, -26, 6, -15, 66, -3], "withholdReward": false, "trial_id": "mdp_trial_6", "block": "test", "trialIndex": 7, "score": 42.75000000000001, "costs": -32.24999999999999, "simulationMode": [null, null, null, null, null], "rewards": [1, -2, -8, -4, 88], "path": ["0", "0", "1", "2", "3", "8", "10"], "rt": [52820, 10, 81, 336, 173], "actions": ["up", "up", "up", "left", "down"], "actionTimes": [59662, 60179, 60765, 61605, 62278], "queries": {"click": {"state": {"target": ["33", "32", "31", "29", "27", "28", "22", "21", "20", "17", "16", "18", "7", "9", "10"], "time": [8705, 11858, 15311, 18463, 21240, 24716, 28085, 31253, 34403, 37555, 41222, 44372, 48507, 51641, 54891]}, "edge": {"target": [], "time": []}}, "mouseover": {"state": {"target": ["23", "24", "25", "30", "32", "33", "32", "31", "24", "28", "27", "29", "27", "28", "23", "22", "21", "22", "21", "20", "17", "16", "16", "18", "7", "3", "9", "8", "10", "11"], "time": [7547, 7614, 7747, 8197, 8364, 8548, 9232, 12400, 15921, 15972, 16374, 17006, 19041, 21773, 25659, 26211, 26726, 27360, 28562, 31928, 35011, 38016, 38346, 42215, 45383, 49098, 49148, 53535, 53850, 55666]}, "edge": {"target": [], "time": []}}, "mouseout": {"state": {"target": ["7", "0", "23", "24", "25", "30", "32", "33", "32", "31", "24", "28", "27", "29", "27", "28", "23", "22", "21", "22", "21", "20", "17", "16", "16", "18", "7", "3", "9", "8", "10"], "time": [996, 1743, 7581, 7666, 8183, 8233, 8380, 9166, 12301, 15885, 15952, 16237, 16936, 18905, 21709, 25576, 25710, 26274, 27042, 28509, 31661, 34829, 37963, 38034, 41730, 44934, 49049, 49134, 53398, 53701, 55011]}, "edge": {"target": [], "time": []}}}, "displayed_time": "62.77", "trialTime": 63565, "trial_type": "mouselab-mdp", "trial_index": 14, "time_elapsed": 794300, "internal_node_id": "0.0-6.0-1.0-5.0"}}, {"uniqueid": "w40654226:a45034797", "current_trial": 15, "dateTime": 1693581802373, "trialdata": {"revealed_states": [], "clicked_states": ["1", "2", "3", "4", "7", "6", "5"], "num_clicks_accrued": [0, 0, 0, 0, 0, 0, 0, 0, 0, 0, 0, 0, 0], "stateRewards": ["", 2, 4, -5, 7, 81, 35, 6, 11, 14, -72, 42, -1, 2, 3, -7, -77, -44, -40, -15, -85, 51, -32, -2, -1, -5, 7, -74, 47, 52, 16, -49, 48, -46], "withholdReward": false, "trial_id": "mdp_trial_7", "block": "test", "trialIndex": 8, "score": 79.95, "costs": -9.05, "simulationMode": [null, null, null, null, null], "rewards": [2, 4, -5, 7, 81], "path": ["0", "0", "1", "2", "3", "4", "5"], "rt": [15873, 90, 125, 173, 160], "actions": ["up", "up", "up", "right", "up"], "actionTimes": [18134, 18724, 19341, 20004, 20661], "queries": {"click": {"state": {"target": ["1", "2", "3", "4", "7", "6", "5"], "time": [3021, 4187, 5304, 6296, 7337, 10522, 13672]}, "edge": {"target": [], "time": []}}, "mouseover": {"state": {"target": ["1", "2", "3", "4", "7", "6", "5", "9"], "time": [2745, 3511, 4812, 6178, 7149, 7946, 11096, 15732]}, "edge": {"target": [], "time": []}}, "mouseout": {"state": {"target": ["11", "10", "1", "0", "1", "2", "3", "4", "7", "6", "5", "9", "8", "0"], "time": [1480, 1546, 1612, 2645, 3394, 4307, 5913, 7080, 7695, 11030, 14446, 21914, 21951, 21998]}, "edge": {"target": [], "time": []}}}, "displayed_time": "21.17", "trialTime": 22460, "trial_type": "mouselab-mdp", "trial_index": 15, "time_elapsed": 817235, "internal_node_id": "0.0-6.0-1.0-6.0"}}, {"uniqueid": "w40654226:a45034797", "current_trial": 16, "dateTime": 1693581837083, "trialdata": {"revealed_states": [], "clicked_states": ["31", "32", "33", "29", "27", "28", "23", "24", "25", "26"], "num_clicks_accrued": [0, 0, 0, 0, 0, 0, 0, 0, 0, 0, 0, 0, 0], "stateRewards": ["", -1, -3, 3, 5, 56, 39, 50, -1, -80, 33, -46, 1, -2, -6, -8, 87, 48, 54, -11, -20, -64, -54, -2, 3, -7, -3, 12, 88, 35, -16, -46, -70, -3], "withholdReward": false, "trial_id": "mdp_trial_8", "block": "test", "trialIndex": 9, "score": 63.5, "costs": -15.5, "simulationMode": [null, null, null, null, null], "rewards": [-2, 3, -7, -3, 88], "path": ["0", "0", "23", "24", "25", "26", "28"], "rt": [25486, 167, 204, 365, 147], "actions": ["left", "left", "left", "up", "right"], "actionTimes": [29578, 30249, 30953, 31817, 32465], "queries": {"click": {"state": {"target": ["31", "32", "33", "29", "27", "28", "23", "24", "25", "26"], "time": [5186, 8586, 11754, 14904, 17988, 21122, 26456, 27157, 27863, 28480]}, "edge": {"target": [], "time": []}}, "mouseover": {"state": {"target": ["31", "32", "33", "33", "29", "27", "28", "11", "8", "10", "23", "24", "25", "26"], "time": [5027, 5746, 9145, 9444, 12460, 15611, 18614, 22512, 22812, 22878, 26299, 26906, 27631, 28281]}, "edge": {"target": [], "time": []}}, "mouseout": {"state": {"target": ["0", "0", "31", "32", "33", "33", "29", "27", "28", "11", "8", "10", "23", "24", "25"], "time": [3361, 4727, 5693, 9079, 9260, 12277, 15345, 18514, 22263, 22744, 22829, 25987, 26881, 27581, 27951]}, "edge": {"target": [], "time": []}}}, "displayed_time": "32.97", "trialTime": 34232, "trial_type": "mouselab-mdp", "trial_index": 16, "time_elapsed": 851945, "internal_node_id": "0.0-6.0-1.0-7.0"}}, {"uniqueid": "w40654226:a45034797", "current_trial": 17, "dateTime": 1693581906065, "trialdata": {"revealed_states": [], "clicked_states": ["22", "21", "20", "17", "16", "18", "7", "6", "5", "9", "11", "10", "28", "27", "29", "33", "31", "32"], "num_clicks_accrued": [0, 0, 0, 0, 0, 0, 0, 0, 0, 0, 0, 0, 0], "stateRewards": ["", 2, -1, -1, 7, 11, -40, -22, -2, 69, 37, 8, -2, 4, -8, -12, -2, -72, -3, -12, 17, 63, 12, 1, 3, -7, 6, 25, 61, 61, -9, 28, -17, 27], "withholdReward": false, "trial_id": "mdp_trial_9", "block": "test", "trialIndex": 10, "score": 28.30000000000001, "costs": -38.69999999999999, "simulationMode": [null, null, null, null, null], "rewards": [2, -1, -1, -2, 69], "path": ["0", "0", "1", "2", "3", "8", "9"], "rt": [61264, 555, 271, 268, 251], "actions": ["up", "up", "up", "left", "up"], "actionTimes": [63287, 64341, 65109, 65869, 66621], "queries": {"click": {"state": {"target": ["22", "21", "20", "17", "16", "18", "7", "6", "5", "9", "11", "10", "28", "27", "29", "33", "31", "32"], "time": [3186, 6337, 9821, 13322, 16455, 19655, 23038, 26156, 29256, 32374, 36924, 40158, 43539, 46657, 49859, 53009, 56110, 59460]}, "edge": {"target": [], "time": []}}, "mouseover": {"state": {"target": ["12", "13", "14", "19", "19", "22", "21", "20", "17", "16", "18", "7", "6", "5", "9", "9", "11", "10", "28", "27", "29", "33", "33", "30", "31", "31", "32"], "time": [2196, 2345, 2462, 2896, 2959, 3111, 3779, 7180, 10946, 15261, 17010, 22812, 23629, 27014, 29829, 30231, 33316, 38142, 42738, 44148, 47332, 50581, 50736, 54700, 54732, 55115, 56800]}, "edge": {"target": [], "time": []}}, "mouseout": {"state": {"target": ["26", "23", "0", "12", "13", "14", "19", "19", "22", "21", "20", "17", "16", "16", "18", "7", "6", "5", "9", "9", "9", "11", "10", "28", "27", "29", "33", "33", "30", "31", "31", "32"], "time": [1009, 1077, 2162, 2245, 2413, 2661, 2945, 3011, 3710, 6977, 9956, 15178, 16587, 16946, 22380, 23497, 26846, 29795, 29846, 32540, 32980, 37980, 42616, 44017, 47200, 50363, 50639, 54684, 54716, 54767, 56648, 62585]}, "edge": {"target": [], "time": []}}}, "displayed_time": "67.12", "trialTime": 68493, "trial_type": "mouselab-mdp", "trial_index": 17, "time_elapsed": 920927, "internal_node_id": "0.0-6.0-1.0-8.0"}}, {"uniqueid": "w40654226:a45034797", "current_trial": 18, "dateTime": 1693581964886, "trialdata": {"revealed_states": [], "clicked_states": ["23", "24", "25", "30", "31", "32", "33", "29", "27", "28", "22", "21", "20", "17", "16", "18", "12", "13", "14", "15"], "num_clicks_accrued": [0, 0, 0, 0, 0, 0, 0, 0, 0, 0, 0, 0, 0], "stateRewards": ["", -2, -4, 2, 10, -17, 18, 73, 11, -32, 23, -13, -2, -4, 7, 12, -25, 66, -23, 15, 40, -76, -9, 1, 2, -7, -5, -20, 24, 3, -5, 16, -73, 70], "withholdReward": false, "trial_id": "mdp_trial_10", "block": "test", "trialIndex": 11, "score": 48, "costs": -30.999999999999996, "simulationMode": [null, null, null, null, null], "rewards": [-2, -4, 7, 12, 66], "path": ["0", "0", "12", "13", "14", "15", "17"], "rt": [49588, 392, 262, 412, 196], "actions": ["right", "right", "right", "up", "right"], "actionTimes": [52869, 53763, 54532, 55467, 56164], "queries": {"click": {"state": {"target": ["23", "24", "25", "30", "31", "32", "33", "29", "27", "28", "22", "21", "20", "17", "16", "18", "12", "13", "14", "15"], "time": [4452, 5294, 6029, 7050, 7838, 10971, 14188, 19188, 22356, 25489, 28790, 32004, 35390, 38940, 42125, 45375, 49425, 50083, 50699, 51483]}, "edge": {"target": [], "time": []}}, "mouseover": {"state": {"target": ["23", "24", "25", "30", "30", "31", "32", "33", "28", "26", "26", "29", "27", "28", "1", "12", "13", "22", "21", "20", "17", "16", "18", "12", "13", "14", "15"], "time": [4261, 4993, 5792, 6560, 6908, 7579, 8348, 11450, 18097, 18213, 18463, 19014, 19800, 22831, 26145, 26266, 26505, 27001, 29366, 32697, 36431, 39552, 43032, 49182, 49820, 50532, 51226]}, "edge": {"target": [], "time": []}}, "mouseout": {"state": {"target": ["31", "27", "23", "24", "25", "30", "30", "31", "32", "33", "33", "28", "26", "26", "29", "27", "28", "1", "12", "13", "22", "21", "20", "17", "16", "18", "12", "13", "14", "15"], "time": [2113, 2147, 4947, 5745, 6512, 6661, 7526, 8296, 11393, 16529, 17863, 18165, 18263, 18513, 19205, 22763, 26081, 26178, 26449, 26522, 29312, 32532, 36183, 39496, 42731, 49065, 49802, 50451, 51146, 52069]}, "edge": {"target": [], "time": []}}}, "displayed_time": "56.67", "trialTime": 58339, "trial_type": "mouselab-mdp", "trial_index": 18, "time_elapsed": 979748, "internal_node_id": "0.0-6.0-1.0-9.0"}}, {"uniqueid": "w40654226:a45034797", "current_trial": 19, "dateTime": 1693582002741, "trialdata": {"revealed_states": [], "clicked_states": ["11", "9", "10", "5", "7", "6", "1", "2", "3", "8", "4"], "num_clicks_accrued": [0, 0, 0, 0, 0, 0, 0, 0, 0, 0, 0, 0, 0], "stateRewards": ["", -1, -3, -6, 14, 41, 18, 63, -14, 80, 21, 17, -2, -4, -2, -5, 13, 70, 8, -4, -64, -10, -20, 2, -1, 4, -1, -17, -55, 42, -7, 47, 54, 15], "withholdReward": false, "trial_id": "mdp_trial_11", "block": "test", "trialIndex": 12, "score": 38.95, "costs": -17.05, "simulationMode": [null, null, null, null, null], "rewards": [-1, -3, -6, -14, 80], "path": ["0", "0", "1", "2", "3", "8", "9"], "rt": [30666, 381, 226, 231, 121], "actions": ["up", "up", "up", "left", "up"], "actionTimes": [32396, 33282, 34010, 34746, 35370], "queries": {"click": {"state": {"target": ["11", "9", "10", "5", "7", "6", "1", "2", "3", "8", "4"], "time": [2669, 5869, 10054, 13819, 16986, 20471, 23705, 24630, 25308, 26130, 26908]}, "edge": {"target": [], "time": []}}, "mouseover": {"state": {"target": ["1", "10", "8", "11", "9", "8", "10", "3", "5", "5", "4", "7", "6", "2", "1", "2", "3", "8", "4", "7", "1", "18", "18"], "time": [2044, 2077, 2109, 2544, 3443, 6294, 6362, 12261, 12543, 13381, 14429, 14495, 17963, 21429, 21662, 24279, 25060, 25781, 26722, 29151, 29496, 29863, 30512]}, "edge": {"target": [], "time": []}}, "mouseout": {"state": {"target": ["0", "1", "10", "8", "11", "9", "8", "10", "3", "5", "5", "4", "7", "6", "2", "1", "2", "3", "8", "3", "4", "7", "1", "18"], "time": [1342, 2058, 2094, 2159, 3309, 6278, 6329, 12128, 12277, 13212, 14409, 14460, 17515, 21245, 21565, 23857, 24740, 25417, 26479, 26648, 29046, 29213, 29646, 30146]}, "edge": {"target": [], "time": []}}}, "displayed_time": "35.87", "trialTime": 37369, "trial_type": "mouselab-mdp", "trial_index": 19, "time_elapsed": 1017602, "internal_node_id": "0.0-6.0-1.0-10.0"}}, {"uniqueid": "w40654226:a45034797", "current_trial": 20, "dateTime": 1693582069274, "trialdata": {"revealed_states": [], "clicked_states": ["22", "21", "20", "17", "16", "18", "32", "31", "33", "29", "27", "28", "10", "11", "9", "5", "6", "7"], "num_clicks_accrued": [0, 0, 0, 0, 0, 0, 0, 0, 0, 0, 0, 0, 0], "stateRewards": ["", -1, 2, -6, 6, -82, -19, -39, -16, -83, 11, -33, -2, -2, 4, -6, -82, -1, -19, -6, -10, -67, -41, -2, 1, -7, 16, -23, -78, -52, 14, 31, -71, 74], "withholdReward": false, "trial_id": "mdp_trial_12", "block": "test", "trialIndex": 13, "score": 41.30000000000001, "costs": -38.69999999999999, "simulationMode": [null, null, null, null, null], "rewards": [-2, 1, -7, 14, 74], "path": ["0", "0", "23", "24", "25", "30", "33"], "rt": [59981, 191, 317, 180, 163], "actions": ["left", "left", "left", "down", "left"], "actionTimes": [61785, 62479, 63304, 63984, 64648], "queries": {"click": {"state": {"target": ["22", "21", "20", "17", "16", "18", "32", "31", "33", "29", "27", "28", "10", "11", "9", "5", "6", "7"], "time": [2938, 6205, 9438, 12621, 15722, 18822, 22257, 25356, 28674, 32541, 35991, 39090, 42341, 45525, 48859, 52042, 55392, 58542]}, "edge": {"target": [], "time": []}}, "mouseover": {"state": {"target": ["12", "22", "22", "21", "20", "17", "17", "16", "18", "12", "32", "31", "30", "33", "29", "27", "28", "9", "8", "10", "11", "9", "5", "5", "6", "7"], "time": [2260, 2360, 2794, 5659, 6779, 10210, 10612, 13160, 16612, 20778, 21979, 22879, 25898, 25947, 32097, 35764, 36813, 40114, 40516, 40698, 42985, 46248, 49717, 50100, 52699, 56098]}, "edge": {"target": [], "time": []}}, "mouseout": {"state": {"target": ["18", "13", "22", "0", "0", "12", "22", "22", "22", "21", "20", "17", "17", "16", "18", "12", "32", "31", "30", "33", "29", "27", "28", "9", "8", "10", "11", "11", "9", "5", "5", "6"], "time": [543, 659, 792, 1026, 2227, 2275, 2461, 3825, 5509, 6304, 10110, 10260, 13043, 16411, 20763, 20814, 22344, 25864, 25913, 31613, 35263, 36448, 39846, 40453, 40616, 42865, 45543, 46034, 49534, 49767, 52639, 56014]}, "edge": {"target": [], "time": []}}}, "displayed_time": "65.15", "trialTime": 66032, "trial_type": "mouselab-mdp", "trial_index": 20, "time_elapsed": 1084135, "internal_node_id": "0.0-6.0-1.0-11.0"}}, {"uniqueid": "w40654226:a45034797", "current_trial": 21, "dateTime": 1693582148494, "trialdata": {"revealed_states": [], "clicked_states": ["23", "24", "25", "30", "26", "33", "32", "31", "29", "27", "28", "10", "11", "9", "5", "6", "7", "18", "16", "17", "20", "21", "22", "12", "13", "14", "19", "15"], "num_clicks_accrued": [0, 0, 0, 0, 0, 0, 0, 0, 0, 0, 0, 0, 0], "stateRewards": ["", 2, -4, 7, 3, 23, -42, 4, 7, -81, -33, 7, -2, -4, 5, -1, 50, -57, -14, -13, -14, 44, 55, -2, -2, 5, -2, 33, 1, 57, -13, -7, 58, 87], "withholdReward": false, "trial_id": "mdp_trial_13", "block": "test", "trialIndex": 14, "score": 28.000000000000014, "costs": -46.999999999999986, "simulationMode": [null, null, null, null, null], "rewards": [-2, -2, 5, -13, 87], "path": ["0", "0", "23", "24", "25", "30", "33"], "rt": [68868, 408, 224, 405, 241], "actions": ["left", "left", "left", "down", "left"], "actionTimes": [73955, 74858, 75570, 76475, 77210], "queries": {"click": {"state": {"target": ["23", "24", "25", "30", "26", "33", "32", "31", "29", "27", "28", "10", "11", "9", "5", "6", "7", "18", "16", "17", "20", "21", "22", "12", "13", "14", "19", "15"], "time": [6217, 7367, 8170, 9143, 10025, 11047, 14616, 17951, 21119, 24286, 27386, 30552, 33736, 36870, 39954, 43155, 46272, 49405, 52506, 55706, 58773, 61990, 65474, 68790, 69858, 70744, 71533, 72495]}, "edge": {"target": [], "time": []}}, "mouseover": {"state": {"target": ["23", "24", "25", "30", "26", "33", "32", "31", "26", "29", "27", "28", "10", "11", "11", "9", "5", "5", "6", "7", "18", "16", "17", "17", "19", "20", "21", "22", "12", "13", "14", "19", "15", "15", "0", "31", "30"], "time": [5840, 6723, 7850, 8624, 9809, 10557, 11689, 15141, 19474, 19917, 21957, 24991, 29010, 31193, 31527, 34293, 37559, 37896, 40477, 43760, 47427, 50144, 52996, 53317, 56416, 56813, 59446, 62716, 66961, 69213, 70550, 71319, 71930, 72397, 73145, 73180, 73214]}, "edge": {"target": [], "time": []}}, "mouseout": {"state": {"target": ["7", "15", "13", "12", "0", "23", "24", "25", "30", "25", "26", "33", "32", "31", "26", "29", "27", "28", "10", "11", "11", "9", "5", "5", "6", "7", "18", "16", "17", "17", "19", "20", "21", "22", "12", "13", "14", "19", "14", "15", "15", "0", "31"], "time": [406, 604, 656, 920, 5806, 6691, 7809, 8591, 9590, 9672, 10431, 11640, 15024, 19374, 19491, 21690, 24891, 28376, 30702, 31276, 33853, 37493, 37593, 40379, 43694, 46929, 49877, 52980, 53027, 56295, 56665, 59295, 62127, 66678, 69166, 70281, 71197, 71549, 71897, 71980, 72513, 73165, 73197]}, "edge": {"target": [], "time": []}}}, "displayed_time": "77.72", "trialTime": 78706, "trial_type": "mouselab-mdp", "trial_index": 21, "time_elapsed": 1163356, "internal_node_id": "0.0-6.0-1.0-12.0"}}, {"uniqueid": "w40654226:a45034797", "current_trial": 22, "dateTime": 1693582226115, "trialdata": {"revealed_states": [], "clicked_states": ["33", "32", "31", "29", "27", "28", "10", "11", "9", "5", "6", "7", "4", "3", "2", "1", "16", "18", "15", "14", "13", "12", "17", "20", "22", "21", "19"], "num_clicks_accrued": [0, 0, 0, 0, 0, 0, 0, 0, 0, 0, 0, 0, 0], "stateRewards": ["", 2, 2, 3, -15, 23, -14, 73, -7, -32, -20, -6, 1, 1, -5, -12, 73, 6, -84, 11, -81, -57, 13, -2, -1, -4, -8, -52, -58, 49, 13, 5, -41, -41], "withholdReward": false, "trial_id": "mdp_trial_14", "block": "test", "trialIndex": 15, "score": 19.55000000000001, "costs": -45.44999999999999, "simulationMode": [null, null, null, null, null], "rewards": [2, 2, 3, -15, 73], "path": ["0", "0", "1", "2", "3", "4", "7"], "rt": [69485, 171, 131, 118, 156], "actions": ["up", "up", "up", "right", "down"], "actionTimes": [72937, 73616, 74240, 74864, 75521], "queries": {"click": {"state": {"target": ["33", "32", "31", "29", "27", "28", "10", "11", "9", "5", "6", "7", "4", "3", "2", "1", "16", "18", "15", "14", "13", "12", "17", "20", "22", "21", "19"], "time": [4947, 8080, 11263, 14348, 17565, 20648, 23699, 26882, 29950, 33099, 36400, 39533, 43900, 44720, 45785, 46868, 48168, 51786, 55269, 56039, 56760, 57389, 58487, 61770, 64970, 67954, 71104]}, "edge": {"target": [], "time": []}}, "mouseover": {"state": {"target": ["23", "24", "30", "33", "32", "31", "26", "29", "27", "28", "1", "10", "10", "11", "9", "5", "6", "6", "7", "18", "4", "3", "2", "1", "18", "16", "18", "15", "14", "13", "12", "17", "19", "20", "19", "22", "21", "19", "19", "13", "18", "7"], "time": [4136, 4150, 4351, 4586, 6317, 8652, 12002, 12651, 15036, 18553, 21409, 22187, 22620, 24266, 27789, 32069, 33619, 33936, 37686, 40588, 43457, 44438, 45222, 46306, 47523, 47824, 49640, 52472, 55807, 56509, 57192, 58158, 60413, 60942, 62461, 62607, 65609, 68424, 68910, 71693, 71757, 72090]}, "edge": {"target": [], "time": []}}, "mouseout": {"state": {"target": ["30", "0", "23", "24", "30", "33", "32", "31", "26", "29", "27", "28", "28", "1", "10", "10", "11", "9", "5", "5", "6", "6", "7", "18", "4", "3", "3", "2", "1", "18", "16", "18", "15", "14", "13", "12", "17", "19", "20", "19", "22", "21", "19", "19", "13", "18"], "time": [1217, 4121, 4149, 4189, 4485, 6200, 8569, 11887, 12602, 14837, 18136, 20810, 21320, 22151, 22218, 24134, 27435, 30571, 33117, 33571, 33638, 37624, 40208, 43254, 44403, 44836, 45138, 46256, 46884, 47679, 49410, 52422, 55710, 56133, 57122, 57824, 60007, 60907, 61921, 62527, 65440, 68374, 68512, 71254, 71710, 71774]}, "edge": {"target": [], "time": []}}}, "displayed_time": "76.03", "trialTime": 77113, "trial_type": "mouselab-mdp", "trial_index": 22, "time_elapsed": 1240976, "internal_node_id": "0.0-6.0-1.0-13.0"}}, {"uniqueid": "w40654226:a45034797", "current_trial": 23, "dateTime": 1693582284760, "trialdata": {"revealed_states": [], "clicked_states": ["22", "21", "20", "17", "16", "18", "15", "19", "14", "13", "12", "6", "7", "5", "9", "11", "10", "28", "8", "3", "2", "1"], "num_clicks_accrued": [0, 0, 0, 0, 0, 0, 0, 0, 0, 0, 0, 0, 0], "stateRewards": ["", 1, 4, -8, -5, -15, -7, 21, 13, -30, 40, -65, 1, 1, 5, -14, 35, 27, -38, -11, 36, -58, -47, -2, 4, -3, 13, -16, -49, 22, 15, -56, -44, -10], "withholdReward": false, "trial_id": "mdp_trial_15", "block": "test", "trialIndex": 16, "score": 15.300000000000004, "costs": -34.699999999999996, "simulationMode": [null, null, null, null, null], "rewards": [1, 4, -8, 13, 40], "path": ["0", "0", "1", "2", "3", "8", "10"], "rt": [52249, 13, 459, 67, 109], "actions": ["up", "up", "up", "left", "down"], "actionTimes": [53955, 54478, 55456, 56030, 56641], "queries": {"click": {"state": {"target": ["22", "21", "20", "17", "16", "18", "15", "19", "14", "13", "12", "6", "7", "5", "9", "11", "10", "28", "8", "3", "2", "1"], "time": [3034, 6318, 9502, 12752, 15986, 19070, 22351, 23239, 24320, 25072, 25824, 28687, 31821, 34921, 38071, 41305, 44422, 47623, 50840, 51631, 52309, 53010]}, "edge": {"target": [], "time": []}}, "mouseover": {"state": {"target": ["22", "22", "21", "20", "17", "16", "18", "15", "14", "19", "14", "13", "12", "6", "6", "7", "4", "5", "5", "9", "11", "10", "27", "28", "8", "3", "2", "1"], "time": [2452, 2904, 3507, 7107, 10221, 13671, 16904, 21504, 22737, 22792, 24124, 24891, 25659, 27193, 27976, 29485, 32340, 32391, 33008, 35962, 38840, 42110, 45227, 45512, 49194, 51376, 52046, 52811]}, "edge": {"target": [], "time": []}}, "mouseout": {"state": {"target": ["7", "0", "22", "22", "21", "20", "17", "16", "18", "15", "14", "19", "14", "13", "12", "6", "6", "7", "4", "5", "5", "9", "11", "10", "27", "28", "8", "3", "2", "1"], "time": [887, 2338, 2521, 3454, 6872, 9617, 13505, 16622, 21374, 22722, 22773, 23941, 24853, 25541, 25843, 27659, 29374, 31970, 32375, 32539, 35087, 38693, 41743, 45076, 45360, 49049, 51312, 52013, 52709, 53028]}, "edge": {"target": [], "time": []}}}, "displayed_time": "57.15", "trialTime": 58136, "trial_type": "mouselab-mdp", "trial_index": 23, "time_elapsed": 1299622, "internal_node_id": "0.0-6.0-1.0-14.0"}}, {"uniqueid": "w40654226:a45034797", "current_trial": 24, "dateTime": 1693582323911, "trialdata": {"revealed_states": [], "clicked_states": ["31", "32", "33", "29", "27", "28", "26", "30", "25", "24", "23"], "num_clicks_accrued": [0, 0, 0, 0, 0, 0, 0, 0, 0, 0, 0, 0, 0], "stateRewards": ["", 1, -2, -8, -3, 31, -84, -55, -14, 15, -58, 17, -2, -3, 7, 7, -12, 48, 67, 4, -44, -68, 46, 2, 3, -5, -7, 76, 27, 5, 11, 57, 52, 59], "withholdReward": false, "trial_id": "mdp_trial_16", "block": "test", "trialIndex": 17, "score": 52.95, "costs": -17.05, "simulationMode": [null, null, null, null, null], "rewards": [2, 3, -5, 11, 59], "path": ["0", "0", "23", "24", "25", "30", "33"], "rt": [32313, 143, 339, 208, 162], "actions": ["left", "left", "left", "down", "left"], "actionTimes": [33793, 34439, 35272, 35975, 36639], "queries": {"click": {"state": {"target": ["31", "32", "33", "29", "27", "28", "26", "30", "25", "24", "23"], "time": [2371, 5855, 9706, 15494, 18707, 21906, 25490, 26409, 27623, 28394, 29176]}, "edge": {"target": [], "time": []}}, "mouseover": {"state": {"target": ["0", "31", "32", "33", "33", "30", "25", "29", "27", "28", "26", "25", "30", "25", "24", "23", "0", "12", "12", "22", "13", "2", "8"], "time": [1993, 2191, 3395, 6493, 6791, 10508, 12895, 13526, 16460, 19410, 24377, 25997, 26178, 26852, 28080, 28828, 30180, 30228, 30693, 31777, 32078, 32228, 32328]}, "edge": {"target": [], "time": []}}, "mouseout": {"state": {"target": ["1", "0", "0", "31", "32", "33", "33", "30", "25", "29", "27", "28", "27", "26", "25", "30", "25", "24", "23", "0", "12", "12", "22", "13", "2"], "time": [323, 606, 2009, 3122, 6426, 6556, 10408, 12841, 12943, 16230, 19292, 22512, 23744, 25978, 26059, 26429, 28026, 28780, 30161, 30209, 30480, 30728, 32027, 32115, 32264]}, "edge": {"target": [], "time": []}}}, "displayed_time": "37.13", "trialTime": 38600, "trial_type": "mouselab-mdp", "trial_index": 24, "time_elapsed": 1338773, "internal_node_id": "0.0-6.0-1.0-15.0"}}, {"uniqueid": "w40654226:a45034797", "current_trial": 25, "dateTime": 1693582403763, "trialdata": {"revealed_states": [], "clicked_states": ["21", "22", "20", "17", "16", "18", "15", "14", "19", "13", "12", "6", "7", "4", "3", "2", "1", "5", "9", "8", "11", "10", "27", "29", "28", "31", "33", "32"], "num_clicks_accrued": [0, 0, 0, 0, 0, 0, 0, 0, 0, 0, 0, 0, 0], "stateRewards": ["", -1, -2, -1, -10, -57, 73, -72, -16, 75, -14, -46, -2, -3, -7, -1, -61, -60, 76, -4, 50, 4, 14, 2, 2, -7, 12, -65, -32, 15, -8, -76, -25, -61], "withholdReward": false, "trial_id": "mdp_trial_17", "block": "test", "trialIndex": 18, "score": 16.000000000000014, "costs": -46.999999999999986, "simulationMode": [null, null, null, null, null], "rewards": [-2, -3, -7, -1, 76], "path": ["0", "0", "12", "13", "14", "15", "18"], "rt": [72437, 464, 308, 362, 77], "actions": ["right", "right", "right", "up", "left"], "actionTimes": [74523, 75481, 76289, 77145, 77713], "queries": {"click": {"state": {"target": ["21", "22", "20", "17", "16", "18", "15", "14", "19", "13", "12", "6", "7", "4", "3", "2", "1", "5", "9", "8", "11", "10", "27", "29", "28", "31", "33", "32"], "time": [2919, 6404, 9571, 12686, 15822, 18989, 24037, 25556, 26392, 27421, 28227, 29307, 32707, 35873, 36843, 37510, 38144, 39492, 43207, 47725, 48692, 51793, 55209, 58376, 61661, 65111, 68244, 71362]}, "edge": {"target": [], "time": []}}, "mouseover": {"state": {"target": ["0", "22", "19", "21", "22", "19", "20", "20", "17", "16", "18", "14", "19", "14", "15", "14", "14", "19", "13", "12", "7", "6", "7", "4", "4", "3", "3", "2", "1", "5", "8", "8", "9", "11", "8", "8", "11", "10", "27", "29", "26", "28", "24", "24", "31", "30", "33", "33", "32"], "time": [2359, 2440, 2473, 2805, 3956, 7855, 7973, 8124, 10338, 13208, 16447, 19663, 20189, 22991, 23841, 24609, 25378, 26076, 27023, 28010, 28843, 29092, 30278, 33359, 33694, 36310, 36660, 37260, 37958, 38575, 42260, 42661, 43010, 43694, 46994, 47578, 48310, 49179, 52711, 55774, 58779, 58832, 62379, 62596, 62797, 66181, 66231, 66579, 68716]}, "edge": {"target": [], "time": []}}, "mouseout": {"state": {"target": ["8", "4", "0", "0", "22", "19", "21", "22", "19", "20", "20", "17", "16", "18", "18", "14", "19", "14", "15", "15", "14", "14", "19", "13", "12", "7", "6", "6", "7", "4", "4", "3", "3", "2", "1", "5", "8", "8", "9", "11", "8", "8", "8", "11", "10", "27", "29", "26", "28", "24", "24", "31", "30", "33", "33", "32"], "time": [775, 855, 1656, 2374, 2456, 2488, 2936, 7804, 7923, 7989, 10078, 12839, 16373, 19009, 19622, 19768, 22709, 23790, 24156, 24508, 25260, 26034, 26860, 27910, 28760, 28910, 29455, 30177, 33308, 33493, 36275, 36479, 37207, 37877, 38241, 40393, 42362, 42763, 43693, 46943, 47127, 47743, 48277, 49100, 52576, 55698, 58763, 58814, 62344, 62432, 62697, 65311, 66212, 66263, 68664, 79016]}, "edge": {"target": [], "time": []}}}, "displayed_time": "78.22", "trialTime": 79329, "trial_type": "mouselab-mdp", "trial_index": 25, "time_elapsed": 1418625, "internal_node_id": "0.0-6.0-1.0-16.0"}}, {"uniqueid": "w40654226:a45034797", "current_trial": 26, "dateTime": 1693582484008, "trialdata": {"revealed_states": [], "clicked_states": ["12", "13", "14", "19", "21", "22", "20", "17", "16", "18", "31", "32", "33", "29", "27", "28", "10", "11", "9", "5", "6", "7", "4", "8", "3", "2", "1", "26", "25", "24", "23"], "num_clicks_accrued": [0, 0, 0, 0, 0, 0, 0, 0, 0, 0, 0, 0, 0], "stateRewards": ["", 2, 3, -6, -5, -3, 55, 40, 11, 61, 11, 51, 2, -4, -6, 9, -25, 29, -15, -6, 7, -77, -2, -2, -4, 1, 14, -43, -1, 56, -12, -54, 41, -74], "withholdReward": false, "trial_id": "mdp_trial_18", "block": "test", "trialIndex": 19, "score": 16.95000000000001, "costs": -48.04999999999999, "simulationMode": [null, null, null, null, null], "rewards": [-2, -4, 1, 14, 56], "path": ["0", "0", "23", "24", "25", "26", "29"], "rt": [72824, 281, 323, 224, 88], "actions": ["left", "left", "left", "up", "left"], "actionTimes": [74762, 75550, 76375, 77094, 77678], "queries": {"click": {"state": {"target": ["12", "13", "14", "19", "21", "22", "20", "17", "16", "18", "31", "32", "33", "29", "27", "28", "10", "11", "9", "5", "6", "7", "4", "8", "3", "2", "1", "26", "25", "24", "23"], "time": [3258, 4211, 5094, 5860, 6542, 10176, 13376, 16477, 19760, 22911, 26677, 29911, 33095, 36479, 40714, 43813, 46914, 50113, 53165, 56398, 60031, 64116, 67616, 68501, 69236, 69786, 70553, 71582, 72551, 73152, 73758]}, "edge": {"target": [], "time": []}}, "mouseover": {"state": {"target": ["12", "12", "13", "14", "19", "21", "22", "19", "20", "20", "17", "16", "18", "18", "23", "31", "32", "33", "29", "27", "28", "8", "10", "11", "9", "5", "6", "7", "4", "3", "8", "3", "2", "1", "26", "26", "25", "25", "24", "23"], "time": [2842, 3126, 3811, 4780, 5529, 6323, 7561, 10661, 10731, 10911, 14077, 17193, 20511, 20649, 26262, 26312, 27213, 30464, 35947, 37147, 41398, 44749, 44848, 47466, 50800, 54253, 57350, 60635, 66349, 68152, 68385, 68953, 69584, 70466, 71017, 71286, 72086, 72335, 72920, 73549]}, "edge": {"target": [], "time": []}}, "mouseout": {"state": {"target": ["0", "0", "12", "12", "13", "14", "19", "21", "22", "19", "20", "20", "17", "16", "18", "18", "23", "31", "32", "33", "33", "29", "27", "28", "8", "10", "11", "9", "5", "5", "6", "7", "4", "3", "8", "3", "2", "1", "26", "26", "26", "25", "25", "24", "23"], "time": [1309, 1610, 2911, 3777, 4711, 5477, 6277, 6560, 10644, 10693, 10795, 13877, 17043, 20426, 20600, 26214, 26277, 27164, 30347, 33244, 34679, 37016, 41315, 43966, 44787, 47366, 50261, 53818, 56595, 57218, 60552, 66233, 68118, 68218, 68902, 69567, 70226, 70572, 71149, 71603, 72068, 72170, 72918, 73502, 79118]}, "edge": {"target": [], "time": []}}}, "displayed_time": "78.17", "trialTime": 79718, "trial_type": "mouselab-mdp", "trial_index": 26, "time_elapsed": 1498869, "internal_node_id": "0.0-6.0-1.0-17.0"}}, {"uniqueid": "w40654226:a45034797", "current_trial": 27, "dateTime": 1693582514167, "trialdata": {"revealed_states": [], "clicked_states": ["25", "30", "32", "31", "33", "29", "27", "28"], "num_clicks_accrued": [0, 0, 0, 0, 0, 0, 0, 0, 0, 0, 0, 0, 0], "stateRewards": ["", -2, -3, -3, 9, 79, 67, 22, -15, -56, 27, -85, -2, 4, -4, -15, -20, -32, 60, 15, 71, 57, 17, 1, 2, -8, 15, -37, -81, 82, 15, 21, -3, 2], "withholdReward": false, "trial_id": "mdp_trial_19", "block": "test", "trialIndex": 20, "score": 76.6, "costs": -15.400000000000002, "simulationMode": [null, null, null, null, null], "rewards": [1, 2, -8, 15, 82], "path": ["0", "0", "23", "24", "25", "26", "29"], "rt": [22388, 280, 151, 148, 100], "actions": ["left", "left", "left", "up", "left"], "actionTimes": [25359, 26156, 26813, 27461, 28061], "queries": {"click": {"state": {"target": ["25", "30", "32", "31", "33", "29", "27", "28"], "time": [4203, 5038, 5839, 9455, 12638, 15839, 19455, 22555]}, "edge": {"target": [], "time": []}}, "mouseover": {"state": {"target": ["23", "24", "25", "30", "32", "31", "30", "33", "29", "29", "27", "27", "28", "1", "13", "22"], "time": [3787, 3870, 4070, 4823, 5618, 6558, 10083, 10152, 13338, 13806, 16354, 16673, 20139, 23257, 23473, 23908]}, "edge": {"target": [], "time": []}}, "mouseout": {"state": {"target": ["0", "23", "24", "25", "30", "32", "31", "30", "33", "29", "29", "27", "27", "28", "1", "13"], "time": [3772, 3839, 4005, 4771, 5545, 5953, 10065, 10118, 12770, 13371, 15935, 16423, 19938, 23176, 23289, 23625]}, "edge": {"target": [], "time": []}}}, "displayed_time": "28.56", "trialTime": 29629, "trial_type": "mouselab-mdp", "trial_index": 27, "time_elapsed": 1529028, "internal_node_id": "0.0-6.0-1.0-18.0"}}, {"uniqueid": "w40654226:a45034797", "current_trial": 28, "dateTime": 1693582531605, "trialdata": {"revealed_states": [], "clicked_states": ["21", "22", "20"], "num_clicks_accrued": [0, 0, 0, 0, 0, 0, 0, 0, 0, 0, 0, 0, 0], "stateRewards": ["", 2, 3, 6, -5, -74, -53, 17, -12, 46, 44, 18, -2, 4, 1, -8, 22, -23, -49, 9, -45, 55, 81, 1, -1, -7, -16, -83, -71, -45, 2, 51, 82, 61], "withholdReward": false, "trial_id": "mdp_trial_20", "block": "test", "trialIndex": 21, "score": 86.55, "costs": -6.449999999999999, "simulationMode": [null, null, null, null, null], "rewards": [-2, 4, 1, 9, 81], "path": ["0", "0", "12", "13", "14", "19", "22"], "rt": [10671, 106, 208, 161, 185], "actions": ["right", "right", "right", "down", "left"], "actionTimes": [12736, 13342, 14046, 14703, 15394], "queries": {"click": {"state": {"target": ["21", "22", "20"], "time": [3133, 6401, 9601]}, "edge": {"target": [], "time": []}}, "mouseover": {"state": {"target": ["22", "21", "21", "22", "19", "20", "20", "14", "14", "19"], "time": [2551, 2600, 3003, 3790, 8151, 8384, 8818, 10851, 11368, 11484]}, "edge": {"target": [], "time": []}}, "mouseout": {"state": {"target": ["22", "19", "13", "12", "0", "22", "21", "21", "22", "19", "20", "20", "14", "14", "19"], "time": [451, 636, 718, 1218, 2501, 2567, 2633, 3649, 7934, 8289, 8562, 9732, 10871, 11422, 11685]}, "edge": {"target": [], "time": []}}}, "displayed_time": "16.07", "trialTime": 16911, "trial_type": "mouselab-mdp", "trial_index": 28, "time_elapsed": 1546467, "internal_node_id": "0.0-6.0-1.0-19.0"}}, {"uniqueid": "w40654226:a45034797", "current_trial": 29, "dateTime": 1693582606450, "trialdata": {"revealed_states": [], "clicked_states": ["9", "11", "10", "7", "6", "5", "16", "18", "17", "22", "20", "21", "29", "27", "28", "33", "32", "31", "30", "25", "26", "24", "23", "8", "3", "2", "1"], "num_clicks_accrued": [0, 0, 0, 0, 0, 0, 0, 0, 0, 0, 0, 0, 0], "stateRewards": ["", -1, 1, -2, 5, 73, 15, 61, 8, 7, 38, 76, 2, 2, -4, -6, -6, -26, 43, -5, -45, -85, -35, -2, 1, -4, 15, -10, 69, 72, -11, 84, -49, -38], "withholdReward": false, "trial_id": "mdp_trial_21", "block": "test", "trialIndex": 22, "score": 36.55000000000001, "costs": -45.44999999999999, "simulationMode": [null, null, null, null, null], "rewards": [-2, 1, -4, 15, 72], "path": ["0", "0", "23", "24", "25", "26", "29"], "rt": [67625, 165, 185, 309, 104], "actions": ["left", "left", "left", "up", "left"], "actionTimes": [69460, 70130, 70818, 71626, 72234], "queries": {"click": {"state": {"target": ["9", "11", "10", "7", "6", "5", "16", "18", "17", "22", "20", "21", "29", "27", "28", "33", "32", "31", "30", "25", "26", "24", "23", "8", "3", "2", "1"], "time": [2736, 5888, 9355, 12455, 15590, 18956, 22314, 25774, 29125, 32257, 35358, 38557, 41843, 44993, 48108, 51444, 54727, 57978, 62278, 63081, 63791, 64553, 65228, 66529, 67214, 67845, 68665]}, "edge": {"target": [], "time": []}}, "mouseover": {"state": {"target": ["1", "9", "9", "11", "10", "10", "2", "7", "6", "5", "16", "18", "15", "17", "19", "22", "19", "20", "21", "24", "26", "29", "27", "28", "25", "30", "33", "32", "32", "32", "31", "25", "26", "25", "30", "25", "26", "24", "23", "10", "8", "8", "3", "2", "1"], "time": [2156, 2440, 2553, 3521, 6486, 6821, 9922, 9990, 12958, 16224, 20356, 22876, 26497, 26691, 31192, 31525, 32843, 33009, 35975, 39575, 39628, 40260, 42368, 45792, 49109, 49176, 49386, 51960, 52227, 54530, 55260, 58954, 59231, 61947, 62028, 62728, 63580, 64212, 64981, 65712, 65745, 66296, 66964, 67603, 68239]}, "edge": {"target": [], "time": []}}, "mouseout": {"state": {"target": ["14", "12", "0", "1", "9", "9", "11", "10", "10", "2", "7", "6", "5", "16", "18", "15", "17", "19", "22", "19", "20", "20", "21", "24", "26", "29", "27", "28", "25", "30", "33", "32", "32", "32", "31", "25", "26", "25", "30", "25", "26", "24", "23", "10", "8", "8", "3", "2", "1", "18"], "time": [904, 1004, 2040, 2193, 2454, 3313, 6439, 6526, 9904, 9972, 12889, 16108, 19982, 22809, 26494, 26526, 31011, 31259, 32791, 32926, 35525, 35909, 39477, 39611, 39659, 42281, 45710, 49043, 49127, 49227, 51902, 52011, 54230, 55159, 58811, 58972, 61915, 61997, 62685, 63461, 64141, 64678, 65648, 65728, 65778, 66929, 67560, 68214, 73798, 73897]}, "edge": {"target": [], "time": []}}}, "displayed_time": "72.73", "trialTime": 74290, "trial_type": "mouselab-mdp", "trial_index": 29, "time_elapsed": 1621311, "internal_node_id": "0.0-6.0-1.0-20.0"}}, {"uniqueid": "w40654226:a45034797", "current_trial": 30, "dateTime": 1693582626161, "trialdata": {"revealed_states": [], "clicked_states": ["23", "24", "25", "30", "32"], "num_clicks_accrued": [0, 0, 0, 0, 0, 0, 0, 0, 0, 0, 0, 0, 0], "stateRewards": ["", 1, 1, -2, 7, -31, -6, 76, 1, -36, -16, -53, 2, 1, 7, 13, -47, -10, 47, -7, 72, 46, -56, -2, -2, -2, 11, -80, 44, 38, 16, 67, 85, -78], "withholdReward": false, "trial_id": "mdp_trial_22", "block": "test", "trialIndex": 23, "score": 90.25, "costs": -4.75, "simulationMode": [null, null, null, null, null], "rewards": [-2, -2, -2, 16, 85], "path": ["0", "0", "23", "24", "25", "30", "32"], "rt": [9992, 261, 313, 134, 223], "actions": ["left", "left", "left", "down", "down"], "actionTimes": [11887, 12654, 13470, 14110, 14830], "queries": {"click": {"state": {"target": ["23", "24", "25", "30", "32"], "time": [4335, 5468, 6286, 7028, 7853]}, "edge": {"target": [], "time": []}}, "mouseover": {"state": {"target": ["0", "23", "24", "25", "30", "32", "31"], "time": [3136, 4152, 5069, 6016, 6687, 7504, 8411]}, "edge": {"target": [], "time": []}}, "mouseout": {"state": {"target": ["18", "0", "0", "23", "24", "25", "30", "32", "31"], "time": [935, 1353, 4136, 5019, 5539, 6636, 7454, 7956, 16722]}, "edge": {"target": [], "time": []}}}, "displayed_time": "15.90", "trialTime": 19158, "trial_type": "mouselab-mdp", "trial_index": 30, "time_elapsed": 1641023, "internal_node_id": "0.0-6.0-1.0-21.0"}}, {"uniqueid": "w40654226:a45034797", "current_trial": 31, "dateTime": 1693582644080, "trialdata": {"revealed_states": [], "clicked_states": ["12", "13", "14", "19", "21"], "num_clicks_accrued": [0, 0, 0, 0, 0, 0, 0, 0, 0, 0, 0, 0, 0], "stateRewards": ["", -2, -3, -7, 7, -54, -69, -4, -14, -77, 22, 40, -2, -1, 5, 6, -35, 50, -60, 10, -28, 75, 57, 1, -4, -2, 2, 68, 34, -18, 12, 3, -21, -43], "withholdReward": false, "trial_id": "mdp_trial_23", "block": "test", "trialIndex": 24, "score": 82.25, "costs": -4.75, "simulationMode": [null, null, null, null, null], "rewards": [-2, -1, 5, 10, 75], "path": ["0", "0", "12", "13", "14", "19", "21"], "rt": [8670, 163, 225, 186, 168], "actions": ["right", "right", "right", "down", "down"], "actionTimes": [11040, 11703, 12431, 13111, 13776], "queries": {"click": {"state": {"target": ["12", "13", "14", "19", "21"], "time": [3772, 4455, 5089, 5703, 6573]}, "edge": {"target": [], "time": []}}, "mouseover": {"state": {"target": ["23", "0", "12", "13", "12", "13", "14", "19", "21", "22"], "time": [2771, 3222, 3255, 3322, 3722, 4237, 4854, 5473, 6205, 7505]}, "edge": {"target": [], "time": []}}, "mouseout": {"state": {"target": ["0", "23", "0", "12", "13", "12", "13", "14", "19", "19", "21", "22"], "time": [2723, 3206, 3239, 3306, 3554, 4188, 4805, 5423, 5839, 6071, 7372, 15789]}, "edge": {"target": [], "time": []}}}, "displayed_time": "16.37", "trialTime": 17359, "trial_type": "mouselab-mdp", "trial_index": 31, "time_elapsed": 1658942, "internal_node_id": "0.0-6.0-1.0-22.0"}}, {"uniqueid": "w40654226:a45034797", "current_trial": 32, "dateTime": 1693582688831, "trialdata": {"revealed_states": [], "clicked_states": ["9", "11", "10", "5", "6", "7", "1", "2", "3", "8", "27", "29", "28", "26", "25", "24", "23"], "num_clicks_accrued": [0, 0, 0, 0, 0, 0, 0, 0, 0, 0, 0, 0, 0], "stateRewards": ["", 1, 2, 8, -2, 23, -69, -18, -16, 54, -21, 71, -1, -4, 7, 11, 43, -6, 88, 6, -55, 72, 43, 1, -3, -2, -1, 68, -31, -54, 4, -8, 25, -2], "withholdReward": false, "trial_id": "mdp_trial_24", "block": "test", "trialIndex": 25, "score": 38.45, "costs": -24.549999999999997, "simulationMode": [null, null, null, null, null], "rewards": [1, -3, -2, -1, 68], "path": ["0", "0", "23", "24", "25", "26", "27"], "rt": [38013, 184, 242, 159, 193], "actions": ["left", "left", "left", "up", "up"], "actionTimes": [39773, 40460, 41203, 41868, 42555], "queries": {"click": {"state": {"target": ["9", "11", "10", "5", "6", "7", "1", "2", "3", "8", "27", "29", "28", "26", "25", "24", "23"], "time": [2487, 5771, 9104, 12505, 15639, 18773, 22022, 22959, 23807, 24574, 26207, 29457, 32574, 35992, 36691, 37275, 38042]}, "edge": {"target": [], "time": []}}, "mouseover": {"state": {"target": ["1", "9", "11", "10", "8", "5", "6", "7", "1", "2", "2", "3", "8", "11", "27", "29", "26", "28", "26", "25", "24", "23"], "time": [1918, 2370, 3371, 6338, 10538, 12188, 13155, 16589, 21704, 22406, 22639, 23358, 24373, 25190, 26089, 26854, 30057, 30890, 33291, 36437, 37058, 37608]}, "edge": {"target": [], "time": []}}, "mouseout": {"state": {"target": ["0", "1", "9", "11", "11", "10", "8", "5", "5", "6", "7", "1", "2", "2", "3", "8", "11", "27", "29", "26", "28", "26", "25", "24", "23", "24"], "time": [1386, 1935, 3005, 5791, 6254, 10071, 11788, 12654, 13054, 16322, 21553, 22355, 22456, 23070, 24238, 25138, 25789, 26772, 30023, 30741, 33223, 36400, 37024, 37591, 38576, 39209]}, "edge": {"target": [], "time": []}}}, "displayed_time": "43.06", "trialTime": 44172, "trial_type": "mouselab-mdp", "trial_index": 32, "time_elapsed": 1703692, "internal_node_id": "0.0-6.0-1.0-23.0"}}, {"uniqueid": "w40654226:a45034797", "current_trial": 33, "dateTime": 1693582731364, "trialdata": {"revealed_states": [], "clicked_states": ["23", "24", "25", "30", "33", "32", "31", "29", "27", "28", "10", "11", "8", "3", "2", "1"], "num_clicks_accrued": [0, 0, 0, 0, 0, 0, 0, 0, 0, 0, 0, 0, 0], "stateRewards": ["", -2, 4, 3, 5, -61, 4, 30, 1, -47, 83, 10, 1, 4, 7, -14, 19, -74, -83, 6, -2, -2, -65, -1, -2, 4, -11, 12, -1, -68, 11, -38, -28, 66], "withholdReward": false, "trial_id": "mdp_trial_25", "block": "test", "trialIndex": 26, "score": 66.6, "costs": -22.400000000000002, "simulationMode": [null, null, null, null, null], "rewards": [-2, 4, 3, 1, 83], "path": ["0", "0", "1", "2", "3", "8", "10"], "rt": [34061, 102, 134, 94, 131], "actions": ["up", "up", "up", "left", "down"], "actionTimes": [37494, 38102, 38733, 39325, 39964], "queries": {"click": {"state": {"target": ["23", "24", "25", "30", "33", "32", "31", "29", "27", "28", "10", "11", "8", "3", "2", "1"], "time": [4594, 5618, 6443, 7330, 8226, 11712, 15162, 18261, 21379, 24463, 28128, 31347, 34597, 35268, 35866, 36697]}, "edge": {"target": [], "time": []}}, "mouseover": {"state": {"target": ["23", "24", "23", "24", "25", "30", "33", "32", "30", "31", "24", "26", "29", "27", "28", "8", "10", "8", "11", "8", "8", "3", "2", "1"], "time": [3976, 4046, 4443, 5142, 6127, 6861, 7927, 8727, 12260, 12378, 16729, 16961, 17228, 18945, 21962, 25112, 25862, 28878, 29097, 31930, 32330, 35030, 35647, 36577]}, "edge": {"target": [], "time": []}}, "mouseout": {"state": {"target": ["23", "0", "23", "24", "23", "24", "25", "30", "33", "32", "30", "31", "24", "26", "29", "27", "28", "8", "10", "8", "11", "8", "8", "3", "2", "2", "1", "1", "0"], "time": [409, 1193, 4007, 4278, 5076, 5635, 6827, 7794, 8664, 12160, 12277, 16654, 16746, 17029, 18279, 21881, 24935, 25596, 28829, 28896, 31896, 32130, 34996, 35597, 35958, 36230, 36715, 41048, 41097]}, "edge": {"target": [], "time": []}}}, "displayed_time": "40.46", "trialTime": 41973, "trial_type": "mouselab-mdp", "trial_index": 33, "time_elapsed": 1746226, "internal_node_id": "0.0-6.0-1.0-24.0"}}, {"uniqueid": "w40654226:a45034797", "current_trial": 34, "dateTime": 1693582805138, "trialdata": {"revealed_states": [], "clicked_states": ["23", "24", "25", "30", "32", "31", "33", "29", "27", "28", "26", "11", "10", "9", "8", "3", "2", "1", "7", "5", "6", "18", "16", "17", "22", "21", "20"], "num_clicks_accrued": [0, 0, 0, 0, 0, 0, 0, 0, 0, 0, 0, 0, 0], "stateRewards": ["", -2, -3, 1, -7, 39, -67, 16, 5, -20, 73, 66, -1, 4, 5, -3, 23, -68, -87, -8, 3, -3, 17, 1, -4, -2, -13, -32, 34, 61, -5, -11, -18, 12], "withholdReward": false, "trial_id": "mdp_trial_26", "block": "test", "trialIndex": 27, "score": 28.55000000000001, "costs": -45.44999999999999, "simulationMode": [null, null, null, null, null], "rewards": [-2, -3, 1, 5, 73], "path": ["0", "0", "1", "2", "3", "8", "10"], "rt": [67242, 187, 213, 143, 110], "actions": ["up", "up", "up", "left", "down"], "actionTimes": [68957, 69636, 70349, 70996, 71620], "queries": {"click": {"state": {"target": ["23", "24", "25", "30", "32", "31", "33", "29", "27", "28", "26", "11", "10", "9", "8", "3", "2", "1", "7", "5", "6", "18", "16", "17", "22", "21", "20"], "time": [2783, 3483, 4201, 4852, 5535, 8817, 12551, 16317, 19478, 22645, 25845, 27296, 30731, 33931, 37148, 37781, 38350, 39017, 40382, 43566, 46782, 49983, 53117, 56416, 59534, 62568, 65668]}, "edge": {"target": [], "time": []}}, "mouseover": {"state": {"target": ["23", "24", "25", "30", "32", "31", "30", "33", "33", "29", "27", "28", "26", "8", "11", "10", "8", "9", "8", "8", "3", "2", "1", "7", "5", "5", "6", "18", "16", "17", "19", "22", "21", "20"], "time": [2495, 3166, 3883, 4599, 5283, 6199, 9316, 9366, 9698, 14932, 17914, 22247, 23214, 26371, 27112, 27997, 32098, 33214, 34581, 35831, 37531, 38165, 38914, 39514, 42381, 42548, 44098, 47595, 50687, 53667, 57275, 57433, 60133, 63082]}, "edge": {"target": [], "time": []}}, "mouseout": {"state": {"target": ["0", "23", "24", "25", "30", "32", "31", "30", "33", "33", "29", "27", "28", "26", "8", "11", "11", "10", "8", "9", "9", "8", "8", "3", "2", "2", "1", "7", "5", "5", "6", "18", "16", "17", "19", "22", "21"], "time": [2464, 3133, 3849, 4565, 5233, 5997, 9299, 9350, 9483, 13349, 16462, 20212, 23163, 26261, 26388, 27315, 27963, 31947, 33145, 34091, 34518, 35031, 37496, 38098, 38464, 38733, 39035, 42132, 42449, 44047, 47299, 50430, 53599, 57101, 57333, 60016, 62963]}, "edge": {"target": [], "time": []}}}, "displayed_time": "72.12", "trialTime": 73197, "trial_type": "mouselab-mdp", "trial_index": 34, "time_elapsed": 1820000, "internal_node_id": "0.0-6.0-1.0-25.0"}}, {"uniqueid": "w40654226:a45034797", "current_trial": 35, "dateTime": 1693582825816, "trialdata": {"revealed_states": [], "clicked_states": ["23", "24", "25", "30", "32", "31", "33"], "num_clicks_accrued": [0, 0, 0, 0, 0, 0, 0, 0, 0, 0, 0, 0, 0], "stateRewards": ["", 1, 1, 6, -14, -40, 37, 16, -13, 33, -68, 49, 2, 4, 3, 6, 55, 27, 32, 10, -65, 20, -87, 2, 1, -6, -5, -42, 12, 29, -8, 16, 76, -33], "withholdReward": false, "trial_id": "mdp_trial_27", "block": "test", "trialIndex": 28, "score": 55.95, "costs": -9.05, "simulationMode": [null, null, null, null, null], "rewards": [2, 1, -6, -8, 76], "path": ["0", "0", "23", "24", "25", "30", "32"], "rt": [13760, 112, 87, 117, 47], "actions": ["left", "left", "left", "down", "down"], "actionTimes": [16110, 16716, 17309, 17925, 18469], "queries": {"click": {"state": {"target": ["23", "24", "25", "30", "32", "31", "33"], "time": [3256, 3893, 4721, 5439, 6221, 9390, 12590]}, "edge": {"target": [], "time": []}}, "mouseover": {"state": {"target": ["23", "24", "25", "30", "32", "31", "30", "33", "29"], "time": [3070, 3671, 4438, 5105, 5971, 7239, 9889, 9956, 14023]}, "edge": {"target": [], "time": []}}, "mouseout": {"state": {"target": ["20", "12", "0", "23", "24", "25", "30", "32", "31", "30", "33", "29", "24"], "time": [116, 1017, 3002, 3621, 4389, 5071, 5923, 6278, 9855, 9922, 13038, 19622, 19687]}, "edge": {"target": [], "time": []}}}, "displayed_time": "18.99", "trialTime": 20077, "trial_type": "mouselab-mdp", "trial_index": 35, "time_elapsed": 1840677, "internal_node_id": "0.0-6.0-1.0-26.0"}}, {"uniqueid": "w40654226:a45034797", "current_trial": 36, "dateTime": 1693582869278, "trialdata": {"revealed_states": [], "clicked_states": ["21", "22", "20", "17", "16", "18", "7", "15", "19", "6", "5", "4", "3", "2", "1"], "num_clicks_accrued": [0, 0, 0, 0, 0, 0, 0, 0, 0, 0, 0, 0, 0], "stateRewards": ["", -2, 2, 3, -7, 76, 63, 21, 15, 35, -8, -44, 1, 1, -2, -12, 23, 24, 76, -9, 46, 66, -49, -2, -1, 7, 12, 40, -71, -45, -6, 38, -49, 46], "withholdReward": false, "trial_id": "mdp_trial_28", "block": "test", "trialIndex": 29, "score": 46.95, "costs": -25.05, "simulationMode": [null, null, null, null, null], "rewards": [-2, 2, 3, -7, 76], "path": ["0", "0", "1", "2", "3", "4", "5"], "rt": [37427, 445, 307, 124, 154], "actions": ["up", "up", "up", "right", "up"], "actionTimes": [38621, 39572, 40381, 40997, 41644], "queries": {"click": {"state": {"target": ["21", "22", "20", "17", "16", "18", "7", "15", "19", "6", "5", "4", "3", "2", "1"], "time": [2237, 5504, 8703, 12622, 15706, 18571, 21772, 24973, 25905, 27440, 31656, 35825, 36460, 37126, 37810]}, "edge": {"target": [], "time": []}}, "mouseover": {"state": {"target": ["12", "22", "21", "22", "19", "20", "20", "17", "16", "18", "7", "4", "4", "7", "15", "14", "19", "14", "6", "5", "4", "9", "9", "4", "3", "2", "1"], "time": [1601, 1668, 2101, 2806, 6037, 6072, 6339, 12436, 13220, 16189, 19423, 19473, 19739, 20034, 22823, 25391, 25523, 26390, 27320, 29623, 33123, 33757, 34257, 35504, 36258, 36890, 37627]}, "edge": {"target": [], "time": []}}, "mouseout": {"state": {"target": ["0", "12", "22", "21", "22", "19", "20", "20", "17", "16", "18", "7", "4", "4", "7", "7", "18", "15", "14", "19", "14", "15", "6", "5", "5", "4", "9", "9", "4", "3", "2", "2", "1"], "time": [716, 1617, 1702, 2255, 6019, 6054, 6121, 8833, 13151, 16119, 19370, 19456, 19490, 19772, 22051, 22521, 22706, 25365, 25429, 26354, 26423, 26489, 29286, 31676, 33057, 33622, 33807, 35338, 36189, 36824, 37144, 37542, 37828]}, "edge": {"target": [], "time": []}}}, "displayed_time": "42.14", "trialTime": 42868, "trial_type": "mouselab-mdp", "trial_index": 36, "time_elapsed": 1884139, "internal_node_id": "0.0-6.0-1.0-27.0"}}, {"uniqueid": "w40654226:a45034797", "current_trial": 37, "dateTime": 1693582911699, "trialdata": {"revealed_states": [], "clicked_states": ["31", "32"], "num_clicks_accrued": [0, 0, 0, 0, 0, 0, 0, 0, 0, 0, 0, 0, 0], "stateRewards": ["", 1, -3, -4, -11, -56, 61, -47, -16, -28, -9, 69, -2, -3, -4, -8, 40, -86, 59, -4, 80, 27, 54, -1, 3, -1, 8, 67, 23, 50, 6, 83, -43, -29], "withholdReward": false, "trial_id": "mdp_trial_29", "block": "test", "trialIndex": 30, "score": 85.7, "costs": -4.3, "simulationMode": [null, null, null, null, null, null], "rewards": [-1, 3, -1, 6, 83], "path": ["0", "0", "23", "24", "25", "30", "31"], "rt": [6682, 837, 171, 152, 224, 393], "actions": ["left", "left", "left", "left", "down", "right"], "actionTimes": [32252, 33091, 33763, 34411, 35130, 36019], "queries": {"click": {"state": {"target": ["31", "32"], "time": [26525, 29690]}, "edge": {"target": [], "time": []}}, "mouseover": {"state": {"target": ["0", "23", "31", "32", "33"], "time": [26019, 26060, 26369, 27158, 30525]}, "edge": {"target": [], "time": []}}, "mouseout": {"state": {"target": ["1", "18", "13", "12", "0", "23", "31", "32", "33", "30"], "time": [249, 399, 516, 600, 26037, 26075, 27107, 29712, 37372, 37455]}, "edge": {"target": [], "time": []}}}, "displayed_time": "39.58", "trialTime": 41835, "trial_type": "mouselab-mdp", "trial_index": 37, "time_elapsed": 1926561, "internal_node_id": "0.0-6.0-1.0-28.0"}}, {"uniqueid": "w40654226:a45034797", "current_trial": 38, "dateTime": 1693582982334, "trialdata": {"revealed_states": [], "clicked_states": ["31", "32", "33", "29", "27", "28", "10", "11", "9", "5", "6", "7", "18", "16", "17", "20", "21", "22"], "num_clicks_accrued": [0, 0, 0, 0, 0, 0, 0, 0, 0, 0, 0, 0, 0], "stateRewards": ["", -2, -1, 3, -3, 71, -58, -21, 7, -10, -75, -37, 2, 4, -1, -12, -79, -29, -48, 3, -41, -10, -30, -1, -2, 1, -15, 13, 66, 22, -1, -42, -86, -55], "withholdReward": false, "trial_id": "mdp_trial_30", "block": "test", "trialIndex": 31, "score": 29.30000000000001, "costs": -38.69999999999999, "simulationMode": [null, null, null, null, null], "rewards": [-2, -1, 3, -3, 71], "path": ["0", "0", "1", "2", "3", "4", "5"], "rt": [61932, 134, 303, 397, 174], "actions": ["up", "up", "up", "right", "up"], "actionTimes": [64036, 64675, 65476, 66371, 67051], "queries": {"click": {"state": {"target": ["31", "32", "33", "29", "27", "28", "10", "11", "9", "5", "6", "7", "18", "16", "17", "20", "21", "22"], "time": [3188, 6305, 9806, 13706, 17056, 20524, 23891, 27024, 30190, 33307, 36409, 39845, 44159, 47408, 50510, 53410, 57342, 60745]}, "edge": {"target": [], "time": []}}, "mouseover": {"state": {"target": ["31", "32", "33", "29", "27", "28", "10", "11", "9", "9", "5", "6", "7", "4", "4", "16", "18", "16", "17", "17", "20", "21", "22"], "time": [2983, 3755, 6838, 13401, 16749, 20183, 22957, 25224, 27641, 28156, 31191, 34204, 37792, 41406, 42987, 43202, 43702, 46879, 48209, 48693, 51277, 54693, 58311]}, "edge": {"target": [], "time": []}}, "mouseout": {"state": {"target": ["0", "31", "32", "33", "29", "27", "28", "10", "11", "9", "9", "5", "5", "6", "6", "7", "4", "4", "16", "18", "16", "17", "17", "20", "21"], "time": [1666, 3704, 6752, 12703, 16157, 20017, 22520, 24907, 27485, 27691, 31035, 33326, 33942, 36573, 37375, 40985, 42871, 43087, 43601, 46476, 48106, 48327, 51138, 54344, 58177]}, "edge": {"target": [], "time": []}}}, "displayed_time": "67.56", "trialTime": 69898, "trial_type": "mouselab-mdp", "trial_index": 38, "time_elapsed": 1997195, "internal_node_id": "0.0-6.0-1.0-29.0"}}, {"uniqueid": "w40654226:a45034797", "current_trial": 39, "dateTime": 1693583032147, "trialdata": {"revealed_states": [], "clicked_states": ["31", "32", "33", "29", "27", "28", "23", "24", "25", "30", "26"], "num_clicks_accrued": [0, 0, 0, 0, 0, 0, 0, 0, 0, 0, 0, 0, 0], "stateRewards": ["", 1, 4, 5, -5, 58, -80, 75, 6, 25, -39, 46, 2, -2, 4, 2, 59, 31, -22, -12, -61, 15, 72, 1, -2, -7, 8, 77, 76, -23, -7, 71, -15, -3], "withholdReward": false, "trial_id": "mdp_trial_31", "block": "test", "trialIndex": 32, "score": 59.95, "costs": -17.05, "simulationMode": [null, null, null, null, null], "rewards": [1, -2, -7, 8, 77], "path": ["0", "0", "23", "24", "25", "26", "27"], "rt": [27417, 138, 177, 164, 138], "actions": ["left", "left", "left", "up", "up"], "actionTimes": [44823, 45453, 46126, 46782, 47422], "queries": {"click": {"state": {"target": ["31", "32", "33", "29", "27", "28", "23", "24", "25", "30", "26"], "time": [18421, 21720, 24837, 27988, 31121, 35639, 39490, 40247, 40940, 41723, 42415]}, "edge": {"target": [], "time": []}}, "mouseover": {"state": {"target": ["23", "24", "31", "32", "33", "29", "29", "27", "28", "23", "24", "25", "30", "26", "28"], "time": [17980, 18030, 18130, 19004, 22421, 27046, 27696, 28625, 31770, 37044, 39931, 40749, 41455, 42144, 43223]}, "edge": {"target": [], "time": []}}, "mouseout": {"state": {"target": ["22", "0", "23", "24", "31", "32", "33", "29", "29", "27", "28", "28", "23", "24", "25", "30", "25", "26"], "time": [16613, 17930, 17998, 18080, 18929, 22215, 26846, 27313, 28010, 31646, 35741, 36871, 39897, 40322, 41426, 42033, 42101, 42481]}, "edge": {"target": [], "time": []}}}, "displayed_time": "47.92", "trialTime": 49165, "trial_type": "mouselab-mdp", "trial_index": 39, "time_elapsed": 2047009, "internal_node_id": "0.0-6.0-1.0-30.0"}}, {"uniqueid": "w40654226:a45034797", "current_trial": 40, "dateTime": 1693583106919, "trialdata": {"revealed_states": [], "clicked_states": ["30", "31", "32", "33", "29", "27", "28", "10", "11", "9", "5", "6", "7", "4", "3", "2", "1", "23", "24", "25", "18", "16", "17", "20", "21", "22"], "num_clicks_accrued": [0, 0, 0, 0, 0, 0, 0, 0, 0, 0, 0, 0, 0], "stateRewards": ["", 2, -1, -4, -13, 74, 77, 3, 2, -43, -2, -11, 2, 3, 7, 11, -26, -29, -33, -3, -3, -13, -3, 1, 3, -7, 14, -59, 33, 9, -5, 34, 79, 68], "withholdReward": false, "trial_id": "mdp_trial_32", "block": "test", "trialIndex": 33, "score": 27.10000000000001, "costs": -43.89999999999999, "simulationMode": [null, null, null, null, null], "rewards": [1, 3, -7, -5, 79], "path": ["0", "0", "23", "24", "25", "30", "32"], "rt": [67411, 181, 196, 143, 182], "actions": ["left", "left", "left", "down", "down"], "actionTimes": [68969, 69648, 70343, 70991, 71672], "queries": {"click": {"state": {"target": ["30", "31", "32", "33", "29", "27", "28", "10", "11", "9", "5", "6", "7", "4", "3", "2", "1", "23", "24", "25", "18", "16", "17", "20", "21", "22"], "time": [2866, 3773, 7033, 10133, 13600, 16700, 19867, 22984, 26085, 29136, 32202, 35285, 38769, 42118, 42805, 43506, 44255, 45139, 45818, 46772, 48936, 52087, 55221, 58404, 61588, 64739]}, "edge": {"target": [], "time": []}}, "mouseover": {"state": {"target": ["23", "24", "30", "31", "32", "33", "29", "25", "29", "27", "28", "10", "11", "9", "5", "6", "7", "4", "3", "2", "1", "23", "24", "25", "19", "19", "14", "15", "16", "18", "16", "17", "20", "21", "22"], "time": [2307, 2359, 2593, 3338, 4196, 8157, 10833, 11583, 13006, 14108, 17269, 20484, 23584, 26968, 29901, 32718, 36091, 40164, 42595, 43292, 44002, 44886, 45600, 46269, 47436, 47910, 47964, 48027, 48278, 48679, 50539, 52953, 55945, 58927, 62195]}, "edge": {"target": [], "time": []}}, "mouseout": {"state": {"target": ["28", "23", "24", "30", "31", "32", "33", "29", "25", "29", "27", "28", "10", "11", "9", "5", "6", "7", "4", "3", "2", "2", "1", "1", "23", "24", "25", "24", "19", "19", "14", "15", "16", "18", "16", "17", "20", "21", "22"], "time": [558, 2340, 2408, 3273, 4156, 7906, 10625, 11100, 12883, 13621, 17202, 20276, 23411, 26541, 29576, 32644, 35709, 40042, 42558, 43178, 43617, 43919, 44274, 44686, 45562, 45918, 47228, 47270, 47586, 47946, 47978, 48195, 48610, 50410, 52553, 55794, 58879, 62094, 64888]}, "edge": {"target": [], "time": []}}}, "displayed_time": "72.16", "trialTime": 74111, "trial_type": "mouselab-mdp", "trial_index": 40, "time_elapsed": 2121781, "internal_node_id": "0.0-6.0-1.0-31.0"}}, {"uniqueid": "w40654226:a45034797", "current_trial": 41, "dateTime": 1693583172763, "trialdata": {"revealed_states": [], "clicked_states": ["31", "32", "33", "29", "27", "28", "10", "11", "9", "5", "6", "7", "18", "16", "17", "20", "21", "22"], "num_clicks_accrued": [0, 0, 0, 0, 0, 0, 0, 0, 0, 0, 0, 0, 0], "stateRewards": ["", 2, 4, 7, -6, -76, -81, 2, 5, -66, -3, 36, -2, -4, 6, -2, -69, 4, -49, -6, 67, 38, -67, 2, 1, 1, 6, -68, -21, 52, -16, -16, 6, -70], "withholdReward": false, "trial_id": "mdp_trial_33", "block": "test", "trialIndex": 34, "score": 22.30000000000001, "costs": -38.69999999999999, "simulationMode": [null, null, null, null, null], "rewards": [-2, -4, 6, -6, 67], "path": ["0", "0", "12", "13", "14", "19", "20"], "rt": [59372, 27, 193, 170, 165], "actions": ["right", "right", "right", "down", "right"], "actionTimes": [61178, 61721, 62416, 63112, 63784], "queries": {"click": {"state": {"target": ["31", "32", "33", "29", "27", "28", "10", "11", "9", "5", "6", "7", "18", "16", "17", "20", "21", "22"], "time": [2472, 5621, 8803, 11986, 15321, 18472, 21621, 26123, 29257, 32388, 35507, 38674, 42008, 45058, 48225, 51342, 54626, 57992]}, "edge": {"target": [], "time": []}}, "mouseover": {"state": {"target": ["31", "32", "33", "29", "27", "28", "10", "11", "9", "5", "5", "6", "7", "18", "16", "16", "17", "20", "20", "21", "22", "22"], "time": [2261, 3137, 6127, 9454, 12488, 15893, 19644, 25998, 26962, 29730, 30063, 32912, 36190, 39231, 42529, 42824, 45542, 49031, 49354, 52158, 56075, 56482]}, "edge": {"target": [], "time": []}}, "mouseout": {"state": {"target": ["22", "12", "0", "31", "32", "33", "29", "27", "27", "28", "10", "11", "9", "5", "5", "6", "7", "18", "16", "16", "17", "20", "20", "21", "22", "22", "22"], "time": [875, 959, 2062, 2978, 5642, 9279, 12385, 15490, 15844, 19176, 25812, 26764, 29677, 29746, 32779, 36106, 39146, 42481, 42546, 45523, 48914, 49133, 51935, 54761, 56176, 58013, 58515]}, "edge": {"target": [], "time": []}}}, "displayed_time": "64.27", "trialTime": 65168, "trial_type": "mouselab-mdp", "trial_index": 41, "time_elapsed": 2187625, "internal_node_id": "0.0-6.0-1.0-32.0"}}, {"uniqueid": "w40654226:a45034797", "current_trial": 42, "dateTime": 1693583251007, "trialdata": {"revealed_states": [], "clicked_states": ["31", "32", "33", "29", "27", "28", "10", "11", "9", "5", "6", "7", "18", "16", "17", "22", "20", "21", "12", "13", "14", "15"], "num_clicks_accrued": [0, 0, 0, 0, 0, 0, 0, 0, 0, 0, 0, 0, 0], "stateRewards": ["", 1, 1, 7, -11, 80, -20, -53, -14, 3, 31, 27, 2, -1, -8, -10, 33, 41, 86, 9, 78, -37, -13, -1, -2, -6, -8, -80, 75, 4, -16, -49, -74, 24], "withholdReward": false, "trial_id": "mdp_trial_34", "block": "test", "trialIndex": 35, "score": 36.70000000000001, "costs": -41.29999999999999, "simulationMode": [null, null, null, null, null], "rewards": [1, 1, 7, -11, 80], "path": ["0", "0", "1", "2", "3", "4", "5"], "rt": [69611, 65, 211, 145, 122], "actions": ["up", "up", "up", "right", "up"], "actionTimes": [73030, 73604, 74317, 74966, 75596], "queries": {"click": {"state": {"target": ["31", "32", "33", "29", "27", "28", "10", "11", "9", "5", "6", "7", "18", "16", "17", "22", "20", "21", "12", "13", "14", "15"], "time": [4472, 7804, 10971, 14570, 18589, 21806, 26772, 30004, 33240, 36389, 39508, 42925, 47324, 50742, 54093, 57460, 60393, 63893, 68560, 69396, 70079, 70764]}, "edge": {"target": [], "time": []}}, "mouseover": {"state": {"target": ["23", "31", "32", "33", "29", "27", "28", "8", "10", "11", "9", "5", "6", "7", "18", "16", "17", "17", "14", "13", "22", "19", "20", "21", "19", "14", "12", "13", "13", "14", "14", "15", "17"], "time": [4042, 4160, 5117, 9826, 14044, 15344, 19411, 26346, 26597, 27346, 32774, 34123, 36963, 40257, 47148, 48258, 52695, 52848, 55809, 55925, 56322, 58797, 59208, 62340, 64932, 64999, 68399, 68968, 69243, 69709, 69913, 70441, 72335]}, "edge": {"target": [], "time": []}}, "mouseout": {"state": {"target": ["0", "23", "31", "32", "33", "29", "27", "28", "8", "10", "11", "9", "5", "5", "6", "7", "18", "16", "16", "17", "17", "14", "13", "22", "19", "20", "21", "19", "14", "12", "13", "13", "14", "14", "15", "17", "15", "13"], "time": [4010, 4061, 5008, 7950, 13511, 14591, 19343, 25829, 26527, 27195, 30026, 33797, 36411, 36845, 40105, 46831, 47863, 50874, 52581, 52764, 55773, 55859, 56026, 58765, 58865, 62198, 64028, 64966, 65050, 68952, 69026, 69691, 69776, 70375, 71180, 76816, 76855, 76900]}, "edge": {"target": [], "time": []}}}, "displayed_time": "76.10", "trialTime": 77604, "trial_type": "mouselab-mdp", "trial_index": 42, "time_elapsed": 2265868, "internal_node_id": "0.0-6.0-1.0-33.0"}}, {"uniqueid": "w40654226:a45034797", "current_trial": 43, "dateTime": 1693583310691, "trialdata": {"revealed_states": [], "clicked_states": ["31", "30", "25", "24", "23"], "num_clicks_accrued": [0, 0, 0, 0, 0, 0, 0, 0, 0, 0, 0, 0, 0], "stateRewards": ["", 2, 3, 6, -12, -29, 12, 87, 4, 35, -30, 67, 2, 3, -5, -9, 44, 69, -8, 1, 45, -8, 28, -2, -1, -8, 11, -12, -5, 81, 9, 87, 82, 88], "withholdReward": false, "trial_id": "mdp_trial_35", "block": "test", "trialIndex": 36, "score": 80.25, "costs": -4.75, "simulationMode": [null, null, null, null, null], "rewards": [-2, -1, -8, 9, 87], "path": ["0", "0", "23", "24", "25", "30", "31"], "rt": [9094, 104, 295, 177, 212], "actions": ["left", "left", "left", "down", "right"], "actionTimes": [53684, 54292, 55083, 55763, 56467], "queries": {"click": {"state": {"target": ["31", "30", "25", "24", "23"], "time": [45534, 50117, 50920, 51636, 52410]}, "edge": {"target": [], "time": []}}, "mouseover": {"state": {"target": ["23", "32", "31", "32", "30", "25", "24", "23", "0"], "time": [44631, 45001, 45351, 46067, 49616, 50571, 51400, 52022, 52988]}, "edge": {"target": [], "time": []}}, "mouseout": {"state": {"target": ["0", "23", "32", "31", "31", "32", "30", "25", "24", "23", "0"], "time": [44617, 44654, 45269, 45633, 46000, 49551, 50491, 51362, 51988, 52937, 53006]}, "edge": {"target": [], "time": []}}}, "displayed_time": "58.60", "trialTime": 59035, "trial_type": "mouselab-mdp", "trial_index": 43, "time_elapsed": 2325553, "internal_node_id": "0.0-6.0-1.0-34.0"}}, {"uniqueid": "w40654226:a45034797", "current_trial": 44, "dateTime": 1693583341482, "trialdata": {"revealed_states": [], "clicked_states": ["22", "21", "20", "17", "16", "18", "12", "13", "14", "15"], "num_clicks_accrued": [0, 0, 0, 0, 0, 0, 0, 0, 0, 0, 0, 0, 0], "stateRewards": ["", 1, -1, 4, -2, -75, -75, 84, -9, -60, -79, 59, 2, -4, 8, 9, -17, -82, 80, 14, -4, 49, 49, -1, 3, 6, -11, -33, 34, 55, 9, -57, 5, 59], "withholdReward": false, "trial_id": "mdp_trial_36", "block": "test", "trialIndex": 37, "score": 79.5, "costs": -15.5, "simulationMode": [null, null, null, null, null], "rewards": [2, -4, 8, 9, 80], "path": ["0", "0", "12", "13", "14", "15", "18"], "rt": [23989, 117, 234, 263, 167], "actions": ["right", "right", "right", "up", "left"], "actionTimes": [25661, 26293, 27028, 27788, 28460], "queries": {"click": {"state": {"target": ["22", "21", "20", "17", "16", "18", "12", "13", "14", "15"], "time": [2371, 5605, 8820, 11972, 15105, 18356, 22823, 23442, 24026, 24643]}, "edge": {"target": [], "time": []}}, "mouseover": {"state": {"target": ["22", "22", "21", "20", "17", "16", "18", "7", "12", "13", "14", "15"], "time": [1957, 2222, 3149, 6209, 9907, 12555, 15892, 19189, 22609, 23209, 23813, 24426]}, "edge": {"target": [], "time": []}}, "mouseout": {"state": {"target": ["0", "22", "22", "21", "20", "17", "16", "18", "7", "12", "13", "14", "15", "20", "19"], "time": [1871, 1989, 2854, 6062, 9371, 12438, 15707, 19005, 22475, 23176, 23759, 24348, 25107, 29793, 29841]}, "edge": {"target": [], "time": []}}}, "displayed_time": "28.96", "trialTime": 30060, "trial_type": "mouselab-mdp", "trial_index": 44, "time_elapsed": 2356343, "internal_node_id": "0.0-6.0-1.0-35.0"}}, {"uniqueid": "w40654226:a45034797", "current_trial": 45, "dateTime": 1693583417213, "trialdata": {"revealed_states": [], "clicked_states": ["31", "32", "33", "29", "27", "28", "10", "11", "9", "1", "2", "3", "8", "5", "6", "7", "18", "16", "17", "12", "13", "14", "15", "20", "21", "22"], "num_clicks_accrued": [0, 0, 0, 0, 0, 0, 0, 0, 0, 0, 0, 0, 0], "stateRewards": ["", 1, 1, -7, -9, -44, 24, -83, -15, 44, -24, 72, -2, -3, 4, -5, 57, 55, 29, -11, 22, 12, -25, -1, 2, 7, 12, 33, -8, 47, -4, 8, 50, -4], "withholdReward": false, "trial_id": "mdp_trial_37", "block": "test", "trialIndex": 38, "score": 10.100000000000009, "costs": -43.89999999999999, "simulationMode": [null, null, null, null, null], "rewards": [-1, 2, 7, -4, 50], "path": ["0", "0", "23", "24", "25", "30", "32"], "rt": [68200, 165, 127, 143, 87], "actions": ["left", "left", "left", "down", "down"], "actionTimes": [70851, 71515, 72146, 72794, 73378], "queries": {"click": {"state": {"target": ["31", "32", "33", "29", "27", "28", "10", "11", "9", "1", "2", "3", "8", "5", "6", "7", "18", "16", "17", "12", "13", "14", "15", "20", "21", "22"], "time": [3424, 6591, 10092, 13226, 16426, 19676, 22809, 25944, 29094, 32744, 33745, 34445, 35180, 36147, 39361, 42978, 46846, 50146, 54147, 57498, 58216, 58884, 59799, 60881, 64147, 67498]}, "edge": {"target": [], "time": []}}, "mouseover": {"state": {"target": ["23", "24", "31", "32", "33", "29", "27", "28", "10", "10", "11", "9", "1", "2", "3", "8", "5", "6", "7", "18", "16", "17", "15", "13", "12", "13", "14", "15", "15", "20", "21", "22"], "time": [2808, 2862, 3177, 4200, 7127, 12509, 13942, 18310, 21229, 21993, 23263, 26461, 32546, 33227, 34196, 34912, 35994, 38763, 40214, 46562, 48398, 50814, 55076, 55482, 55582, 57900, 58650, 59249, 59598, 60730, 61647, 64735]}, "edge": {"target": [], "time": []}}, "mouseout": {"state": {"target": ["0", "23", "24", "31", "32", "33", "29", "27", "28", "10", "10", "11", "9", "9", "1", "2", "3", "8", "5", "6", "7", "7", "18", "16", "17", "15", "13", "12", "13", "14", "15", "15", "15", "14", "20", "21", "22"], "time": [2759, 2842, 2892, 3924, 7029, 12295, 13374, 17262, 21179, 21280, 23212, 26328, 29115, 30161, 33096, 33841, 34864, 35745, 38478, 40030, 42998, 43862, 47863, 50748, 54966, 55381, 55532, 57867, 58598, 59198, 59297, 59819, 60264, 60297, 61448, 64280, 68181]}, "edge": {"target": [], "time": []}}}, "displayed_time": "73.88", "trialTime": 75026, "trial_type": "mouselab-mdp", "trial_index": 45, "time_elapsed": 2432074, "internal_node_id": "0.0-6.0-1.0-36.0"}}, {"uniqueid": "w40654226:a45034797", "current_trial": 46, "dateTime": 1693583486097, "trialdata": {"revealed_states": [], "clicked_states": ["31", "22", "32", "21", "20", "33", "29", "17", "16", "18", "27", "28", "10", "11", "9", "6", "7", "5"], "num_clicks_accrued": [0, 0, 0, 0, 0, 0, 0, 0, 0, 0, 0, 0, 0], "stateRewards": ["", -2, 2, 3, -7, -31, -33, 29, -8, -57, 50, -83, -1, -1, 5, 13, -23, -62, 25, 5, -66, -85, 14, 1, -2, -1, 16, 71, 33, -19, -14, 5, -43, 79], "withholdReward": false, "trial_id": "mdp_trial_38", "block": "test", "trialIndex": 39, "score": 24.30000000000001, "costs": -38.69999999999999, "simulationMode": [null, null, null, null, null, null], "rewards": [1, -2, -1, -14, 79], "path": ["0", "0", "23", "24", "25", "30", "33"], "rt": [61424, 787, 284, 329, 165, 188], "actions": ["left", "left", "left", "left", "down", "left"], "actionTimes": [63061, 63851, 64634, 65459, 66131, 66827], "queries": {"click": {"state": {"target": ["31", "22", "32", "21", "20", "33", "29", "17", "16", "18", "27", "28", "10", "11", "9", "6", "7", "5"], "time": [2623, 5824, 8958, 12107, 15208, 18391, 22159, 25276, 28460, 32077, 36209, 39328, 43093, 47177, 50329, 53512, 56896, 60513]}, "edge": {"target": [], "time": []}}, "mouseover": {"state": {"target": ["31", "22", "19", "32", "21", "20", "33", "29", "29", "7", "16", "17", "16", "18", "10", "27", "28", "26", "8", "10", "11", "9", "5", "6", "7", "4", "5"], "time": [2474, 4023, 6540, 7309, 9474, 12661, 16127, 19612, 19991, 23743, 23793, 24172, 26210, 29175, 35727, 36026, 39161, 40330, 42510, 42864, 43561, 47828, 50849, 51146, 54137, 57471, 57779]}, "edge": {"target": [], "time": []}}, "mouseout": {"state": {"target": ["0", "31", "22", "22", "19", "22", "31", "32", "21", "20", "33", "29", "29", "7", "16", "17", "16", "18", "10", "27", "28", "26", "27", "8", "10", "11", "9", "5", "6", "7", "4"], "time": [2241, 3907, 5924, 6473, 6723, 6775, 6909, 8980, 12561, 15608, 19410, 19742, 23678, 23760, 23811, 26042, 29028, 35609, 35777, 39043, 40261, 40481, 40778, 42827, 43480, 47644, 50811, 50895, 53995, 57423, 57512]}, "edge": {"target": [], "time": []}}}, "displayed_time": "67.33", "trialTime": 68267, "trial_type": "mouselab-mdp", "trial_index": 46, "time_elapsed": 2500959, "internal_node_id": "0.0-6.0-1.0-37.0"}}, {"uniqueid": "w40654226:a45034797", "current_trial": 47, "dateTime": 1693583552507, "trialdata": {"revealed_states": [], "clicked_states": ["21", "20", "22", "18", "17", "16", "6", "7", "5", "9", "10", "11", "27", "29", "28", "33", "32", "31"], "num_clicks_accrued": [0, 0, 0, 0, 0, 0, 0, 0, 0, 0, 0, 0, 0], "stateRewards": ["", -1, 3, 1, -11, -22, -36, 19, -5, -70, -52, 50, -2, -4, 4, -2, -41, -83, 29, -2, 22, 10, -6, -2, 3, -2, 14, 54, 44, 77, -9, -65, -37, -40], "withholdReward": false, "trial_id": "mdp_trial_39", "block": "test", "trialIndex": 40, "score": 51.30000000000001, "costs": -38.69999999999999, "simulationMode": [null, null, null, null, null], "rewards": [-2, 3, -2, 14, 77], "path": ["0", "0", "23", "24", "25", "26", "29"], "rt": [58446, 459, 221, 203, 67], "actions": ["left", "left", "left", "up", "left"], "actionTimes": [60702, 61668, 62380, 63076, 63644], "queries": {"click": {"state": {"target": ["21", "20", "22", "18", "17", "16", "6", "7", "5", "9", "10", "11", "27", "29", "28", "33", "32", "31"], "time": [3117, 6286, 9468, 12603, 15903, 18934, 22104, 25205, 28386, 31521, 34605, 37722, 41138, 44305, 47740, 51089, 54407, 57557]}, "edge": {"target": [], "time": []}}, "mouseover": {"state": {"target": ["19", "21", "20", "19", "22", "13", "18", "15", "17", "16", "6", "7", "4", "5", "9", "8", "10", "11", "27", "29", "26", "28", "25", "33", "32", "31"], "time": [2651, 3001, 3853, 6690, 6803, 9923, 10074, 13023, 13108, 16439, 19603, 22721, 25704, 26022, 29137, 32047, 32272, 35172, 38291, 41841, 44840, 45058, 50187, 50490, 51724, 55040]}, "edge": {"target": [], "time": []}}, "mouseout": {"state": {"target": ["5", "6", "12", "0", "19", "21", "20", "19", "22", "13", "18", "15", "17", "16", "6", "7", "4", "5", "9", "8", "10", "11", "11", "27", "29", "26", "28", "25", "33", "32", "31"], "time": [448, 785, 933, 2586, 2684, 3701, 6672, 6756, 9889, 10007, 12990, 13057, 16354, 19355, 22586, 25227, 25760, 29019, 32003, 32138, 35047, 37743, 38222, 41675, 44806, 44925, 50108, 50215, 51639, 54871, 64841]}, "edge": {"target": [], "time": []}}}, "displayed_time": "64.14", "trialTime": 65731, "trial_type": "mouselab-mdp", "trial_index": 47, "time_elapsed": 2567369, "internal_node_id": "0.0-6.0-1.0-38.0"}}, {"uniqueid": "w40654226:a45034797", "current_trial": 48, "dateTime": 1693583602857, "trialdata": {"revealed_states": [], "clicked_states": ["31", "32", "33", "29", "27", "28", "10", "11", "9", "5", "6", "7", "1", "2", "3", "8"], "num_clicks_accrued": [0, 0, 0, 0, 0, 0, 0, 0, 0, 0, 0, 0, 0], "stateRewards": ["", 2, 3, -1, 16, -78, -11, 46, 2, -20, 79, -67, 2, 3, 2, 11, -83, -42, -58, -11, -67, -22, 55, 2, -1, -1, -16, -83, -82, 23, -11, -29, 13, 13], "withholdReward": false, "trial_id": "mdp_trial_40", "block": "test", "trialIndex": 41, "score": 56.60000000000001, "costs": -28.399999999999995, "simulationMode": [null, null, null, null, null], "rewards": [2, 3, -1, 2, 79], "path": ["0", "0", "1", "2", "3", "8", "10"], "rt": [43893, 308, 173, 129, 169], "actions": ["up", "up", "up", "left", "down"], "actionTimes": [45462, 46284, 46949, 47572, 48244], "queries": {"click": {"state": {"target": ["31", "32", "33", "29", "27", "28", "10", "11", "9", "5", "6", "7", "1", "2", "3", "8"], "time": [2237, 5405, 9055, 12236, 15372, 18671, 21823, 24972, 28087, 31340, 34541, 37724, 40991, 41705, 42467, 43342]}, "edge": {"target": [], "time": []}}, "mouseover": {"state": {"target": ["31", "31", "32", "32", "30", "33", "33", "29", "29", "27", "28", "11", "8", "10", "11", "11", "9", "5", "5", "6", "7", "2", "1", "2", "3", "8", "10", "10"], "time": [1641, 2037, 2789, 4587, 5934, 6071, 6174, 9607, 9940, 13077, 15961, 19825, 20307, 20442, 22391, 22708, 25859, 28759, 29308, 32060, 36360, 38361, 39544, 41393, 42191, 42993, 44091, 44740]}, "edge": {"target": [], "time": []}}, "mouseout": {"state": {"target": ["0", "0", "31", "31", "32", "32", "30", "33", "33", "29", "29", "27", "28", "11", "8", "10", "11", "11", "9", "5", "5", "6", "7", "2", "1", "2", "3", "8", "10", "10"], "time": [769, 1594, 1769, 2753, 3821, 5487, 5957, 6090, 9538, 9658, 12370, 15905, 19739, 19859, 20325, 22273, 22436, 25657, 28692, 28811, 31876, 36191, 38310, 39295, 41090, 41824, 42942, 43891, 44292, 44790]}, "edge": {"target": [], "time": []}}}, "displayed_time": "48.74", "trialTime": 49676, "trial_type": "mouselab-mdp", "trial_index": 48, "time_elapsed": 2617719, "internal_node_id": "0.0-6.0-1.0-39.0"}}, {"uniqueid": "w40654226:a45034797", "current_trial": 49, "dateTime": 1693583656359, "trialdata": {"rt": 53500, "response": {"Q0": "$-2 to $2", "Q1": "$-16 to $16", "Q2": "$-88 to $88", "Q3": "The cost for clicking on nodes varied between nodes.", "Q4": "Very motivated"}, "question_order": [0, 1, 2, 3, 4], "trial_id": "final_quiz_control", "trial_type": "survey-multi-choice", "trial_index": 49, "time_elapsed": 2671220, "internal_node_id": "0.0-6.0-2.0"}}, {"uniqueid": "w40654226:a45034797", "current_trial": 50, "dateTime": 1693583699585, "trialdata": {"rt": 43167, "response": {"Q0": "Find the biggest numbers on the end then try to work out which route would take less off and take that route", "Q1": "yes - click more nodes", "Q2": "sometimes memory and maths failed me"}, "trial_id": "self_report_control", "trial_type": "survey-text", "trial_index": 50, "time_elapsed": 2714447, "internal_node_id": "0.0-6.0-3.0"}}, {"uniqueid": "w40654226:a45034797", "current_trial": 51, "dateTime": 1693583764533, "trialdata": {"rt": 64943, "response": {"Q0": "Disagree", "Q1": "Strongly disagree", "Q2": "Strongly agree", "Q3": "Strongly agree", "Q4": "Strongly disagree", "Q5": "Strongly agree", "Q6": "Strongly disagree"}, "question_order": [0, 1, 2, 3, 4, 5, 6], "trial_id": "self_report_2", "trial_type": "survey-multi-choice", "trial_index": 51, "time_elapsed": 2779395, "internal_node_id": "0.0-6.0-4.0"}}, {"uniqueid": "w40654226:a45034797", "current_trial": 52, "dateTime": 1693583784718, "trialdata": {"rt": 20178, "response": {"gender": "female", "age": "33", "colorblind": "0", "effort": "0"}, "trial_type": "survey-html-form", "trial_index": 52, "time_elapsed": 2799580, "internal_node_id": "0.0-6.0-5.0"}}, {"uniqueid": "w40654226:a45034797", "current_trial": 53, "dateTime": 1693583804761, "trialdata": {"rt": 20039, "response": {"Q0": "no", "Q1": "no", "Q2": ""}, "trial_type": "survey-text", "trial_index": 53, "time_elapsed": 2819623, "internal_node_id": "0.0-6.0-6.0"}}, {"uniqueid": "w40654226:a45034797", "current_trial": 54, "dateTime": 1693583840150, "trialdata": {"rt": 35385, "stimulus": "<h1>Completion Code Instructions (1/2)</h1>\n<br><br><br><br>\nYou have reached the end of the experiment! The completion code consists of two parts: (1) a code with 2 characters (2) a code with 6 characters. On this page, you will receive the second part of the code. The first part of the completion code will be on the next page.\n<br><br>\nThe second part of your completion code is: <b>EWEK22</b>\n<br><br>\nPlease note this down. Then, press 'Next' in order to find the first part of your completion code. Once the data has been saved, you will receive this code either in this window or in the original browser window where you started the experiment.\n <br><br>\n<h2 style='color: red;'>Note: this is <strong>NOT</strong> the full completion code. Copy this down and click 'Next' to get the full completion code on the next page.</h2>", "response": 0, "trial_type": "html-button-response", "trial_index": 54, "time_elapsed": 2855012, "internal_node_id": "0.0-6.0-7.0"}}, {"uniqueid": "w40654226:a45034797", "current_trial": 55, "dateTime": 1693583841158, "trialdata": {"success": true, "trial_type": "fullscreen", "trial_index": 55, "time_elapsed": 2856020, "internal_node_id": "0.0-7.0"}}], "questiondata": {"params": {"CODE": "C6DMOQA6", "MIN_TIME": 14, "inspectCost": 1, "startTime": "Fri Sep 01 2023 16:09:43 GMT+0100 (British Summer Time)", "bonusRate": 0.002, "variance": "1_2_4_8_44", "branching": "31123"}, "final_score": 1853.05}, "eventdata": [{"eventtype": "initialized", "value": null, "timestamp": 1693580982786, "interval": 0}, {"eventtype": "window_resize", "value": [1440, 759], "timestamp": 1693580982786, "interval": 0}, {"eventtype": "window_resize", "value": [1440, 759], "timestamp": 1693580983116, "interval": 330}, {"eventtype": "window_resize", "value": [1440, 876], "timestamp": 1693580999188, "interval": 16072}, {"eventtype": "window_resize", "value": [1440, 759], "timestamp": 1693583840373, "interval": 2841185}], "useragent": "Mozilla/5.0 (Macintosh; Intel Mac OS X 10_15_7) AppleWebKit/537.36 (KHTML, like Gecko) Chrome/116.0.0.0 Safari/537.36", "mode": "live", "id": "w40654226:a45034797", "status": "user data saved", "Beginhit": "2023-09-01 15:09:33.46455", "Beginexp": "2023-09-01 15:10:00.084316", "Endhit": "2023-09-01 15:57:23.334486", "psiturkStatus": 3, "browser": "<redacted>", "platform": "macos", "language": "en-GB"}