{"condition": 1, "counterbalance": 0, "assignmentId": "a39389071", "workerId": "w53929258", "hitId": "h62854680", "currenttrial": 68, "bonus": 0, "data": [{"uniqueid": "w53929258:a39389071", "current_trial": 0, "dateTime": 1693564756660, "trialdata": {"success": true, "trial_type": "fullscreen", "trial_index": 0, "time_elapsed": 5488, "internal_node_id": "0.0-0.0"}}, {"uniqueid": "w53929258:a39389071", "current_trial": 1, "dateTime": 1693564772970, "trialdata": {"view_history": [{"page_index": 0, "viewing_time": 16306}], "rt": 16306, "trial_id": "exp_instructions_misaligned", "trial_type": "instructions", "trial_index": 1, "time_elapsed": 21798, "internal_node_id": "0.0-1.0"}}, {"uniqueid": "w53929258:a39389071", "current_trial": 2, "dateTime": 1693564960952, "trialdata": {"view_history": [{"page_index": 0, "viewing_time": 55981}, {"page_index": 1, "viewing_time": 83905}, {"page_index": 2, "viewing_time": 24679}, {"page_index": 3, "viewing_time": 23416}], "rt": 187982, "trial_id": "mouselab_instructions_1_misaligned", "trial_type": "instructions", "trial_index": 2, "time_elapsed": 209780, "internal_node_id": "0.0-2.0-1.0"}}, {"uniqueid": "w53929258:a39389071", "current_trial": 3, "dateTime": 1693564984884, "trialdata": {"revealed_states": [], "clicked_states": [], "num_clicks_accrued": [0, 0, 0, 0, 0, 0, 0, 0, 0, 0, 0, 0, 0], "stateRewards": ["", 10, 10, 10, 10, -10, 10, -10, -10, 10, -10, -10, 10, -10, -10, 10, -10, -10, -10, 10, -10, 10, 10, -10, -10, -10, -10, 10, 10, -10, 10, -10, -10, -10], "withholdReward": false, "trial_id": "practice_1", "block": "test", "trialIndex": 0, "score": -26.5, "costs": 0, "simulationMode": [null, null, null, null, null], "rewards": [-10, -10, -10, -10, 10], "path": ["0", "0", "23", "24", "25", "26", "27"], "rt": [7855, 175, 200, 779, 405], "actions": ["left", "left", "left", "up", "up"], "actionTimes": [15167, 15866, 16600, 17910, 18849], "queries": {"click": {"state": {"target": [], "time": []}, "edge": {"target": [], "time": []}}, "mouseover": {"state": {"target": [], "time": []}, "edge": {"target": [], "time": []}}, "mouseout": {"state": {"target": ["12", "15", "18", "12", "0"], "time": [33, 899, 3418, 4285, 7037]}, "edge": {"target": [], "time": []}}}, "displayed_time": "19.38", "trialTime": 23130, "trial_type": "mouselab-mdp", "trial_index": 3, "time_elapsed": 233712, "internal_node_id": "0.0-2.0-2.0-0.0"}}, {"uniqueid": "w53929258:a39389071", "current_trial": 4, "dateTime": 1693565006130, "trialdata": {"revealed_states": [], "clicked_states": ["25", "14", "3"], "num_clicks_accrued": [0, 0, 0, 0, 0, 0, 0, 0, 0, 0, 0, 0, 0], "stateRewards": ["", 10, -10, -10, -10, -10, 10, 10, -10, -10, -10, -10, 10, 10, -10, 10, -10, 10, -10, -10, 10, -10, 10, 10, 10, 10, 10, -10, -10, 10, -10, -10, -10, -10], "withholdReward": false, "trial_id": "practice_2", "block": "test", "trialIndex": 1, "score": 52, "costs": -1.5, "simulationMode": [null, null, null, null, null], "rewards": [10, 10, 10, 10, 10], "path": ["0", "0", "23", "24", "25", "26", "29"], "rt": [11310, 278, 16, 1268, 773], "actions": ["left", "left", "left", "up", "left"], "actionTimes": [13718, 14520, 15050, 16818, 18110], "queries": {"click": {"state": {"target": ["25", "14", "3"], "time": [3705, 5386, 8086]}, "edge": {"target": [], "time": []}}, "mouseover": {"state": {"target": ["0", "23", "24", "25", "23", "0", "12", "13", "14", "15", "7", "2", "3", "2", "3", "2", "1", "12", "22", "19", "31", "30", "31"], "time": [3210, 3251, 3281, 3323, 4769, 4792, 4814, 4840, 4929, 6508, 6610, 6757, 6969, 7644, 7855, 9187, 9388, 9478, 9600, 9713, 10664, 10823, 11439]}, "edge": {"target": [], "time": []}}, "mouseout": {"state": {"target": ["0", "12", "12", "0", "23", "24", "25", "23", "0", "12", "13", "14", "15", "7", "2", "3", "2", "3", "2", "1", "12", "22", "19", "31", "30", "31"], "time": [634, 1598, 1752, 3233, 3277, 3300, 4721, 4791, 4813, 4839, 4865, 6153, 6536, 6625, 6774, 7536, 7816, 8780, 9354, 9413, 9538, 9623, 10106, 10706, 11339, 11639]}, "edge": {"target": [], "time": []}}}, "displayed_time": "18.65", "trialTime": 21039, "trial_type": "mouselab-mdp", "trial_index": 4, "time_elapsed": 254958, "internal_node_id": "0.0-2.0-2.0-1.0"}}, {"uniqueid": "w53929258:a39389071", "current_trial": 5, "dateTime": 1693565043553, "trialdata": {"view_history": [{"page_index": 0, "viewing_time": 25250}, {"page_index": 1, "viewing_time": 12168}], "rt": 37418, "trial_id": "mouselab_instructions_2_misaligned", "trial_type": "instructions", "trial_index": 5, "time_elapsed": 292381, "internal_node_id": "0.0-2.0-3.0"}}, {"uniqueid": "w53929258:a39389071", "current_trial": 6, "dateTime": 1693565091995, "trialdata": {"rt": 48438, "response": {"Q0": "The cost for clicking on nodes may vary between nodes.", "Q1": "The better I perform the higher my bonus will be.", "Q2": "No, the amount of cash at each node of the web may be different each time.", "Q3": "To get the highest total score.", "Q4": "Only before moving the spider.", "Q5": "10 seconds"}, "question_order": [0, 1, 2, 3, 4, 5], "correct": {"Q0": "The cost for clicking on nodes may vary between nodes.", "Q1": "The better I perform the higher my bonus will be.", "Q2": "No, the amount of cash at each node of the web may be different each time.", "Q3": "To get the highest total score.", "Q4": "Only before moving the spider.", "Q5": "3 seconds"}, "trial_id": "mouselab_quiz_misaligned", "trial_type": "survey-multi-choice", "trial_index": 6, "time_elapsed": 340823, "internal_node_id": "0.0-2.0-4.0"}}, {"uniqueid": "w53929258:a39389071", "current_trial": 7, "dateTime": 1693565102282, "trialdata": {"success": true, "trial_type": "fullscreen", "trial_index": 7, "time_elapsed": 351111, "internal_node_id": "0.0-2.1-0.1-0.1"}}, {"uniqueid": "w53929258:a39389071", "current_trial": 8, "dateTime": 1693565153673, "trialdata": {"view_history": [{"page_index": 0, "viewing_time": 6940}, {"page_index": 1, "viewing_time": 20032}, {"page_index": 2, "viewing_time": 19839}, {"page_index": 3, "viewing_time": 4577}], "rt": 51388, "trial_id": "mouselab_instructions_1_misaligned", "trial_type": "instructions", "trial_index": 8, "time_elapsed": 402501, "internal_node_id": "0.0-2.1-1.1"}}, {"uniqueid": "w53929258:a39389071", "current_trial": 9, "dateTime": 1693565188231, "trialdata": {"revealed_states": [], "clicked_states": ["14", "30", "3", "32", "24"], "num_clicks_accrued": [0, 0, 0, 0, 0, 0, 0, 0, 0, 0, 0, 0, 0], "stateRewards": ["", 10, 10, 10, 10, -10, 10, -10, -10, 10, -10, -10, 10, -10, -10, 10, -10, -10, -10, 10, -10, 10, 10, -10, -10, -10, -10, 10, 10, -10, 10, -10, -10, -10], "withholdReward": false, "trial_id": "practice_1", "block": "test", "trialIndex": 2, "score": -29, "costs": -2.5, "simulationMode": [null, null, null, null, null], "rewards": [-10, -10, -10, 10, -10], "path": ["0", "0", "23", "24", "25", "30", "32"], "rt": [25654, 313, 55, 281, 898], "actions": ["left", "left", "left", "down", "down"], "actionTimes": [28216, 29039, 29631, 30425, 31848], "queries": {"click": {"state": {"target": ["14", "30", "3", "32", "24"], "time": [6507, 11123, 13148, 21331, 23093]}, "edge": {"target": [], "time": []}}, "mouseover": {"state": {"target": ["14", "20", "19", "30", "25", "30", "31", "1", "10", "3", "7", "26", "25", "30", "31", "31", "31", "24", "25", "30", "32", "23", "24", "25", "23", "0"], "time": [5559, 7765, 8191, 9358, 9925, 10815, 11604, 12160, 12278, 12600, 13986, 15071, 15830, 16213, 17156, 18866, 19266, 19639, 19733, 20033, 21101, 22352, 22757, 23564, 23923, 25093]}, "edge": {"target": [], "time": []}}, "mouseout": {"state": {"target": ["12", "19", "20", "0", "14", "20", "19", "30", "25", "30", "31", "1", "10", "3", "7", "26", "25", "30", "31", "31", "31", "24", "25", "30", "32", "32", "23", "24", "25", "24", "23"], "time": [151, 301, 356, 4188, 6832, 7834, 8859, 9560, 10619, 11264, 11661, 12194, 12304, 13783, 14388, 15561, 15913, 17090, 17443, 18882, 19433, 19700, 19751, 21051, 21464, 21885, 22611, 23543, 23870, 23893, 24040]}, "edge": {"target": [], "time": []}}}, "displayed_time": "32.37", "trialTime": 34311, "trial_type": "mouselab-mdp", "trial_index": 9, "time_elapsed": 437060, "internal_node_id": "0.0-2.1-2.1-0.1"}}, {"uniqueid": "w53929258:a39389071", "current_trial": 10, "dateTime": 1693565200023, "trialdata": {"revealed_states": [], "clicked_states": [], "num_clicks_accrued": [0, 0, 0, 0, 0, 0, 0, 0, 0, 0, 0, 0, 0], "stateRewards": ["", 10, -10, -10, -10, -10, 10, 10, -10, -10, -10, -10, 10, 10, -10, 10, -10, 10, -10, -10, 10, -10, 10, 10, 10, 10, 10, -10, -10, 10, -10, -10, -10, -10], "withholdReward": false, "trial_id": "practice_2", "block": "test", "trialIndex": 3, "score": -26.5, "costs": 0, "simulationMode": [null, null, null, null, null], "rewards": [10, -10, -10, -10, -10], "path": ["0", "0", "1", "2", "3", "8", "11"], "rt": [1797, 16, 2465, 264, 353], "actions": ["up", "up", "up", "left", "left"], "actionTimes": [4340, 4883, 7851, 8653, 9523], "queries": {"click": {"state": {"target": [], "time": []}, "edge": {"target": [], "time": []}}, "mouseover": {"state": {"target": [], "time": []}, "edge": {"target": [], "time": []}}, "mouseout": {"state": {"target": ["0", "23", "0"], "time": [1655, 1689, 2374]}, "edge": {"target": [], "time": []}}}, "displayed_time": "10.04", "trialTime": 11595, "trial_type": "mouselab-mdp", "trial_index": 10, "time_elapsed": 448852, "internal_node_id": "0.0-2.1-2.1-1.1"}}, {"uniqueid": "w53929258:a39389071", "current_trial": 11, "dateTime": 1693565219057, "trialdata": {"view_history": [{"page_index": 0, "viewing_time": 16038}, {"page_index": 1, "viewing_time": 2992}], "rt": 19031, "trial_id": "mouselab_instructions_2_misaligned", "trial_type": "instructions", "trial_index": 11, "time_elapsed": 467886, "internal_node_id": "0.0-2.1-3.1"}}, {"uniqueid": "w53929258:a39389071", "current_trial": 12, "dateTime": 1693565255322, "trialdata": {"rt": 36263, "response": {"Q0": "There is no cost for clicking on nodes.", "Q1": "The better I perform the higher my bonus will be.", "Q2": "No, the amount of cash at each node of the web may be different each time.", "Q3": "To get the highest total score.", "Q4": "Any time during the round.", "Q5": "3 seconds"}, "question_order": [0, 1, 2, 3, 4, 5], "correct": {"Q0": "The cost for clicking on nodes may vary between nodes.", "Q1": "The better I perform the higher my bonus will be.", "Q2": "No, the amount of cash at each node of the web may be different each time.", "Q3": "To get the highest total score.", "Q4": "Only before moving the spider.", "Q5": "3 seconds"}, "trial_id": "mouselab_quiz_misaligned", "trial_type": "survey-multi-choice", "trial_index": 12, "time_elapsed": 504151, "internal_node_id": "0.0-2.1-4.1"}}, {"uniqueid": "w53929258:a39389071", "current_trial": 13, "dateTime": 1693565267850, "trialdata": {"success": true, "trial_type": "fullscreen", "trial_index": 13, "time_elapsed": 516679, "internal_node_id": "0.0-2.2-0.2-0.2"}}, {"uniqueid": "w53929258:a39389071", "current_trial": 14, "dateTime": 1693565336089, "trialdata": {"view_history": [{"page_index": 0, "viewing_time": 19780}, {"page_index": 1, "viewing_time": 8960}, {"page_index": 2, "viewing_time": 10040}, {"page_index": 3, "viewing_time": 29457}], "rt": 68237, "trial_id": "mouselab_instructions_1_misaligned", "trial_type": "instructions", "trial_index": 14, "time_elapsed": 584918, "internal_node_id": "0.0-2.2-1.2"}}, {"uniqueid": "w53929258:a39389071", "current_trial": 15, "dateTime": 1693565347152, "trialdata": {"revealed_states": [], "clicked_states": ["16"], "num_clicks_accrued": [0, 0, 0, 0, 0, 0, 0, 0, 0, 0, 0, 0, 0], "stateRewards": ["", 10, 10, 10, 10, -10, 10, -10, -10, 10, -10, -10, 10, -10, -10, 10, -10, -10, -10, 10, -10, 10, 10, -10, -10, -10, -10, 10, 10, -10, 10, -10, -10, -10], "withholdReward": false, "trial_id": "practice_1", "block": "test", "trialIndex": 4, "score": -7, "costs": -0.5, "simulationMode": [null, null, null, null, null], "rewards": [10, -10, -10, 10, -10], "path": ["0", "0", "12", "13", "14", "15", "16"], "rt": [3408, 234, 319, 292, 95], "actions": ["right", "right", "right", "up", "up"], "actionTimes": [5128, 5895, 6743, 7566, 8193], "queries": {"click": {"state": {"target": ["16"], "time": [3093]}, "edge": {"target": [], "time": []}}, "mouseover": {"state": {"target": ["12", "13", "15", "16", "15"], "time": [2013, 2055, 2709, 3002, 4078]}, "edge": {"target": [], "time": []}}, "mouseout": {"state": {"target": ["0", "12", "13", "15", "16"], "time": [1090, 2031, 2081, 2776, 3847]}, "edge": {"target": [], "time": []}}}, "displayed_time": "8.70", "trialTime": 10775, "trial_type": "mouselab-mdp", "trial_index": 15, "time_elapsed": 595981, "internal_node_id": "0.0-2.2-2.2-0.2"}}, {"uniqueid": "w53929258:a39389071", "current_trial": 16, "dateTime": 1693565356593, "trialdata": {"revealed_states": [], "clicked_states": [], "num_clicks_accrued": [0, 0, 0, 0, 0, 0, 0, 0, 0, 0, 0, 0, 0], "stateRewards": ["", 10, -10, -10, -10, -10, 10, 10, -10, -10, -10, -10, 10, 10, -10, 10, -10, 10, -10, -10, 10, -10, 10, 10, 10, 10, 10, -10, -10, 10, -10, -10, -10, -10], "withholdReward": false, "trial_id": "practice_2", "block": "test", "trialIndex": 5, "score": 13.5, "costs": 0, "simulationMode": [null, null, null, null, null], "rewards": [10, 10, -10, 10, -10], "path": ["0", "0", "12", "13", "14", "15", "18"], "rt": [1461, 118, 293, 177, 151], "actions": ["right", "right", "right", "up", "left"], "actionTimes": [4019, 4660, 5467, 6165, 6838], "queries": {"click": {"state": {"target": [], "time": []}, "edge": {"target": [], "time": []}}, "mouseover": {"state": {"target": ["0"], "time": [3117]}, "edge": {"target": [], "time": []}}, "mouseout": {"state": {"target": ["15", "12", "0", "0"], "time": [1718, 2079, 2403, 8539]}, "edge": {"target": [], "time": []}}}, "displayed_time": "7.37", "trialTime": 9229, "trial_type": "mouselab-mdp", "trial_index": 16, "time_elapsed": 605422, "internal_node_id": "0.0-2.2-2.2-1.2"}}, {"uniqueid": "w53929258:a39389071", "current_trial": 17, "dateTime": 1693565360856, "trialdata": {"view_history": [{"page_index": 0, "viewing_time": 2402}, {"page_index": 1, "viewing_time": 1855}], "rt": 4258, "trial_id": "mouselab_instructions_2_misaligned", "trial_type": "instructions", "trial_index": 17, "time_elapsed": 609685, "internal_node_id": "0.0-2.2-3.2"}}, {"uniqueid": "w53929258:a39389071", "current_trial": 18, "dateTime": 1693565408778, "trialdata": {"rt": 47918, "response": {"Q0": "The cost for clicking on nodes may vary between nodes.", "Q1": "The better I perform the higher my bonus will be.", "Q2": "No, the amount of cash at each node of the web may be different each time.", "Q3": "To get the highest total score.", "Q4": "Only before moving the spider.", "Q5": "3 seconds"}, "question_order": [0, 1, 2, 3, 4, 5], "correct": {"Q0": "The cost for clicking on nodes may vary between nodes.", "Q1": "The better I perform the higher my bonus will be.", "Q2": "No, the amount of cash at each node of the web may be different each time.", "Q3": "To get the highest total score.", "Q4": "Only before moving the spider.", "Q5": "3 seconds"}, "trial_id": "mouselab_quiz_misaligned", "trial_type": "survey-multi-choice", "trial_index": 18, "time_elapsed": 657607, "internal_node_id": "0.0-2.2-4.2"}}, {"uniqueid": "w53929258:a39389071", "current_trial": 19, "dateTime": 1693565417322, "trialdata": {"rt": 8537, "response": {"Q0": "No"}, "question_order": [0], "trial_id": "repeat_check", "trial_type": "survey-multi-choice", "trial_index": 19, "time_elapsed": 666150, "internal_node_id": "0.0-4.0-0.0"}}, {"uniqueid": "w53929258:a39389071", "current_trial": 20, "dateTime": 1693565428088, "trialdata": {"rt": 10764, "stimulus": "\n<h1> Get ready to start the game! </h1>\n\nThank you for reading the instructions. Get ready start with the 40 rounds of this game.\n<br><br>\nIf you need to take a break, feel free to take one after the end of a round, before continuing to the next one.\n<br><br>\nRemember, the more money the spider gets, the bigger your bonus will be!\n<br><br>\n<div style='text-align: center;'>Press <code>space</code> to begin.</div>\n\n<br><br>\n(If, at any point, the <code>space</code> key does not take you to the next page, click once on the text and try again.)", "response": " ", "trial_id": "mdp_ready", "trial_type": "html-keyboard-response", "trial_index": 20, "time_elapsed": 676917, "internal_node_id": "0.0-6.0-0.0"}}, {"uniqueid": "w53929258:a39389071", "current_trial": 21, "dateTime": 1693565446593, "trialdata": {"revealed_states": [], "clicked_states": [], "num_clicks_accrued": [0, 0, 0, 0, 0, 0, 0, 0, 0, 0, 0, 0, 0], "stateRewards": ["", -1, -1, 7, -15, -43, -21, -84, -9, -45, -66, 2, 1, -2, 2, 8, -27, 44, -52, -5, -84, 11, 53, 1, 4, -4, 16, 83, -82, -15, -16, 68, -43, 81], "withholdReward": false, "trial_id": "mdp_trial_1", "block": "test", "trialIndex": 6, "score": -58, "costs": 0, "simulationMode": [null, null, null, null, null], "rewards": [1, 4, -4, -16, -43], "path": ["0", "0", "23", "24", "25", "30", "32"], "rt": [10066, 921, 225, 316, 292], "actions": ["left", "left", "left", "down", "down"], "actionTimes": [12089, 13547, 14290, 15124, 15923], "queries": {"click": {"state": {"target": [], "time": []}, "edge": {"target": [], "time": []}}, "mouseover": {"state": {"target": ["23", "24", "25", "33", "33", "30", "31", "13", "14"], "time": [3803, 3853, 3970, 4789, 5108, 6149, 9982, 10082, 10106]}, "edge": {"target": [], "time": []}}, "mouseout": {"state": {"target": ["3", "2", "1", "0", "23", "24", "25", "33", "33", "30", "31", "13", "14"], "time": [917, 1005, 1150, 3685, 3826, 3919, 4604, 4836, 5912, 9924, 9997, 10101, 10124]}, "edge": {"target": [], "time": []}}}, "displayed_time": "16.45", "trialTime": 18187, "trial_type": "mouselab-mdp", "trial_index": 21, "time_elapsed": 695422, "internal_node_id": "0.0-6.0-1.0-0.0"}}, {"uniqueid": "w53929258:a39389071", "current_trial": 22, "dateTime": 1693565483519, "trialdata": {"revealed_states": [], "clicked_states": ["29", "14", "30", "3", "11", "6", "17", "16"], "num_clicks_accrued": [0, 0, 0, 0, 0, 0, 0, 0, 0, 0, 0, 0, 0], "stateRewards": ["", 1, 1, 1, 15, -76, 52, -32, 14, -57, 37, 49, 1, -4, -3, 6, 83, -76, 25, 9, 36, -1, -17, -1, 4, 4, -2, -22, -21, 58, -15, -57, 49, -24], "withholdReward": false, "trial_id": "mdp_trial_2", "block": "test", "trialIndex": 7, "score": 68.8, "costs": -14.200000000000001, "simulationMode": [null, null, null, null, null], "rewards": [1, -4, -3, 6, 83], "path": ["0", "0", "12", "13", "14", "15", "16"], "rt": [28230, 356, 265, 313, 237], "actions": ["right", "right", "right", "up", "up"], "actionTimes": [31196, 32068, 32853, 33676, 34443], "queries": {"click": {"state": {"target": ["29", "14", "30", "3", "11", "6", "17", "16"], "time": [4465, 9832, 11489, 13432, 15145, 17956, 21210, 24043]}, "edge": {"target": [], "time": []}}, "mouseover": {"state": {"target": ["23", "24", "25", "29", "24", "23", "0", "13", "14", "17", "12", "13", "14", "14", "19", "22", "31", "30", "32", "33", "25", "26", "10", "3", "11", "11", "10", "2", "7", "6", "16", "17", "16", "7", "4", "5", "4", "6"], "time": [3588, 3654, 3976, 4338, 5224, 5639, 5689, 5735, 5790, 6110, 9314, 9330, 9354, 9640, 10756, 10861, 11000, 11044, 12103, 12452, 12560, 12595, 12953, 13213, 14238, 14965, 15698, 15773, 15865, 16121, 19167, 19738, 21941, 25901, 26227, 26879, 27306, 28012]}, "edge": {"target": [], "time": []}}, "mouseout": {"state": {"target": ["14", "13", "0", "23", "24", "25", "29", "29", "24", "23", "0", "13", "14", "17", "12", "13", "14", "14", "14", "19", "22", "31", "30", "32", "33", "25", "26", "10", "3", "11", "11", "10", "2", "7", "6", "16", "17", "16", "16", "7", "4", "5", "4", "6"], "time": [2209, 2301, 3571, 3621, 3670, 4110, 4471, 5070, 5545, 5688, 5708, 5762, 5842, 7657, 9329, 9353, 9392, 9908, 10715, 10843, 10889, 11019, 12045, 12328, 12499, 12578, 12633, 13045, 13980, 14642, 15613, 15723, 15846, 15939, 19123, 19336, 21804, 25622, 25839, 26072, 26299, 27178, 27529, 28127]}, "edge": {"target": [], "time": []}}}, "displayed_time": "34.98", "trialTime": 36699, "trial_type": "mouselab-mdp", "trial_index": 22, "time_elapsed": 732348, "internal_node_id": "0.0-6.0-1.0-1.0"}}, {"uniqueid": "w53929258:a39389071", "current_trial": 23, "dateTime": 1693565514831, "trialdata": {"revealed_states": [], "clicked_states": ["16", "17", "5", "9"], "num_clicks_accrued": [0, 0, 0, 0, 0, 0, 0, 0, 0, 0, 0, 0, 0], "stateRewards": ["", -1, 2, -2, 13, -56, -28, 10, 14, 53, -80, -29, 1, -3, -3, -14, 14, 9, -40, -9, 18, 18, 48, 1, 1, 1, -9, 64, -39, -9, 7, -52, -78, 7], "withholdReward": false, "trial_id": "mdp_trial_3", "block": "test", "trialIndex": 8, "score": 57.4, "costs": -8.6, "simulationMode": [null, null, null, null, null], "rewards": [-1, 2, -2, 14, 53], "path": ["0", "0", "1", "2", "3", "8", "9"], "rt": [21483, 142, 167, 232, 231], "actions": ["up", "up", "up", "left", "up"], "actionTimes": [25216, 25867, 26548, 27309, 28059], "queries": {"click": {"state": {"target": ["16", "17", "5", "9"], "time": [6129, 11240, 15491, 19961]}, "edge": {"target": [], "time": []}}, "mouseover": {"state": {"target": ["12", "18", "16", "17", "5", "5", "6", "7", "2", "10", "8", "9", "3", "4"], "time": [5322, 5389, 5839, 7119, 14788, 15264, 16081, 17198, 17370, 18608, 18909, 19356, 20555, 20613]}, "edge": {"target": [], "time": []}}, "mouseout": {"state": {"target": ["28", "23", "0", "12", "18", "16", "17", "5", "5", "6", "7", "2", "10", "8", "9", "3", "4"], "time": [1485, 1522, 5288, 5339, 5539, 6724, 12194, 14809, 15649, 16100, 17295, 18441, 18752, 19120, 20510, 20593, 20638]}, "edge": {"target": [], "time": []}}}, "displayed_time": "28.59", "trialTime": 31099, "trial_type": "mouselab-mdp", "trial_index": 23, "time_elapsed": 763660, "internal_node_id": "0.0-6.0-1.0-2.0"}}, {"uniqueid": "w53929258:a39389071", "current_trial": 24, "dateTime": 1693565542850, "trialdata": {"revealed_states": [], "clicked_states": ["29", "9", "17", "32"], "num_clicks_accrued": [0, 0, 0, 0, 0, 0, 0, 0, 0, 0, 0, 0, 0], "stateRewards": ["", 2, 3, 6, -5, -74, -53, 17, -12, 46, 44, 18, -2, 4, 1, -8, 22, -23, -49, 9, -45, 55, 81, 1, -1, -7, -16, -83, -71, -45, 2, 51, 82, 61], "withholdReward": false, "trial_id": "mdp_trial_4", "block": "test", "trialIndex": 9, "score": 68.4, "costs": -8.6, "simulationMode": [null, null, null, null, null], "rewards": [1, -1, -7, 2, 82], "path": ["0", "0", "23", "24", "25", "30", "32"], "rt": [18684, 197, 429, 223, 240], "actions": ["left", "left", "left", "down", "down"], "actionTimes": [20811, 21533, 22490, 23243, 23996], "queries": {"click": {"state": {"target": ["29", "9", "17", "32"], "time": [4133, 7824, 11473, 16102]}, "edge": {"target": [], "time": []}}, "mouseover": {"state": {"target": ["23", "24", "25", "29", "24", "23", "28", "10", "8", "9", "5", "17", "21", "32", "21"], "time": [2958, 3006, 3085, 3716, 4874, 5009, 5210, 6155, 6442, 7229, 8315, 9231, 15492, 15924, 19779]}, "edge": {"target": [], "time": []}}, "mouseout": {"state": {"target": ["16", "18", "1", "23", "0", "23", "24", "25", "29", "24", "23", "28", "10", "8", "9", "5", "17", "21", "32", "21"], "time": [1407, 1448, 1519, 1682, 2940, 2983, 3036, 3166, 4604, 4934, 5164, 5910, 6272, 6626, 8250, 8331, 15029, 15541, 16432, 19813]}, "edge": {"target": [], "time": []}}}, "displayed_time": "24.52", "trialTime": 27787, "trial_type": "mouselab-mdp", "trial_index": 24, "time_elapsed": 791678, "internal_node_id": "0.0-6.0-1.0-3.0"}}, {"uniqueid": "w53929258:a39389071", "current_trial": 25, "dateTime": 1693565574729, "trialdata": {"revealed_states": [], "clicked_states": ["5", "21", "31", "29", "11"], "num_clicks_accrued": [0, 0, 0, 0, 0, 0, 0, 0, 0, 0, 0, 0, 0], "stateRewards": ["", 1, 1, 6, -14, -40, 37, 16, -13, 33, -68, 49, 2, 4, 3, 6, 55, 27, 32, 10, -65, 20, -87, 2, 1, -6, -5, -42, 12, 29, -8, 16, 76, -33], "withholdReward": false, "trial_id": "mdp_trial_5", "block": "test", "trialIndex": 10, "score": 17.25, "costs": -10.75, "simulationMode": [null, null, null, null, null], "rewards": [1, 1, 6, -13, 33], "path": ["0", "0", "1", "2", "3", "8", "9"], "rt": [21906, 145, 471, 285, 264], "actions": ["up", "up", "up", "left", "up"], "actionTimes": [25643, 26316, 27314, 28122, 28910], "queries": {"click": {"state": {"target": ["5", "21", "31", "29", "11"], "time": [5039, 8567, 12414, 16568, 20738]}, "edge": {"target": [], "time": []}}, "mouseover": {"state": {"target": ["7", "4", "5", "6", "16", "7", "2", "10", "23", "19", "21", "31", "30", "31", "31", "23", "24", "26", "29", "0", "1", "10", "11", "12", "14"], "time": [4280, 4426, 4670, 5660, 5932, 6176, 6223, 6327, 6666, 6961, 7147, 10801, 10849, 11203, 12248, 16054, 16094, 16200, 16317, 20210, 20228, 20286, 20577, 21321, 22224]}, "edge": {"target": [], "time": []}}, "mouseout": {"state": {"target": ["0", "7", "4", "5", "6", "16", "7", "2", "10", "23", "19", "21", "31", "30", "31", "31", "23", "24", "26", "29", "29", "0", "1", "10", "11", "12", "14"], "time": [3473, 4393, 4541, 5504, 5883, 6083, 6198, 6275, 6402, 6715, 7046, 10081, 10826, 11174, 11535, 12765, 16074, 16133, 16277, 16617, 17021, 20227, 20243, 20373, 21141, 21644, 24291]}, "edge": {"target": [], "time": []}}}, "displayed_time": "29.43", "trialTime": 31619, "trial_type": "mouselab-mdp", "trial_index": 25, "time_elapsed": 823557, "internal_node_id": "0.0-6.0-1.0-4.0"}}, {"uniqueid": "w53929258:a39389071", "current_trial": 26, "dateTime": 1693565603347, "trialdata": {"revealed_states": [], "clicked_states": ["5", "7", "33", "20"], "num_clicks_accrued": [0, 0, 0, 0, 0, 0, 0, 0, 0, 0, 0, 0, 0], "stateRewards": ["", -2, 2, -5, -6, 10, -66, -58, -10, -11, -63, -70, -1, -4, -5, 7, 66, -64, -43, -3, 45, -37, 4, -2, -2, -6, -4, -30, 33, 43, 15, -32, -65, -59], "withholdReward": false, "trial_id": "mdp_trial_6", "block": "test", "trialIndex": 11, "score": 23.4, "costs": -8.6, "simulationMode": [null, null, null, null, null], "rewards": [-1, -4, -5, -3, 45], "path": ["0", "0", "12", "13", "14", "19", "20"], "rt": [21168, 86, 258, 215, 251], "actions": ["right", "right", "right", "down", "right"], "actionTimes": [23078, 23702, 24478, 25230, 26005], "queries": {"click": {"state": {"target": ["5", "7", "33", "20"], "time": [3670, 8843, 14211, 18521]}, "edge": {"target": [], "time": []}}, "mouseover": {"state": {"target": ["0", "7", "4", "5", "16", "2", "10", "11", "8", "2", "7", "7", "16", "17", "14", "22", "31", "30", "33", "30", "31", "20"], "time": [2483, 2886, 3018, 3265, 7198, 7367, 7450, 7632, 7983, 8063, 8160, 8490, 9293, 12288, 12338, 12376, 13030, 13822, 13888, 14606, 14633, 18277]}, "edge": {"target": [], "time": []}}, "mouseout": {"state": {"target": ["0", "0", "7", "4", "5", "16", "2", "10", "11", "8", "2", "7", "7", "16", "17", "14", "22", "31", "30", "33", "30", "31", "20"], "time": [1377, 2592, 2913, 3034, 4023, 7232, 7416, 7550, 7954, 8001, 8144, 8211, 9222, 9358, 12319, 12356, 12396, 13187, 13860, 14584, 14632, 14658, 19099]}, "edge": {"target": [], "time": []}}}, "displayed_time": "26.53", "trialTime": 28383, "trial_type": "mouselab-mdp", "trial_index": 26, "time_elapsed": 852175, "internal_node_id": "0.0-6.0-1.0-5.0"}}, {"uniqueid": "w53929258:a39389071", "current_trial": 27, "dateTime": 1693565633336, "trialdata": {"revealed_states": [], "clicked_states": ["21", "31", "28", "11", "6"], "num_clicks_accrued": [0, 0, 0, 0, 0, 0, 0, 0, 0, 0, 0, 0, 0], "stateRewards": ["", -2, 3, 8, -9, 59, 41, -50, -1, 82, 66, 33, 2, -2, 7, 8, 1, -38, 12, -16, 24, -37, 67, 1, 4, -2, 5, 35, -83, 28, 8, -27, 69, -64], "withholdReward": false, "trial_id": "mdp_trial_7", "block": "test", "trialIndex": 12, "score": 30.25, "costs": -10.75, "simulationMode": [null, null, null, null, null], "rewards": [-2, 3, 8, -9, 41], "path": ["0", "0", "1", "2", "3", "4", "6"], "rt": [22921, 186, 187, 141, 163], "actions": ["up", "up", "up", "right", "right"], "actionTimes": [24902, 25617, 26326, 26991, 27694], "queries": {"click": {"state": {"target": ["21", "31", "28", "11", "6"], "time": [4268, 7937, 12106, 16199, 20173]}, "edge": {"target": [], "time": []}}, "mouseover": {"state": {"target": ["12", "22", "21", "31", "25", "29", "26", "28", "0", "22", "13", "2", "8", "11", "8", "7", "4", "6"], "time": [3312, 3655, 4104, 7790, 11345, 11393, 11661, 11950, 12623, 13152, 15463, 15665, 15899, 16042, 16573, 16728, 19760, 20000]}, "edge": {"target": [], "time": []}}, "mouseout": {"state": {"target": ["12", "22", "21", "31", "31", "25", "29", "26", "28", "28", "0", "22", "13", "2", "8", "11", "8", "7", "4", "6", "6"], "time": [3571, 3671, 4689, 8081, 8429, 11362, 11629, 11835, 12268, 12536, 12648, 15435, 15480, 15729, 15918, 16533, 16625, 16747, 19956, 20184, 20728]}, "edge": {"target": [], "time": []}}}, "displayed_time": "28.22", "trialTime": 29742, "trial_type": "mouselab-mdp", "trial_index": 27, "time_elapsed": 882165, "internal_node_id": "0.0-6.0-1.0-6.0"}}, {"uniqueid": "w53929258:a39389071", "current_trial": 28, "dateTime": 1693565661171, "trialdata": {"revealed_states": [], "clicked_states": ["18", "5", "11", "29"], "num_clicks_accrued": [0, 0, 0, 0, 0, 0, 0, 0, 0, 0, 0, 0, 0], "stateRewards": ["", 2, -1, -2, -5, -47, -57, -33, -11, 31, -18, -72, -2, 1, -4, -8, -46, -53, -50, 15, -85, -9, 39, -2, -2, 1, 14, -1, -8, 53, -12, -41, -74, 62], "withholdReward": false, "trial_id": "mdp_trial_8", "block": "test", "trialIndex": 13, "score": 55.4, "costs": -8.6, "simulationMode": [null, null, null, null, null], "rewards": [-2, -2, 1, 14, 53], "path": ["0", "0", "23", "24", "25", "26", "29"], "rt": [19911, 96, 181, 268, 135], "actions": ["left", "left", "left", "up", "left"], "actionTimes": [22799, 23431, 24126, 24925, 25583], "queries": {"click": {"state": {"target": ["18", "5", "11", "29"], "time": [4763, 10085, 14081, 17830]}, "edge": {"target": [], "time": []}}, "mouseover": {"state": {"target": ["22", "18", "14", "20", "33", "30", "23", "7", "2", "4", "4", "2", "7", "4", "5", "6", "16", "16", "4", "3", "8", "11", "8", "24", "25", "29", "26"], "time": [4019, 4427, 5103, 5276, 5655, 5724, 6605, 8371, 8475, 9044, 9179, 9272, 9472, 9693, 9740, 10492, 10648, 10910, 13375, 13526, 13572, 13945, 14571, 16896, 17264, 17630, 18198]}, "edge": {"target": [], "time": []}}, "mouseout": {"state": {"target": ["16", "22", "18", "14", "20", "33", "30", "23", "7", "2", "4", "4", "2", "7", "4", "5", "5", "6", "16", "16", "4", "3", "8", "11", "8", "24", "25", "29", "26"], "time": [1133, 4105, 5085, 5155, 5327, 5708, 6401, 6755, 8426, 8614, 9073, 9197, 9339, 9656, 9723, 10091, 10445, 10558, 10694, 11312, 13480, 13544, 13593, 14095, 14643, 16931, 17387, 18151, 18244]}, "edge": {"target": [], "time": []}}}, "displayed_time": "26.12", "trialTime": 27600, "trial_type": "mouselab-mdp", "trial_index": 28, "time_elapsed": 909999, "internal_node_id": "0.0-6.0-1.0-7.0"}}, {"uniqueid": "w53929258:a39389071", "current_trial": 29, "dateTime": 1693565679962, "trialdata": {"revealed_states": [], "clicked_states": ["20"], "num_clicks_accrued": [0, 0, 0, 0, 0, 0, 0, 0, 0, 0, 0, 0, 0], "stateRewards": ["", -2, -1, -1, 5, -54, -87, 35, 2, -8, 20, -22, 1, 3, 6, 13, -75, -32, -55, -3, 56, 62, -22, -1, -4, -1, -7, -51, 84, 70, 7, -15, 5, 55], "withholdReward": false, "trial_id": "mdp_trial_9", "block": "test", "trialIndex": 14, "score": 60.85, "costs": -2.15, "simulationMode": [null, null, null, null, null], "rewards": [1, 3, 6, -3, 56], "path": ["0", "0", "12", "13", "14", "19", "20"], "rt": [6268, 198, 215, 153, 365], "actions": ["right", "right", "right", "down", "right"], "actionTimes": [8821, 9540, 10292, 10963, 11838], "queries": {"click": {"state": {"target": ["20"], "time": [4228]}, "edge": {"target": [], "time": []}}, "mouseover": {"state": {"target": ["12", "19", "21", "20"], "time": [3588, 3785, 3916, 4137]}, "edge": {"target": [], "time": []}}, "mouseout": {"state": {"target": ["20", "23", "24", "23", "12", "19", "21", "20"], "time": [1246, 1598, 1762, 1864, 3615, 3831, 3998, 5356]}, "edge": {"target": [], "time": []}}}, "displayed_time": "16.84", "trialTime": 18566, "trial_type": "mouselab-mdp", "trial_index": 29, "time_elapsed": 928790, "internal_node_id": "0.0-6.0-1.0-8.0"}}, {"uniqueid": "w53929258:a39389071", "current_trial": 30, "dateTime": 1693565698247, "trialdata": {"revealed_states": [], "clicked_states": ["11"], "num_clicks_accrued": [0, 0, 0, 0, 0, 0, 0, 0, 0, 0, 0, 0, 0], "stateRewards": ["", 1, 1, 5, 6, -29, -7, 3, -16, 9, -46, 65, -1, 4, -1, -16, -63, -77, -87, 8, 80, -50, 43, -1, -1, -5, 5, -38, -71, -62, 9, 81, -50, -52], "withholdReward": false, "trial_id": "mdp_trial_10", "block": "test", "trialIndex": 15, "score": 53.85, "costs": -2.15, "simulationMode": [null, null, null, null, null], "rewards": [1, 1, 5, -16, 65], "path": ["0", "0", "1", "2", "3", "8", "11"], "rt": [5648, 193, 577, 261, 296], "actions": ["up", "up", "up", "left", "left"], "actionTimes": [7787, 8508, 9611, 10388, 11202], "queries": {"click": {"state": {"target": ["11"], "time": [3102]}, "edge": {"target": [], "time": []}}, "mouseover": {"state": {"target": ["1", "10", "11", "8"], "time": [2653, 2743, 2994, 3621]}, "edge": {"target": [], "time": []}}, "mouseout": {"state": {"target": ["20", "24", "26", "28", "23", "1", "10", "11", "8"], "time": [815, 1044, 1063, 1350, 1566, 2678, 2779, 3619, 3647]}, "edge": {"target": [], "time": []}}}, "displayed_time": "16.55", "trialTime": 18066, "trial_type": "mouselab-mdp", "trial_index": 30, "time_elapsed": 947076, "internal_node_id": "0.0-6.0-1.0-9.0"}}, {"uniqueid": "w53929258:a39389071", "current_trial": 31, "dateTime": 1693565734528, "trialdata": {"revealed_states": [], "clicked_states": ["20", "10", "5", "32", "29", "27"], "num_clicks_accrued": [0, 0, 0, 0, 0, 0, 0, 0, 0, 0, 0, 0, 0], "stateRewards": ["", -1, 2, -6, 6, -82, -19, -39, -16, -83, 11, -33, -2, -2, 4, -6, -82, -1, -19, -6, -10, -67, -41, -2, 1, -7, 16, -23, -78, -52, 14, 31, -71, 74], "withholdReward": false, "trial_id": "mdp_trial_11", "block": "test", "trialIndex": 16, "score": -116.9, "costs": -12.9, "simulationMode": [null, null, null, null, null], "rewards": [-1, 2, -6, -16, -83], "path": ["0", "0", "1", "2", "3", "8", "9"], "rt": [28318, 456, 446, 147, 225], "actions": ["up", "up", "up", "left", "up"], "actionTimes": [30212, 31187, 32156, 32819, 33564], "queries": {"click": {"state": {"target": ["20", "10", "5", "32", "29", "27"], "time": [3174, 7405, 11416, 15838, 20094, 24760]}, "edge": {"target": [], "time": []}}, "mouseover": {"state": {"target": ["16", "20", "18", "10", "7", "16", "6", "5", "18", "23", "31", "32", "15", "0", "23", "28", "26", "29", "6", "4", "2", "10", "27", "6"], "time": [2337, 2988, 7024, 7110, 7824, 7852, 10963, 11280, 14948, 15213, 15348, 15670, 19286, 19360, 19461, 19608, 19743, 19829, 24038, 24056, 24141, 24208, 24472, 25225]}, "edge": {"target": [], "time": []}}, "mouseout": {"state": {"target": ["16", "18", "0", "16", "20", "18", "10", "7", "16", "6", "5", "18", "23", "31", "32", "15", "0", "23", "28", "26", "29", "6", "4", "2", "10", "27", "6"], "time": [1179, 1344, 1637, 2399, 3300, 7041, 7798, 7851, 7874, 11012, 11830, 14997, 15298, 15400, 16212, 19302, 19401, 19560, 19637, 19798, 20437, 24055, 24080, 24157, 24222, 25172, 25251]}, "edge": {"target": [], "time": []}}}, "displayed_time": "34.10", "trialTime": 36059, "trial_type": "mouselab-mdp", "trial_index": 31, "time_elapsed": 983357, "internal_node_id": "0.0-6.0-1.0-10.0"}}, {"uniqueid": "w53929258:a39389071", "current_trial": 32, "dateTime": 1693565752992, "trialdata": {"revealed_states": [], "clicked_states": ["21"], "num_clicks_accrued": [0, 0, 0, 0, 0, 0, 0, 0, 0, 0, 0, 0, 0], "stateRewards": ["", 2, -1, 1, 10, -52, 86, -22, -2, -14, -63, 38, 1, 3, 7, -8, 11, -32, -27, 9, -71, 40, -87, -2, -1, 5, -7, 12, 31, -57, 13, 86, -58, 29], "withholdReward": false, "trial_id": "mdp_trial_12", "block": "test", "trialIndex": 17, "score": 57.85, "costs": -2.15, "simulationMode": [null, null, null, null, null], "rewards": [1, 3, 7, 9, 40], "path": ["0", "0", "12", "13", "14", "19", "21"], "rt": [6990, 581, 414, 250, 98], "actions": ["right", "right", "right", "down", "down"], "actionTimes": [9113, 10233, 11169, 11953, 12585], "queries": {"click": {"state": {"target": ["21"], "time": [3750]}, "edge": {"target": [], "time": []}}, "mouseover": {"state": {"target": ["12", "15", "17", "22", "21", "19", "20"], "time": [2413, 2475, 2494, 2958, 3459, 4336, 4362]}, "edge": {"target": [], "time": []}}, "mouseout": {"state": {"target": ["19", "22", "0", "12", "15", "17", "22", "21", "19", "20"], "time": [1458, 1506, 1907, 2428, 2493, 2514, 3169, 4187, 4361, 4385]}, "edge": {"target": [], "time": []}}}, "displayed_time": "16.64", "trialTime": 18248, "trial_type": "mouselab-mdp", "trial_index": 32, "time_elapsed": 1001820, "internal_node_id": "0.0-6.0-1.0-11.0"}}, {"uniqueid": "w53929258:a39389071", "current_trial": 33, "dateTime": 1693565770969, "trialdata": {"revealed_states": [], "clicked_states": ["5"], "num_clicks_accrued": [0, 0, 0, 0, 0, 0, 0, 0, 0, 0, 0, 0, 0], "stateRewards": ["", 1, 2, -5, 14, 54, -14, -25, 16, -5, -87, 78, -1, 1, 3, -3, 52, 53, 53, -10, 73, -69, -48, 2, 3, 1, 8, -62, -7, 85, 7, 82, 52, -28], "withholdReward": false, "trial_id": "mdp_trial_13", "block": "test", "trialIndex": 18, "score": 63.85, "costs": -2.15, "simulationMode": [null, null, null, null, null], "rewards": [1, 2, -5, 14, 54], "path": ["0", "0", "1", "2", "3", "4", "5"], "rt": [5899, 107, 121, 142, 178], "actions": ["up", "up", "up", "right", "up"], "actionTimes": [7865, 8488, 9135, 9791, 10495], "queries": {"click": {"state": {"target": ["5"], "time": [3627]}, "edge": {"target": [], "time": []}}, "mouseover": {"state": {"target": ["12", "18", "6", "5", "5"], "time": [2374, 2457, 2613, 2721, 3432]}, "edge": {"target": [], "time": []}}, "mouseout": {"state": {"target": ["19", "22", "0", "12", "18", "6", "5", "5"], "time": [1207, 1289, 2309, 2395, 2529, 2629, 2848, 3668]}, "edge": {"target": [], "time": []}}}, "displayed_time": "16.36", "trialTime": 17760, "trial_type": "mouselab-mdp", "trial_index": 33, "time_elapsed": 1019797, "internal_node_id": "0.0-6.0-1.0-12.0"}}, {"uniqueid": "w53929258:a39389071", "current_trial": 34, "dateTime": 1693565790410, "trialdata": {"revealed_states": [], "clicked_states": ["20", "27"], "num_clicks_accrued": [0, 0, 0, 0, 0, 0, 0, 0, 0, 0, 0, 0, 0], "stateRewards": ["", -1, 3, 1, -11, -22, -36, 19, -5, -70, -52, 50, -2, -4, 4, -2, -41, -83, 29, -2, 22, 10, -6, -2, 3, -2, 14, 54, 44, 77, -9, -65, -37, -40], "withholdReward": false, "trial_id": "mdp_trial_14", "block": "test", "trialIndex": 19, "score": 62.7, "costs": -4.3, "simulationMode": [null, null, null, null, null], "rewards": [-2, 3, -2, 14, 54], "path": ["0", "0", "23", "24", "25", "26", "27"], "rt": [10370, 255, 462, 240, 121], "actions": ["left", "left", "left", "up", "up"], "actionTimes": [14033, 14811, 15787, 16554, 17210], "queries": {"click": {"state": {"target": ["20", "27"], "time": [5059, 9351]}, "edge": {"target": [], "time": []}}, "mouseover": {"state": {"target": ["12", "20", "18", "27", "14"], "time": [4425, 4911, 8811, 9178, 9899]}, "edge": {"target": [], "time": []}}, "mouseout": {"state": {"target": ["14", "12", "12", "20", "18", "27", "14"], "time": [2780, 2973, 4486, 5110, 8830, 9851, 9920]}, "edge": {"target": [], "time": []}}}, "displayed_time": "18.30", "trialTime": 19219, "trial_type": "mouselab-mdp", "trial_index": 34, "time_elapsed": 1039239, "internal_node_id": "0.0-6.0-1.0-13.0"}}, {"uniqueid": "w53929258:a39389071", "current_trial": 35, "dateTime": 1693565818736, "trialdata": {"revealed_states": [], "clicked_states": ["6", "7", "32", "21"], "num_clicks_accrued": [0, 0, 0, 0, 0, 0, 0, 0, 0, 0, 0, 0, 0], "stateRewards": ["", 2, -1, 3, -12, -83, 6, -33, 9, 28, 24, -50, -2, -1, -2, -5, -87, 37, 82, 12, 80, -5, 10, -2, -3, -6, 9, 22, -1, 16, 9, 77, -62, 58], "withholdReward": false, "trial_id": "mdp_trial_15", "block": "test", "trialIndex": 20, "score": 32.4, "costs": -8.6, "simulationMode": [null, null, null, null, null], "rewards": [2, -1, 3, 9, 28], "path": ["0", "0", "1", "2", "3", "8", "9"], "rt": [20505, 24, 538, 149, 237], "actions": ["up", "up", "up", "left", "up"], "actionTimes": [22866, 23411, 24483, 25164, 25932], "queries": {"click": {"state": {"target": ["6", "7", "32", "21"], "time": [4426, 8527, 12317, 16270]}, "edge": {"target": [], "time": []}}, "mouseover": {"state": {"target": ["12", "13", "17", "7", "4", "6", "7", "12", "22", "19", "20", "14", "18", "7", "32", "21", "2", "3", "3", "7"], "time": [2630, 2658, 3462, 3695, 3925, 4309, 4869, 4923, 5000, 5053, 7980, 8045, 8165, 8415, 12032, 15935, 20175, 20374, 20640, 20727]}, "edge": {"target": [], "time": []}}, "mouseout": {"state": {"target": ["21", "0", "12", "13", "17", "7", "4", "6", "7", "12", "22", "19", "20", "14", "18", "7", "7", "32", "21", "2", "3", "3", "7"], "time": [1591, 1675, 2652, 2677, 3479, 3784, 3992, 4431, 4895, 4949, 5024, 5078, 7998, 8063, 8237, 8697, 8892, 12707, 16688, 20206, 20508, 20660, 20741]}, "edge": {"target": [], "time": []}}}, "displayed_time": "26.45", "trialTime": 28098, "trial_type": "mouselab-mdp", "trial_index": 35, "time_elapsed": 1067565, "internal_node_id": "0.0-6.0-1.0-14.0"}}, {"uniqueid": "w53929258:a39389071", "current_trial": 36, "dateTime": 1693565838136, "trialdata": {"revealed_states": [], "clicked_states": ["11", "29"], "num_clicks_accrued": [0, 0, 0, 0, 0, 0, 0, 0, 0, 0, 0, 0, 0], "stateRewards": ["", 1, -3, 4, 13, -72, 52, 5, 5, -58, 5, 14, 2, 1, 3, -14, -86, -4, 73, 6, -58, -50, 49, 2, -3, -4, 2, 33, -41, 42, -11, 81, 45, 53], "withholdReward": false, "trial_id": "mdp_trial_16", "block": "test", "trialIndex": 21, "score": 34.7, "costs": -4.3, "simulationMode": [null, null, null, null, null], "rewards": [2, -3, -4, 2, 42], "path": ["0", "0", "23", "24", "25", "26", "29"], "rt": [10151, 337, 263, 206, 164], "actions": ["left", "left", "left", "up", "left"], "actionTimes": [12171, 13037, 13835, 14585, 15284], "queries": {"click": {"state": {"target": ["11", "29"], "time": [3367, 7596]}, "edge": {"target": [], "time": []}}, "mouseover": {"state": {"target": ["10", "11", "2", "7", "28", "26", "29", "19"], "time": [2968, 3221, 3838, 3887, 7240, 7286, 7440, 8262]}, "edge": {"target": [], "time": []}}, "mouseout": {"state": {"target": ["0", "10", "11", "2", "7", "28", "26", "29", "19"], "time": [2695, 3036, 3728, 3863, 3942, 7259, 7310, 8077, 8284]}, "edge": {"target": [], "time": []}}}, "displayed_time": "16.47", "trialTime": 19178, "trial_type": "mouselab-mdp", "trial_index": 36, "time_elapsed": 1086964, "internal_node_id": "0.0-6.0-1.0-15.0"}}, {"uniqueid": "w53929258:a39389071", "current_trial": 37, "dateTime": 1693565860672, "trialdata": {"revealed_states": [], "clicked_states": ["16", "7", "29"], "num_clicks_accrued": [0, 0, 0, 0, 0, 0, 0, 0, 0, 0, 0, 0, 0], "stateRewards": ["", 2, -3, -4, -1, 25, -16, 16, 10, -71, -20, -55, 1, 3, -4, -9, 1, 32, 11, -6, 32, -50, -41, -1, 4, 4, -8, 7, -81, 70, 2, -52, 45, -10], "withholdReward": false, "trial_id": "mdp_trial_17", "block": "test", "trialIndex": 22, "score": 62.55, "costs": -6.449999999999999, "simulationMode": [null, null, null, null, null], "rewards": [-1, 4, 4, -8, 70], "path": ["0", "0", "23", "24", "25", "26", "29"], "rt": [14983, 204, 433, 272, 218], "actions": ["left", "left", "left", "up", "left"], "actionTimes": [17586, 18301, 19260, 20060, 20796], "queries": {"click": {"state": {"target": ["16", "7", "29"], "time": [3918, 7804, 12721]}, "edge": {"target": [], "time": []}}, "mouseover": {"state": {"target": ["15", "16", "15", "18", "7", "18", "23", "24", "25", "29", "25", "24"], "time": [3345, 3737, 7348, 7414, 7606, 8532, 11678, 11702, 11767, 12503, 13286, 16535]}, "edge": {"target": [], "time": []}}, "mouseout": {"state": {"target": ["15", "16", "15", "18", "7", "7", "18", "23", "24", "25", "29", "25", "24"], "time": [3362, 4025, 7381, 7432, 7982, 8201, 8751, 11702, 11735, 11803, 13262, 13391, 16589]}, "edge": {"target": [], "time": []}}}, "displayed_time": "21.31", "trialTime": 22299, "trial_type": "mouselab-mdp", "trial_index": 37, "time_elapsed": 1109501, "internal_node_id": "0.0-6.0-1.0-16.0"}}, {"uniqueid": "w53929258:a39389071", "current_trial": 38, "dateTime": 1693565877703, "trialdata": {"revealed_states": [], "clicked_states": ["31", "22"], "num_clicks_accrued": [0, 0, 0, 0, 0, 0, 0, 0, 0, 0, 0, 0, 0], "stateRewards": ["", -1, 2, -2, 5, 80, -61, -27, 12, 44, -26, -75, -2, -4, 1, -16, 42, -49, -50, 4, -44, 2, 80, -2, -2, 5, -2, 59, 10, 24, 7, -48, -86, -44], "withholdReward": false, "trial_id": "mdp_trial_18", "block": "test", "trialIndex": 23, "score": 74.7, "costs": -4.3, "simulationMode": [null, null, null, null, null], "rewards": [-2, -4, 1, 4, 80], "path": ["0", "0", "12", "13", "14", "19", "22"], "rt": [10653, 175, 131, 232, 423], "actions": ["right", "right", "right", "down", "left"], "actionTimes": [12461, 13159, 13833, 14582, 15528], "queries": {"click": {"state": {"target": ["31", "22"], "time": [3698, 7401]}, "edge": {"target": [], "time": []}}, "mouseover": {"state": {"target": ["0", "12", "31", "22", "19", "20"], "time": [2625, 2737, 3491, 7006, 7961, 8214]}, "edge": {"target": [], "time": []}}, "mouseout": {"state": {"target": ["19", "0", "0", "12", "31", "22", "19", "20"], "time": [800, 1569, 2675, 2786, 4003, 7851, 8074, 8427]}, "edge": {"target": [], "time": []}}}, "displayed_time": "16.17", "trialTime": 16821, "trial_type": "mouselab-mdp", "trial_index": 38, "time_elapsed": 1126532, "internal_node_id": "0.0-6.0-1.0-17.0"}}, {"uniqueid": "w53929258:a39389071", "current_trial": 39, "dateTime": 1693565905576, "trialdata": {"revealed_states": [], "clicked_states": ["28", "18", "5", "32"], "num_clicks_accrued": [0, 0, 0, 0, 0, 0, 0, 0, 0, 0, 0, 0, 0], "stateRewards": ["", 2, -2, -3, 10, -4, -1, -11, -8, -9, -36, -78, 2, 1, 7, -7, 44, -1, -31, -1, 26, 47, 83, 2, -4, -4, -6, -52, -76, -81, -1, -59, 45, 67], "withholdReward": false, "trial_id": "mdp_trial_19", "block": "test", "trialIndex": 24, "score": 29.4, "costs": -8.6, "simulationMode": [null, null, null, null, null], "rewards": [2, -4, -4, -1, 45], "path": ["0", "0", "23", "24", "25", "30", "32"], "rt": [20444, 1035, 230, 163, 299], "actions": ["left", "left", "left", "down", "down"], "actionTimes": [22049, 23609, 24361, 25063, 25881], "queries": {"click": {"state": {"target": ["28", "18", "5", "32"], "time": [3725, 7395, 12665, 17420]}, "edge": {"target": [], "time": []}}, "mouseover": {"state": {"target": ["0", "23", "10", "28", "0", "13", "18", "15", "16", "5", "4", "18", "7", "3", "9", "9", "8", "28", "24", "31", "32"], "time": [2181, 2512, 2879, 3566, 4183, 4442, 6250, 11788, 11969, 12427, 13100, 13557, 16139, 16178, 16283, 16541, 16676, 16724, 16745, 16794, 17012]}, "edge": {"target": [], "time": []}}, "mouseout": {"state": {"target": ["20", "19", "22", "0", "23", "10", "28", "28", "0", "13", "18", "15", "16", "5", "4", "18", "7", "3", "9", "9", "8", "28", "24", "31", "32"], "time": [893, 927, 960, 2462, 2595, 3301, 3853, 4136, 4208, 5781, 8380, 11903, 12091, 13074, 13157, 16092, 16160, 16202, 16407, 16640, 16692, 16744, 16770, 16825, 17815]}, "edge": {"target": [], "time": []}}}, "displayed_time": "26.41", "trialTime": 27655, "trial_type": "mouselab-mdp", "trial_index": 39, "time_elapsed": 1154405, "internal_node_id": "0.0-6.0-1.0-18.0"}}, {"uniqueid": "w53929258:a39389071", "current_trial": 40, "dateTime": 1693565923545, "trialdata": {"revealed_states": [], "clicked_states": ["21", "18"], "num_clicks_accrued": [0, 0, 0, 0, 0, 0, 0, 0, 0, 0, 0, 0, 0], "stateRewards": ["", -1, 3, 1, -7, 56, 76, 57, 3, 11, -9, 14, 1, -2, 2, 8, -77, -3, 79, -5, 88, 24, -66, -2, -1, 7, -7, -30, 14, -76, 11, -36, 28, -6], "withholdReward": false, "trial_id": "mdp_trial_20", "block": "test", "trialIndex": 25, "score": 83.7, "costs": -4.3, "simulationMode": [null, null, null, null, null], "rewards": [1, -2, 2, 8, 79], "path": ["0", "0", "12", "13", "14", "15", "18"], "rt": [9819, 329, 301, 234, 200], "actions": ["right", "right", "right", "up", "left"], "actionTimes": [11875, 12723, 13539, 14290, 15004], "queries": {"click": {"state": {"target": ["21", "18"], "time": [3383, 6983]}, "edge": {"target": [], "time": []}}, "mouseover": {"state": {"target": ["0", "22", "21", "18", "15", "17"], "time": [2333, 2973, 3295, 5813, 10032, 10082]}, "edge": {"target": [], "time": []}}, "mouseout": {"state": {"target": ["21", "23", "23", "0", "0", "22", "21", "18", "15", "17"], "time": [956, 1079, 1495, 1780, 2914, 3040, 3563, 10017, 10060, 10749]}, "edge": {"target": [], "time": []}}}, "displayed_time": "16.47", "trialTime": 17747, "trial_type": "mouselab-mdp", "trial_index": 40, "time_elapsed": 1172373, "internal_node_id": "0.0-6.0-1.0-19.0"}}, {"uniqueid": "w53929258:a39389071", "current_trial": 41, "dateTime": 1693565959712, "trialdata": {"revealed_states": [], "clicked_states": ["10", "6", "17", "33", "28", "29"], "num_clicks_accrued": [0, 0, 0, 0, 0, 0, 0, 0, 0, 0, 0, 0, 0], "stateRewards": ["", 1, -2, -2, 10, -31, -77, 35, 9, -47, 8, 48, -2, 1, -4, -3, -26, -50, 43, -11, 76, -38, 17, 1, -1, 6, 10, 15, -9, 12, -8, 85, 11, -55], "withholdReward": false, "trial_id": "mdp_trial_21", "block": "test", "trialIndex": 26, "score": -53.9, "costs": -12.9, "simulationMode": [null, null, null, null, null], "rewards": [1, -2, -2, 9, -47], "path": ["0", "0", "1", "2", "3", "8", "9"], "rt": [28457, 798, 336, 74, 219], "actions": ["up", "up", "up", "left", "up"], "actionTimes": [30093, 31429, 32301, 32901, 33644], "queries": {"click": {"state": {"target": ["10", "6", "17", "33", "28", "29"], "time": [2981, 6711, 10977, 15360, 20576, 24611]}, "edge": {"target": [], "time": []}}, "mouseover": {"state": {"target": ["1", "2", "10", "2", "7", "6", "16", "17", "31", "30", "33", "33", "25", "28", "26", "29", "25", "24", "28", "26", "29", "29"], "time": [2338, 2414, 2759, 3342, 3393, 6540, 7351, 10778, 14789, 14808, 14865, 15186, 18569, 18618, 18838, 18943, 19110, 19702, 20353, 21512, 22375, 24375]}, "edge": {"target": [], "time": []}}, "mouseout": {"state": {"target": ["14", "14", "1", "2", "10", "2", "7", "6", "16", "17", "31", "30", "33", "33", "25", "28", "26", "29", "25", "24", "28", "26", "29", "29"], "time": [853, 952, 2398, 2678, 3294, 3392, 3436, 7263, 10495, 12145, 14806, 14830, 14965, 15427, 18587, 18822, 18865, 18969, 19126, 19735, 21439, 22319, 22390, 25180]}, "edge": {"target": [], "time": []}}}, "displayed_time": "34.19", "trialTime": 35932, "trial_type": "mouselab-mdp", "trial_index": 41, "time_elapsed": 1208541, "internal_node_id": "0.0-6.0-1.0-20.0"}}, {"uniqueid": "w53929258:a39389071", "current_trial": 42, "dateTime": 1693565977656, "trialdata": {"revealed_states": [], "clicked_states": ["5"], "num_clicks_accrued": [0, 0, 0, 0, 0, 0, 0, 0, 0, 0, 0, 0, 0], "stateRewards": ["", 2, -4, 4, 9, 69, 9, -75, 12, -86, 66, 25, -1, 3, 2, -13, -88, -3, 1, 4, -69, 49, -84, 2, -1, 4, 2, -18, -81, -52, -15, -69, -54, 25], "withholdReward": false, "trial_id": "mdp_trial_22", "block": "test", "trialIndex": 27, "score": 77.85, "costs": -2.15, "simulationMode": [null, null, null, null, null], "rewards": [2, -4, 4, 9, 69], "path": ["0", "0", "1", "2", "3", "4", "5"], "rt": [5996, 180, 155, 155, 201], "actions": ["up", "up", "up", "right", "up"], "actionTimes": [8197, 8887, 9581, 10254, 10998], "queries": {"click": {"state": {"target": ["5"], "time": [3524]}, "edge": {"target": [], "time": []}}, "mouseover": {"state": {"target": ["0", "1", "2", "4", "5", "16", "7", "7", "7", "2", "10"], "time": [2868, 2951, 3000, 3106, 3400, 4252, 4702, 5318, 5553, 5858, 5938]}, "edge": {"target": [], "time": []}}, "mouseout": {"state": {"target": ["24", "0", "0", "1", "2", "4", "5", "5", "16", "7", "7", "7", "2", "10"], "time": [1019, 1041, 2904, 2971, 3041, 3352, 3533, 3954, 4536, 4728, 5477, 5805, 5910, 7104]}, "edge": {"target": [], "time": []}}}, "displayed_time": "16.60", "trialTime": 17709, "trial_type": "mouselab-mdp", "trial_index": 42, "time_elapsed": 1226485, "internal_node_id": "0.0-6.0-1.0-21.0"}}, {"uniqueid": "w53929258:a39389071", "current_trial": 43, "dateTime": 1693565996418, "trialdata": {"revealed_states": [], "clicked_states": ["11"], "num_clicks_accrued": [0, 0, 0, 0, 0, 0, 0, 0, 0, 0, 0, 0, 0], "stateRewards": ["", 2, 4, 4, 9, -88, -10, 44, 16, -54, 64, 78, 1, 2, 5, 16, 80, 36, 7, -4, 9, -47, -70, -1, -3, 6, -16, 11, 80, 28, 8, -1, 34, -17], "withholdReward": false, "trial_id": "mdp_trial_23", "block": "test", "trialIndex": 28, "score": 101.85, "costs": -2.15, "simulationMode": [null, null, null, null, null], "rewards": [2, 4, 4, 16, 78], "path": ["0", "0", "1", "2", "3", "8", "11"], "rt": [6264, 135, 215, 160, 214], "actions": ["up", "up", "up", "left", "left"], "actionTimes": [8077, 8733, 9475, 10156, 10900], "queries": {"click": {"state": {"target": ["11"], "time": [3521]}, "edge": {"target": [], "time": []}}, "mouseover": {"state": {"target": ["10", "11", "8", "8", "11", "8", "7", "16", "6"], "time": [2535, 2579, 2861, 3152, 3336, 3992, 4036, 5779, 6361]}, "edge": {"target": [], "time": []}}, "mouseout": {"state": {"target": ["23", "10", "11", "8", "8", "11", "11", "8", "7", "16", "6"], "time": [1252, 2554, 2825, 2879, 3168, 3674, 3990, 4006, 4057, 5823, 7039]}, "edge": {"target": [], "time": []}}}, "displayed_time": "16.51", "trialTime": 18541, "trial_type": "mouselab-mdp", "trial_index": 43, "time_elapsed": 1245247, "internal_node_id": "0.0-6.0-1.0-22.0"}}, {"uniqueid": "w53929258:a39389071", "current_trial": 44, "dateTime": 1693566026768, "trialdata": {"revealed_states": [], "clicked_states": ["18", "28", "6", "10", "21"], "num_clicks_accrued": [0, 0, 0, 0, 0, 0, 0, 0, 0, 0, 0, 0, 0], "stateRewards": ["", 2, -4, 7, 3, 23, -42, 4, 7, -81, -33, 7, -2, -4, 5, -1, 50, -57, -14, -13, -14, 44, 55, -2, -2, 5, -2, 33, 1, 57, -13, -7, 58, 87], "withholdReward": false, "trial_id": "mdp_trial_24", "block": "test", "trialIndex": 29, "score": 19.25, "costs": -10.75, "simulationMode": [null, null, null, null, null], "rewards": [-2, -4, 5, -13, 44], "path": ["0", "0", "12", "13", "14", "19", "21"], "rt": [23114, 25, 431, 204, 144], "actions": ["right", "right", "right", "down", "down"], "actionTimes": [24938, 25482, 26442, 27178, 27851], "queries": {"click": {"state": {"target": ["18", "28", "6", "10", "21"], "time": [3582, 7656, 11711, 15616, 20014]}, "edge": {"target": [], "time": []}}, "mouseover": {"state": {"target": ["12", "13", "14", "15", "18", "26", "29", "26", "28", "6", "4", "3", "10", "2", "16", "21"], "time": [2548, 2589, 2626, 3157, 3392, 4138, 7036, 7251, 7334, 11421, 15142, 15169, 15425, 16418, 19278, 19902]}, "edge": {"target": [], "time": []}}, "mouseout": {"state": {"target": ["2", "26", "25", "24", "23", "0", "12", "13", "14", "15", "18", "26", "29", "26", "28", "6", "6", "4", "3", "10", "2", "16", "21"], "time": [912, 946, 1316, 1346, 1395, 1530, 2565, 2623, 2791, 3238, 3725, 4166, 7206, 7290, 7763, 11861, 15125, 15167, 15182, 16080, 16463, 19328, 20482]}, "edge": {"target": [], "time": []}}}, "displayed_time": "28.39", "trialTime": 30106, "trial_type": "mouselab-mdp", "trial_index": 44, "time_elapsed": 1275597, "internal_node_id": "0.0-6.0-1.0-23.0"}}, {"uniqueid": "w53929258:a39389071", "current_trial": 45, "dateTime": 1693566050632, "trialdata": {"revealed_states": [], "clicked_states": ["31", "20"], "num_clicks_accrued": [0, 0, 0, 0, 0, 0, 0, 0, 0, 0, 0, 0, 0], "stateRewards": ["", -1, 4, -5, 9, 29, -75, -42, -16, 24, -28, -41, 2, -3, 1, 10, 60, 47, 55, -1, -53, 22, -40, 2, -3, -6, 4, -26, 44, 54, 15, -76, 42, 14], "withholdReward": false, "trial_id": "mdp_trial_25", "block": "test", "trialIndex": 30, "score": 1.6999999999999993, "costs": -4.3, "simulationMode": [null, null, null, null, null], "rewards": [-1, 4, -5, -16, 24], "path": ["0", "0", "1", "2", "3", "8", "9"], "rt": [16374, 41, 456, 48, 171], "actions": ["up", "up", "up", "left", "up"], "actionTimes": [18479, 19040, 20008, 20585, 21282], "queries": {"click": {"state": {"target": ["31", "20"], "time": [3194, 7795]}, "edge": {"target": [], "time": []}}, "mouseover": {"state": {"target": ["23", "31", "31", "21", "20", "2", "7", "2", "1", "2", "3", "9", "3"], "time": [2621, 2700, 2984, 3635, 7139, 12116, 12331, 12542, 12693, 12972, 13203, 13651, 17683]}, "edge": {"target": [], "time": []}}, "mouseout": {"state": {"target": ["30", "31", "0", "23", "31", "31", "21", "20", "20", "2", "7", "2", "1", "2", "3", "9"], "time": [1182, 1382, 1837, 2636, 2720, 3520, 4032, 7955, 9706, 12260, 12477, 12577, 12933, 13011, 13542, 16003]}, "edge": {"target": [], "time": []}}}, "displayed_time": "21.80", "trialTime": 23632, "trial_type": "mouselab-mdp", "trial_index": 45, "time_elapsed": 1299461, "internal_node_id": "0.0-6.0-1.0-24.0"}}, {"uniqueid": "w53929258:a39389071", "current_trial": 46, "dateTime": 1693566067952, "trialdata": {"revealed_states": [], "clicked_states": ["5"], "num_clicks_accrued": [0, 0, 0, 0, 0, 0, 0, 0, 0, 0, 0, 0, 0], "stateRewards": ["", -1, -4, -1, -11, 43, 69, 39, 4, 17, -20, -82, -2, -1, 4, 8, -79, 24, -79, 11, 36, 64, 41, 2, 4, -1, 11, -79, -47, 75, -3, 63, -36, -19], "withholdReward": false, "trial_id": "mdp_trial_26", "block": "test", "trialIndex": 31, "score": 23.85, "costs": -2.15, "simulationMode": [null, null, null, null, null], "rewards": [-1, -4, -1, -11, 43], "path": ["0", "0", "1", "2", "3", "4", "5"], "rt": [5216, 105, 173, 100, 216], "actions": ["up", "up", "up", "right", "up"], "actionTimes": [6842, 7467, 8154, 8755, 9483], "queries": {"click": {"state": {"target": ["5"], "time": [2348]}, "edge": {"target": [], "time": []}}, "mouseover": {"state": {"target": ["1", "6", "5", "6", "4"], "time": [1734, 2029, 2158, 5543, 6052]}, "edge": {"target": [], "time": []}}, "mouseout": {"state": {"target": ["3", "4", "0", "0", "1", "6", "5", "6", "4"], "time": [707, 724, 890, 1174, 1758, 2087, 2889, 5561, 6074]}, "edge": {"target": [], "time": []}}}, "displayed_time": "16.07", "trialTime": 17090, "trial_type": "mouselab-mdp", "trial_index": 46, "time_elapsed": 1316780, "internal_node_id": "0.0-6.0-1.0-25.0"}}, {"uniqueid": "w53929258:a39389071", "current_trial": 47, "dateTime": 1693566085480, "trialdata": {"revealed_states": [], "clicked_states": ["21", "32"], "num_clicks_accrued": [0, 0, 0, 0, 0, 0, 0, 0, 0, 0, 0, 0, 0], "stateRewards": ["", 2, 3, 6, -12, -29, 12, 87, 4, 35, -30, 67, 2, 3, -5, -9, 44, 69, -8, 1, 45, -8, 28, -2, -1, -8, 11, -12, -5, 81, 9, 87, 82, 88], "withholdReward": false, "trial_id": "mdp_trial_27", "block": "test", "trialIndex": 32, "score": 75.7, "costs": -4.3, "simulationMode": [null, null, null, null, null], "rewards": [-2, -1, -8, 9, 82], "path": ["0", "0", "23", "24", "25", "30", "32"], "rt": [9283, 206, 200, 153, 152], "actions": ["left", "left", "left", "down", "down"], "actionTimes": [10912, 11631, 12369, 13036, 13721], "queries": {"click": {"state": {"target": ["21", "32"], "time": [2291, 6245]}, "edge": {"target": [], "time": []}}, "mouseover": {"state": {"target": ["12", "22", "21", "30", "32"], "time": [1889, 1987, 2130, 4617, 6009]}, "edge": {"target": [], "time": []}}, "mouseout": {"state": {"target": ["0", "12", "22", "21", "30", "32"], "time": [1212, 1924, 2024, 2425, 5693, 6684]}, "edge": {"target": [], "time": []}}}, "displayed_time": "15.98", "trialTime": 17303, "trial_type": "mouselab-mdp", "trial_index": 47, "time_elapsed": 1334308, "internal_node_id": "0.0-6.0-1.0-26.0"}}, {"uniqueid": "w53929258:a39389071", "current_trial": 48, "dateTime": 1693566105480, "trialdata": {"revealed_states": [], "clicked_states": ["5", "9"], "num_clicks_accrued": [0, 0, 0, 0, 0, 0, 0, 0, 0, 0, 0, 0, 0], "stateRewards": ["", 1, 4, -4, 14, 35, 51, 19, -13, 54, 78, -74, -2, -1, -3, 13, -11, -42, -73, -15, -24, -3, -69, 2, -1, 5, 16, -27, 73, 58, 9, -60, 5, -60], "withholdReward": false, "trial_id": "mdp_trial_28", "block": "test", "trialIndex": 33, "score": 37.7, "costs": -4.3, "simulationMode": [null, null, null, null, null], "rewards": [1, 4, -4, -13, 54], "path": ["0", "0", "1", "2", "3", "8", "9"], "rt": [9237, 209, 285, 129, 173], "actions": ["up", "up", "up", "left", "up"], "actionTimes": [10901, 11644, 12444, 13100, 13796], "queries": {"click": {"state": {"target": ["5", "9"], "time": [2965, 6765]}, "edge": {"target": [], "time": []}}, "mouseover": {"state": {"target": ["0", "12", "7", "4", "5", "10", "8", "9", "11", "10", "2", "7", "16"], "time": [2406, 2448, 2543, 2601, 2798, 4368, 4844, 5669, 7178, 7581, 7599, 7623, 7701]}, "edge": {"target": [], "time": []}}, "mouseout": {"state": {"target": ["0", "0", "12", "7", "4", "5", "10", "8", "9", "9", "11", "10", "2", "7", "16"], "time": [1363, 2425, 2476, 2582, 2680, 3283, 4649, 5141, 6891, 7158, 7206, 7597, 7621, 7651, 7752]}, "edge": {"target": [], "time": []}}}, "displayed_time": "16.43", "trialTime": 19763, "trial_type": "mouselab-mdp", "trial_index": 48, "time_elapsed": 1354309, "internal_node_id": "0.0-6.0-1.0-27.0"}}, {"uniqueid": "w53929258:a39389071", "current_trial": 49, "dateTime": 1693566137872, "trialdata": {"revealed_states": [], "clicked_states": ["32", "22", "18", "27", "9"], "num_clicks_accrued": [0, 0, 0, 0, 0, 0, 0, 0, 0, 0, 0, 0, 0], "stateRewards": ["", 2, -1, 4, -9, -43, 7, 54, -13, 38, -40, -83, -1, 2, -8, -10, 34, -33, 11, -14, -79, 65, 26, 1, 2, 4, 10, 21, 1, 86, 4, -53, 28, -29], "withholdReward": false, "trial_id": "mdp_trial_29", "block": "test", "trialIndex": 34, "score": -57.75, "costs": -10.75, "simulationMode": [null, null, null, null, null], "rewards": [2, -1, 4, -9, -43], "path": ["0", "0", "1", "2", "3", "4", "5"], "rt": [24561, 34, 544, 105, 270], "actions": ["up", "up", "up", "right", "up"], "actionTimes": [26338, 26890, 27946, 28580, 29388], "queries": {"click": {"state": {"target": ["32", "22", "18", "27", "9"], "time": [2799, 6781, 11460, 16409, 21152]}, "edge": {"target": [], "time": []}}, "mouseover": {"state": {"target": ["21", "32", "22", "19", "21", "19", "14", "14", "18", "18", "32", "24", "10", "26", "27", "25", "31", "12", "8", "9", "4", "4"], "time": [2344, 2527, 6620, 7166, 10501, 10539, 10605, 10687, 10941, 11206, 12189, 15238, 15491, 16172, 16210, 16903, 16976, 20042, 20510, 20709, 21711, 22061]}, "edge": {"target": [], "time": []}}, "mouseout": {"state": {"target": ["18", "0", "21", "32", "22", "19", "21", "19", "14", "14", "18", "18", "22", "32", "24", "10", "26", "27", "25", "31", "12", "8", "9", "4", "4"], "time": [953, 1858, 2364, 3349, 7142, 7222, 10523, 10575, 10620, 10758, 10958, 11843, 12006, 12653, 15256, 15732, 16192, 16416, 16958, 17030, 20062, 20583, 21620, 22008, 22113]}, "edge": {"target": [], "time": []}}}, "displayed_time": "29.92", "trialTime": 32171, "trial_type": "mouselab-mdp", "trial_index": 49, "time_elapsed": 1386701, "internal_node_id": "0.0-6.0-1.0-28.0"}}, {"uniqueid": "w53929258:a39389071", "current_trial": 50, "dateTime": 1693566170633, "trialdata": {"revealed_states": [], "clicked_states": ["16", "11", "7", "18", "22", "32"], "num_clicks_accrued": [0, 0, 0, 0, 0, 0, 0, 0, 0, 0, 0, 0, 0], "stateRewards": ["", 1, 4, 7, -16, -84, -6, -46, -12, -7, -49, -26, -1, 2, -4, 2, 22, 37, -64, 1, 88, -13, -10, 1, -4, -2, 5, 2, -10, -34, 9, 66, 55, 38], "withholdReward": false, "trial_id": "mdp_trial_30", "block": "test", "trialIndex": 35, "score": 46.1, "costs": -12.9, "simulationMode": [null, null, null, null, null], "rewards": [1, -4, -2, 9, 55], "path": ["0", "0", "23", "24", "25", "30", "32"], "rt": [26396, 44, 255, 170, 258], "actions": ["left", "left", "left", "down", "down"], "actionTimes": [28019, 28580, 29373, 30055, 30830], "queries": {"click": {"state": {"target": ["16", "11", "7", "18", "22", "32"], "time": [2563, 6675, 10561, 14505, 18849, 23178]}, "edge": {"target": [], "time": []}}, "mouseover": {"state": {"target": ["12", "18", "15", "16", "7", "11", "10", "2", "7", "2", "10", "10", "18", "23", "24", "25", "25", "24", "23", "12", "22", "31", "32", "32"], "time": [2073, 2208, 2281, 2383, 6053, 6518, 9978, 10033, 10246, 11134, 11450, 13881, 14265, 15332, 15629, 15768, 17868, 17908, 17929, 18111, 18670, 19353, 22755, 23025]}, "edge": {"target": [], "time": []}}, "mouseout": {"state": {"target": ["0", "12", "18", "15", "16", "7", "11", "11", "10", "2", "7", "2", "10", "10", "18", "23", "24", "25", "25", "24", "23", "12", "22", "31", "32", "32"], "time": [2057, 2097, 2233, 2311, 3001, 6078, 7030, 7188, 10013, 10065, 11103, 11218, 11521, 13916, 15009, 15471, 15745, 15843, 17885, 17928, 17960, 18152, 19261, 19375, 22776, 23653]}, "edge": {"target": [], "time": []}}}, "displayed_time": "31.36", "trialTime": 32533, "trial_type": "mouselab-mdp", "trial_index": 50, "time_elapsed": 1419461, "internal_node_id": "0.0-6.0-1.0-29.0"}}, {"uniqueid": "w53929258:a39389071", "current_trial": 51, "dateTime": 1693566193450, "trialdata": {"revealed_states": [], "clicked_states": ["22", "17", "18"], "num_clicks_accrued": [0, 0, 0, 0, 0, 0, 0, 0, 0, 0, 0, 0, 0], "stateRewards": ["", 1, 1, -2, 7, -31, -6, 76, 1, -36, -16, -53, 2, 1, 7, 13, -47, -10, 47, -7, 72, 46, -56, -2, -2, -2, 11, -80, 44, 38, 16, 67, 85, -78], "withholdReward": false, "trial_id": "mdp_trial_31", "block": "test", "trialIndex": 36, "score": 63.55, "costs": -6.449999999999999, "simulationMode": [null, null, null, null, null], "rewards": [2, 1, 7, 13, 47], "path": ["0", "0", "12", "13", "14", "15", "18"], "rt": [16110, 147, 211, 174, 141], "actions": ["right", "right", "right", "up", "left"], "actionTimes": [18092, 18757, 19484, 20196, 20861], "queries": {"click": {"state": {"target": ["22", "17", "18"], "time": [3487, 9084, 13255]}, "edge": {"target": [], "time": []}}, "mouseover": {"state": {"target": ["12", "19", "21", "21", "22", "19", "20", "31", "14", "17", "14", "20", "18"], "time": [2506, 2612, 2907, 3121, 3247, 3975, 4132, 7597, 8176, 8719, 9561, 9979, 12981]}, "edge": {"target": [], "time": []}}, "mouseout": {"state": {"target": ["32", "31", "23", "0", "12", "19", "21", "21", "22", "19", "20", "31", "14", "17", "14", "20", "18"], "time": [1137, 1287, 1372, 2489, 2536, 2734, 2983, 3165, 3951, 4031, 4178, 7877, 8260, 9536, 9583, 10002, 13666]}, "edge": {"target": [], "time": []}}}, "displayed_time": "21.38", "trialTime": 22590, "trial_type": "mouselab-mdp", "trial_index": 51, "time_elapsed": 1442279, "internal_node_id": "0.0-6.0-1.0-30.0"}}, {"uniqueid": "w53929258:a39389071", "current_trial": 52, "dateTime": 1693566210874, "trialdata": {"revealed_states": [], "clicked_states": ["18", "22"], "num_clicks_accrued": [0, 0, 0, 0, 0, 0, 0, 0, 0, 0, 0, 0, 0], "stateRewards": ["", 1, -2, -3, 14, -42, -87, -37, -11, -50, 33, -44, -2, 4, -7, 13, 48, -75, -66, 12, 23, -2, 82, 1, -4, 3, 12, 51, -15, -26, -11, -52, -29, 82], "withholdReward": false, "trial_id": "mdp_trial_32", "block": "test", "trialIndex": 37, "score": 84.7, "costs": -4.3, "simulationMode": [null, null, null, null, null], "rewards": [-2, 4, -7, 12, 82], "path": ["0", "0", "12", "13", "14", "19", "22"], "rt": [10368, 156, 186, 101, 656], "actions": ["right", "right", "right", "down", "left"], "actionTimes": [12083, 12757, 13477, 14115, 15285], "queries": {"click": {"state": {"target": ["18", "22"], "time": [3439, 7694]}, "edge": {"target": [], "time": []}}, "mouseover": {"state": {"target": ["12", "13", "14", "15", "18", "15", "20", "19", "22", "19"], "time": [2190, 2228, 2581, 2909, 3110, 3917, 7202, 7421, 7486, 8096]}, "edge": {"target": [], "time": []}}, "mouseout": {"state": {"target": ["12", "13", "14", "15", "18", "18", "15", "20", "19", "22", "19"], "time": [2207, 2266, 2749, 3032, 3551, 3893, 3940, 7403, 7469, 8093, 8116]}, "edge": {"target": [], "time": []}}}, "displayed_time": "16.13", "trialTime": 17189, "trial_type": "mouselab-mdp", "trial_index": 52, "time_elapsed": 1459702, "internal_node_id": "0.0-6.0-1.0-31.0"}}, {"uniqueid": "w53929258:a39389071", "current_trial": 53, "dateTime": 1693566230975, "trialdata": {"revealed_states": [], "clicked_states": ["28"], "num_clicks_accrued": [0, 0, 0, 0, 0, 0, 0, 0, 0, 0, 0, 0, 0], "stateRewards": ["", 1, 2, -3, 6, -88, 74, -45, 7, -46, 40, -77, 1, -4, 4, 3, 22, -25, -59, 8, -83, 19, -60, -1, -1, -1, -8, 26, -29, 64, -7, -88, -51, -55], "withholdReward": false, "trial_id": "mdp_trial_33", "block": "test", "trialIndex": 38, "score": -67.15, "costs": -2.15, "simulationMode": [null, null, null, null, null], "rewards": [-1, -1, -1, -7, -55], "path": ["0", "0", "23", "24", "25", "30", "33"], "rt": [11190, 54, 413, 147, 383], "actions": ["left", "left", "left", "down", "left"], "actionTimes": [14968, 15545, 16481, 17162, 18063], "queries": {"click": {"state": {"target": ["28"], "time": [6140]}, "edge": {"target": [], "time": []}}, "mouseover": {"state": {"target": ["0", "23", "24", "28", "15", "15", "12", "31", "30", "33", "30", "31", "14"], "time": [4786, 5127, 5171, 5770, 6698, 11076, 11146, 11690, 12201, 12281, 13043, 13080, 14290]}, "edge": {"target": [], "time": []}}, "mouseout": {"state": {"target": ["20", "19", "12", "0", "23", "24", "28", "15", "15", "12", "31", "30", "33", "30", "31"], "time": [966, 1000, 1133, 5111, 5145, 5408, 6578, 6742, 11095, 11193, 12177, 12218, 13009, 13062, 13101]}, "edge": {"target": [], "time": []}}}, "displayed_time": "18.60", "trialTime": 19863, "trial_type": "mouselab-mdp", "trial_index": 53, "time_elapsed": 1479804, "internal_node_id": "0.0-6.0-1.0-32.0"}}, {"uniqueid": "w53929258:a39389071", "current_trial": 54, "dateTime": 1693566248552, "trialdata": {"revealed_states": [], "clicked_states": [], "num_clicks_accrued": [0, 0, 0, 0, 0, 0, 0, 0, 0, 0, 0, 0, 0], "stateRewards": ["", -1, 1, -2, 5, 73, 15, 61, 8, 7, 38, 76, 2, 2, -4, -6, -6, -26, 43, -5, -45, -85, -35, -2, 1, -4, 15, -10, 69, 72, -11, 84, -49, -38], "withholdReward": false, "trial_id": "mdp_trial_34", "block": "test", "trialIndex": 39, "score": 13, "costs": 0, "simulationMode": [null, null, null, null, null], "rewards": [-1, 1, -2, 8, 7], "path": ["0", "0", "1", "2", "3", "8", "9"], "rt": [6017, 730, 239, 87, 120], "actions": ["up", "up", "up", "left", "up"], "actionTimes": [7922, 9169, 9933, 10545, 11201], "queries": {"click": {"state": {"target": [], "time": []}, "edge": {"target": [], "time": []}}, "mouseover": {"state": {"target": ["12", "13", "14", "18", "15", "15", "17", "18", "1", "28", "1", "13"], "time": [2307, 2366, 3141, 3650, 3840, 4057, 4275, 4460, 4500, 4630, 6976, 7059]}, "edge": {"target": [], "time": []}}, "mouseout": {"state": {"target": ["14", "14", "0", "12", "13", "14", "18", "15", "15", "17", "18", "1", "28", "1", "13"], "time": [704, 1204, 2273, 2345, 2772, 3443, 3790, 3876, 4075, 4395, 4474, 4526, 6575, 6994, 7093]}, "edge": {"target": [], "time": []}}}, "displayed_time": "16.13", "trialTime": 17345, "trial_type": "mouselab-mdp", "trial_index": 54, "time_elapsed": 1497381, "internal_node_id": "0.0-6.0-1.0-33.0"}}, {"uniqueid": "w53929258:a39389071", "current_trial": 55, "dateTime": 1693566267921, "trialdata": {"revealed_states": [], "clicked_states": ["18"], "num_clicks_accrued": [0, 0, 0, 0, 0, 0, 0, 0, 0, 0, 0, 0, 0], "stateRewards": ["", 2, -2, -8, 9, -20, 55, -58, 14, 42, 2, 36, 1, -3, -5, 5, -58, 57, 60, 16, 57, 30, -70, -2, 1, 3, 10, 59, 23, 77, -13, -26, 88, -72], "withholdReward": false, "trial_id": "mdp_trial_35", "block": "test", "trialIndex": 40, "score": 55.85, "costs": -2.15, "simulationMode": [null, null, null, null, null], "rewards": [1, -3, -5, 5, 60], "path": ["0", "0", "12", "13", "14", "15", "18"], "rt": [6405, 63, 515, 215, 105], "actions": ["right", "right", "right", "up", "left"], "actionTimes": [8276, 8858, 9890, 10627, 11260], "queries": {"click": {"state": {"target": ["18"], "time": [3087]}, "edge": {"target": [], "time": []}}, "mouseover": {"state": {"target": ["0", "12", "13", "14", "18"], "time": [2329, 2372, 2421, 2596, 3015]}, "edge": {"target": [], "time": []}}, "mouseout": {"state": {"target": ["13", "12", "23", "0", "0", "12", "13", "14", "18", "18", "17", "16", "22"], "time": [1011, 1094, 1460, 1627, 2348, 2396, 2566, 2734, 3102, 3699, 14446, 14855, 14913]}, "edge": {"target": [], "time": []}}}, "displayed_time": "16.19", "trialTime": 19139, "trial_type": "mouselab-mdp", "trial_index": 55, "time_elapsed": 1516749, "internal_node_id": "0.0-6.0-1.0-34.0"}}, {"uniqueid": "w53929258:a39389071", "current_trial": 56, "dateTime": 1693566294976, "trialdata": {"revealed_states": [], "clicked_states": ["10", "7", "9"], "num_clicks_accrued": [0, 0, 0, 0, 0, 0, 0, 0, 0, 0, 0, 0, 0], "stateRewards": ["", 2, -3, 5, -14, -63, -9, -24, -11, -54, -43, 68, 2, -2, -4, 7, -64, 30, 47, 12, -74, 11, 86, 1, -3, 3, 10, -71, -42, -52, -1, -29, -16, 69], "withholdReward": false, "trial_id": "mdp_trial_36", "block": "test", "trialIndex": 41, "score": -66.45, "costs": -6.449999999999999, "simulationMode": [null, null, null, null, null], "rewards": [1, -3, 3, 10, -71], "path": ["0", "0", "23", "24", "25", "26", "27"], "rt": [20277, 378, 265, 135, 94], "actions": ["left", "left", "left", "up", "up"], "actionTimes": [21991, 22905, 23696, 24360, 24976], "queries": {"click": {"state": {"target": ["10", "7", "9"], "time": [2791, 7312, 13061]}, "edge": {"target": [], "time": []}}, "mouseover": {"state": {"target": ["10", "10", "18", "18", "7", "16", "16", "9", "6", "16", "1", "28", "1"], "time": [1948, 2311, 3377, 6948, 7117, 7746, 12465, 12866, 13521, 19154, 19322, 19571, 20643]}, "edge": {"target": [], "time": []}}, "mouseout": {"state": {"target": ["12", "10", "10", "18", "18", "7", "16", "16", "9", "6", "16", "1", "28", "1"], "time": [1189, 1984, 3228, 3402, 7010, 7696, 7767, 12483, 13450, 13546, 19171, 19403, 20238, 20724]}, "edge": {"target": [], "time": []}}}, "displayed_time": "25.50", "trialTime": 26807, "trial_type": "mouselab-mdp", "trial_index": 56, "time_elapsed": 1543805, "internal_node_id": "0.0-6.0-1.0-35.0"}}, {"uniqueid": "w53929258:a39389071", "current_trial": 57, "dateTime": 1693566311924, "trialdata": {"revealed_states": [], "clicked_states": ["18", "22"], "num_clicks_accrued": [0, 0, 0, 0, 0, 0, 0, 0, 0, 0, 0, 0, 0], "stateRewards": ["", 1, 1, -6, -2, 7, 77, 3, 16, -16, 66, 31, -1, 3, -8, -6, 33, -50, -48, 7, -60, -66, 36, 2, -3, 3, -7, -12, -61, -79, -4, 8, 74, -70], "withholdReward": false, "trial_id": "mdp_trial_37", "block": "test", "trialIndex": 42, "score": 32.7, "costs": -4.3, "simulationMode": [null, null, null, null, null], "rewards": [-1, 3, -8, 7, 36], "path": ["0", "0", "12", "13", "14", "19", "22"], "rt": [10287, 521, 24, 273, 749], "actions": ["right", "right", "right", "down", "left"], "actionTimes": [11873, 12911, 13471, 14272, 15545], "queries": {"click": {"state": {"target": ["18", "22"], "time": [2886, 7219]}, "edge": {"target": [], "time": []}}, "mouseover": {"state": {"target": ["12", "18", "18", "20", "22", "22", "19"], "time": [2033, 2362, 2664, 3532, 6389, 7067, 7678]}, "edge": {"target": [], "time": []}}, "mouseout": {"state": {"target": ["24", "23", "23", "0", "12", "18", "18", "20", "22", "22", "19"], "time": [800, 818, 1132, 1428, 2100, 2413, 3211, 6343, 6436, 7303, 7705]}, "edge": {"target": [], "time": []}}}, "displayed_time": "16.08", "trialTime": 16724, "trial_type": "mouselab-mdp", "trial_index": 57, "time_elapsed": 1560753, "internal_node_id": "0.0-6.0-1.0-36.0"}}, {"uniqueid": "w53929258:a39389071", "current_trial": 58, "dateTime": 1693566329165, "trialdata": {"revealed_states": [], "clicked_states": ["33", "29"], "num_clicks_accrued": [0, 0, 0, 0, 0, 0, 0, 0, 0, 0, 0, 0, 0], "stateRewards": ["", 2, -3, -5, 5, 11, -9, -33, 6, 67, 6, -30, -1, -2, -6, 13, 55, 13, 72, -14, 75, 21, -66, -2, -4, 6, 15, -1, -35, 60, 2, 51, -73, 12], "withholdReward": false, "trial_id": "mdp_trial_38", "block": "test", "trialIndex": 43, "score": 70.7, "costs": -4.3, "simulationMode": [null, null, null, null, null], "rewards": [-2, -4, 6, 15, 60], "path": ["0", "0", "23", "24", "25", "26", "29"], "rt": [10372, 106, 229, 193, 989], "actions": ["left", "left", "left", "up", "left"], "actionTimes": [12098, 12731, 13475, 14188, 15706], "queries": {"click": {"state": {"target": ["33", "29"], "time": [3375, 7292]}, "edge": {"target": [], "time": []}}, "mouseover": {"state": {"target": ["23", "24", "25", "33", "30", "24", "25", "29"], "time": [2551, 2587, 2958, 3246, 3787, 6869, 6949, 7131]}, "edge": {"target": [], "time": []}}, "mouseout": {"state": {"target": ["21", "0", "23", "24", "25", "33", "30", "24", "25", "29", "29"], "time": [879, 1460, 2564, 2646, 3063, 3519, 3812, 6892, 7015, 7445, 7705]}, "edge": {"target": [], "time": []}}}, "displayed_time": "16.23", "trialTime": 16997, "trial_type": "mouselab-mdp", "trial_index": 58, "time_elapsed": 1577993, "internal_node_id": "0.0-6.0-1.0-37.0"}}, {"uniqueid": "w53929258:a39389071", "current_trial": 59, "dateTime": 1693566348024, "trialdata": {"revealed_states": [], "clicked_states": ["21", "16"], "num_clicks_accrued": [0, 0, 0, 0, 0, 0, 0, 0, 0, 0, 0, 0, 0], "stateRewards": ["", 2, -3, 5, 11, -79, 54, 11, -9, -78, 33, 22, -2, -1, 2, 14, 43, 34, 1, 10, 49, -65, 39, -1, 1, -1, 3, -16, -2, 11, 2, 12, 48, -65], "withholdReward": false, "trial_id": "mdp_trial_39", "block": "test", "trialIndex": 44, "score": 51.7, "costs": -4.3, "simulationMode": [null, null, null, null, null], "rewards": [-2, -1, 2, 14, 43], "path": ["0", "0", "12", "13", "14", "15", "16"], "rt": [10110, 44, 444, 162, 20], "actions": ["right", "right", "right", "up", "up"], "actionTimes": [12370, 12936, 13906, 14593, 15128], "queries": {"click": {"state": {"target": ["21", "16"], "time": [3634, 7876]}, "edge": {"target": [], "time": []}}, "mouseover": {"state": {"target": ["0", "22", "19", "21", "20", "19", "16", "17"], "time": [2458, 2942, 3093, 3328, 7028, 7102, 7686, 8304]}, "edge": {"target": [], "time": []}}, "mouseout": {"state": {"target": ["12", "0", "0", "0", "22", "19", "21", "20", "19", "16", "17", "21"], "time": [1573, 1641, 1991, 2492, 2965, 3235, 4053, 7085, 7148, 8282, 8327, 17220]}, "edge": {"target": [], "time": []}}}, "displayed_time": "16.95", "trialTime": 18624, "trial_type": "mouselab-mdp", "trial_index": 59, "time_elapsed": 1596853, "internal_node_id": "0.0-6.0-1.0-38.0"}}, {"uniqueid": "w53929258:a39389071", "current_trial": 60, "dateTime": 1693566374800, "trialdata": {"revealed_states": [], "clicked_states": ["5", "10", "7", "9"], "num_clicks_accrued": [0, 0, 0, 0, 0, 0, 0, 0, 0, 0, 0, 0, 0], "stateRewards": ["", -1, -3, 4, -10, -5, 79, -87, -2, 53, 29, -20, -2, -1, -5, 10, 27, 86, 46, -16, -29, 40, 3, 2, 4, -1, -6, 37, 79, -29, 7, 86, -62, 29], "withholdReward": false, "trial_id": "mdp_trial_40", "block": "test", "trialIndex": 45, "score": 42.4, "costs": -8.6, "simulationMode": [null, null, null, null, null], "rewards": [-1, -3, 4, -2, 53], "path": ["0", "0", "1", "2", "3", "8", "9"], "rt": [20004, 133, 173, 133, 258], "actions": ["up", "up", "up", "left", "up"], "actionTimes": [21899, 22550, 23236, 23903, 24684], "queries": {"click": {"state": {"target": ["5", "10", "7", "9"], "time": [2920, 8060, 12680, 17738]}, "edge": {"target": [], "time": []}}, "mouseover": {"state": {"target": ["0", "1", "2", "3", "5", "18", "7", "3", "9", "9", "2", "10", "2", "18", "15", "15", "7", "15", "17", "18", "2", "11", "9", "3", "15", "14", "21"], "time": [2168, 2397, 2416, 2468, 2679, 4089, 6282, 6335, 6415, 6799, 7451, 7786, 8540, 8719, 8839, 11924, 12503, 13271, 13347, 16330, 16485, 16712, 17524, 18121, 18217, 18286, 19516]}, "edge": {"target": [], "time": []}}, "mouseout": {"state": {"target": ["0", "0", "1", "2", "3", "5", "18", "7", "3", "9", "9", "2", "10", "2", "18", "15", "15", "7", "15", "17", "18", "2", "11", "9", "3", "15", "14", "21"], "time": [1711, 2212, 2415, 2440, 2498, 3269, 6255, 6316, 6386, 6526, 7302, 7608, 8519, 8568, 8768, 8926, 11955, 12862, 13294, 16296, 16345, 16557, 17262, 18096, 18144, 18241, 18311, 19629]}, "edge": {"target": [], "time": []}}}, "displayed_time": "25.21", "trialTime": 26555, "trial_type": "mouselab-mdp", "trial_index": 60, "time_elapsed": 1623628, "internal_node_id": "0.0-6.0-1.0-39.0"}}, {"uniqueid": "w53929258:a39389071", "current_trial": 61, "dateTime": 1693566445561, "trialdata": {"rt": 70758, "response": {"Q0": "$-2 to $2", "Q1": "$-32 to $32", "Q2": "$-88 to $88", "Q3": "The cost for clicking on nodes varied between nodes.", "Q4": "Slightly motivated"}, "question_order": [0, 1, 2, 3, 4], "trial_id": "final_quiz_control", "trial_type": "survey-multi-choice", "trial_index": 61, "time_elapsed": 1694390, "internal_node_id": "0.0-6.0-2.0"}}, {"uniqueid": "w53929258:a39389071", "current_trial": 62, "dateTime": 1693566615577, "trialdata": {"rt": 170006, "response": {"Q0": "I tried to identify patterns between negative values and positive values base on node alignment and spacing/ steps between each node.", "Q1": "I improved my strategy by trying to always select a positive number that would achieve a positive score.  I did not try to target the highest score. ", "Q2": "I felt it was difficult because I was not identifying what I assumed to be the specific pattern/relationship that existed with the numbers and the spaces.  I was thinking in terms of the game \"minesweeper\"."}, "trial_id": "self_report_control", "trial_type": "survey-text", "trial_index": 62, "time_elapsed": 1864406, "internal_node_id": "0.0-6.0-3.0"}}, {"uniqueid": "w53929258:a39389071", "current_trial": 63, "dateTime": 1693566665632, "trialdata": {"rt": 50052, "response": {"Q0": "Disagree", "Q1": "Disagree", "Q2": "Agree", "Q3": "Disagree", "Q4": "Agree", "Q5": "Agree", "Q6": "Disagree"}, "question_order": [0, 1, 2, 3, 4, 5, 6], "trial_id": "self_report_2", "trial_type": "survey-multi-choice", "trial_index": 63, "time_elapsed": 1914461, "internal_node_id": "0.0-6.0-4.0"}}, {"uniqueid": "w53929258:a39389071", "current_trial": 64, "dateTime": 1693566706512, "trialdata": {"rt": 40876, "response": {"gender": "male", "age": "47", "colorblind": "0", "effort": "0"}, "trial_type": "survey-html-form", "trial_index": 64, "time_elapsed": 1955341, "internal_node_id": "0.0-6.0-5.0"}}, {"uniqueid": "w53929258:a39389071", "current_trial": 65, "dateTime": 1693566799936, "trialdata": {"rt": 93420, "response": {"Q0": "It took me a few times to grasp the rules as specified.  I'm confident that if I did another 40 rounds I would be maximising the score based on the patterns.", "Q1": "I don't think I've completed a HIT before.", "Q2": ""}, "trial_type": "survey-text", "trial_index": 65, "time_elapsed": 2048765, "internal_node_id": "0.0-6.0-6.0"}}, {"uniqueid": "w53929258:a39389071", "current_trial": 66, "dateTime": 1693566808080, "trialdata": {"rt": 8141, "stimulus": "<h1>Completion Code Instructions (1/2)</h1>\n<br><br><br><br>\nYou have reached the end of the experiment! The completion code consists of two parts: (1) a code with 2 characters (2) a code with 6 characters. On this page, you will receive the second part of the code. The first part of the completion code will be on the next page.\n<br><br>\nThe second part of your completion code is: <b>EWEK22</b>\n<br><br>\nPlease note this down. Then, press 'Finish HIT' in order to find the first part of your completion code. Once the data has been saved, you will receive this code either in this window or in the original browser window where you started the experiment.\n", "response": 0, "trial_type": "html-button-response", "trial_index": 66, "time_elapsed": 2056909, "internal_node_id": "0.0-6.0-7.0"}}, {"uniqueid": "w53929258:a39389071", "current_trial": 67, "dateTime": 1693566809094, "trialdata": {"success": true, "trial_type": "fullscreen", "trial_index": 67, "time_elapsed": 2057923, "internal_node_id": "0.0-7.0"}}], "questiondata": {"params": {"CODE": "C6DMOQA6", "MIN_TIME": 14, "inspectCost": 1, "startTime": "Fri Sep 01 2023 20:39:07 GMT+1000 (Australian Eastern Standard Time)", "bonusRate": 0.002, "variance": "1_2_4_8_44", "branching": "31123"}, "final_score": 1315.9}, "eventdata": [{"eventtype": "initialized", "value": null, "timestamp": 1693564747344, "interval": 0}, {"eventtype": "window_resize", "value": [1024, 768], "timestamp": 1693564747344, "interval": 0}, {"eventtype": "focus", "value": "on", "timestamp": 1693564747649, "interval": 305}, {"eventtype": "window_resize", "value": [1024, 768], "timestamp": 1693564747862, "interval": 213}, {"eventtype": "window_resize", "value": [1920, 1200], "timestamp": 1693564756082, "interval": 8220}, {"eventtype": "focus", "value": "off", "timestamp": 1693565099301, "interval": 343219}, {"eventtype": "focus", "value": "on", "timestamp": 1693565099301, "interval": 0}, {"eventtype": "focus", "value": "off", "timestamp": 1693565265214, "interval": 165913}, {"eventtype": "focus", "value": "on", "timestamp": 1693565265215, "interval": 1}, {"eventtype": "window_resize", "value": [1024, 768], "timestamp": 1693566808563, "interval": 1543348}], "useragent": "Mozilla/5.0 (Windows NT 10.0; Win64; x64; rv:109.0) Gecko/20100101 Firefox/116.0", "mode": "live", "id": "w53929258:a39389071", "status": "user data saved", "Beginhit": "2023-09-01 10:39:03.91717", "Beginexp": "2023-09-01 10:39:17.097196", "Endhit": "2023-09-01 11:13:32.185476", "psiturkStatus": 3, "browser": "<redacted>", "platform": "windows", "language": "en-US"}