{"condition": 1, "counterbalance": 0, "assignmentId": "a96443228", "workerId": "w56320192", "hitId": "h15191908", "currenttrial": 68, "bonus": 0, "data": [{"uniqueid": "w56320192:a96443228", "current_trial": 0, "dateTime": 1691159437409, "trialdata": {"success": true, "trial_type": "fullscreen", "trial_index": 0, "time_elapsed": 6313, "internal_node_id": "0.0-0.0"}}, {"uniqueid": "w56320192:a96443228", "current_trial": 1, "dateTime": 1691159463631, "trialdata": {"view_history": [{"page_index": 0, "viewing_time": 26216}], "rt": 26217, "trial_id": "exp_instructions_misaligned", "trial_type": "instructions", "trial_index": 1, "time_elapsed": 32537, "internal_node_id": "0.0-1.0"}}, {"uniqueid": "w56320192:a96443228", "current_trial": 2, "dateTime": 1691159471197, "trialdata": {"success": true, "trial_type": "fullscreen", "trial_index": 2, "time_elapsed": 40103, "internal_node_id": "0.0-2.0-0.0"}}, {"uniqueid": "w56320192:a96443228", "current_trial": 3, "dateTime": 1691159849455, "trialdata": {"view_history": [{"page_index": 0, "viewing_time": 140066}, {"page_index": 1, "viewing_time": 148647}, {"page_index": 2, "viewing_time": 28043}, {"page_index": 3, "viewing_time": 61497}], "rt": 378254, "trial_id": "mouselab_instructions_1_misaligned", "trial_type": "instructions", "trial_index": 3, "time_elapsed": 418361, "internal_node_id": "0.0-2.0-1.0"}}, {"uniqueid": "w56320192:a96443228", "current_trial": 4, "dateTime": 1691159903582, "trialdata": {"revealed_states": [], "clicked_states": ["1", "12", "13", "22", "19", "20", "14", "15", "17"], "num_clicks_accrued": [0, 0, 0, 0, 0, 0, 0, 0, 0, 0, 0, 0, 0], "stateRewards": ["", -10, -10, -10, 10, -10, -10, -10, -10, 10, 10, 10, 10, -10, -10, 10, -10, -10, 10, -10, 10, -10, 10, 10, -10, -10, 10, -10, -10, -10, -10, -10, 10, 10], "withholdReward": false, "trial_id": "practice_1", "block": "test", "trialIndex": 0, "score": -11, "costs": -4.5, "simulationMode": [null, null, null, null, null], "rewards": [10, -10, -10, 10, -10], "path": ["0", "0", "23", "24", "25", "26", "29"], "rt": [26751, 551, 12910, 2315, 226], "actions": ["left", "left", "left", "up", "left"], "actionTimes": [30623, 31686, 45110, 47950, 48694], "queries": {"click": {"state": {"target": ["1", "12", "13", "22", "19", "20", "14", "15", "17"], "time": [4881, 7301, 10003, 12352, 14865, 17839, 23451, 25063, 27392]}, "edge": {"target": [], "time": []}}, "mouseover": {"state": {"target": ["1", "23", "0", "12", "13", "22", "22", "19", "21", "21", "20", "14", "15", "17"], "time": [4570, 5630, 6583, 6712, 8180, 10779, 12151, 12929, 16671, 17117, 17483, 21860, 24851, 26564]}, "edge": {"target": [], "time": []}}, "mouseout": {"state": {"target": ["23", "10", "2", "7", "7", "1", "0", "1", "1", "23", "0", "12", "13", "13", "22", "22", "19", "21", "21", "20", "14", "15", "17", "17", "15", "28", "24", "31", "14", "22", "22", "19", "21"], "time": [null, 295, 783, 812, 879, 1316, 4348, 4950, 5497, 6352, 6681, 8063, 10007, 10646, 11870, 12846, 16380, 16763, 17282, 18534, 24653, 26470, 29251, 33169, 33532, 33565, 36316, 39422, 39631, 42863, 43101, 43398, 44949]}, "edge": {"target": [], "time": []}}}, "displayed_time": "49.20", "trialTime": 53101, "trial_type": "mouselab-mdp", "trial_index": 4, "time_elapsed": 472487, "internal_node_id": "0.0-2.0-2.0-0.0"}}, {"uniqueid": "w56320192:a96443228", "current_trial": 5, "dateTime": 1691159944353, "trialdata": {"revealed_states": [], "clicked_states": ["1", "12", "23", "13", "18", "22", "19", "15", "16", "17", "14", "20"], "num_clicks_accrued": [0, 0, 0, 0, 0, 0, 0, 0, 0, 0, 0, 0, 0], "stateRewards": ["", -10, -10, -10, 10, -10, 10, -10, 10, -10, -10, 10, 10, 10, -10, -10, -10, -10, 10, -10, 10, 10, -10, -10, -10, -10, 10, -10, 10, 10, -10, 10, 10, -10], "withholdReward": false, "trial_id": "practice_2", "block": "test", "trialIndex": 1, "score": -12.5, "costs": -6, "simulationMode": [null, null, null, null, null], "rewards": [10, 10, -10, -10, -10], "path": ["0", "0", "12", "13", "14", "15", "17"], "rt": [26293, 123, 4161, 350, 1540], "actions": ["right", "right", "right", "up", "right"], "actionTimes": [29240, 29878, 34550, 35406, 37462], "queries": {"click": {"state": {"target": ["1", "12", "23", "13", "18", "22", "19", "15", "16", "17", "14", "20"], "time": [4345, 5371, 6783, 8898, 10707, 12007, 13513, 14636, 17003, 18180, 19356, 23707]}, "edge": {"target": [], "time": []}}, "mouseover": {"state": {"target": ["12", "1", "1", "12", "0", "23", "24", "23", "13", "22", "18", "22", "19", "14", "15", "15", "16", "16", "17", "17", "14", "20", "19", "20", "14", "0", "12", "19", "22", "12"], "time": [3536, 3869, 4124, 5069, 5769, 5787, 5821, 6502, 8686, 9519, 10437, 11720, 13121, 13953, 14019, 14352, 15303, 16889, 17586, 17936, 19038, 21503, 22270, 23420, 24303, 25259, 25688, 26376, 27421, 28054]}, "edge": {"target": [], "time": []}}, "mouseout": {"state": {"target": ["31", "29", "28", "12", "1", "1", "12", "0", "23", "24", "23", "12", "13", "22", "13", "18", "18", "13", "22", "19", "14", "15", "15", "16", "15", "16", "15", "17", "17", "14", "20", "19", "20", "14", "0", "12", "19", "22", "12"], "time": [1751, 1952, 2237, 3821, 3886, 4735, 5753, 5786, 5819, 6119, 7186, 8653, 9236, 10224, 10369, 10836, 11336, 11503, 12936, 13903, 13986, 14103, 14647, 16457, 16790, 17203, 17469, 17653, 18537, 20853, 22220, 23386, 24220, 24336, 25627, 25721, 27360, 27938, 28138]}, "edge": {"target": [], "time": []}}}, "displayed_time": "37.97", "trialTime": 40590, "trial_type": "mouselab-mdp", "trial_index": 5, "time_elapsed": 513258, "internal_node_id": "0.0-2.0-2.0-1.0"}}, {"uniqueid": "w56320192:a96443228", "current_trial": 6, "dateTime": 1691160008783, "trialdata": {"view_history": [{"page_index": 0, "viewing_time": 50558}, {"page_index": 1, "viewing_time": 13869}], "rt": 64427, "trial_id": "mouselab_instructions_2_misaligned", "trial_type": "instructions", "trial_index": 6, "time_elapsed": 577689, "internal_node_id": "0.0-2.0-3.0"}}, {"uniqueid": "w56320192:a96443228", "current_trial": 7, "dateTime": 1691160073963, "trialdata": {"rt": 65176, "response": {"Q0": "There is no cost for clicking on nodes.", "Q1": "The better I perform the higher my bonus will be.", "Q2": "No, the structure of the web will be different each time.", "Q3": "To get the highest total score.", "Q4": "Only before moving the spider.", "Q5": "3 seconds"}, "question_order": [0, 1, 2, 3, 4, 5], "correct": {"Q0": "The cost for clicking on nodes may vary between nodes.", "Q1": "The better I perform the higher my bonus will be.", "Q2": "No, the amount of cash at each node of the web may be different each time.", "Q3": "To get the highest total score.", "Q4": "Only before moving the spider.", "Q5": "3 seconds"}, "trial_id": "mouselab_quiz_misaligned", "trial_type": "survey-multi-choice", "trial_index": 7, "time_elapsed": 642869, "internal_node_id": "0.0-2.0-4.0"}}, {"uniqueid": "w56320192:a96443228", "current_trial": 8, "dateTime": 1691160084287, "trialdata": {"success": true, "trial_type": "fullscreen", "trial_index": 8, "time_elapsed": 653193, "internal_node_id": "0.0-2.1-0.1"}}, {"uniqueid": "w56320192:a96443228", "current_trial": 9, "dateTime": 1691160166670, "trialdata": {"view_history": [{"page_index": 0, "viewing_time": 18543}, {"page_index": 1, "viewing_time": 19047}, {"page_index": 2, "viewing_time": 7551}, {"page_index": 3, "viewing_time": 37239}], "rt": 82380, "trial_id": "mouselab_instructions_1_misaligned", "trial_type": "instructions", "trial_index": 9, "time_elapsed": 735576, "internal_node_id": "0.0-2.1-1.1"}}, {"uniqueid": "w56320192:a96443228", "current_trial": 10, "dateTime": 1691160210305, "trialdata": {"revealed_states": [], "clicked_states": ["1", "23", "24", "31", "28", "26", "2", "7", "10", "12", "13", "22", "18", "15", "17"], "num_clicks_accrued": [0, 0, 0, 0, 0, 0, 0, 0, 0, 0, 0, 0, 0], "stateRewards": ["", -10, -10, -10, 10, -10, -10, -10, -10, 10, 10, 10, 10, -10, -10, 10, -10, -10, 10, -10, 10, -10, 10, 10, -10, -10, 10, -10, -10, -10, -10, -10, 10, 10], "withholdReward": false, "trial_id": "practice_1", "block": "test", "trialIndex": 2, "score": -14, "costs": -7.5, "simulationMode": [null, null, null, null, null], "rewards": [10, -10, -10, 10, -10], "path": ["0", "0", "12", "13", "14", "15", "17"], "rt": [30809, 317, 3032, 364, 424], "actions": ["right", "right", "right", "up", "right"], "actionTimes": [33463, 34305, 37853, 38737, 39696], "queries": {"click": {"state": {"target": ["1", "23", "24", "31", "28", "26", "2", "7", "10", "12", "13", "22", "18", "15", "17"], "time": [4367, 7501, 9483, 11639, 13767, 15256, 17821, 19274, 20759, 22035, 23431, 24668, 26057, 27644, 28923]}, "edge": {"target": [], "time": []}}, "mouseover": {"state": {"target": ["0", "1", "23", "1", "2", "23", "0", "12", "0", "23", "0", "12", "0", "24", "28", "31", "28", "30", "25", "28", "26", "25", "24", "23", "1", "2", "3", "7", "7", "4", "4", "3", "10", "1", "12", "12", "13", "22", "22", "18", "18", "15", "17", "12", "12", "18"], "time": [2906, 3100, 3604, 4084, 4750, 5200, 5922, 6206, 7067, 7289, 7918, 8184, 9035, 9272, 10740, 11386, 12568, 13057, 13417, 13501, 14401, 15767, 17135, 17184, 17318, 17637, 18401, 18651, 18902, 19635, 20068, 20118, 20488, 21234, 21285, 21771, 22585, 24035, 24418, 25102, 25469, 27437, 28352, 30571, 31837, 32953]}, "edge": {"target": [], "time": []}}, "mouseout": {"state": {"target": ["23", "0", "1", "23", "1", "2", "1", "23", "0", "12", "0", "23", "0", "12", "0", "23", "24", "28", "24", "31", "24", "28", "24", "30", "25", "28", "26", "25", "24", "23", "1", "2", "3", "7", "7", "4", "4", "3", "10", "10", "1", "12", "12", "13", "22", "22", "13", "18", "18", "18", "15", "17", "15", "12", "12", "18", "12", "12", "12", "21", "20", "19", "15", "14", "19"], "time": [2054, 3023, 3285, 3650, 4683, 4917, 5000, 5774, 6085, 7020, 7117, 7851, 8034, 9018, 9051, 9100, 10435, 11152, 11336, 12268, 12418, 12791, 12901, 13257, 13451, 14351, 15668, 17120, 17168, 17217, 17370, 18351, 18468, 18701, 19535, 19735, 20102, 20135, 20864, 21152, 21251, 21318, 22468, 23918, 24185, 24918, 25052, 25152, 26085, 27035, 28102, 29669, 30187, 30720, 32758, 33124, 33718, 34754, 37021, 40852, 41236, 41319, 41721, 42002, 42035]}, "edge": {"target": [], "time": []}}}, "displayed_time": "40.20", "trialTime": 43409, "trial_type": "mouselab-mdp", "trial_index": 10, "time_elapsed": 779209, "internal_node_id": "0.0-2.1-2.1-0.1"}}, {"uniqueid": "w56320192:a96443228", "current_trial": 11, "dateTime": 1691160242356, "trialdata": {"revealed_states": [], "clicked_states": ["1", "12", "23", "13", "18", "14", "22", "19", "15", "16", "17", "20", "21"], "num_clicks_accrued": [0, 0, 0, 0, 0, 0, 0, 0, 0, 0, 0, 0, 0], "stateRewards": ["", -10, -10, -10, 10, -10, 10, -10, 10, -10, -10, 10, 10, 10, -10, -10, -10, -10, 10, -10, 10, 10, -10, -10, -10, -10, 10, -10, 10, 10, -10, 10, 10, -10], "withholdReward": false, "trial_id": "practice_2", "block": "test", "trialIndex": 3, "score": 7, "costs": -6.5, "simulationMode": [null, null, null, null, null], "rewards": [10, 10, -10, -10, 10], "path": ["0", "0", "12", "13", "14", "19", "21"], "rt": [23906, 254, 184, 162, 184], "actions": ["right", "right", "right", "down", "down"], "actionTimes": [26408, 27182, 27878, 28558, 29262], "queries": {"click": {"state": {"target": ["1", "12", "23", "13", "18", "14", "22", "19", "15", "16", "17", "20", "21"], "time": [3531, 5424, 7332, 8808, 10548, 12093, 13715, 15021, 16980, 18698, 20509, 21844, 23064]}, "edge": {"target": [], "time": []}}, "mouseover": {"state": {"target": ["1", "12", "23", "23", "0", "13", "18", "14", "19", "22", "19", "19", "14", "15", "16", "16", "17", "20", "19", "21", "19", "14", "13", "12"], "time": [3327, 4225, 6026, 6359, 7893, 8242, 10360, 11766, 12693, 13596, 14259, 14660, 16509, 16826, 17527, 17893, 20280, 21443, 22543, 22777, 24093, 24262, 24760, 25378]}, "edge": {"target": [], "time": []}}, "mouseout": {"state": {"target": ["0", "1", "12", "23", "23", "0", "12", "13", "18", "14", "19", "22", "19", "19", "14", "15", "16", "16", "17", "20", "19", "21", "19", "14", "13", "12"], "time": [2959, 3959, 5943, 6109, 7843, 7926, 8043, 9919, 11276, 12576, 12959, 14193, 14326, 16460, 16526, 17460, 17576, 20010, 21043, 22493, 22610, 23793, 24160, 24744, 24793, 25411]}, "edge": {"target": [], "time": []}}}, "displayed_time": "29.78", "trialTime": 31853, "trial_type": "mouselab-mdp", "trial_index": 11, "time_elapsed": 811262, "internal_node_id": "0.0-2.1-2.1-1.1"}}, {"uniqueid": "w56320192:a96443228", "current_trial": 12, "dateTime": 1691160268782, "trialdata": {"view_history": [{"page_index": 0, "viewing_time": 22870}, {"page_index": 1, "viewing_time": 3553}], "rt": 26423, "trial_id": "mouselab_instructions_2_misaligned", "trial_type": "instructions", "trial_index": 12, "time_elapsed": 837688, "internal_node_id": "0.0-2.1-3.1"}}, {"uniqueid": "w56320192:a96443228", "current_trial": 13, "dateTime": 1691160306779, "trialdata": {"rt": 37996, "response": {"Q0": "There is no cost for clicking on nodes.", "Q1": "The better I perform the higher my bonus will be.", "Q2": "No, the amount of cash at each node of the web may be different each time.", "Q3": "To get the highest total score.", "Q4": "Only before moving the spider.", "Q5": "3 seconds"}, "question_order": [0, 1, 2, 3, 4, 5], "correct": {"Q0": "The cost for clicking on nodes may vary between nodes.", "Q1": "The better I perform the higher my bonus will be.", "Q2": "No, the amount of cash at each node of the web may be different each time.", "Q3": "To get the highest total score.", "Q4": "Only before moving the spider.", "Q5": "3 seconds"}, "trial_id": "mouselab_quiz_misaligned", "trial_type": "survey-multi-choice", "trial_index": 13, "time_elapsed": 875685, "internal_node_id": "0.0-2.1-4.1"}}, {"uniqueid": "w56320192:a96443228", "current_trial": 14, "dateTime": 1691160317607, "trialdata": {"success": true, "trial_type": "fullscreen", "trial_index": 14, "time_elapsed": 886513, "internal_node_id": "0.0-2.2-0.2"}}, {"uniqueid": "w56320192:a96443228", "current_trial": 15, "dateTime": 1691160344204, "trialdata": {"view_history": [{"page_index": 0, "viewing_time": 5676}, {"page_index": 1, "viewing_time": 7796}, {"page_index": 2, "viewing_time": 5508}, {"page_index": 3, "viewing_time": 7612}], "rt": 26592, "trial_id": "mouselab_instructions_1_misaligned", "trial_type": "instructions", "trial_index": 15, "time_elapsed": 913110, "internal_node_id": "0.0-2.2-1.2"}}, {"uniqueid": "w56320192:a96443228", "current_trial": 16, "dateTime": 1691160377350, "trialdata": {"revealed_states": [], "clicked_states": ["1", "12", "23", "13", "24", "14", "25", "31", "30", "19", "15", "17", "16", "18"], "num_clicks_accrued": [0, 0, 0, 0, 0, 0, 0, 0, 0, 0, 0, 0, 0], "stateRewards": ["", -10, -10, -10, 10, -10, -10, -10, -10, 10, 10, 10, 10, -10, -10, 10, -10, -10, 10, -10, 10, -10, 10, 10, -10, -10, 10, -10, -10, -10, -10, -10, 10, 10], "withholdReward": false, "trial_id": "practice_1", "block": "test", "trialIndex": 4, "score": 6.5, "costs": -7, "simulationMode": [null, null, null, null, null], "rewards": [10, -10, -10, 10, 10], "path": ["0", "0", "12", "13", "14", "15", "18"], "rt": [23456, 502, 294, 397, 289], "actions": ["right", "right", "right", "up", "left"], "actionTimes": [27251, 28288, 29112, 30016, 30824], "queries": {"click": {"state": {"target": ["1", "12", "23", "13", "24", "14", "25", "31", "30", "19", "15", "17", "16", "18"], "time": [5206, 6576, 7890, 9134, 10585, 12165, 14119, 15903, 17362, 18755, 19861, 21162, 22885, 24208]}, "edge": {"target": [], "time": []}}, "mouseover": {"state": {"target": ["1", "1", "0", "12", "0", "23", "0", "13", "0", "24", "12", "14", "25", "25", "31", "31", "31", "30", "22", "19", "15", "17", "18", "28", "26", "26", "18", "16", "18", "14"], "time": [4614, 5034, 5714, 6201, 7182, 7465, 8348, 8631, 10015, 10349, 11298, 11932, 13448, 13813, 15266, 15532, 15751, 16381, 17932, 18415, 19582, 20515, 21482, 21649, 21732, 22198, 22298, 22699, 23548, 26500]}, "edge": {"target": [], "time": []}}, "mouseout": {"state": {"target": ["0", "1", "1", "0", "12", "12", "0", "23", "0", "12", "13", "12", "0", "23", "24", "23", "12", "14", "24", "25", "25", "25", "31", "31", "31", "30", "31", "22", "19", "15", "15", "17", "15", "18", "28", "26", "26", "18", "16", "18", "14"], "time": [3448, 4631, 5631, 5747, 6710, 7149, 7231, 8315, 8364, 8531, 9965, 10001, 10031, 10282, 10998, 11131, 11365, 12732, 13417, 13531, 14135, 14581, 15299, 15598, 16365, 17698, 17765, 18082, 19132, 19866, 20465, 21416, 21465, 21515, 21682, 21798, 22215, 22315, 23282, 25588, 26584]}, "edge": {"target": [], "time": []}}}, "displayed_time": "31.35", "trialTime": 32945, "trial_type": "mouselab-mdp", "trial_index": 16, "time_elapsed": 946256, "internal_node_id": "0.0-2.2-2.2-0.2"}}, {"uniqueid": "w56320192:a96443228", "current_trial": 17, "dateTime": 1691160400257, "trialdata": {"revealed_states": [], "clicked_states": ["12", "1", "23", "13", "14", "15", "19", "20", "21"], "num_clicks_accrued": [0, 0, 0, 0, 0, 0, 0, 0, 0, 0, 0, 0, 0], "stateRewards": ["", -10, -10, -10, 10, -10, 10, -10, 10, -10, -10, 10, 10, 10, -10, -10, -10, -10, 10, -10, 10, 10, -10, -10, -10, -10, 10, -10, 10, 10, -10, 10, 10, -10], "withholdReward": false, "trial_id": "practice_2", "block": "test", "trialIndex": 5, "score": 9, "costs": -4.5, "simulationMode": [null, null, null, null, null], "rewards": [10, 10, -10, -10, 10], "path": ["0", "0", "12", "13", "14", "19", "21"], "rt": [13309, 340, 450, 373, 609], "actions": ["right", "right", "right", "down", "down"], "actionTimes": [16381, 17227, 18187, 19075, 20195], "queries": {"click": {"state": {"target": ["12", "1", "23", "13", "14", "15", "19", "20", "21"], "time": [3808, 5507, 6791, 8208, 9478, 10839, 12041, 13540, 14826]}, "edge": {"target": [], "time": []}}, "mouseover": {"state": {"target": ["12", "1", "23", "0", "13", "14", "15", "19", "20", "21"], "time": [3633, 4183, 5999, 7432, 7682, 8732, 10099, 11399, 13399, 14533]}, "edge": {"target": [], "time": []}}, "mouseout": {"state": {"target": ["30", "25", "24", "23", "0", "12", "1", "23", "0", "13", "14", "15", "14", "19", "20", "20", "19", "21", "21"], "time": [2184, 2248, 2298, 2566, 2869, 4065, 5899, 7399, 7466, 8649, 9933, 11299, 11382, 13333, 13680, 13916, 14049, 15800, 16566]}, "edge": {"target": [], "time": []}}}, "displayed_time": "20.70", "trialTime": 22715, "trial_type": "mouselab-mdp", "trial_index": 17, "time_elapsed": 969162, "internal_node_id": "0.0-2.2-2.2-1.2"}}, {"uniqueid": "w56320192:a96443228", "current_trial": 18, "dateTime": 1691160405761, "trialdata": {"view_history": [{"page_index": 0, "viewing_time": 3823}, {"page_index": 1, "viewing_time": 1674}], "rt": 5497, "trial_id": "mouselab_instructions_2_misaligned", "trial_type": "instructions", "trial_index": 18, "time_elapsed": 974667, "internal_node_id": "0.0-2.2-3.2"}}, {"uniqueid": "w56320192:a96443228", "current_trial": 19, "dateTime": 1691160480280, "trialdata": {"rt": 74516, "response": {"Q0": "The cost for clicking on nodes may vary between nodes.", "Q1": "The better I perform the higher my bonus will be.", "Q2": "No, the amount of cash at each node of the web may be different each time.", "Q3": "To get the highest total score.", "Q4": "Only before moving the spider.", "Q5": "3 seconds"}, "question_order": [0, 1, 2, 3, 4, 5], "correct": {"Q0": "The cost for clicking on nodes may vary between nodes.", "Q1": "The better I perform the higher my bonus will be.", "Q2": "No, the amount of cash at each node of the web may be different each time.", "Q3": "To get the highest total score.", "Q4": "Only before moving the spider.", "Q5": "3 seconds"}, "trial_id": "mouselab_quiz_misaligned", "trial_type": "survey-multi-choice", "trial_index": 19, "time_elapsed": 1049186, "internal_node_id": "0.0-2.2-4.2"}}, {"uniqueid": "w56320192:a96443228", "current_trial": 20, "dateTime": 1691160511527, "trialdata": {"rt": 31240, "stimulus": "\n<h1> Get ready to start the game! </h1>\n\nThank you for reading the instructions. Get ready start with the 40 rounds of this game.\n<br><br>\nIf you need to take a break, feel free to take one after the end of a round, before continuing to the next one.\n<br><br>\nRemember, the more money the spider gets, the bigger your bonus will be!\n<br><br>\n<div style='text-align: center;'>Press <code>space</code> to begin.</div>\n\n<br><br>\n(If, at any point, the <code>space</code> key does not take you to the next page, click once on the text and try again.)", "response": " ", "trial_id": "mdp_ready", "trial_type": "html-keyboard-response", "trial_index": 20, "time_elapsed": 1080433, "internal_node_id": "0.0-4.0-0.0"}}, {"uniqueid": "w56320192:a96443228", "current_trial": 21, "dateTime": 1691160530964, "trialdata": {"revealed_states": [], "clicked_states": ["1", "23", "12", "13", "2", "24"], "num_clicks_accrued": [0, 0, 0, 0, 0, 0, 0, 0, 0, 0, 0, 0, 0], "stateRewards": ["", -2, 2, 8, -6, -25, 3, 87, 2, -62, -2, 74, -2, -1, 2, -1, 79, 49, -37, -14, 5, 67, -9, -1, 2, -2, 5, 15, 38, 32, -14, -38, -38, 30], "withholdReward": false, "trial_id": "mdp_trial_1", "block": "test", "trialIndex": 6, "score": -52.3, "costs": -0.29999999999999993, "simulationMode": [null, null, null, null, null], "rewards": [-2, 2, 8, 2, -62], "path": ["0", "0", "1", "2", "3", "8", "9"], "rt": [7891, 309, 152, 539, 229], "actions": ["up", "up", "up", "left", "up"], "actionTimes": [10837, 11674, 12335, 13397, 14146], "queries": {"click": {"state": {"target": ["1", "23", "12", "13", "2", "24"], "time": [3509, 4482, 5606, 6814, 8042, 9187]}, "edge": {"target": [], "time": []}}, "mouseover": {"state": {"target": ["0", "1", "23", "23", "0", "12", "13", "1", "2", "24"], "time": [2981, 3331, 3798, 4048, 4848, 5065, 6648, 7448, 7899, 8765]}, "edge": {"target": [], "time": []}}, "mouseout": {"state": {"target": ["4", "16", "15", "18", "0", "0", "0", "1", "23", "23", "0", "12", "13", "12", "1", "2", "24", "23", "23"], "time": [997, 1080, 1130, 1164, 1247, 2653, 3231, 3765, 3831, 4487, 4881, 6531, 7148, 7381, 7481, 8265, 9582, 16325, 17162]}, "edge": {"target": [], "time": []}}}, "displayed_time": "16.95", "trialTime": 19217, "trial_type": "mouselab-mdp", "trial_index": 21, "time_elapsed": 1099870, "internal_node_id": "0.0-4.0-1.0-0.0"}}, {"uniqueid": "w56320192:a96443228", "current_trial": 22, "dateTime": 1691160555900, "trialdata": {"revealed_states": [], "clicked_states": ["1", "23", "12", "13", "14", "15", "17", "16", "18"], "num_clicks_accrued": [0, 0, 0, 0, 0, 0, 0, 0, 0, 0, 0, 0, 0], "stateRewards": ["", -2, 3, 3, -14, 62, 36, 49, 16, 11, 17, -84, 2, -1, 6, 2, -82, -73, 49, -6, -87, 48, 50, -1, -2, -1, -16, -11, 37, -44, 4, 55, 73, -10], "withholdReward": false, "trial_id": "mdp_trial_2", "block": "test", "trialIndex": 7, "score": 49.45, "costs": -8.55, "simulationMode": [null, null, null, null, null], "rewards": [2, -1, 6, 2, 49], "path": ["0", "0", "12", "13", "14", "15", "18"], "rt": [17773, 158, 243, 253, 191], "actions": ["right", "right", "right", "up", "left"], "actionTimes": [19732, 20410, 21163, 21923, 22626], "queries": {"click": {"state": {"target": ["1", "23", "12", "13", "14", "15", "17", "16", "18"], "time": [2495, 3365, 4406, 5806, 6689, 7573, 8628, 12304, 15540]}, "edge": {"target": [], "time": []}}, "mouseover": {"state": {"target": ["1", "23", "12", "13", "13", "14", "15", "17", "16", "18", "13"], "time": [2304, 3001, 4201, 5184, 5569, 6450, 7284, 8401, 9019, 13001, 18903]}, "edge": {"target": [], "time": []}}, "mouseout": {"state": {"target": ["0", "1", "23", "23", "12", "12", "13", "13", "14", "15", "17", "16", "18", "13", "13"], "time": [69, 2734, 3371, 3685, 4784, 5067, 5250, 6267, 6934, 8368, 8918, 12701, 18304, 18918, 24473]}, "edge": {"target": [], "time": []}}}, "displayed_time": "23.15", "trialTime": 24738, "trial_type": "mouselab-mdp", "trial_index": 22, "time_elapsed": 1124805, "internal_node_id": "0.0-4.0-1.0-1.0"}}, {"uniqueid": "w56320192:a96443228", "current_trial": 23, "dateTime": 1691160581448, "trialdata": {"revealed_states": [], "clicked_states": ["12", "1", "23", "13", "14", "19", "15", "20", "21", "22"], "num_clicks_accrued": [0, 0, 0, 0, 0, 0, 0, 0, 0, 0, 0, 0, 0], "stateRewards": ["", 1, 2, -3, -6, 50, -7, 7, -7, -80, 21, -1, 2, 2, 4, -1, 33, 84, 1, 14, -53, 81, 6, -2, -2, -3, -9, -87, -38, -59, -5, -74, -3, -71], "withholdReward": false, "trial_id": "mdp_trial_3", "block": "test", "trialIndex": 8, "score": 92.9, "costs": -10.100000000000001, "simulationMode": [null, null, null, null, null], "rewards": [2, 2, 4, 14, 81], "path": ["0", "0", "12", "13", "14", "19", "21"], "rt": [17291, 446, 240, 329, 280], "actions": ["right", "right", "right", "down", "down"], "actionTimes": [19566, 20509, 21269, 22109, 22909], "queries": {"click": {"state": {"target": ["12", "1", "23", "13", "14", "19", "15", "20", "21", "22"], "time": [2909, 3824, 4649, 6094, 6967, 7882, 8791, 9830, 13120, 16283]}, "edge": {"target": [], "time": []}}, "mouseover": {"state": {"target": ["12", "1", "1", "23", "0", "13", "14", "19", "15", "20", "21", "22", "22", "19"], "time": [2730, 3360, 3460, 4410, 5160, 5863, 6610, 7560, 8593, 9660, 10643, 13494, 13744, 17044]}, "edge": {"target": [], "time": []}}, "mouseout": {"state": {"target": ["13", "12", "0", "12", "1", "1", "23", "23", "0", "12", "13", "14", "19", "14", "15", "14", "20", "21", "22", "22", "19", "21"], "time": [1030, 1378, 2414, 3007, 3377, 4110, 4742, 5143, 5177, 5210, 6510, 7377, 8344, 8427, 9210, 9310, 10244, 13427, 13544, 17027, 17061, 23944]}, "edge": {"target": [], "time": []}}}, "displayed_time": "23.43", "trialTime": 25341, "trial_type": "mouselab-mdp", "trial_index": 23, "time_elapsed": 1150352, "internal_node_id": "0.0-4.0-1.0-2.0"}}, {"uniqueid": "w56320192:a96443228", "current_trial": 24, "dateTime": 1691160608024, "trialdata": {"revealed_states": [], "clicked_states": ["1", "23", "12", "2", "3", "13", "14", "19", "16", "15", "24", "25", "8", "4"], "num_clicks_accrued": [0, 0, 0, 0, 0, 0, 0, 0, 0, 0, 0, 0, 0], "stateRewards": ["", 2, -1, -3, 16, -3, -16, -62, -1, 13, -26, 43, -1, 4, 3, -9, -54, -37, -3, -12, -71, -68, -57, 1, -3, 2, -9, 2, -2, -9, -11, 84, -52, 55], "withholdReward": false, "trial_id": "mdp_trial_4", "block": "test", "trialIndex": 9, "score": -59.5, "costs": -11.5, "simulationMode": [null, null, null, null, null], "rewards": [2, -1, -3, 16, -62], "path": ["0", "0", "1", "2", "3", "4", "7"], "rt": [18832, 175, 210, 212, 366], "actions": ["up", "up", "up", "right", "down"], "actionTimes": [20773, 21475, 22195, 22915, 23803], "queries": {"click": {"state": {"target": ["1", "23", "12", "2", "3", "13", "14", "19", "16", "15", "24", "25", "8", "4"], "time": [2766, 3559, 4477, 5458, 6448, 7603, 8127, 9770, 10606, 13849, 16201, 17320, 18766, 19456]}, "edge": {"target": [], "time": []}}, "mouseover": {"state": {"target": ["1", "23", "0", "12", "2", "3", "7", "13", "14", "12", "0", "0", "12", "19", "15", "16", "15", "15", "14", "19", "21", "22", "23", "24", "25", "3", "8", "3", "4", "2"], "time": [2552, 3182, 3899, 4249, 5215, 6066, 7134, 7382, 7916, 8549, 8684, 8933, 8983, 9549, 10183, 10399, 11016, 11583, 14633, 15002, 15216, 15483, 15566, 16067, 16933, 17783, 18533, 19186, 19250, 19933]}, "edge": {"target": [], "time": []}}, "mouseout": {"state": {"target": ["0", "1", "23", "0", "12", "1", "2", "3", "7", "13", "14", "13", "12", "0", "0", "12", "13", "19", "19", "14", "15", "16", "15", "15", "14", "19", "21", "22", "23", "24", "25", "3", "8", "3", "4", "2"], "time": [1600, 3066, 3865, 3966, 4999, 5166, 5882, 6983, 7166, 7816, 8382, 8516, 8599, 8766, 8949, 9016, 9149, 9779, 10033, 10149, 10216, 10949, 11149, 14433, 14867, 15149, 15434, 15499, 15583, 16800, 17566, 18468, 19150, 19217, 19820, 19950]}, "edge": {"target": [], "time": []}}}, "displayed_time": "24.30", "trialTime": 26372, "trial_type": "mouselab-mdp", "trial_index": 24, "time_elapsed": 1176929, "internal_node_id": "0.0-4.0-1.0-3.0"}}, {"uniqueid": "w56320192:a96443228", "current_trial": 25, "dateTime": 1691160628416, "trialdata": {"revealed_states": [], "clicked_states": ["1", "23", "12", "24", "25", "26", "30", "27", "32"], "num_clicks_accrued": [0, 0, 0, 0, 0, 0, 0, 0, 0, 0, 0, 0, 0], "stateRewards": ["", -2, 3, -1, -9, 44, 48, -37, -3, 71, -39, 87, -1, 3, -4, 4, -21, 59, -15, -8, -1, 28, -38, 2, 4, 4, 8, -85, -72, -63, 14, 58, 63, -46], "withholdReward": false, "trial_id": "mdp_trial_5", "block": "test", "trialIndex": 10, "score": 79.05, "costs": -7.950000000000001, "simulationMode": [null, null, null, null, null], "rewards": [2, 4, 4, 14, 63], "path": ["0", "0", "23", "24", "25", "30", "32"], "rt": [13258, 140, 124, 139, 111], "actions": ["left", "left", "left", "down", "down"], "actionTimes": [15590, 16236, 16853, 17517, 18141], "queries": {"click": {"state": {"target": ["1", "23", "12", "24", "25", "26", "30", "27", "32"], "time": [2918, 3566, 4203, 4944, 5565, 6382, 7066, 8000, 11584]}, "edge": {"target": [], "time": []}}, "mouseover": {"state": {"target": ["1", "23", "0", "12", "0", "24", "25", "26", "30", "27", "32", "32", "31"], "time": [2729, 3376, 3876, 4030, 4526, 4626, 5360, 6093, 6860, 7793, 8777, 11393, 12493]}, "edge": {"target": [], "time": []}}, "mouseout": {"state": {"target": ["1", "23", "0", "12", "0", "23", "24", "25", "26", "25", "30", "25", "26", "27", "27", "26", "25", "30", "32", "32", "31"], "time": [3259, 3826, 3927, 4493, 4560, 4610, 5293, 5926, 6594, 6727, 7327, 7460, 7643, 8123, 8243, 8310, 8393, 8577, 11050, 11843, 19800]}, "edge": {"target": [], "time": []}}}, "displayed_time": "18.68", "trialTime": 20189, "trial_type": "mouselab-mdp", "trial_index": 25, "time_elapsed": 1197320, "internal_node_id": "0.0-4.0-1.0-4.0"}}, {"uniqueid": "w56320192:a96443228", "current_trial": 26, "dateTime": 1691160648686, "trialdata": {"revealed_states": [], "clicked_states": ["1", "23", "24", "25", "26", "30", "32", "31"], "num_clicks_accrued": [0, 0, 0, 0, 0, 0, 0, 0, 0, 0, 0, 0, 0], "stateRewards": ["", 1, 1, 6, -14, -40, 37, 16, -13, 33, -68, 49, 2, 4, 3, 6, 55, 27, 32, 10, -65, 20, -87, 2, 1, -6, -5, -42, 12, 29, -8, 16, 76, -33], "withholdReward": false, "trial_id": "mdp_trial_6", "block": "test", "trialIndex": 11, "score": 56.8, "costs": -8.200000000000001, "simulationMode": [null, null, null, null, null], "rewards": [2, 1, -6, -8, 76], "path": ["0", "0", "23", "24", "25", "30", "32"], "rt": [13483, 259, 276, 156, 196], "actions": ["left", "left", "left", "down", "down"], "actionTimes": [14927, 15734, 16526, 17238, 17982], "queries": {"click": {"state": {"target": ["1", "23", "24", "25", "26", "30", "32", "31"], "time": [2099, 2734, 3832, 4593, 5987, 6586, 7406, 10809]}, "edge": {"target": [], "time": []}}, "mouseover": {"state": {"target": ["1", "23", "0", "12", "0", "24", "25", "30", "26", "30", "32", "31", "30", "33"], "time": [1963, 2478, 2995, 3195, 3495, 3561, 4297, 4978, 5829, 6328, 7128, 7728, 11095, 11531]}, "edge": {"target": [], "time": []}}, "mouseout": {"state": {"target": ["0", "1", "1", "23", "0", "12", "0", "23", "24", "25", "30", "25", "26", "25", "30", "32", "31", "30"], "time": [1096, 2145, 2362, 2962, 3111, 3478, 3511, 3545, 4178, 4878, 5428, 5478, 6195, 6295, 6978, 7628, 11028, 11465]}, "edge": {"target": [], "time": []}}}, "displayed_time": "18.51", "trialTime": 20079, "trial_type": "mouselab-mdp", "trial_index": 26, "time_elapsed": 1217591, "internal_node_id": "0.0-4.0-1.0-5.0"}}, {"uniqueid": "w56320192:a96443228", "current_trial": 27, "dateTime": 1691160666264, "trialdata": {"revealed_states": [], "clicked_states": ["1", "23", "2", "3", "8", "4", "5"], "num_clicks_accrued": [0, 0, 0, 0, 0, 0, 0, 0, 0, 0, 0, 0, 0], "stateRewards": ["", 2, -1, 5, 8, 75, -35, -77, 1, -9, -81, -58, 1, 2, -7, 5, 77, -16, 19, 16, -10, -18, 40, -2, 3, 7, -5, 64, 1, -62, 10, 27, 10, 65], "withholdReward": false, "trial_id": "mdp_trial_7", "block": "test", "trialIndex": 12, "score": 82.95, "costs": -6.050000000000001, "simulationMode": [null, null, null, null, null], "rewards": [2, -1, 5, 8, 75], "path": ["0", "0", "1", "2", "3", "4", "5"], "rt": [9171, 124, 73, 27, 99], "actions": ["up", "up", "up", "right", "up"], "actionTimes": [10923, 11538, 12122, 12673, 13282], "queries": {"click": {"state": {"target": ["1", "23", "2", "3", "8", "4", "5"], "time": [2467, 2951, 3824, 4653, 5409, 5979, 7290]}, "edge": {"target": [], "time": []}}, "mouseover": {"state": {"target": ["1", "23", "2", "3", "8", "4", "5", "7"], "time": [2264, 2762, 3629, 4362, 5129, 5845, 7045, 7712]}, "edge": {"target": [], "time": []}}, "mouseout": {"state": {"target": ["33", "33", "0", "1", "23", "1", "2", "3", "3", "8", "3", "4", "5", "4", "7"], "time": [61, 694, 2013, 2696, 3262, 3495, 4249, 4778, 5050, 5631, 5762, 6613, 7545, 7662, 14545]}, "edge": {"target": [], "time": []}}}, "displayed_time": "15.75", "trialTime": 17370, "trial_type": "mouselab-mdp", "trial_index": 27, "time_elapsed": 1235169, "internal_node_id": "0.0-4.0-1.0-6.0"}}, {"uniqueid": "w56320192:a96443228", "current_trial": 28, "dateTime": 1691160688944, "trialdata": {"revealed_states": [], "clicked_states": ["1", "23", "12", "13", "14", "15", "19", "21", "16", "20"], "num_clicks_accrued": [0, 0, 0, 0, 0, 0, 0, 0, 0, 0, 0, 0, 0], "stateRewards": ["", -2, -1, -5, 10, -36, -70, 68, -9, 86, 71, -10, 2, -4, 7, -7, 66, 44, -66, -13, -69, 43, 15, -2, 2, 6, -13, 62, 57, 50, -10, -69, 42, -72], "withholdReward": false, "trial_id": "mdp_trial_8", "block": "test", "trialIndex": 13, "score": 53.9, "costs": -10.100000000000001, "simulationMode": [null, null, null, null, null], "rewards": [2, -4, 7, -7, 66], "path": ["0", "0", "12", "13", "14", "15", "16"], "rt": [16147, 477, 300, 187, 174], "actions": ["right", "right", "right", "up", "up"], "actionTimes": [17426, 18442, 19266, 19994, 20690], "queries": {"click": {"state": {"target": ["1", "23", "12", "13", "14", "15", "19", "21", "16", "20"], "time": [1738, 2350, 2845, 3697, 4800, 5485, 6456, 7610, 10723, 14084]}, "edge": {"target": [], "time": []}}, "mouseover": {"state": {"target": ["1", "23", "12", "13", "14", "15", "19", "21", "14", "16", "15", "14", "20"], "time": [1546, 2211, 2678, 3629, 4663, 5328, 6144, 7511, 7978, 8294, 11345, 11378, 11762]}, "edge": {"target": [], "time": []}}, "mouseout": {"state": {"target": ["0", "1", "23", "12", "13", "14", "15", "14", "19", "14", "19", "21", "21", "19", "14", "15", "16", "15", "14", "20"], "time": [1012, 2011, 2476, 2895, 4079, 5178, 5744, 5861, 6979, 7245, 7344, 7616, 7811, 7928, 8011, 8128, 11295, 11362, 11395, 22164]}, "edge": {"target": [], "time": []}}}, "displayed_time": "21.23", "trialTime": 22482, "trial_type": "mouselab-mdp", "trial_index": 28, "time_elapsed": 1257849, "internal_node_id": "0.0-4.0-1.0-7.0"}}, {"uniqueid": "w56320192:a96443228", "current_trial": 29, "dateTime": 1691160709950, "trialdata": {"revealed_states": [], "clicked_states": ["1", "23", "12", "13", "14", "15", "19", "21", "20"], "num_clicks_accrued": [0, 0, 0, 0, 0, 0, 0, 0, 0, 0, 0, 0, 0], "stateRewards": ["", 1, 4, -8, -13, -13, -87, -77, -10, -44, 54, 42, 2, -3, -4, 12, -9, -80, 52, 9, 84, -2, -65, 1, -4, -5, -6, 8, 80, 32, 13, -59, -5, -13], "withholdReward": false, "trial_id": "mdp_trial_9", "block": "test", "trialIndex": 14, "score": 80.05, "costs": -7.950000000000001, "simulationMode": [null, null, null, null, null], "rewards": [2, -3, -4, 9, 84], "path": ["0", "0", "12", "13", "14", "19", "20"], "rt": [12888, 12, 56, 120, 81], "actions": ["right", "right", "right", "down", "right"], "actionTimes": [14771, 15293, 15866, 16499, 17091], "queries": {"click": {"state": {"target": ["1", "23", "12", "13", "14", "15", "19", "21", "20"], "time": [2380, 3367, 4134, 5287, 5858, 6486, 7058, 7758, 11066]}, "edge": {"target": [], "time": []}}, "mouseover": {"state": {"target": ["1", "23", "0", "12", "13", "13", "14", "15", "19", "21", "20", "20", "14", "16"], "time": [2175, 2908, 3592, 3775, 4776, 5125, 5675, 6291, 6792, 7558, 8025, 9308, 11692, 13326]}, "edge": {"target": [], "time": []}}, "mouseout": {"state": {"target": ["19", "22", "12", "0", "1", "23", "0", "12", "13", "13", "14", "15", "14", "19", "21", "20", "20", "20", "14", "16", "14", "19"], "time": [841, 995, 1192, 2082, 2609, 3542, 3675, 4576, 4826, 5558, 6175, 6675, 6741, 7458, 7925, 8525, 11143, 11542, 11709, 18112, 18177, 18210]}, "edge": {"target": [], "time": []}}}, "displayed_time": "17.61", "trialTime": 20804, "trial_type": "mouselab-mdp", "trial_index": 29, "time_elapsed": 1278855, "internal_node_id": "0.0-4.0-1.0-8.0"}}, {"uniqueid": "w56320192:a96443228", "current_trial": 30, "dateTime": 1691160735981, "trialdata": {"revealed_states": [], "clicked_states": ["1", "23", "12", "13", "14", "15", "19", "16", "17", "18"], "num_clicks_accrued": [0, 0, 0, 0, 0, 0, 0, 0, 0, 0, 0, 0, 0], "stateRewards": ["", 1, 4, 5, -5, 58, -80, 75, 6, 25, -39, 46, 2, -2, 4, 2, 59, 31, -22, -12, -61, 15, 72, 1, -2, -7, 8, 77, 76, -23, -7, 71, -15, -3], "withholdReward": false, "trial_id": "mdp_trial_10", "block": "test", "trialIndex": 15, "score": 54.9, "costs": -10.100000000000001, "simulationMode": [null, null, null, null, null], "rewards": [2, -2, 4, 2, 59], "path": ["0", "0", "12", "13", "14", "15", "16"], "rt": [17908, 308, 218, 263, 71], "actions": ["right", "right", "right", "up", "up"], "actionTimes": [21004, 21859, 22612, 23411, 24012], "queries": {"click": {"state": {"target": ["1", "23", "12", "13", "14", "15", "19", "16", "17", "18"], "time": [5792, 6498, 7121, 8116, 8548, 9033, 9601, 11395, 14512, 17699]}, "edge": {"target": [], "time": []}}, "mouseover": {"state": {"target": ["1", "23", "12", "13", "13", "14", "15", "19", "21", "16", "17", "15", "18"], "time": [5607, 6338, 6837, 7521, 7904, 8420, 8870, 9437, 10073, 10988, 12154, 15137, 15338]}, "edge": {"target": [], "time": []}}, "mouseout": {"state": {"target": ["0", "1", "23", "12", "13", "13", "14", "15", "14", "19", "21", "19", "14", "16", "17", "15", "18", "13", "22"], "time": [2320, 6020, 6737, 7505, 7537, 8287, 8773, 9237, 9387, 9937, 10671, 10720, 10753, 12003, 15072, 15272, 25191, 25571, 25605]}, "edge": {"target": [], "time": []}}}, "displayed_time": "24.55", "trialTime": 25812, "trial_type": "mouselab-mdp", "trial_index": 30, "time_elapsed": 1304887, "internal_node_id": "0.0-4.0-1.0-9.0"}}, {"uniqueid": "w56320192:a96443228", "current_trial": 31, "dateTime": 1691160765176, "trialdata": {"revealed_states": [], "clicked_states": ["1", "23", "12", "2", "13", "3", "4", "8", "5", "6", "7"], "num_clicks_accrued": [0, 0, 0, 0, 0, 0, 0, 0, 0, 0, 0, 0, 0], "stateRewards": ["", 2, 3, -3, 4, 72, -28, 34, -12, 57, -64, -15, 2, 1, -4, -15, 2, 49, 31, -1, -42, -58, 31, -2, 1, -2, -13, -75, -19, -22, -6, 61, 10, -56], "withholdReward": false, "trial_id": "mdp_trial_11", "block": "test", "trialIndex": 16, "score": 67.55, "costs": -10.450000000000001, "simulationMode": [null, null, null, null, null], "rewards": [2, 3, -3, 4, 72], "path": ["0", "0", "1", "2", "3", "4", "5"], "rt": [17040, 444, 180, 158, 48], "actions": ["up", "up", "up", "right", "up"], "actionTimes": [23784, 24767, 25455, 26133, 26703], "queries": {"click": {"state": {"target": ["1", "23", "12", "2", "13", "3", "4", "8", "5", "6", "7"], "time": [7761, 8187, 8581, 9948, 10561, 11854, 12588, 13445, 14342, 17375, 20567]}, "edge": {"target": [], "time": []}}, "mouseover": {"state": {"target": ["0", "1", "23", "12", "2", "2", "13", "7", "3", "4", "8", "5", "6", "7"], "time": [7337, 7606, 8003, 8403, 9353, 9806, 10386, 11453, 11690, 12287, 13287, 14120, 14704, 17854]}, "edge": {"target": [], "time": []}}, "mouseout": {"state": {"target": ["22", "6", "7", "1", "23", "0", "23", "0", "0", "1", "23", "12", "1", "2", "2", "13", "7", "3", "4", "3", "8", "3", "5", "6", "7"], "time": [4835, 5152, 5185, 5405, 5552, 5919, 6056, 6919, 7404, 7936, 8336, 8970, 9121, 9403, 10186, 10587, 11469, 12220, 12955, 13203, 13853, 13953, 14606, 17720, 26043]}, "edge": {"target": [], "time": []}}}, "displayed_time": "27.24", "trialTime": 28954, "trial_type": "mouselab-mdp", "trial_index": 31, "time_elapsed": 1334082, "internal_node_id": "0.0-4.0-1.0-10.0"}}, {"uniqueid": "w56320192:a96443228", "current_trial": 32, "dateTime": 1691160799053, "trialdata": {"revealed_states": [], "clicked_states": ["1", "2", "3", "4", "8", "9", "11", "10", "7", "6"], "num_clicks_accrued": [0, 0, 0, 0, 0, 0, 0, 0, 0, 0, 0, 0, 0], "stateRewards": ["", 2, -1, -4, -13, 74, 77, 3, 2, -43, -2, -11, 2, 3, 7, 11, -26, -29, -33, -3, -3, -13, -3, 1, 3, -7, 14, -59, 33, 9, -5, 34, 79, 68], "withholdReward": false, "trial_id": "mdp_trial_12", "block": "test", "trialIndex": 17, "score": 46.1, "costs": -14.9, "simulationMode": [null, null, null, null, null, null], "rewards": [2, -1, -4, -13, 77], "path": ["0", "0", "1", "2", "3", "4", "6"], "rt": [10528, 11565, 109, 110, 444, 150], "actions": ["right", "up", "up", "up", "right", "right"], "actionTimes": [12561, 24131, 24754, 25370, 26321, 26977], "queries": {"click": {"state": {"target": ["1", "2", "3", "4", "8", "9", "11", "10", "7", "6"], "time": [3456, 4383, 4954, 5464, 6179, 7129, 10287, 13485, 17056, 20311]}, "edge": {"target": [], "time": []}}, "mouseover": {"state": {"target": ["12", "1", "0", "2", "3", "4", "8", "9", "11", "11", "10", "7", "6", "5"], "time": [2556, 3231, 3840, 4057, 4690, 5307, 6007, 6874, 7557, 7807, 10724, 16891, 17558, 20741]}, "edge": {"target": [], "time": []}}, "mouseout": {"state": {"target": ["23", "10", "10", "1", "0", "12", "1", "0", "1", "2", "2", "3", "4", "3", "8", "9", "9", "11", "11", "10", "7", "6", "5", "12", "0", "2", "1", "0"], "time": [739, 806, 973, 1124, 2208, 2573, 3673, 3874, 4024, 4392, 4590, 5207, 5724, 5874, 6790, 7227, 7441, 7590, 10624, 14770, 17324, 20658, 28110, 28241, 31325, 31528, 31625, 31776]}, "edge": {"target": [], "time": []}}}, "displayed_time": "27.49", "trialTime": 33618, "trial_type": "mouselab-mdp", "trial_index": 32, "time_elapsed": 1367959, "internal_node_id": "0.0-4.0-1.0-11.0"}}, {"uniqueid": "w56320192:a96443228", "current_trial": 33, "dateTime": 1691160821456, "trialdata": {"revealed_states": [], "clicked_states": ["1", "12", "23", "24", "25", "26", "30", "32", "31", "33"], "num_clicks_accrued": [0, 0, 0, 0, 0, 0, 0, 0, 0, 0, 0, 0, 0], "stateRewards": ["", -2, -3, 1, -14, 48, -49, 67, -1, -35, -48, 3, -2, 1, -4, -5, 86, -84, 39, 1, 48, 41, -42, -1, -4, 2, -7, 18, -86, 17, 7, -9, 57, -69], "withholdReward": false, "trial_id": "mdp_trial_13", "block": "test", "trialIndex": 18, "score": 50.9, "costs": -10.100000000000001, "simulationMode": [null, null, null, null, null], "rewards": [-1, -4, 2, 7, 57], "path": ["0", "0", "23", "24", "25", "30", "32"], "rt": [16081, 122, 124, 113, 57], "actions": ["left", "left", "left", "down", "down"], "actionTimes": [18069, 18709, 19357, 19981, 20557], "queries": {"click": {"state": {"target": ["1", "12", "23", "24", "25", "26", "30", "32", "31", "33"], "time": [2911, 3623, 4431, 5276, 5862, 6697, 7665, 8288, 11071, 14876]}, "edge": {"target": [], "time": []}}, "mouseover": {"state": {"target": ["1", "12", "0", "23", "24", "25", "26", "30", "32", "31", "23", "24", "30", "33"], "time": [2666, 3414, 4147, 4214, 5097, 5647, 6447, 7564, 8164, 8714, 14148, 14231, 14448, 14701]}, "edge": {"target": [], "time": []}}, "mouseout": {"state": {"target": ["0", "0", "1", "12", "12", "0", "23", "23", "24", "25", "26", "25", "30", "32", "31", "23", "24", "30", "33"], "time": [1568, 2417, 3280, 3743, 4114, 4197, 4535, 5014, 5597, 6297, 7315, 7381, 8098, 8581, 12698, 14214, 14350, 14465, 15415]}, "edge": {"target": [], "time": []}}}, "displayed_time": "21.07", "trialTime": 22173, "trial_type": "mouselab-mdp", "trial_index": 33, "time_elapsed": 1390360, "internal_node_id": "0.0-4.0-1.0-12.0"}}, {"uniqueid": "w56320192:a96443228", "current_trial": 34, "dateTime": 1691160847799, "trialdata": {"revealed_states": [], "clicked_states": ["1", "23", "12", "24", "25", "26", "30", "32", "31", "33"], "num_clicks_accrued": [0, 0, 0, 0, 0, 0, 0, 0, 0, 0, 0, 0, 0], "stateRewards": ["", -2, 1, -8, 12, -65, -79, 16, 7, -80, -17, -45, -2, 2, -5, -2, -85, 23, -4, -7, 48, 27, -76, 2, 3, 5, 2, 43, 71, -13, 7, -49, 59, -31], "withholdReward": false, "trial_id": "mdp_trial_14", "block": "test", "trialIndex": 19, "score": 65.9, "costs": -10.100000000000001, "simulationMode": [null, null, null, null, null], "rewards": [2, 3, 5, 7, 59], "path": ["0", "0", "23", "24", "25", "30", "32"], "rt": [19936, 309, 148, 122, 129], "actions": ["left", "left", "left", "down", "down"], "actionTimes": [21432, 22257, 22913, 23553, 24193], "queries": {"click": {"state": {"target": ["1", "23", "12", "24", "25", "26", "30", "32", "31", "33"], "time": [2830, 3467, 4846, 7145, 8085, 9895, 10534, 11899, 14883, 18234]}, "edge": {"target": [], "time": []}}, "mouseover": {"state": {"target": ["1", "23", "0", "12", "12", "13", "0", "23", "24", "25", "25", "26", "26", "30", "32", "31", "31", "30", "33", "33", "30"], "time": [2613, 3161, 4012, 4095, 4837, 5612, 6478, 6595, 6933, 7512, 7912, 8878, 9212, 10345, 11748, 12228, 12562, 15279, 15329, 16179, 19812]}, "edge": {"target": [], "time": []}}, "mouseout": {"state": {"target": ["33", "30", "31", "12", "0", "1", "23", "0", "12", "12", "13", "12", "0", "23", "24", "25", "25", "26", "26", "25", "30", "32", "31", "31", "30", "33", "33", "30"], "time": [360, 560, 594, 979, 1879, 3078, 3962, 4045, 4295, 5478, 6345, 6445, 6528, 6661, 7482, 7545, 8779, 8929, 10162, 10279, 11512, 12001, 12295, 15229, 15312, 15345, 18895, 24916]}, "edge": {"target": [], "time": []}}}, "displayed_time": "24.70", "trialTime": 26114, "trial_type": "mouselab-mdp", "trial_index": 34, "time_elapsed": 1416705, "internal_node_id": "0.0-4.0-1.0-13.0"}}, {"uniqueid": "w56320192:a96443228", "current_trial": 35, "dateTime": 1691160866528, "trialdata": {"revealed_states": [], "clicked_states": ["1", "23", "12", "24", "13", "14", "19", "16", "15"], "num_clicks_accrued": [0, 0, 0, 0, 0, 0, 0, 0, 0, 0, 0, 0, 0], "stateRewards": ["", -2, -4, -6, 12, -58, -70, -80, 2, 16, -88, -62, 1, 2, -5, 11, 77, -35, -44, -5, 18, -83, 87, 1, -3, -5, 13, -44, -21, -86, 10, -52, 8, 29], "withholdReward": false, "trial_id": "mdp_trial_15", "block": "test", "trialIndex": 20, "score": 79.85, "costs": -6.1499999999999995, "simulationMode": [null, null, null, null, null], "rewards": [1, 2, -5, 11, 77], "path": ["0", "0", "12", "13", "14", "15", "16"], "rt": [11370, 151, 39, 14, 131], "actions": ["right", "right", "right", "up", "up"], "actionTimes": [13536, 14209, 14759, 15287, 15936], "queries": {"click": {"state": {"target": ["1", "23", "12", "24", "13", "14", "19", "16", "15"], "time": [3264, 3732, 4693, 5644, 6308, 7110, 7980, 8726, 12079]}, "edge": {"target": [], "time": []}}, "mouseover": {"state": {"target": ["1", "23", "0", "12", "24", "0", "13", "14", "19", "15", "16", "15"], "time": [3121, 3552, 4069, 4586, 5502, 5902, 6119, 6985, 7802, 8421, 8635, 9069]}, "edge": {"target": [], "time": []}}, "mouseout": {"state": {"target": ["0", "0", "1", "23", "0", "12", "24", "23", "0", "12", "13", "13", "14", "19", "14", "15", "16", "15", "13"], "time": [1818, 2738, 3469, 4035, 4102, 4952, 5852, 5885, 5919, 5969, 6685, 6885, 7386, 8119, 8302, 8535, 8969, 13370, 17419]}, "edge": {"target": [], "time": []}}}, "displayed_time": "16.45", "trialTime": 18480, "trial_type": "mouselab-mdp", "trial_index": 35, "time_elapsed": 1435433, "internal_node_id": "0.0-4.0-1.0-14.0"}}, {"uniqueid": "w56320192:a96443228", "current_trial": 36, "dateTime": 1691160883581, "trialdata": {"revealed_states": [], "clicked_states": ["1", "23", "12", "24", "25", "30", "26", "29"], "num_clicks_accrued": [0, 0, 0, 0, 0, 0, 0, 0, 0, 0, 0, 0, 0], "stateRewards": ["", 1, 2, -6, -13, -51, 22, -4, -12, -44, -12, 6, -2, -2, -2, -14, -46, -4, -77, -2, 36, -79, 41, 2, -4, 2, -6, -55, 59, 70, -5, 39, -19, 24], "withholdReward": false, "trial_id": "mdp_trial_16", "block": "test", "trialIndex": 21, "score": 58.2, "costs": -5.800000000000001, "simulationMode": [null, null, null, null, null], "rewards": [2, -4, 2, -6, 70], "path": ["0", "0", "23", "24", "25", "26", "29"], "rt": [11180, 125, 77, 5, 2], "actions": ["left", "left", "left", "up", "left"], "actionTimes": [12691, 13339, 13922, 14449, 14981], "queries": {"click": {"state": {"target": ["1", "23", "12", "24", "25", "30", "26", "29"], "time": [2799, 3710, 4636, 5384, 6036, 6617, 7483, 9010]}, "edge": {"target": [], "time": []}}, "mouseover": {"state": {"target": ["1", "23", "0", "12", "0", "24", "25", "30", "26", "27", "29", "32", "31"], "time": [2695, 3143, 3977, 4027, 4911, 5093, 5794, 6395, 7343, 8160, 8743, 9860, 10643]}, "edge": {"target": [], "time": []}}, "mouseout": {"state": {"target": ["0", "1", "23", "0", "12", "0", "23", "24", "25", "30", "25", "26", "27", "29", "29", "30", "32", "31"], "time": [1994, 3027, 3944, 4010, 4877, 4944, 5027, 5743, 6344, 6860, 6944, 7944, 8679, 9057, 9244, 9493, 10377, 16813]}, "edge": {"target": [], "time": []}}}, "displayed_time": "15.52", "trialTime": 16826, "trial_type": "mouselab-mdp", "trial_index": 36, "time_elapsed": 1452486, "internal_node_id": "0.0-4.0-1.0-15.0"}}, {"uniqueid": "w56320192:a96443228", "current_trial": 37, "dateTime": 1691160901299, "trialdata": {"revealed_states": [], "clicked_states": ["1", "12", "13", "14", "15", "19", "20", "18"], "num_clicks_accrued": [0, 0, 0, 0, 0, 0, 0, 0, 0, 0, 0, 0, 0], "stateRewards": ["", -1, -2, 8, -6, -79, -6, 87, 9, -5, -66, -38, 2, 2, 5, -6, -82, 74, 85, -8, 67, -30, -15, 1, -2, -2, -2, 87, 64, 49, 7, 2, -38, -9], "withholdReward": false, "trial_id": "mdp_trial_17", "block": "test", "trialIndex": 22, "score": 79.8, "costs": -8.200000000000001, "simulationMode": [null, null, null, null, null], "rewards": [2, 2, 5, -6, 85], "path": ["0", "0", "12", "13", "14", "15", "18"], "rt": [11260, 352, 231, 129, 142], "actions": ["right", "right", "right", "up", "left"], "actionTimes": [12735, 13598, 14326, 14974, 15638], "queries": {"click": {"state": {"target": ["1", "12", "13", "14", "15", "19", "20", "18"], "time": [2164, 3265, 3892, 4394, 5134, 5817, 6669, 9528]}, "edge": {"target": [], "time": []}}, "mouseover": {"state": {"target": ["1", "0", "12", "12", "13", "14", "15", "19", "20", "17", "17", "18"], "time": [1896, 2643, 2693, 3043, 3759, 4209, 4976, 5659, 6476, 7226, 7943, 9026]}, "edge": {"target": [], "time": []}}, "mouseout": {"state": {"target": ["30", "30", "31", "0", "1", "0", "12", "12", "13", "14", "15", "15", "14", "19", "20", "20", "17", "17", "18", "13"], "time": [342, 792, 892, 1275, 2493, 2659, 2743, 3709, 4176, 4876, 5281, 5593, 5643, 6359, 6806, 7093, 7309, 8809, 11343, 17210]}, "edge": {"target": [], "time": []}}}, "displayed_time": "16.14", "trialTime": 17477, "trial_type": "mouselab-mdp", "trial_index": 37, "time_elapsed": 1470205, "internal_node_id": "0.0-4.0-1.0-16.0"}}, {"uniqueid": "w56320192:a96443228", "current_trial": 38, "dateTime": 1691160933524, "trialdata": {"revealed_states": [], "clicked_states": ["1", "2", "3", "8", "9", "11", "10", "4", "5", "6", "7"], "num_clicks_accrued": [0, 0, 0, 0, 0, 0, 0, 0, 0, 0, 0, 0, 0], "stateRewards": ["", 2, 4, 7, -6, -76, -81, 2, 5, -66, -3, 36, -2, -4, 6, -2, -69, 4, -49, -6, 67, 38, -67, 2, 1, 1, 6, -68, -21, 52, -16, -16, 6, -70], "withholdReward": false, "trial_id": "mdp_trial_18", "block": "test", "trialIndex": 23, "score": -65.05, "costs": -17.05, "simulationMode": [null, null, null, null, null], "rewards": [2, 4, 7, 5, -66], "path": ["0", "0", "1", "2", "3", "8", "9"], "rt": [25405, 206, 81, 56, 113], "actions": ["up", "up", "up", "left", "up"], "actionTimes": [27013, 27732, 28323, 28916, 29556], "queries": {"click": {"state": {"target": ["1", "2", "3", "8", "9", "11", "10", "4", "5", "6", "7"], "time": [2084, 2935, 3583, 4171, 5932, 9331, 12813, 16629, 17517, 20656, 23804]}, "edge": {"target": [], "time": []}}, "mouseover": {"state": {"target": ["1", "2", "3", "8", "4", "9", "9", "28", "11", "10", "3", "4", "5", "5", "6", "7"], "time": [1888, 2773, 3289, 3938, 4855, 5339, 5720, 6538, 7628, 11272, 16240, 16476, 17089, 17406, 18189, 21090]}, "edge": {"target": [], "time": []}}, "mouseout": {"state": {"target": ["32", "0", "1", "1", "2", "3", "3", "8", "3", "4", "3", "9", "9", "8", "28", "11", "10", "3", "4", "5", "5", "5", "6", "7", "7"], "time": [989, 1762, 2338, 2722, 3238, 3680, 3905, 4392, 4488, 5005, 5072, 5389, 6189, 6255, 6590, 9656, 16173, 16273, 16741, 17156, 17524, 17872, 20940, 23876, 27873]}, "edge": {"target": [], "time": []}}}, "displayed_time": "30.08", "trialTime": 31980, "trial_type": "mouselab-mdp", "trial_index": 38, "time_elapsed": 1502430, "internal_node_id": "0.0-4.0-1.0-17.0"}}, {"uniqueid": "w56320192:a96443228", "current_trial": 39, "dateTime": 1691160957956, "trialdata": {"revealed_states": [], "clicked_states": ["1", "23", "12", "13", "14", "15", "16", "2", "24", "25", "19", "30", "26"], "num_clicks_accrued": [0, 0, 0, 0, 0, 0, 0, 0, 0, 0, 0, 0, 0], "stateRewards": ["", -2, -4, 6, 14, -34, 49, 36, -8, -3, 32, -4, 1, -2, 1, -8, -20, -71, -57, -7, -86, -62, -16, -2, -3, -5, 11, 23, -21, 53, 5, -5, 85, 73], "withholdReward": false, "trial_id": "mdp_trial_19", "block": "test", "trialIndex": 24, "score": 43.45, "costs": -10.55, "simulationMode": [null, null, null, null, null], "rewards": [-2, -3, -5, 11, 53], "path": ["0", "0", "23", "24", "25", "26", "29"], "rt": [18049, 106, 78, 8, 35], "actions": ["left", "left", "left", "up", "left"], "actionTimes": [19892, 20507, 21115, 21643, 22203], "queries": {"click": {"state": {"target": ["1", "23", "12", "13", "14", "15", "16", "2", "24", "25", "19", "30", "26"], "time": [2300, 3040, 3683, 4338, 4889, 5802, 6911, 10347, 12321, 13900, 15317, 16456, 17389]}, "edge": {"target": [], "time": []}}, "mouseover": {"state": {"target": ["1", "0", "23", "0", "12", "13", "14", "15", "15", "16", "16", "22", "13", "13", "2", "1", "23", "24", "31", "22", "25", "23", "0", "12", "13", "14", "19", "22", "31", "30", "30", "26", "26", "28", "1", "18", "15", "18", "28", "29"], "time": [2117, 2682, 2865, 3449, 3516, 4166, 4666, 5249, 5649, 6316, 6702, 8816, 9583, 9849, 10156, 10816, 11300, 12152, 12932, 13149, 13749, 14201, 14249, 14299, 14433, 14666, 15116, 15750, 15833, 15851, 16266, 16733, 17233, 17650, 17733, 17967, 18133, 18583, 18666, 18885]}, "edge": {"target": [], "time": []}}, "mouseout": {"state": {"target": ["0", "1", "0", "23", "0", "12", "13", "14", "15", "15", "16", "16", "15", "22", "13", "13", "2", "2", "1", "23", "24", "31", "22", "25", "24", "23", "0", "12", "13", "14", "19", "22", "31", "30", "30", "25", "26", "26", "28", "1", "18", "15", "18", "28", "26", "29", "26", "26", "25"], "time": [1098, 2582, 2749, 3399, 3483, 4132, 4616, 5201, 5299, 5922, 6383, 7150, 7233, 8833, 9616, 9866, 10456, 10716, 10833, 11316, 12716, 13033, 13182, 14082, 14199, 14237, 14282, 14370, 14566, 15049, 15717, 15766, 15850, 15899, 16600, 16700, 16783, 17617, 17667, 17767, 18067, 18552, 18599, 18699, 18783, 19133, 19337, 20383, 23220]}, "edge": {"target": [], "time": []}}}, "displayed_time": "22.74", "trialTime": 24187, "trial_type": "mouselab-mdp", "trial_index": 39, "time_elapsed": 1526861, "internal_node_id": "0.0-4.0-1.0-18.0"}}, {"uniqueid": "w56320192:a96443228", "current_trial": 40, "dateTime": 1691161017368, "trialdata": {"revealed_states": [], "clicked_states": ["1", "23", "24", "25", "26", "30", "27", "29"], "num_clicks_accrued": [0, 0, 0, 0, 0, 0, 0, 0, 0, 0, 0, 0, 0], "stateRewards": ["", -1, -1, 7, -15, -43, -21, -84, -9, -45, -66, 2, 1, -2, 2, 8, -27, 44, -52, -5, -84, 11, 53, 1, 4, -4, 16, 83, -82, -15, -16, 68, -43, 81], "withholdReward": false, "trial_id": "mdp_trial_20", "block": "test", "trialIndex": 25, "score": 91.8, "costs": -8.200000000000001, "simulationMode": [null, null, null, null, null], "rewards": [1, 4, -4, 16, 83], "path": ["0", "0", "23", "24", "25", "26", "27"], "rt": [11592, 166, 46, 6, 34], "actions": ["left", "left", "left", "up", "up"], "actionTimes": [15608, 16288, 16848, 17376, 17936], "queries": {"click": {"state": {"target": ["1", "23", "24", "25", "26", "30", "27", "29"], "time": [4539, 5267, 6405, 7014, 7525, 8231, 9093, 12485]}, "edge": {"target": [], "time": []}}, "mouseover": {"state": {"target": ["1", "23", "0", "12", "13", "12", "0", "24", "25", "26", "30", "27", "29"], "time": [4317, 5066, 5683, 5701, 5733, 5983, 6083, 6183, 6800, 7316, 7883, 8950, 9467]}, "edge": {"target": [], "time": []}}, "mouseout": {"state": {"target": ["22", "13", "18", "5", "4", "7", "0", "1", "23", "0", "12", "13", "12", "0", "23", "24", "25", "26", "25", "30", "25", "26", "27", "29", "25", "31"], "time": [500, 532, 566, 1949, 1999, 2049, 4217, 4850, 5666, 5700, 5716, 5933, 6050, 6100, 6150, 6733, 7250, 7766, 7850, 8516, 8600, 8766, 9317, 15537, 18751, 18784]}, "edge": {"target": [], "time": []}}}, "displayed_time": "18.45", "trialTime": 59129, "trial_type": "mouselab-mdp", "trial_index": 40, "time_elapsed": 1586273, "internal_node_id": "0.0-4.0-1.0-19.0"}}, {"uniqueid": "w56320192:a96443228", "current_trial": 41, "dateTime": 1691161035407, "trialdata": {"revealed_states": [], "clicked_states": ["1", "2", "3", "4", "5", "6"], "num_clicks_accrued": [0, 0, 0, 0, 0, 0, 0, 0, 0, 0, 0, 0, 0], "stateRewards": ["", 2, 3, 8, 14, 69, -27, 17, 2, -71, -65, -10, 2, -3, 7, 8, 65, -10, 65, -12, 73, -12, 13, -2, -2, 6, 10, -79, -69, -18, 10, -85, 67, 74], "withholdReward": false, "trial_id": "mdp_trial_21", "block": "test", "trialIndex": 26, "score": 89.1, "costs": -6.9, "simulationMode": [null, null, null, null, null], "rewards": [2, 3, 8, 14, 69], "path": ["0", "0", "1", "2", "3", "4", "5"], "rt": [12206, 84, 131, 65, 128], "actions": ["up", "up", "up", "right", "up"], "actionTimes": [13677, 14276, 14925, 15508, 16156], "queries": {"click": {"state": {"target": ["1", "2", "3", "4", "5", "6"], "time": [2045, 3448, 4030, 4614, 5929, 9279]}, "edge": {"target": [], "time": []}}, "mouseover": {"state": {"target": ["1", "0", "12", "10", "2", "3", "4", "8", "8", "5", "6"], "time": [1623, 2324, 2740, 2991, 3274, 3774, 4390, 4958, 5295, 5759, 6190]}, "edge": {"target": [], "time": []}}, "mouseout": {"state": {"target": ["0", "1", "0", "12", "10", "2", "3", "4", "3", "8", "8", "3", "4", "5", "6"], "time": [1556, 2274, 2424, 2874, 3178, 3657, 4340, 4858, 4941, 4991, 5374, 5424, 5540, 6124, 11924]}, "edge": {"target": [], "time": []}}}, "displayed_time": "16.68", "trialTime": 17772, "trial_type": "mouselab-mdp", "trial_index": 41, "time_elapsed": 1604312, "internal_node_id": "0.0-4.0-1.0-20.0"}}, {"uniqueid": "w56320192:a96443228", "current_trial": 42, "dateTime": 1691161057428, "trialdata": {"revealed_states": [], "clicked_states": ["1", "2", "3", "8", "9", "11", "4", "5"], "num_clicks_accrued": [0, 0, 0, 0, 0, 0, 0, 0, 0, 0, 0, 0, 0], "stateRewards": ["", 1, 1, 7, -11, 80, -20, -53, -14, 3, 31, 27, 2, -1, -8, -10, 33, 41, 86, 9, 78, -37, -13, -1, -2, -6, -8, -80, 75, 4, -16, -49, -74, 24], "withholdReward": false, "trial_id": "mdp_trial_22", "block": "test", "trialIndex": 27, "score": 67.4, "costs": -10.600000000000001, "simulationMode": [null, null, null, null, null], "rewards": [1, 1, 7, -11, 80], "path": ["0", "0", "1", "2", "3", "4", "5"], "rt": [16143, 78, 101, 114, 82], "actions": ["up", "up", "up", "right", "up"], "actionTimes": [18179, 18776, 19384, 20016, 20616], "queries": {"click": {"state": {"target": ["1", "2", "3", "8", "9", "11", "4", "5"], "time": [2936, 3895, 4436, 5204, 5803, 8990, 12798, 13755]}, "edge": {"target": [], "time": []}}, "mouseover": {"state": {"target": ["1", "2", "3", "8", "9", "11", "4", "3", "8", "11", "10", "2", "4", "5", "7", "4"], "time": [2650, 3613, 4230, 4963, 5597, 6314, 7397, 8197, 8271, 8363, 9397, 9864, 10064, 13514, 14414, 17931]}, "edge": {"target": [], "time": []}}, "mouseout": {"state": {"target": ["18", "12", "1", "2", "3", "3", "8", "9", "9", "8", "11", "8", "3", "4", "3", "8", "11", "10", "2", "4", "5", "4", "7", "4"], "time": [1479, 1579, 3263, 4000, 4535, 4947, 5530, 5910, 6097, 6230, 7297, 7330, 7363, 8130, 8230, 8313, 9264, 9781, 9881, 13414, 14146, 14264, 17883, 17998]}, "edge": {"target": [], "time": []}}}, "displayed_time": "21.13", "trialTime": 21768, "trial_type": "mouselab-mdp", "trial_index": 42, "time_elapsed": 1626333, "internal_node_id": "0.0-4.0-1.0-21.0"}}, {"uniqueid": "w56320192:a96443228", "current_trial": 43, "dateTime": 1691161074577, "trialdata": {"revealed_states": [], "clicked_states": ["1", "23", "24", "25", "30", "26", "27", "29"], "num_clicks_accrued": [0, 0, 0, 0, 0, 0, 0, 0, 0, 0, 0, 0, 0], "stateRewards": ["", -2, 2, -4, -4, -59, 88, 62, -3, 69, -15, -34, 1, -2, -5, 7, -54, -20, 78, -16, -74, -53, -21, 2, -4, 2, 13, -8, -44, 26, 9, 72, 4, 17], "withholdReward": false, "trial_id": "mdp_trial_23", "block": "test", "trialIndex": 28, "score": 30.799999999999997, "costs": -8.200000000000001, "simulationMode": [null, null, null, null, null], "rewards": [2, -4, 2, 13, 26], "path": ["0", "0", "23", "24", "25", "26", "29"], "rt": [11862, 52, 103, 13, 64], "actions": ["left", "left", "left", "up", "left"], "actionTimes": [12910, 13469, 14101, 14629, 15229], "queries": {"click": {"state": {"target": ["1", "23", "24", "25", "30", "26", "27", "29"], "time": [1550, 2406, 3107, 3708, 4214, 4819, 6161, 9423]}, "edge": {"target": [], "time": []}}, "mouseover": {"state": {"target": ["1", "23", "24", "25", "30", "26", "27", "29", "26"], "time": [1369, 2263, 2896, 3496, 4046, 4597, 5981, 6580, 10313]}, "edge": {"target": [], "time": []}}, "mouseout": {"state": {"target": ["2", "1", "0", "1", "23", "23", "24", "25", "30", "25", "26", "26", "25", "25", "26", "27", "29", "26"], "time": [14, 248, 1252, 2063, 2532, 2863, 3429, 3963, 4446, 4564, 4926, 5247, 5480, 5613, 5765, 6413, 9863, 11147]}, "edge": {"target": [], "time": []}}}, "displayed_time": "15.77", "trialTime": 16882, "trial_type": "mouselab-mdp", "trial_index": 43, "time_elapsed": 1643483, "internal_node_id": "0.0-4.0-1.0-22.0"}}, {"uniqueid": "w56320192:a96443228", "current_trial": 44, "dateTime": 1691161092668, "trialdata": {"revealed_states": [], "clicked_states": ["23", "12", "1", "2", "3", "8", "4", "7", "6"], "num_clicks_accrued": [0, 0, 0, 0, 0, 0, 0, 0, 0, 0, 0, 0, 0], "stateRewards": ["", 1, -4, -4, 8, 1, -79, 68, -10, -79, 8, -74, -1, -3, -6, 14, 43, 23, 9, 5, -51, 63, 61, -2, 4, 6, -10, 69, -32, 57, 15, -80, -80, -77], "withholdReward": false, "trial_id": "mdp_trial_24", "block": "test", "trialIndex": 29, "score": 61.05, "costs": -7.950000000000001, "simulationMode": [null, null, null, null, null, null], "rewards": [1, -4, -4, 8, 68], "path": ["0", "0", "1", "2", "3", "4", "7"], "rt": [11005, 1131, 256, 148, 17, 77], "actions": ["up", "up", "up", "up", "right", "down"], "actionTimes": [12266, 13399, 14175, 14831, 15366, 15959], "queries": {"click": {"state": {"target": ["23", "12", "1", "2", "3", "8", "4", "7", "6"], "time": [2042, 2919, 4071, 4658, 5321, 5836, 6313, 6806, 10087]}, "edge": {"target": [], "time": []}}, "mouseover": {"state": {"target": ["0", "23", "0", "12", "1", "2", "3", "8", "4", "7", "6"], "time": [1268, 1829, 2513, 2797, 3914, 4530, 5147, 5647, 6181, 6649, 7430]}, "edge": {"target": [], "time": []}}, "mouseout": {"state": {"target": ["30", "31", "22", "0", "23", "0", "12", "1", "2", "3", "3", "8", "3", "4", "7", "6"], "time": [378, 395, 763, 1546, 2480, 2647, 3347, 4447, 4773, 5427, 5614, 6097, 6147, 6615, 7247, 12597]}, "edge": {"target": [], "time": []}}}, "displayed_time": "16.46", "trialTime": 17822, "trial_type": "mouselab-mdp", "trial_index": 44, "time_elapsed": 1661573, "internal_node_id": "0.0-4.0-1.0-23.0"}}, {"uniqueid": "w56320192:a96443228", "current_trial": 45, "dateTime": 1691161118863, "trialdata": {"revealed_states": [], "clicked_states": ["1", "12", "23", "24", "25", "26", "30", "13", "14", "15", "18", "2", "3", "4", "8", "9"], "num_clicks_accrued": [0, 0, 0, 0, 0, 0, 0, 0, 0, 0, 0, 0, 0], "stateRewards": ["", -1, 1, 8, -8, -49, 62, -78, 16, 28, -81, 78, -2, -3, -1, -4, 67, 49, -2, -13, -16, -39, 83, 1, -4, 4, -5, -20, 7, 84, 7, -32, -59, 19], "withholdReward": false, "trial_id": "mdp_trial_25", "block": "test", "trialIndex": 30, "score": -72.2, "costs": -15.200000000000001, "simulationMode": [null, null, null, null, null, null], "rewards": [-1, 1, 8, 16, -81], "path": ["0", "0", "1", "2", "3", "8", "10"], "rt": [16567, 1114, 186, 118, 69, 159], "actions": ["up", "up", "up", "up", "left", "down"], "actionTimes": [17954, 19071, 19775, 20406, 21007, 21679], "queries": {"click": {"state": {"target": ["1", "12", "23", "24", "25", "26", "30", "13", "14", "15", "18", "2", "3", "4", "8", "9"], "time": [1959, 2845, 3427, 3974, 4558, 5065, 6303, 7359, 7847, 8281, 8710, 11784, 12441, 13815, 14466, 15386]}, "edge": {"target": [], "time": []}}, "mouseover": {"state": {"target": ["1", "12", "0", "23", "24", "25", "26", "30", "31", "12", "13", "13", "14", "15", "18", "19", "1", "2", "3", "4", "8", "9", "11"], "time": [1768, 2635, 3151, 3318, 3818, 4401, 4901, 6151, 6518, 6668, 6718, 7101, 7601, 8152, 8551, 8985, 10085, 10469, 12318, 13701, 14286, 15185, 15902]}, "edge": {"target": [], "time": []}}, "mouseout": {"state": {"target": ["1", "12", "0", "23", "24", "25", "26", "25", "30", "31", "12", "13", "13", "14", "15", "18", "14", "19", "1", "2", "3", "4", "3", "8", "9", "11", "9", "8"], "time": [2584, 3084, 3234, 3785, 4351, 4768, 5368, 5470, 6435, 6535, 6685, 6885, 7535, 7887, 8485, 8902, 8968, 10018, 10102, 12035, 13636, 14168, 14252, 15085, 15635, 20442, 24252, 24386]}, "edge": {"target": [], "time": []}}}, "displayed_time": "22.19", "trialTime": 25935, "trial_type": "mouselab-mdp", "trial_index": 45, "time_elapsed": 1687768, "internal_node_id": "0.0-4.0-1.0-24.0"}}, {"uniqueid": "w56320192:a96443228", "current_trial": 46, "dateTime": 1691161146472, "trialdata": {"revealed_states": [], "clicked_states": ["1", "12", "23", "24", "25", "26", "30", "27", "32", "33"], "num_clicks_accrued": [0, 0, 0, 0, 0, 0, 0, 0, 0, 0, 0, 0, 0], "stateRewards": ["", -1, -1, 4, -16, -75, 81, -51, -7, -84, 73, -30, -2, 1, -3, -16, -77, 33, 14, 1, 45, 87, -66, 2, 2, -5, -7, -19, -17, 79, -3, 8, 49, 47], "withholdReward": false, "trial_id": "mdp_trial_26", "block": "test", "trialIndex": 31, "score": 32.9, "costs": -10.100000000000001, "simulationMode": [null, null, null, null, null], "rewards": [2, 2, -5, -3, 47], "path": ["0", "0", "23", "24", "25", "30", "33"], "rt": [17564, 139, 106, 143, 119], "actions": ["left", "left", "left", "down", "left"], "actionTimes": [23218, 23865, 24481, 25145, 25777], "queries": {"click": {"state": {"target": ["1", "12", "23", "24", "25", "26", "30", "27", "32", "33"], "time": [6690, 7464, 8553, 9567, 10115, 10745, 11348, 12224, 15380, 19566]}, "edge": {"target": [], "time": []}}, "mouseover": {"state": {"target": ["0", "1", "12", "12", "0", "23", "24", "25", "26", "30", "27", "32", "30", "33", "33", "33", "33", "30", "31"], "time": [5957, 6505, 7272, 7422, 8039, 8389, 9005, 10005, 10605, 11222, 12056, 13155, 16039, 16255, 17672, 18022, 18422, 20006, 20923]}, "edge": {"target": [], "time": []}}, "mouseout": {"state": {"target": ["10", "10", "1", "0", "0", "31", "0", "0", "1", "12", "12", "0", "23", "24", "25", "26", "25", "30", "25", "26", "27", "26", "25", "30", "32", "30", "33", "33", "33", "33", "30", "31"], "time": [159, 1505, 1638, 2621, 4322, 4421, 5839, 6040, 7222, 7289, 8022, 8089, 8872, 9888, 10505, 11005, 11155, 11572, 11722, 11789, 12472, 12573, 12655, 12739, 15979, 16055, 16306, 17739, 18206, 19956, 20739, 27078]}, "edge": {"target": [], "time": []}}}, "displayed_time": "26.29", "trialTime": 27332, "trial_type": "mouselab-mdp", "trial_index": 46, "time_elapsed": 1715378, "internal_node_id": "0.0-4.0-1.0-25.0"}}, {"uniqueid": "w56320192:a96443228", "current_trial": 47, "dateTime": 1691161164492, "trialdata": {"revealed_states": [], "clicked_states": ["1", "2", "3", "8", "4", "5", "6"], "num_clicks_accrued": [0, 0, 0, 0, 0, 0, 0, 0, 0, 0, 0, 0, 0], "stateRewards": ["", 1, -3, 4, 13, -72, 52, 5, 5, -58, 5, 14, 2, 1, 3, -14, -86, -4, 73, 6, -58, -50, 49, 2, -3, -4, 2, 33, -41, 42, -11, 81, 45, 53], "withholdReward": false, "trial_id": "mdp_trial_27", "block": "test", "trialIndex": 32, "score": 58.55, "costs": -8.45, "simulationMode": [null, null, null, null, null], "rewards": [1, -3, 4, 13, 52], "path": ["0", "0", "1", "2", "3", "4", "6"], "rt": [12088, 102, 51, 39, 72], "actions": ["up", "up", "up", "right", "right"], "actionTimes": [13340, 13955, 14522, 15090, 15690], "queries": {"click": {"state": {"target": ["1", "2", "3", "8", "4", "5", "6"], "time": [1642, 2460, 2926, 3958, 4533, 6514, 9698]}, "edge": {"target": [], "time": []}}, "mouseover": {"state": {"target": ["1", "0", "0", "2", "3", "10", "8", "4", "7", "5", "3", "10", "6", "6", "7"], "time": [1516, 1983, 2150, 2317, 2783, 3517, 3717, 4350, 4887, 6335, 8418, 8435, 8834, 9067, 10319]}, "edge": {"target": [], "time": []}}, "mouseout": {"state": {"target": ["0", "1", "0", "0", "1", "2", "3", "2", "10", "8", "8", "3", "4", "7", "4", "5", "4", "5", "3", "10", "6", "6", "7"], "time": [1408, 1833, 2000, 2167, 2268, 2716, 3183, 3316, 3600, 3968, 4167, 4284, 4834, 5134, 5500, 6850, 8100, 8416, 8433, 8483, 8851, 9967, 17067]}, "edge": {"target": [], "time": []}}}, "displayed_time": "16.20", "trialTime": 17762, "trial_type": "mouselab-mdp", "trial_index": 47, "time_elapsed": 1733397, "internal_node_id": "0.0-4.0-1.0-26.0"}}, {"uniqueid": "w56320192:a96443228", "current_trial": 48, "dateTime": 1691161185072, "trialdata": {"revealed_states": [], "clicked_states": ["1", "2", "3", "4", "8", "10", "11", "9"], "num_clicks_accrued": [0, 0, 0, 0, 0, 0, 0, 0, 0, 0, 0, 0, 0], "stateRewards": ["", 2, -2, -8, 9, -20, 55, -58, 14, 42, 2, 36, 1, -3, -5, 5, -58, 57, 60, 16, 57, 30, -70, -2, 1, 3, 10, 59, 23, 77, -13, -26, 88, -72], "withholdReward": false, "trial_id": "mdp_trial_28", "block": "test", "trialIndex": 33, "score": 37.4, "costs": -10.6, "simulationMode": [null, null, null, null, null, null], "rewards": [2, -2, -8, 14, 42], "path": ["0", "0", "1", "2", "3", "8", "9"], "rt": [7933, 5353, 143, 101, 802, 142], "actions": ["up", "up", "up", "up", "left", "up"], "actionTimes": [9320, 14676, 15340, 15948, 17268, 17924], "queries": {"click": {"state": {"target": ["1", "2", "3", "4", "8", "10", "11", "9"], "time": [1677, 2545, 3051, 3584, 4086, 4847, 8130, 11257]}, "edge": {"target": [], "time": []}}, "mouseover": {"state": {"target": ["1", "2", "3", "4", "8", "10", "11", "9", "9"], "time": [1494, 2345, 2928, 3447, 3911, 4695, 5378, 8628, 9278]}, "edge": {"target": [], "time": []}}, "mouseout": {"state": {"target": ["1", "1", "1", "1", "2", "3", "4", "3", "8", "10", "11", "9", "9"], "time": [894, 1780, 2028, 2278, 2646, 3395, 3812, 3878, 4628, 5161, 8428, 9062, 12079]}, "edge": {"target": [], "time": []}}}, "displayed_time": "18.43", "trialTime": 20316, "trial_type": "mouselab-mdp", "trial_index": 48, "time_elapsed": 1753977, "internal_node_id": "0.0-4.0-1.0-27.0"}}, {"uniqueid": "w56320192:a96443228", "current_trial": 49, "dateTime": 1691161213287, "trialdata": {"revealed_states": [], "clicked_states": ["12", "13", "14", "23", "24", "25", "1", "2", "3", "4", "8", "26", "30", "19", "15", "16", "17", "18"], "num_clicks_accrued": [0, 0, 0, 0, 0, 0, 0, 0, 0, 0, 0, 0, 0], "stateRewards": ["", 1, 1, -3, 2, 22, -25, -11, -5, 50, 49, 3, 1, -1, 8, 14, -85, -30, 57, -6, -39, -16, 59, -2, -1, 5, 5, 59, -16, 8, 4, 67, 56, -9], "withholdReward": false, "trial_id": "mdp_trial_29", "block": "test", "trialIndex": 34, "score": 60.1, "costs": -18.9, "simulationMode": [null, null, null, null, null], "rewards": [1, -1, 8, 14, 57], "path": ["0", "0", "12", "13", "14", "15", "18"], "rt": [21703, 194, 121, 118, 45], "actions": ["right", "right", "right", "up", "left"], "actionTimes": [23347, 24042, 24666, 25298, 25857], "queries": {"click": {"state": {"target": ["12", "13", "14", "23", "24", "25", "1", "2", "3", "4", "8", "26", "30", "19", "15", "16", "17", "18"], "time": [2310, 3437, 3834, 4870, 5367, 5778, 6412, 6868, 7606, 8254, 9201, 9847, 10403, 11359, 12036, 13344, 16550, 19777]}, "edge": {"target": [], "time": []}}, "mouseover": {"state": {"target": ["12", "0", "23", "23", "0", "13", "14", "23", "23", "24", "25", "1", "2", "3", "4", "8", "26", "25", "30", "31", "19", "14", "15", "16", "17", "15", "18", "18"], "time": [2212, 2677, 2727, 2995, 3029, 3160, 3627, 4144, 4644, 5244, 5661, 6194, 6711, 7428, 8145, 9027, 9628, 10128, 10211, 10645, 11145, 11595, 11711, 13178, 14378, 16744, 16777, 17177]}, "edge": {"target": [], "time": []}}, "mouseout": {"state": {"target": ["12", "12", "0", "23", "23", "0", "13", "14", "13", "12", "23", "23", "24", "25", "1", "2", "2", "3", "3", "4", "3", "8", "26", "25", "30", "31", "19", "14", "15", "15", "16", "15", "17", "15", "18", "18", "13", "22"], "time": [2319, 2610, 2710, 2760, 3027, 3044, 3611, 4044, 4094, 4111, 4178, 5128, 5628, 5977, 6611, 6991, 7378, 7615, 8094, 8461, 8578, 9444, 10078, 10161, 10628, 10678, 11494, 11631, 12661, 13061, 13578, 14227, 16727, 16761, 16794, 26895, 26995, 27045]}, "edge": {"target": [], "time": []}}}, "displayed_time": "26.38", "trialTime": 27946, "trial_type": "mouselab-mdp", "trial_index": 49, "time_elapsed": 1782192, "internal_node_id": "0.0-4.0-1.0-28.0"}}, {"uniqueid": "w56320192:a96443228", "current_trial": 50, "dateTime": 1691161230711, "trialdata": {"revealed_states": [], "clicked_states": ["1", "2", "3", "4", "5", "7"], "num_clicks_accrued": [0, 0, 0, 0, 0, 0, 0, 0, 0, 0, 0, 0, 0], "stateRewards": ["", 1, 2, -3, 6, -88, 74, -45, 7, -46, 40, -77, 1, -4, 4, 3, 22, -25, -59, 8, -83, 19, -60, -1, -1, -1, -8, 26, -29, 64, -7, -88, -51, -55], "withholdReward": false, "trial_id": "mdp_trial_30", "block": "test", "trialIndex": 35, "score": 73.1, "costs": -6.9, "simulationMode": [null, null, null, null, null], "rewards": [1, 2, -3, 6, 74], "path": ["0", "0", "1", "2", "3", "4", "6"], "rt": [9475, 94, 36, 23, 15], "actions": ["up", "up", "up", "right", "right"], "actionTimes": [11042, 11649, 12192, 12728, 13256], "queries": {"click": {"state": {"target": ["1", "2", "3", "4", "5", "7"], "time": [1958, 2663, 3137, 3637, 4087, 7791]}, "edge": {"target": [], "time": []}}, "mouseover": {"state": {"target": ["1", "1", "2", "3", "4", "5", "7", "12", "7", "6"], "time": [1753, 1948, 2536, 3020, 3486, 3987, 5787, 6487, 7571, 8204]}, "edge": {"target": [], "time": []}}, "mouseout": {"state": {"target": ["12", "0", "1", "1", "1", "2", "3", "4", "5", "4", "7", "12", "7", "6"], "time": [619, 1670, 1820, 1972, 2453, 2936, 3437, 3886, 4420, 5453, 6004, 6503, 8070, 12837]}, "edge": {"target": [], "time": []}}}, "displayed_time": "15.57", "trialTime": 17145, "trial_type": "mouselab-mdp", "trial_index": 50, "time_elapsed": 1799616, "internal_node_id": "0.0-4.0-1.0-29.0"}}, {"uniqueid": "w56320192:a96443228", "current_trial": 51, "dateTime": 1691161262308, "trialdata": {"revealed_states": [], "clicked_states": ["1", "23", "12", "13", "14", "15", "19", "16", "21", "17", "18", "20", "22"], "num_clicks_accrued": [0, 0, 0, 0, 0, 0, 0, 0, 0, 0, 0, 0, 0], "stateRewards": ["", -1, 1, -2, 5, 73, 15, 61, 8, 7, 38, 76, 2, 2, -4, -6, -6, -26, 43, -5, -45, -85, -35, -2, 1, -4, 15, -10, 69, 72, -11, 84, -49, -38], "withholdReward": false, "trial_id": "mdp_trial_31", "block": "test", "trialIndex": 36, "score": 20.45, "costs": -16.55, "simulationMode": [null, null, null, null, null], "rewards": [2, 2, -4, -6, 43], "path": ["0", "0", "12", "13", "14", "15", "18"], "rt": [24421, 127, 110, 94, 37], "actions": ["right", "right", "right", "up", "left"], "actionTimes": [26909, 27548, 28164, 28764, 29307], "queries": {"click": {"state": {"target": ["1", "23", "12", "13", "14", "15", "19", "16", "21", "17", "18", "20", "22"], "time": [2958, 3433, 4365, 5101, 5614, 6084, 6569, 7486, 10667, 14006, 17200, 20606, 23785]}, "edge": {"target": [], "time": []}}, "mouseover": {"state": {"target": ["1", "23", "12", "13", "14", "13", "14", "15", "19", "16", "21", "17", "13", "13", "18", "20", "19", "22", "13", "13", "22", "21", "22", "13", "18"], "time": [2784, 3317, 4117, 4618, 4870, 4934, 5434, 5917, 6468, 7184, 8068, 12018, 14534, 14718, 14868, 18901, 21235, 21735, 21819, 22735, 22753, 22802, 23135, 24118, 24952]}, "edge": {"target": [], "time": []}}, "mouseout": {"state": {"target": ["0", "0", "1", "23", "12", "13", "14", "13", "14", "15", "14", "19", "14", "15", "16", "15", "14", "19", "21", "17", "13", "13", "18", "20", "19", "22", "13", "13", "22", "21", "22", "13", "18", "12"], "time": [1983, 2643, 3202, 3634, 4601, 4634, 4918, 5351, 5784, 6284, 6402, 6727, 7051, 7118, 7768, 7918, 7985, 8051, 11303, 14436, 14551, 14801, 17635, 21185, 21285, 21785, 21835, 22752, 22768, 22885, 24085, 24135, 30302, 30368]}, "edge": {"target": [], "time": []}}}, "displayed_time": "29.82", "trialTime": 31307, "trial_type": "mouselab-mdp", "trial_index": 51, "time_elapsed": 1831213, "internal_node_id": "0.0-4.0-1.0-30.0"}}, {"uniqueid": "w56320192:a96443228", "current_trial": 52, "dateTime": 1691161291135, "trialdata": {"revealed_states": [], "clicked_states": ["12", "13", "14", "15", "19", "16", "18", "17", "20"], "num_clicks_accrued": [0, 0, 0, 0, 0, 0, 0, 0, 0, 0, 0, 0, 0], "stateRewards": ["", -2, -3, 7, -13, 60, 9, 37, -6, 37, 20, 1, 2, -2, -8, 6, -80, -31, -10, -7, 70, -65, -44, -1, 1, 7, 6, -11, 73, -85, 16, -21, 47, 34], "withholdReward": false, "trial_id": "mdp_trial_32", "block": "test", "trialIndex": 37, "score": -45.75, "costs": -12.75, "simulationMode": [null, null, null, null, null], "rewards": [2, -2, -8, 6, -31], "path": ["0", "0", "12", "13", "14", "15", "17"], "rt": [18738, 86, 678, 223, 2705], "actions": ["right", "right", "right", "up", "right"], "actionTimes": [19938, 20529, 21721, 22449, 25665], "queries": {"click": {"state": {"target": ["12", "13", "14", "15", "19", "16", "18", "17", "20"], "time": [1596, 2684, 3163, 3582, 4086, 5207, 8468, 11941, 16384]}, "edge": {"target": [], "time": []}}, "mouseover": {"state": {"target": ["12", "19", "13", "14", "15", "19", "16", "18", "15", "18", "18", "15", "17", "17", "19", "19", "20", "19", "21"], "time": [1476, 2224, 2527, 2957, 3445, 3957, 5024, 5541, 7524, 7891, 8258, 8924, 8974, 9407, 15691, 15859, 16192, 17308, 19476]}, "edge": {"target": [], "time": []}}, "mouseout": {"state": {"target": ["0", "12", "19", "13", "14", "15", "14", "19", "14", "15", "16", "18", "15", "18", "18", "18", "15", "17", "17", "17", "19", "19", "20", "19", "21"], "time": [1363, 1840, 2340, 2890, 3340, 3774, 3890, 4203, 4690, 4790, 5441, 7441, 7541, 7924, 8476, 8891, 8957, 9008, 13441, 15508, 15741, 15874, 16741, 18475, 26108]}, "edge": {"target": [], "time": []}}}, "displayed_time": "26.18", "trialTime": 28537, "trial_type": "mouselab-mdp", "trial_index": 52, "time_elapsed": 1860039, "internal_node_id": "0.0-4.0-1.0-31.0"}}, {"uniqueid": "w56320192:a96443228", "current_trial": 53, "dateTime": 1691161308343, "trialdata": {"revealed_states": [], "clicked_states": ["1", "2", "3", "4", "8", "9"], "num_clicks_accrued": [0, 0, 0, 0, 0, 0, 0, 0, 0, 0, 0, 0, 0], "stateRewards": ["", 2, -3, -5, 5, 11, -9, -33, 6, 67, 6, -30, -1, -2, -6, 13, 55, 13, 72, -14, 75, 21, -66, -2, -4, 6, 15, -1, -35, 60, 2, 51, -73, 12], "withholdReward": false, "trial_id": "mdp_trial_33", "block": "test", "trialIndex": 38, "score": 60.7, "costs": -6.299999999999999, "simulationMode": [null, null, null, null, null], "rewards": [2, -3, -5, 6, 67], "path": ["0", "0", "1", "2", "3", "8", "9"], "rt": [7857, 24, 610, 120, 150], "actions": ["up", "up", "up", "left", "up"], "actionTimes": [10401, 10946, 12079, 12704, 13368], "queries": {"click": {"state": {"target": ["1", "2", "3", "4", "8", "9"], "time": [3837, 4419, 4884, 5364, 5874, 6830]}, "edge": {"target": [], "time": []}}, "mouseover": {"state": {"target": ["1", "1", "2", "3", "4", "4", "8", "9", "11", "11", "10"], "time": [3203, 3671, 4233, 4786, 5207, 5350, 5717, 6588, 7284, 8183, 8484]}, "edge": {"target": [], "time": []}}, "mouseout": {"state": {"target": ["0", "1", "1", "2", "3", "4", "4", "3", "8", "4", "9", "8", "11", "11", "10", "10"], "time": [2788, 3233, 4133, 4699, 5186, 5266, 5570, 5683, 6134, 6383, 7050, 7250, 7334, 8434, 10250, 13900]}, "edge": {"target": [], "time": []}}}, "displayed_time": "16.54", "trialTime": 16936, "trial_type": "mouselab-mdp", "trial_index": 53, "time_elapsed": 1877247, "internal_node_id": "0.0-4.0-1.0-32.0"}}, {"uniqueid": "w56320192:a96443228", "current_trial": 54, "dateTime": 1691161336255, "trialdata": {"revealed_states": [], "clicked_states": ["1", "23", "12", "13", "14", "15", "19", "16", "21", "20", "18", "17"], "num_clicks_accrued": [0, 0, 0, 0, 0, 0, 0, 0, 0, 0, 0, 0, 0], "stateRewards": ["", -2, -1, 3, -3, 71, -58, -21, 7, -10, -75, -37, 2, 4, -1, -12, -79, -29, -48, 3, -41, -10, -30, -1, -2, 1, -15, 13, 66, 22, -1, -42, -86, -55], "withholdReward": false, "trial_id": "mdp_trial_34", "block": "test", "trialIndex": 39, "score": -36.400000000000006, "costs": -14.400000000000002, "simulationMode": [null, null, null, null, null], "rewards": [2, 4, -1, 3, -30], "path": ["0", "0", "12", "13", "14", "19", "22"], "rt": [21319, 480, 144, 33, 303], "actions": ["right", "right", "right", "down", "left"], "actionTimes": [22600, 23591, 24255, 24794, 25615], "queries": {"click": {"state": {"target": ["1", "23", "12", "13", "14", "15", "19", "16", "21", "20", "18", "17"], "time": [1630, 2106, 2668, 3243, 4098, 4610, 5236, 6201, 9519, 12736, 15942, 19160]}, "edge": {"target": [], "time": []}}, "mouseover": {"state": {"target": ["1", "23", "12", "13", "14", "15", "19", "16", "21", "20", "19", "22", "13", "18", "17", "20", "19", "22", "22"], "time": [1478, 2025, 2580, 3108, 3975, 4475, 5125, 6025, 7042, 10309, 13226, 13276, 13926, 14010, 17810, 19676, 20010, 20093, 20760]}, "edge": {"target": [], "time": []}}, "mouseout": {"state": {"target": ["23", "0", "1", "23", "12", "13", "14", "15", "14", "19", "14", "15", "16", "15", "14", "19", "21", "20", "19", "22", "13", "18", "17", "20", "19", "22", "22"], "time": [759, 1290, 1875, 2161, 2677, 3509, 4308, 4875, 4975, 5608, 5725, 5875, 6392, 6458, 6525, 6592, 10042, 13176, 13259, 13843, 13959, 16410, 19393, 19944, 20076, 20193, 21044]}, "edge": {"target": [], "time": []}}}, "displayed_time": "26.13", "trialTime": 27639, "trial_type": "mouselab-mdp", "trial_index": 54, "time_elapsed": 1905160, "internal_node_id": "0.0-4.0-1.0-33.0"}}, {"uniqueid": "w56320192:a96443228", "current_trial": 55, "dateTime": 1691161354167, "trialdata": {"revealed_states": [], "clicked_states": ["1", "2", "3", "4", "11", "8"], "num_clicks_accrued": [0, 0, 0, 0, 0, 0, 0, 0, 0, 0, 0, 0, 0], "stateRewards": ["", 2, 4, 4, 9, -88, -10, 44, 16, -54, 64, 78, 1, 2, 5, 16, 80, 36, 7, -4, 9, -47, -70, -1, -3, 6, -16, 11, 80, 28, 8, -1, 34, -17], "withholdReward": false, "trial_id": "mdp_trial_35", "block": "test", "trialIndex": 40, "score": -13.3, "costs": -6.3, "simulationMode": [null, null, null, null, null], "rewards": [-1, -3, 6, 8, -17], "path": ["0", "0", "23", "24", "25", "30", "33"], "rt": [7051, 2014, 235, 261, 149], "actions": ["left", "left", "left", "down", "left"], "actionTimes": [9455, 11999, 12752, 13527, 14183], "queries": {"click": {"state": {"target": ["1", "2", "3", "4", "11", "8"], "time": [3187, 3798, 4310, 4798, 5283, 8524]}, "edge": {"target": [], "time": []}}, "mouseover": {"state": {"target": ["1", "2", "3", "4", "8", "11", "8", "8"], "time": [2931, 3648, 4198, 4682, 5048, 5098, 5433, 5782]}, "edge": {"target": [], "time": []}}, "mouseout": {"state": {"target": ["28", "23", "12", "0", "1", "2", "3", "4", "3", "8", "11", "8", "3", "8", "10"], "time": [1448, 1664, 1947, 2859, 3598, 3938, 4648, 4982, 5032, 5082, 5402, 5468, 5665, 10399, 10499]}, "edge": {"target": [], "time": []}}}, "displayed_time": "16.41", "trialTime": 17639, "trial_type": "mouselab-mdp", "trial_index": 55, "time_elapsed": 1923072, "internal_node_id": "0.0-4.0-1.0-34.0"}}, {"uniqueid": "w56320192:a96443228", "current_trial": 56, "dateTime": 1691161382720, "trialdata": {"revealed_states": [], "clicked_states": ["1", "23", "24", "25", "30", "26", "27", "29", "33", "32"], "num_clicks_accrued": [0, 0, 0, 0, 0, 0, 0, 0, 0, 0, 0, 0, 0], "stateRewards": ["", -2, -3, 8, 14, -73, 73, 84, -12, -2, -50, -17, 2, 1, -2, -9, -44, -27, -33, 16, -63, -47, -66, -2, 1, 4, -5, -33, -11, 50, 9, 38, -79, 31], "withholdReward": false, "trial_id": "mdp_trial_36", "block": "test", "trialIndex": 41, "score": 35.5, "costs": -12.500000000000002, "simulationMode": [null, null, null, null, null], "rewards": [-2, 1, 4, -5, 50], "path": ["0", "0", "23", "24", "25", "26", "29"], "rt": [19634, 122, 47, 115, 4], "actions": ["left", "left", "left", "up", "left"], "actionTimes": [24419, 25058, 25617, 26266, 26771], "queries": {"click": {"state": {"target": ["1", "23", "24", "25", "30", "26", "27", "29", "33", "32"], "time": [5476, 6286, 6889, 8604, 9715, 10473, 11207, 14768, 17909, 21290]}, "edge": {"target": [], "time": []}}, "mouseover": {"state": {"target": ["1", "23", "24", "25", "25", "30", "26", "27", "25", "29", "33", "32", "30", "31"], "time": [5332, 6133, 6700, 7916, 8412, 9517, 10066, 10933, 12099, 13566, 16599, 19533, 21766, 21983]}, "edge": {"target": [], "time": []}}, "mouseout": {"state": {"target": ["1", "0", "1", "23", "24", "24", "25", "25", "24", "30", "25", "26", "27", "26", "25", "30", "29", "33", "32", "30"], "time": [3281, 4449, 6083, 6405, 7232, 7488, 7999, 8966, 9299, 9933, 10016, 10579, 11449, 11799, 12199, 12383, 15433, 19316, 21700, 21799]}, "edge": {"target": [], "time": []}}}, "displayed_time": "27.30", "trialTime": 28275, "trial_type": "mouselab-mdp", "trial_index": 56, "time_elapsed": 1951624, "internal_node_id": "0.0-4.0-1.0-35.0"}}, {"uniqueid": "w56320192:a96443228", "current_trial": 57, "dateTime": 1691161400751, "trialdata": {"revealed_states": [], "clicked_states": ["1", "2", "3", "4", "8", "11", "9"], "num_clicks_accrued": [0, 0, 0, 0, 0, 0, 0, 0, 0, 0, 0, 0, 0], "stateRewards": ["", 2, -4, 1, -12, -59, -53, -74, 16, -88, -66, 66, 1, -2, 8, -9, -14, 22, 25, -1, -39, 47, -14, -1, -1, -2, 1, -4, 52, -26, 15, -7, 46, 43], "withholdReward": false, "trial_id": "mdp_trial_37", "block": "test", "trialIndex": 42, "score": 72.55, "costs": -8.45, "simulationMode": [null, null, null, null, null], "rewards": [2, -4, 1, 16, 66], "path": ["0", "0", "1", "2", "3", "8", "11"], "rt": [10700, 154, 71, 23, 530], "actions": ["up", "up", "up", "left", "left"], "actionTimes": [13640, 14311, 14895, 15446, 16487], "queries": {"click": {"state": {"target": ["1", "2", "3", "4", "8", "11", "9"], "time": [3443, 4281, 5038, 5497, 6112, 7219, 10493]}, "edge": {"target": [], "time": []}}, "mouseover": {"state": {"target": ["1", "2", "3", "4", "8", "11", "9", "9", "8", "10"], "time": [3340, 4104, 4871, 5355, 5938, 7021, 7588, 9571, 10854, 11038]}, "edge": {"target": [], "time": []}}, "mouseout": {"state": {"target": ["31", "21", "0", "1", "2", "3", "4", "3", "8", "11", "9", "9", "8", "10"], "time": [1720, 2087, 3090, 3954, 4471, 5304, 5738, 5871, 6421, 7471, 8438, 10738, 10971, 16838]}, "edge": {"target": [], "time": []}}}, "displayed_time": "17.01", "trialTime": 17743, "trial_type": "mouselab-mdp", "trial_index": 57, "time_elapsed": 1969656, "internal_node_id": "0.0-4.0-1.0-36.0"}}, {"uniqueid": "w56320192:a96443228", "current_trial": 58, "dateTime": 1691161421695, "trialdata": {"revealed_states": [], "clicked_states": ["1", "12", "23", "25", "24", "13", "14", "15", "18", "2", "3", "8", "11"], "num_clicks_accrued": [0, 0, 0, 0, 0, 0, 0, 0, 0, 0, 0, 0, 0], "stateRewards": ["", -1, 2, 7, 8, 75, 67, -11, 6, 52, -17, 38, -1, 4, -8, 14, 74, -37, -17, -12, 52, 55, 71, -2, -1, -5, 2, 21, 6, -88, -14, 64, -61, -47], "withholdReward": false, "trial_id": "mdp_trial_38", "block": "test", "trialIndex": 43, "score": 41.45, "costs": -10.55, "simulationMode": [null, null, null, null, null], "rewards": [-1, 2, 7, 6, 38], "path": ["0", "0", "1", "2", "3", "8", "11"], "rt": [13877, 73, 73, 42, 789], "actions": ["up", "up", "up", "left", "left"], "actionTimes": [15604, 16199, 16783, 17318, 18615], "queries": {"click": {"state": {"target": ["1", "12", "23", "25", "24", "13", "14", "15", "18", "2", "3", "8", "11"], "time": [2310, 2781, 3966, 4392, 4884, 5540, 5968, 6487, 6940, 10183, 10671, 11448, 12247]}, "edge": {"target": [], "time": []}}, "mouseover": {"state": {"target": ["1", "12", "13", "13", "0", "23", "24", "25", "24", "0", "13", "14", "15", "18", "1", "2", "2", "3", "8", "11", "9"], "time": [1875, 2590, 3174, 3490, 3590, 3823, 4223, 4290, 4590, 5207, 5324, 5790, 6323, 6773, 7607, 8057, 10008, 10508, 11240, 12007, 14441]}, "edge": {"target": [], "time": []}}, "mouseout": {"state": {"target": ["10", "2", "1", "1", "12", "13", "13", "12", "0", "23", "23", "24", "25", "24", "23", "0", "12", "13", "14", "15", "18", "1", "2", "2", "3", "3", "8", "11", "8", "9"], "time": [295, 922, 989, 2473, 3157, 3207, 3524, 3573, 3740, 4078, 4207, 4257, 4511, 5124, 5190, 5240, 5307, 5740, 6190, 6707, 7507, 7624, 9790, 10390, 10820, 11023, 11974, 12557, 14291, 16507]}, "edge": {"target": [], "time": []}}}, "displayed_time": "19.13", "trialTime": 20655, "trial_type": "mouselab-mdp", "trial_index": 58, "time_elapsed": 1990600, "internal_node_id": "0.0-4.0-1.0-37.0"}}, {"uniqueid": "w56320192:a96443228", "current_trial": 59, "dateTime": 1691161440006, "trialdata": {"revealed_states": [], "clicked_states": ["1", "2", "3", "4", "8", "5", "9"], "num_clicks_accrued": [0, 0, 0, 0, 0, 0, 0, 0, 0, 0, 0, 0, 0], "stateRewards": ["", 2, 3, 3, 10, 19, -21, 6, 9, 54, 68, 16, 2, 2, -6, -8, 40, -2, -75, -2, -42, 55, 59, -1, 2, 4, -14, 11, -34, -30, -6, 61, -53, 13], "withholdReward": false, "trial_id": "mdp_trial_39", "block": "test", "trialIndex": 44, "score": 62.55, "costs": -8.45, "simulationMode": [null, null, null, null, null], "rewards": [2, 3, 3, 9, 54], "path": ["0", "0", "1", "2", "3", "8", "9"], "rt": [10430, 153, 88, 6, 90], "actions": ["up", "up", "up", "left", "up"], "actionTimes": [13029, 13699, 14300, 14822, 15420], "queries": {"click": {"state": {"target": ["1", "2", "3", "4", "8", "5", "9"], "time": [3141, 3811, 4234, 4630, 5124, 5735, 9174]}, "edge": {"target": [], "time": []}}, "mouseover": {"state": {"target": ["1", "2", "3", "4", "8", "5", "9", "11"], "time": [2945, 3627, 4044, 4478, 4978, 5611, 6150, 10211]}, "edge": {"target": [], "time": []}}, "mouseout": {"state": {"target": ["11", "10", "1", "1", "1", "2", "3", "4", "8", "5", "9", "11"], "time": [1660, 1726, 2027, 3250, 3577, 3820, 4340, 4646, 5252, 6011, 9811, 16328]}, "edge": {"target": [], "time": []}}}, "displayed_time": "16.60", "trialTime": 18020, "trial_type": "mouselab-mdp", "trial_index": 59, "time_elapsed": 2008912, "internal_node_id": "0.0-4.0-1.0-38.0"}}, {"uniqueid": "w56320192:a96443228", "current_trial": 60, "dateTime": 1691161458447, "trialdata": {"revealed_states": [], "clicked_states": ["1", "2", "3", "4", "5", "6", "7"], "num_clicks_accrued": [0, 0, 0, 0, 0, 0, 0, 0, 0, 0, 0, 0, 0], "stateRewards": ["", 2, -3, -2, 14, -4, 85, 46, 15, -28, 41, 31, -1, -1, -1, 5, 62, 79, 57, 12, -73, -64, 86, -1, 1, -3, -5, 68, 11, -32, 8, -80, -21, -56], "withholdReward": false, "trial_id": "mdp_trial_40", "block": "test", "trialIndex": 45, "score": 86.95, "costs": -9.05, "simulationMode": [null, null, null, null, null], "rewards": [2, -3, -2, 14, 85], "path": ["0", "0", "1", "2", "3", "4", "6"], "rt": [12675, 120, 55, 15, 18], "actions": ["up", "up", "up", "right", "right"], "actionTimes": [14145, 14776, 15328, 15871, 16407], "queries": {"click": {"state": {"target": ["1", "2", "3", "4", "5", "6", "7"], "time": [1828, 2880, 3318, 3754, 4461, 7638, 10883]}, "edge": {"target": [], "time": []}}, "mouseover": {"state": {"target": ["1", "2", "3", "4", "5", "6", "7"], "time": [1638, 2704, 3172, 3571, 4337, 5787, 8021]}, "edge": {"target": [], "time": []}}, "mouseout": {"state": {"target": ["0", "1", "1", "2", "3", "4", "3", "5", "4", "6", "7", "6"], "time": [969, 2104, 2304, 3021, 3520, 3987, 4171, 4737, 4887, 7938, 12071, 13056]}, "edge": {"target": [], "time": []}}}, "displayed_time": "16.92", "trialTime": 18153, "trial_type": "mouselab-mdp", "trial_index": 60, "time_elapsed": 2027352, "internal_node_id": "0.0-4.0-1.0-39.0"}}, {"uniqueid": "w56320192:a96443228", "current_trial": 61, "dateTime": 1691161541161, "trialdata": {"rt": 82708, "response": {"Q0": "$-2 to $2", "Q1": "$-4 to $4", "Q2": "$-16 to $16", "Q3": "The cost for clicking on nodes varied between nodes.", "Q4": "Slightly motivated"}, "question_order": [0, 1, 2, 3, 4], "trial_id": "final_quiz_control", "trial_type": "survey-multi-choice", "trial_index": 61, "time_elapsed": 2110066, "internal_node_id": "0.0-4.0-2.0"}}, {"uniqueid": "w56320192:a96443228", "current_trial": 62, "dateTime": 1691161621153, "trialdata": {"rt": 79986, "response": {"Q0": "clicking fast and looking for green. high green at the end nodes", "Q1": "i started skipping nodes that didnt need to be clicked ", "Q2": "not difficult after the task started"}, "trial_id": "self_report_control", "trial_type": "survey-text", "trial_index": 62, "time_elapsed": 2190059, "internal_node_id": "0.0-4.0-3.0"}}, {"uniqueid": "w56320192:a96443228", "current_trial": 63, "dateTime": 1691161664435, "trialdata": {"rt": 43279, "response": {"Q0": "Agree", "Q1": "Agree", "Q2": "Neither disagree nor agree", "Q3": "Agree", "Q4": "Neither disagree nor agree", "Q5": "Strongly agree", "Q6": "Disagree"}, "question_order": [0, 1, 2, 3, 4, 5, 6], "trial_id": "self_report_2", "trial_type": "survey-multi-choice", "trial_index": 63, "time_elapsed": 2233341, "internal_node_id": "0.0-4.0-4.0"}}, {"uniqueid": "w56320192:a96443228", "current_trial": 64, "dateTime": 1691161690018, "trialdata": {"rt": 25578, "response": {"gender": "male", "age": "33", "colorblind": "0", "effort": "0"}, "trial_type": "survey-html-form", "trial_index": 64, "time_elapsed": 2258924, "internal_node_id": "0.0-4.0-5.0"}}, {"uniqueid": "w56320192:a96443228", "current_trial": 65, "dateTime": 1691161720377, "trialdata": {"rt": 30354, "response": {"Q0": "nope", "Q1": "no", "Q2": "na"}, "trial_type": "survey-text", "trial_index": 65, "time_elapsed": 2289282, "internal_node_id": "0.0-4.0-6.0"}}, {"uniqueid": "w56320192:a96443228", "current_trial": 66, "dateTime": 1691161722032, "trialdata": {"rt": 1652, "stimulus": "Press 'Finish HIT' in order to reach the completion code. Once the data has been saved, you will receive the code either in this window or in the original browser window where you started the experiment.\n", "response": 0, "trial_type": "html-button-response", "trial_index": 66, "time_elapsed": 2290938, "internal_node_id": "0.0-5.0"}}, {"uniqueid": "w56320192:a96443228", "current_trial": 67, "dateTime": 1691161723035, "trialdata": {"success": true, "trial_type": "fullscreen", "trial_index": 67, "time_elapsed": 2291941, "internal_node_id": "0.0-6.0"}}], "questiondata": {"params": {"CODE": "C6DMOQA6", "MIN_TIME": 14, "inspectCost": 1, "startTime": "Fri Aug 04 2023 16:30:29 GMT+0200 (South Africa Standard Time)", "bonusRate": 0.002, "variance": "1_2_4_8_44", "branching": "31123"}, "final_score": 1679.6}, "eventdata": [{"eventtype": "initialized", "value": null, "timestamp": 1691159428687, "interval": 0}, {"eventtype": "window_resize", "value": [1474, 768], "timestamp": 1691159428687, "interval": 0}, {"eventtype": "window_resize", "value": [1474, 768], "timestamp": 1691159429168, "interval": 481}, {"eventtype": "window_resize", "value": [1474, 822], "timestamp": 1691159436618, "interval": 7450}, {"eventtype": "focus", "value": "off", "timestamp": 1691160080540, "interval": 643922}, {"eventtype": "focus", "value": "on", "timestamp": 1691160080540, "interval": 0}, {"eventtype": "window_resize", "value": [1474, 768], "timestamp": 1691160080753, "interval": 213}, {"eventtype": "window_resize", "value": [1474, 822], "timestamp": 1691160083504, "interval": 2751}, {"eventtype": "focus", "value": "off", "timestamp": 1691160314829, "interval": 231325}, {"eventtype": "focus", "value": "on", "timestamp": 1691160314829, "interval": 0}, {"eventtype": "window_resize", "value": [1474, 768], "timestamp": 1691160315037, "interval": 208}, {"eventtype": "window_resize", "value": [1474, 822], "timestamp": 1691160316817, "interval": 1780}, {"eventtype": "window_resize", "value": [1474, 768], "timestamp": 1691161722301, "interval": 1405484}], "useragent": "Mozilla/5.0 (Windows NT 10.0; Win64; x64) AppleWebKit/537.36 (KHTML, like Gecko) Chrome/115.0.0.0 Safari/537.36", "mode": "live", "id": "w56320192:a96443228", "status": "user data saved", "Beginhit": "2023-08-04 14:30:25.505927", "Beginexp": "2023-08-04 14:30:36.957357", "Endhit": "2023-08-04 15:08:43.432601", "psiturkStatus": 3, "browser": "<redacted>", "platform": "windows", "language": "en-GB"}