{"condition": 0, "counterbalance": 0, "assignmentId": "a58692795", "workerId": "w35031936", "hitId": "h93121137", "currenttrial": 59, "bonus": 0, "data": [{"uniqueid": "w35031936:a58692795", "current_trial": 0, "dateTime": 1693565709524, "trialdata": {"success": true, "trial_type": "fullscreen", "trial_index": 0, "time_elapsed": 7020, "internal_node_id": "0.0-0.0"}}, {"uniqueid": "w35031936:a58692795", "current_trial": 1, "dateTime": 1693565739101, "trialdata": {"view_history": [{"page_index": 0, "viewing_time": 29547}], "rt": 29550, "trial_id": "exp_instructions_control", "trial_type": "instructions", "trial_index": 1, "time_elapsed": 36598, "internal_node_id": "0.0-1.0"}}, {"uniqueid": "w35031936:a58692795", "current_trial": 2, "dateTime": 1693566447119, "trialdata": {"view_history": [{"page_index": 0, "viewing_time": 391609}, {"page_index": 1, "viewing_time": 159372}, {"page_index": 2, "viewing_time": 34567}, {"page_index": 3, "viewing_time": 122468}], "rt": 708018, "trial_id": "mouselab_instructions_1_control", "trial_type": "instructions", "trial_index": 2, "time_elapsed": 744615, "internal_node_id": "0.0-2.0-1.0"}}, {"uniqueid": "w35031936:a58692795", "current_trial": 3, "dateTime": 1693566575667, "trialdata": {"revealed_states": [], "clicked_states": ["1", "2", "10", "3", "7", "12", "13", "14", "15", "19", "21", "22", "20", "23", "24", "30", "32", "25", "26", "27", "29", "28", "31", "33", "11", "8", "5", "4", "6", "9", "16", "18", "17"], "num_clicks_accrued": [0, 0, 0, 0, 0, 0, 0, 0, 0, 0, 0, 0, 0], "stateRewards": ["", 10, 10, 10, 10, 10, -10, 10, -10, -10, 10, -10, -10, -10, -10, -10, -10, 10, -10, 10, -10, 10, 10, 10, -10, -10, 10, -10, 10, 10, 10, -10, -10, -10], "withholdReward": false, "trial_id": "practice_1", "block": "test", "trialIndex": 0, "score": -63, "costs": -16.5, "simulationMode": [null, null, null, null, null], "rewards": [-10, -10, -10, -10, -10], "path": ["0", "0", "12", "13", "14", "15", "16"], "rt": [97194, 598, 303, 1525, 3705], "actions": ["right", "right", "right", "up", "up"], "actionTimes": [106963, 108108, 108960, 111014, 115254], "queries": {"click": {"state": {"target": ["1", "2", "10", "3", "7", "12", "13", "14", "15", "19", "21", "22", "20", "23", "24", "30", "32", "25", "26", "27", "29", "28", "31", "33", "11", "8", "5", "4", "6", "9", "16", "18", "17"], "time": [14937, 17601, 18678, 20865, 23189, 24895, 28851, 30052, 31499, 33135, 34466, 35668, 36988, 38988, 40946, 42920, 44511, 52236, 53347, 54429, 55555, 56960, 66053, 67474, 68939, 71062, 73016, 74186, 75782, 77340, 78455, 79670, 82220]}, "edge": {"target": [], "time": []}}, "mouseover": {"state": {"target": ["0", "1", "2", "10", "8", "3", "4", "7", "12", "12", "13", "14", "15", "19", "21", "22", "20", "31", "24", "23", "23", "24", "25", "30", "32", "19", "20", "20", "12", "24", "25", "26", "27", "29", "28", "1", "12", "13", "13", "12", "0", "23", "31", "30", "33", "25", "11", "8", "8", "9", "5", "4", "6", "9", "16", "18", "17", "20", "19", "12", "0", "0", "12", "13", "20"], "time": [13477, 14355, 15528, 18226, 19187, 20456, 21408, 22847, 24021, 24427, 28386, 29650, 31059, 32445, 34027, 35149, 36550, 37635, 38035, 38135, 38609, 39543, 41374, 42435, 44007, 45160, 45222, 48029, 48317, 50079, 51852, 52844, 53888, 55006, 56367, 58163, 60330, 61332, 63645, 64296, 64381, 64462, 64877, 66678, 66867, 67946, 68551, 69352, 70775, 71442, 72396, 73666, 75424, 76893, 77869, 79188, 80205, 85806, 85859, 86140, 86275, 86624, 92438, 96922, 97109]}, "edge": {"target": [], "time": []}}, "mouseout": {"state": {"target": ["0", "1", "1", "0", "1", "2", "10", "8", "3", "4", "7", "7", "12", "12", "13", "14", "15", "14", "19", "19", "21", "22", "19", "20", "31", "24", "23", "23", "24", "25", "30", "32", "19", "20", "20", "12", "24", "25", "26", "27", "29", "26", "28", "1", "12", "13", "13", "12", "0", "23", "31", "30", "33", "25", "11", "8", "8", "9", "5", "4", "6", "9", "16", "18", "17", "20", "19", "12", "0", "0", "12", "13", "20"], "time": [1158, 1236, 4608, 13621, 15329, 18174, 19139, 20186, 21278, 22231, 23325, 23941, 24126, 25871, 29363, 30721, 32261, 32370, 33244, 33866, 35025, 36149, 36404, 37462, 37752, 38118, 38185, 39406, 41306, 42181, 43970, 45024, 45208, 45476, 48069, 48353, 50982, 52756, 53840, 54959, 56170, 56278, 58048, 59924, 61282, 63438, 63779, 64338, 64414, 64825, 66636, 66721, 67900, 67992, 69185, 70134, 71190, 72152, 73437, 75202, 75899, 77765, 78880, 79787, 83430, 85844, 85888, 86190, 86317, 91918, 96890, 96982, 97181]}, "edge": {"target": [], "time": []}}}, "displayed_time": "115.81", "trialTime": 126341, "trial_type": "mouselab-mdp", "trial_index": 3, "time_elapsed": 873162, "internal_node_id": "0.0-2.0-2.0-0.0"}}, {"uniqueid": "w35031936:a58692795", "current_trial": 4, "dateTime": 1693566667047, "trialdata": {"revealed_states": [], "clicked_states": ["1", "2", "10", "3", "4", "7", "5", "6", "8", "11", "9", "23", "24", "25", "26", "27", "29", "28", "33", "30", "31", "32", "12", "13", "14", "15", "16", "17", "18", "19", "22", "21", "20"], "num_clicks_accrued": [0, 0, 0, 0, 0, 0, 0, 0, 0, 0, 0, 0, 0], "stateRewards": ["", 10, -10, -10, 10, 10, 10, 10, -10, -10, -10, 10, -10, -10, -10, -10, -10, -10, -10, -10, -10, 10, -10, 10, 10, 10, 10, -10, 10, 10, 10, 10, 10, -10], "withholdReward": false, "trial_id": "practice_2", "block": "test", "trialIndex": 1, "score": 37, "costs": -16.5, "simulationMode": [null, null, null, null, null], "rewards": [10, 10, 10, 10, 10], "path": ["0", "0", "23", "24", "25", "30", "32"], "rt": [72498, 327, 219, 485, 256], "actions": ["left", "left", "left", "down", "down"], "actionTimes": [78348, 79225, 80003, 81030, 81825], "queries": {"click": {"state": {"target": ["1", "2", "10", "3", "4", "7", "5", "6", "8", "11", "9", "23", "24", "25", "26", "27", "29", "28", "33", "30", "31", "32", "12", "13", "14", "15", "16", "17", "18", "19", "22", "21", "20"], "time": [7906, 9043, 11327, 14856, 17605, 19101, 20510, 23202, 24644, 26032, 27252, 29866, 30960, 32576, 34914, 37089, 39456, 42495, 44320, 45864, 47615, 53740, 58936, 60167, 62275, 63384, 64541, 66076, 67359, 68901, 70011, 71205, 76219]}, "edge": {"target": [], "time": []}}, "mouseover": {"state": {"target": ["2", "1", "2", "10", "8", "3", "4", "7", "5", "6", "4", "3", "8", "11", "9", "2", "23", "24", "25", "26", "27", "29", "26", "28", "30", "33", "30", "31", "22", "19", "20", "32", "30", "24", "23", "0", "12", "12", "12", "13", "14", "15", "16", "17", "18", "19", "22", "21", "20", "20", "12"], "time": [7076, 7478, 8727, 10858, 14161, 14305, 17231, 18203, 20112, 22806, 23827, 23910, 24193, 25333, 26684, 28097, 29305, 30508, 32248, 34435, 36705, 38797, 41171, 41639, 43342, 43574, 45074, 47284, 48811, 48866, 51900, 52927, 55531, 55646, 55798, 55943, 57225, 58024, 58472, 59497, 61907, 62885, 64041, 65638, 66932, 68418, 69445, 70710, 71652, 75703, 77229]}, "edge": {"target": [], "time": []}}, "mouseout": {"state": {"target": ["28", "23", "0", "2", "1", "2", "10", "8", "3", "4", "7", "4", "5", "6", "4", "3", "8", "8", "11", "9", "8", "2", "23", "24", "25", "26", "27", "29", "26", "28", "30", "33", "30", "31", "22", "19", "20", "32", "30", "24", "23", "0", "12", "12", "12", "13", "14", "15", "16", "17", "15", "18", "19", "22", "22", "21", "20", "20", "12"], "time": [4123, 4338, 7032, 7410, 8439, 10741, 12936, 14190, 14981, 18162, 19596, 19696, 21093, 23766, 23882, 23972, 24783, 25221, 26602, 27861, 28011, 28325, 30409, 31485, 34298, 36534, 38634, 41140, 41363, 42614, 43392, 44932, 47056, 48261, 48850, 48910, 51936, 53853, 55562, 55749, 55866, 57143, 57255, 58141, 59453, 60800, 62684, 63892, 65297, 66582, 66732, 67965, 69401, 70156, 70600, 71514, 72441, 76980, 77310]}, "edge": {"target": [], "time": []}}}, "displayed_time": "82.36", "trialTime": 90052, "trial_type": "mouselab-mdp", "trial_index": 4, "time_elapsed": 964539, "internal_node_id": "0.0-2.0-2.0-1.0"}}, {"uniqueid": "w35031936:a58692795", "current_trial": 5, "dateTime": 1693566741236, "trialdata": {"view_history": [{"page_index": 0, "viewing_time": 54839}, {"page_index": 1, "viewing_time": 19323}], "rt": 74163, "trial_id": "mouselab_instructions_2_control", "trial_type": "instructions", "trial_index": 5, "time_elapsed": 1038733, "internal_node_id": "0.0-2.0-3.0"}}, {"uniqueid": "w35031936:a58692795", "current_trial": 6, "dateTime": 1693566807668, "trialdata": {"rt": 66390, "response": {"Q0": "The cost for clicking on nodes may vary between nodes.", "Q1": "The better I perform the higher my bonus will be.", "Q2": "No, the amount of cash at each node of the web may be different each time.", "Q3": "To get the highest total score.", "Q4": "Only after moving the spider.", "Q5": "3 seconds"}, "question_order": [0, 1, 2, 3, 4, 5], "correct": {"Q0": "The cost for clicking on nodes may vary between nodes.", "Q1": "The better I perform the higher my bonus will be.", "Q2": "No, the amount of cash at each node of the web may be different each time.", "Q3": "To get the highest total score.", "Q4": "Only before moving the spider.", "Q5": "3 seconds"}, "trial_id": "mouselab_quiz_control", "trial_type": "survey-multi-choice", "trial_index": 6, "time_elapsed": 1105165, "internal_node_id": "0.0-2.0-4.0"}}, {"uniqueid": "w35031936:a58692795", "current_trial": 7, "dateTime": 1693566832081, "trialdata": {"success": true, "trial_type": "fullscreen", "trial_index": 7, "time_elapsed": 1129577, "internal_node_id": "0.0-2.1-0.1-0.1"}}, {"uniqueid": "w35031936:a58692795", "current_trial": 8, "dateTime": 1693567194675, "trialdata": {"view_history": [{"page_index": 0, "viewing_time": 112255}, {"page_index": 1, "viewing_time": 128740}, {"page_index": 2, "viewing_time": 35670}, {"page_index": 3, "viewing_time": 85913}], "rt": 362582, "trial_id": "mouselab_instructions_1_control", "trial_type": "instructions", "trial_index": 8, "time_elapsed": 1492171, "internal_node_id": "0.0-2.1-1.1"}}, {"uniqueid": "w35031936:a58692795", "current_trial": 9, "dateTime": 1693567279985, "trialdata": {"revealed_states": [], "clicked_states": ["1", "2", "7", "3", "4", "6", "5", "8", "10", "11", "9", "27", "26", "29", "28", "25", "24", "23", "30", "33", "32", "12", "31", "13", "15", "16", "18", "17", "14", "19", "21", "22", "20"], "num_clicks_accrued": [0, 0, 0, 0, 0, 0, 0, 0, 0, 0, 0, 0, 0], "stateRewards": ["", 10, 10, 10, 10, 10, -10, 10, -10, -10, 10, -10, -10, -10, -10, -10, -10, 10, -10, 10, -10, 10, 10, 10, -10, -10, 10, -10, 10, 10, 10, -10, -10, -10], "withholdReward": false, "trial_id": "practice_1", "block": "test", "trialIndex": 2, "score": 37, "costs": -16.5, "simulationMode": [null, null, null, null, null], "rewards": [10, 10, 10, 10, 10], "path": ["0", "0", "1", "2", "3", "4", "7"], "rt": [60023, 388, 379, 474, 146], "actions": ["up", "up", "up", "right", "down"], "actionTimes": [74329, 75257, 76170, 77191, 77880], "queries": {"click": {"state": {"target": ["1", "2", "7", "3", "4", "6", "5", "8", "10", "11", "9", "27", "26", "29", "28", "25", "24", "23", "30", "33", "32", "12", "31", "13", "15", "16", "18", "17", "14", "19", "21", "22", "20"], "time": [15807, 17155, 18745, 21171, 22841, 24856, 26985, 28818, 30435, 31633, 32939, 34427, 36221, 37842, 38944, 40588, 42075, 44024, 45886, 46957, 48266, 50711, 51827, 54222, 56747, 57800, 59154, 60470, 61734, 62920, 65191, 66681, 68087]}, "edge": {"target": [], "time": []}}, "mouseover": {"state": {"target": ["1", "2", "7", "3", "4", "6", "5", "8", "10", "11", "9", "27", "26", "29", "28", "25", "24", "23", "30", "33", "32", "31", "0", "12", "31", "13", "13", "14", "15", "16", "18", "17", "14", "19", "22", "21", "22", "19", "20", "19", "13", "20", "12", "1"], "time": [15290, 16383, 17996, 20572, 22031, 24306, 26248, 28038, 29720, 31173, 32511, 34010, 35717, 37400, 38449, 39931, 41391, 43593, 45345, 46555, 47556, 48702, 49743, 49898, 51240, 52322, 53815, 54732, 56018, 57257, 58775, 59854, 61249, 62306, 63298, 64624, 65895, 67503, 67703, 69367, 70100, 72556, 73006, 73605]}, "edge": {"target": [], "time": []}}, "mouseout": {"state": {"target": ["14", "17", "15", "1", "2", "7", "2", "3", "4", "6", "5", "8", "10", "11", "9", "27", "27", "26", "26", "29", "26", "28", "25", "24", "23", "30", "33", "32", "31", "0", "12", "31", "12", "13", "13", "14", "15", "16", "18", "17", "14", "19", "22", "21", "22", "22", "19", "20", "19", "22", "13", "20", "12", "1", "7", "16", "15", "14", "14"], "time": [1550, 7090, 7849, 16299, 17902, 19673, 20323, 21948, 24220, 26065, 27729, 29587, 30977, 32048, 33540, 34550, 35563, 36328, 37108, 38216, 38357, 39716, 41208, 42957, 44798, 46387, 47435, 48407, 49663, 49782, 51146, 51957, 52265, 53619, 54639, 55835, 57207, 58489, 59287, 60885, 62144, 63247, 64520, 65596, 66787, 67453, 67551, 69314, 69425, 69523, 70147, 72621, 73089, 80689, 80804, 81102, 81237, 81324, 82325]}, "edge": {"target": [], "time": []}}}, "displayed_time": "78.42", "trialTime": 83915, "trial_type": "mouselab-mdp", "trial_index": 9, "time_elapsed": 1577477, "internal_node_id": "0.0-2.1-2.1-0.1"}}, {"uniqueid": "w35031936:a58692795", "current_trial": 10, "dateTime": 1693567337603, "trialdata": {"revealed_states": [], "clicked_states": ["1", "2", "3", "5", "7", "12", "13", "14", "16", "18", "23", "24", "25", "30", "32", "33", "26", "27", "29", "28", "31", "21", "19", "22", "20"], "num_clicks_accrued": [0, 0, 0, 0, 0, 0, 0, 0, 0, 0, 0, 0, 0], "stateRewards": ["", 10, -10, -10, 10, 10, 10, 10, -10, -10, -10, 10, -10, -10, -10, -10, -10, -10, -10, -10, -10, 10, -10, 10, 10, 10, 10, -10, 10, 10, 10, 10, 10, -10], "withholdReward": false, "trial_id": "practice_2", "block": "test", "trialIndex": 3, "score": 41, "costs": -12.5, "simulationMode": [null, null, null, null, null], "rewards": [10, 10, 10, 10, 10], "path": ["0", "0", "23", "24", "25", "30", "32"], "rt": [40907, 69, 32, 237, 6], "actions": ["left", "left", "left", "down", "down"], "actionTimes": [47767, 48384, 48942, 49752, 50310], "queries": {"click": {"state": {"target": ["1", "2", "3", "5", "7", "12", "13", "14", "16", "18", "23", "24", "25", "30", "32", "33", "26", "27", "29", "28", "31", "21", "19", "22", "20"], "time": [8419, 9802, 12231, 14515, 16214, 18090, 19271, 20489, 22521, 23668, 26480, 27570, 28935, 30312, 31395, 32847, 35258, 36577, 37804, 39049, 40545, 42120, 43396, 44639, 45923]}, "edge": {"target": [], "time": []}}, "mouseover": {"state": {"target": ["1", "2", "3", "4", "5", "4", "7", "7", "4", "12", "13", "14", "15", "16", "18", "15", "15", "23", "24", "23", "24", "25", "30", "32", "33", "31", "26", "27", "29", "28", "24", "31", "21", "19", "22", "20", "12"], "time": [7939, 8966, 10237, 12844, 13962, 15033, 15152, 15730, 16797, 17436, 18838, 19977, 20945, 21969, 23181, 24249, 25172, 25286, 25372, 26053, 27129, 28347, 30053, 30910, 32235, 33329, 34871, 35738, 37440, 38516, 39682, 40144, 41541, 42905, 44174, 45504, 46397]}, "edge": {"target": [], "time": []}}, "mouseout": {"state": {"target": ["17", "15", "18", "0", "1", "2", "3", "4", "5", "5", "4", "7", "7", "4", "12", "13", "14", "15", "16", "18", "15", "15", "23", "24", "23", "24", "25", "30", "30", "32", "33", "30", "31", "26", "27", "29", "28", "28", "24", "31", "21", "19", "22", "20", "12", "0", "14", "20"], "time": [1505, 1538, 1609, 7825, 8903, 10154, 12682, 13758, 14649, 14981, 15093, 15247, 16604, 16934, 18679, 19819, 20879, 21892, 22862, 24192, 25038, 25219, 25325, 25870, 26999, 28155, 29733, 30442, 30858, 31869, 33132, 33253, 34321, 35689, 36991, 37934, 39163, 39526, 39874, 40953, 42617, 43986, 44744, 46030, 46480, 52738, 52964, 53165]}, "edge": {"target": [], "time": []}}}, "displayed_time": "50.86", "trialTime": 56307, "trial_type": "mouselab-mdp", "trial_index": 10, "time_elapsed": 1635099, "internal_node_id": "0.0-2.1-2.1-1.1"}}, {"uniqueid": "w35031936:a58692795", "current_trial": 11, "dateTime": 1693567416941, "trialdata": {"view_history": [{"page_index": 0, "viewing_time": 75324}, {"page_index": 1, "viewing_time": 4002}], "rt": 79327, "trial_id": "mouselab_instructions_2_control", "trial_type": "instructions", "trial_index": 11, "time_elapsed": 1714438, "internal_node_id": "0.0-2.1-3.1"}}, {"uniqueid": "w35031936:a58692795", "current_trial": 12, "dateTime": 1693567540363, "trialdata": {"rt": 123400, "response": {"Q0": "The cost for clicking on nodes may vary between nodes.", "Q1": "The better I perform the higher my bonus will be.", "Q2": "No, the amount of cash at each node of the web may be different each time.", "Q3": "To get the highest total score.", "Q4": "Only before moving the spider.", "Q5": "3 seconds"}, "question_order": [0, 1, 2, 3, 4, 5], "correct": {"Q0": "The cost for clicking on nodes may vary between nodes.", "Q1": "The better I perform the higher my bonus will be.", "Q2": "No, the amount of cash at each node of the web may be different each time.", "Q3": "To get the highest total score.", "Q4": "Only before moving the spider.", "Q5": "3 seconds"}, "trial_id": "mouselab_quiz_control", "trial_type": "survey-multi-choice", "trial_index": 12, "time_elapsed": 1837860, "internal_node_id": "0.0-2.1-4.1"}}, {"uniqueid": "w35031936:a58692795", "current_trial": 13, "dateTime": 1693567564008, "trialdata": {"rt": 23610, "response": {"Q0": "No"}, "question_order": [0], "trial_id": "repeat_check", "trial_type": "survey-multi-choice", "trial_index": 13, "time_elapsed": 1861504, "internal_node_id": "0.0-4.0-0.0"}}, {"uniqueid": "w35031936:a58692795", "current_trial": 14, "dateTime": 1693567595141, "trialdata": {"rt": 31109, "stimulus": "\n<h1> Get ready to start the game! </h1>\n\nThank you for reading the instructions. Get ready start with the 40 rounds of this game.\n<br><br>\nIf you need to take a break, feel free to take one after the end of a round, before continuing to the next one.\n<br><br>\nRemember, the more money the spider gets, the bigger your bonus will be!\n<br><br>\n<div style='text-align: center;'>Press <code>space</code> to begin.</div>\n\n<br><br>\n(If, at any point, the <code>space</code> key does not take you to the next page, click once on the text and try again.)", "response": " ", "trial_id": "mdp_ready", "trial_type": "html-keyboard-response", "trial_index": 14, "time_elapsed": 1892638, "internal_node_id": "0.0-6.0-0.0"}}, {"uniqueid": "w35031936:a58692795", "current_trial": 15, "dateTime": 1693567672089, "trialdata": {"revealed_states": [], "clicked_states": ["1", "3", "4", "10", "2", "12", "14", "13", "19", "21", "20", "22", "16", "17", "15", "23", "25", "24", "30", "33", "32", "27", "28", "26"], "num_clicks_accrued": [0, 0, 0, 0, 0, 0, 0, 0, 0, 0, 0, 0, 0], "stateRewards": ["", 2, 3, -3, 12, -43, 81, -82, -15, 58, -7, -75, -1, -1, 3, -5, 50, -25, -8, 4, 66, 65, -66, 2, -4, 2, -1, -10, 10, 37, 11, 88, -37, 8], "withholdReward": false, "trial_id": "mdp_trial_1", "block": "test", "trialIndex": 4, "score": 36.40000000000001, "costs": -33.59999999999999, "simulationMode": [null, null, null, null, null], "rewards": [-1, -1, 3, 4, 65], "path": ["0", "0", "12", "13", "14", "19", "21"], "rt": [60339, 622, 366, 348, 169], "actions": ["right", "right", "right", "down", "down"], "actionTimes": [66481, 67622, 68515, 69398, 70094], "queries": {"click": {"state": {"target": ["1", "3", "4", "10", "2", "12", "14", "13", "19", "21", "20", "22", "16", "17", "15", "23", "25", "24", "30", "33", "32", "27", "28", "26"], "time": [7689, 10466, 12096, 15020, 17544, 19199, 21129, 23374, 25804, 27785, 30480, 32523, 34600, 36730, 38969, 42187, 44863, 47811, 50379, 52806, 55295, 58587, 61456, 63850]}, "edge": {"target": [], "time": []}}, "mouseover": {"state": {"target": ["1", "2", "3", "4", "2", "10", "8", "2", "7", "12", "13", "14", "13", "22", "19", "21", "20", "20", "19", "22", "14", "15", "16", "15", "17", "15", "18", "23", "24", "25", "26", "24", "31", "30", "32", "33", "32", "26", "27", "27", "29", "26", "28", "26", "29", "12"], "time": [7128, 8185, 9997, 11630, 12788, 14476, 15548, 16749, 18059, 18818, 19579, 20633, 21685, 24387, 25314, 26421, 28325, 28683, 30789, 31281, 32964, 33342, 34113, 35196, 36324, 37379, 40058, 41710, 42904, 44280, 45694, 47361, 48916, 49960, 50941, 52309, 53698, 56214, 57349, 58167, 59545, 60770, 60986, 62052, 64426, 65856]}, "edge": {"target": [], "time": []}}, "mouseout": {"state": {"target": ["0", "1", "2", "3", "4", "2", "10", "8", "2", "7", "12", "12", "13", "14", "13", "22", "19", "21", "20", "20", "19", "22", "14", "15", "16", "15", "17", "15", "18", "23", "24", "25", "26", "24", "31", "30", "32", "33", "33", "32", "26", "27", "27", "29", "26", "28", "26", "29", "12", "15"], "time": [4512, 8122, 9724, 11495, 12690, 14180, 15480, 16622, 17971, 18644, 19318, 19482, 20425, 21587, 24320, 25134, 26255, 27823, 28384, 30735, 30890, 32655, 33012, 34098, 35023, 36135, 36839, 39819, 41050, 42762, 44226, 45385, 46909, 48844, 49805, 50842, 52106, 52941, 53548, 55758, 57308, 57551, 59320, 60573, 60901, 62035, 64321, 65538, 71929, 71998]}, "edge": {"target": [], "time": []}}}, "displayed_time": "70.62", "trialTime": 75499, "trial_type": "mouselab-mdp", "trial_index": 15, "time_elapsed": 1969581, "internal_node_id": "0.0-6.0-1.0-0.0"}}, {"uniqueid": "w35031936:a58692795", "current_trial": 16, "dateTime": 1693567760245, "trialdata": {"revealed_states": [], "clicked_states": ["1", "3", "2", "9", "10", "11", "5", "6", "7", "8", "12", "13", "14", "15", "16", "17", "18", "19", "20", "21", "22", "31", "23", "24", "25", "30", "33", "32", "26", "28", "27", "29"], "num_clicks_accrued": [0, 0, 0, 0, 0, 0, 0, 0, 0, 0, 0, 0, 0], "stateRewards": ["", 1, 1, 5, 6, -29, -7, 3, -16, 9, -46, 65, -1, 4, -1, -16, -63, -77, -87, 8, 80, -50, 43, -1, -1, -5, 5, -38, -71, -62, 9, 81, -50, -52], "withholdReward": false, "trial_id": "mdp_trial_2", "block": "test", "trialIndex": 5, "score": 38.200000000000024, "costs": -44.799999999999976, "simulationMode": [null, null, null, null, null], "rewards": [-1, -1, -5, 9, 81], "path": ["0", "0", "23", "24", "25", "30", "31"], "rt": [76068, 559, 86, 483, 444], "actions": ["left", "left", "left", "down", "right"], "actionTimes": [79674, 80807, 81422, 82452, 83434], "queries": {"click": {"state": {"target": ["1", "3", "2", "9", "10", "11", "5", "6", "7", "8", "12", "13", "14", "15", "16", "17", "18", "19", "20", "21", "22", "31", "23", "24", "25", "30", "33", "32", "26", "28", "27", "29"], "time": [4786, 7215, 9276, 11946, 14355, 16834, 19692, 22033, 24861, 26622, 28544, 31393, 32974, 35358, 36972, 38955, 41873, 44884, 47655, 49432, 51587, 53509, 55293, 58339, 61248, 63373, 65201, 68006, 69800, 72761, 75556, 78017]}, "edge": {"target": [], "time": []}}, "mouseover": {"state": {"target": ["1", "2", "3", "2", "8", "9", "11", "10", "11", "8", "4", "5", "6", "4", "7", "8", "2", "12", "13", "14", "15", "16", "17", "18", "19", "19", "20", "21", "22", "31", "23", "24", "25", "30", "33", "32", "25", "26", "27", "28", "27", "29"], "time": [4258, 5402, 6760, 8135, 10221, 11541, 12720, 13822, 15416, 17518, 17753, 19161, 20460, 23086, 24423, 26176, 27705, 27933, 29184, 32322, 33700, 36324, 38475, 40014, 42865, 44216, 47182, 48729, 51129, 53000, 54551, 56360, 59343, 62488, 64736, 66023, 68849, 69355, 70509, 72345, 73544, 76489]}, "edge": {"target": [], "time": []}}, "mouseout": {"state": {"target": ["14", "13", "12", "0", "1", "2", "3", "2", "3", "8", "9", "11", "10", "11", "8", "4", "5", "6", "4", "7", "8", "2", "12", "13", "14", "15", "16", "17", "18", "19", "19", "20", "21", "22", "31", "23", "24", "25", "30", "33", "32", "25", "26", "27", "28", "27"], "time": [853, 945, 1056, 4199, 5304, 6478, 8037, 9784, 10004, 11388, 12638, 13659, 15051, 17466, 17581, 18966, 20249, 22986, 24203, 25833, 27529, 27762, 29085, 31975, 33646, 35999, 38154, 39071, 42476, 44068, 44998, 48556, 50842, 52589, 53642, 56188, 59170, 62167, 63480, 65804, 68711, 68902, 70428, 71902, 73354, 76055]}, "edge": {"target": [], "time": []}}}, "displayed_time": "83.98", "trialTime": 86393, "trial_type": "mouselab-mdp", "trial_index": 16, "time_elapsed": 2057739, "internal_node_id": "0.0-6.0-1.0-1.0"}}, {"uniqueid": "w35031936:a58692795", "current_trial": 17, "dateTime": 1693567814371, "trialdata": {"revealed_states": [], "clicked_states": ["1", "2", "3", "5", "6", "4", "7", "8", "9", "11", "10", "27", "26", "29", "28", "25", "30", "32"], "num_clicks_accrued": [0, 0, 0, 0, 0, 0, 0, 0, 0, 0, 0, 0, 0], "stateRewards": ["", -2, -3, 8, 14, -73, 73, 84, -12, -2, -50, -17, 2, 1, -2, -9, -44, -27, -33, 16, -63, -47, -66, -2, 1, 4, -5, -33, -11, 50, 9, 38, -79, 31], "withholdReward": false, "trial_id": "mdp_trial_3", "block": "test", "trialIndex": 6, "score": 75.80000000000001, "costs": -25.199999999999992, "simulationMode": [null, null, null, null, null], "rewards": [-2, -3, 8, 14, 84], "path": ["0", "0", "1", "2", "3", "4", "7"], "rt": [43548, 54, 12, 578, 106], "actions": ["up", "up", "up", "right", "down"], "actionTimes": [46518, 47127, 47695, 48860, 49525], "queries": {"click": {"state": {"target": ["1", "2", "3", "5", "6", "4", "7", "8", "9", "11", "10", "27", "26", "29", "28", "25", "30", "32"], "time": [4234, 7334, 9200, 11073, 13613, 16327, 18122, 19680, 21591, 24253, 26135, 29072, 32132, 34447, 36684, 38823, 40803, 43807]}, "edge": {"target": [], "time": []}}, "mouseover": {"state": {"target": ["1", "2", "2", "3", "4", "5", "4", "6", "7", "4", "7", "3", "8", "9", "11", "10", "28", "27", "26", "29", "28", "25", "30", "33", "32", "31"], "time": [3735, 5068, 6945, 7970, 10050, 10445, 11741, 13043, 14264, 15794, 17106, 18926, 19237, 20393, 22514, 24824, 26988, 28577, 29951, 33009, 35321, 37542, 39774, 41480, 43238, 44423]}, "edge": {"target": [], "time": []}}, "mouseout": {"state": {"target": ["29", "26", "23", "0", "1", "2", "2", "3", "4", "5", "4", "6", "7", "4", "4", "7", "3", "8", "9", "11", "10", "28", "27", "26", "29", "28", "25", "30", "33", "32"], "time": [1022, 1056, 1476, 3675, 4337, 6530, 7470, 9882, 10308, 11648, 12973, 14118, 15718, 16446, 16822, 18213, 19103, 20253, 22139, 24768, 26737, 28458, 29799, 32869, 35071, 37311, 39496, 41364, 43116, 43915]}, "edge": {"target": [], "time": []}}}, "displayed_time": "50.07", "trialTime": 52548, "trial_type": "mouselab-mdp", "trial_index": 17, "time_elapsed": 2111867, "internal_node_id": "0.0-6.0-1.0-2.0"}}, {"uniqueid": "w35031936:a58692795", "current_trial": 18, "dateTime": 1693567864859, "trialdata": {"revealed_states": [], "clicked_states": ["1", "3", "5", "6", "16", "17", "20", "21", "22", "32", "33", "31", "29", "27", "28"], "num_clicks_accrued": [0, 0, 0, 0, 0, 0, 0, 0, 0, 0, 0, 0, 0], "stateRewards": ["", 1, -4, -4, 8, 1, -79, 68, -10, -79, 8, -74, -1, -3, -6, 14, 43, 23, 9, 5, -51, 63, 61, -2, 4, 6, -10, 69, -32, 57, 15, -80, -80, -77], "withholdReward": false, "trial_id": "mdp_trial_4", "block": "test", "trialIndex": 7, "score": 46, "costs": -20.999999999999996, "simulationMode": [null, null, null, null, null], "rewards": [-2, 4, 6, -10, 69], "path": ["0", "0", "23", "24", "25", "26", "27"], "rt": [38493, 139, 183, 321, 905], "actions": ["left", "left", "left", "up", "up"], "actionTimes": [41515, 42200, 42930, 43771, 45216], "queries": {"click": {"state": {"target": ["1", "3", "5", "6", "16", "17", "20", "21", "22", "32", "33", "31", "29", "27", "28"], "time": [4326, 6926, 9473, 12116, 14714, 17288, 19834, 23083, 24655, 26921, 29175, 31932, 33814, 36252, 39009]}, "edge": {"target": [], "time": []}}, "mouseover": {"state": {"target": ["1", "2", "3", "2", "5", "6", "16", "17", "20", "21", "22", "32", "33", "30", "31", "25", "29", "27", "28"], "time": [3825, 5161, 6441, 7609, 8754, 10426, 13079, 15396, 17868, 20682, 23939, 26376, 28025, 30431, 30741, 32864, 33227, 35713, 38496]}, "edge": {"target": [], "time": []}}, "mouseout": {"state": {"target": ["31", "0", "1", "2", "3", "2", "5", "6", "16", "17", "20", "21", "22", "32", "33", "30", "31", "25", "29", "27"], "time": [1065, 3722, 5032, 6388, 7509, 8637, 10205, 12815, 15263, 17763, 20447, 23756, 25953, 27799, 30246, 30554, 32808, 32929, 35340, 38250]}, "edge": {"target": [], "time": []}}}, "displayed_time": "45.76", "trialTime": 48831, "trial_type": "mouselab-mdp", "trial_index": 18, "time_elapsed": 2162353, "internal_node_id": "0.0-6.0-1.0-3.0"}}, {"uniqueid": "w35031936:a58692795", "current_trial": 19, "dateTime": 1693567918273, "trialdata": {"revealed_states": [], "clicked_states": ["5", "9", "11", "10", "6", "7", "16", "17", "20", "21", "22", "18", "31", "32", "33", "29", "27"], "num_clicks_accrued": [0, 0, 0, 0, 0, 0, 0, 0, 0, 0, 0, 0, 0], "stateRewards": ["", 1, 2, 2, -15, -84, 28, -26, 13, 31, 86, 30, -2, 1, -1, -8, 66, -40, -1, -10, -32, 57, -17, 1, 2, -2, 9, -23, 77, 85, 12, -32, -62, -35], "withholdReward": false, "trial_id": "mdp_trial_5", "block": "test", "trialIndex": 8, "score": 71.2, "costs": -23.799999999999994, "simulationMode": [null, null, null, null, null], "rewards": [1, 2, -2, 9, 85], "path": ["0", "0", "23", "24", "25", "26", "29"], "rt": [39675, 373, 91, 451, 183], "actions": ["left", "left", "left", "up", "left"], "actionTimes": [45742, 46659, 47295, 48291, 49016], "queries": {"click": {"state": {"target": ["5", "9", "11", "10", "6", "7", "16", "17", "20", "21", "22", "18", "31", "32", "33", "29", "27"], "time": [8390, 10462, 12180, 14438, 16530, 19254, 20917, 23117, 24986, 28128, 29944, 31912, 34533, 36417, 38527, 40249, 41939]}, "edge": {"target": [], "time": []}}, "mouseover": {"state": {"target": ["1", "4", "5", "9", "11", "10", "2", "6", "7", "16", "17", "20", "21", "22", "13", "18", "23", "31", "32", "33", "29", "27", "28"], "time": [6927, 7334, 7884, 9595, 11585, 13666, 15529, 15968, 17396, 20315, 22284, 24470, 27036, 29449, 30956, 31305, 33721, 34018, 35863, 38015, 39721, 41423, 42875]}, "edge": {"target": [], "time": []}}, "mouseout": {"state": {"target": ["28", "0", "1", "4", "5", "9", "11", "10", "2", "6", "7", "16", "17", "20", "21", "22", "13", "18", "18", "23", "31", "32", "33", "29", "27"], "time": [1123, 6873, 7272, 7395, 9163, 11322, 13405, 15379, 15628, 17282, 19993, 22071, 23967, 26507, 28243, 30855, 31164, 32024, 33572, 33777, 35712, 36546, 39279, 41026, 42674]}, "edge": {"target": [], "time": []}}}, "displayed_time": "49.56", "trialTime": 51859, "trial_type": "mouselab-mdp", "trial_index": 19, "time_elapsed": 2215767, "internal_node_id": "0.0-6.0-1.0-4.0"}}, {"uniqueid": "w35031936:a58692795", "current_trial": 20, "dateTime": 1693567959269, "trialdata": {"revealed_states": [], "clicked_states": ["1", "5", "6", "9", "11", "10", "27", "29", "33", "32", "31", "28", "22", "21"], "num_clicks_accrued": [0, 0, 0, 0, 0, 0, 0, 0, 0, 0, 0, 0, 0], "stateRewards": ["", 2, -1, -1, -9, -81, -30, 55, -6, 78, 25, 62, 2, 4, -1, 9, -85, 1, -19, 1, -60, 12, -34, 1, 4, -1, -13, -24, -16, -83, -8, 16, 43, 9], "withholdReward": false, "trial_id": "mdp_trial_6", "block": "test", "trialIndex": 9, "score": -0.5999999999999979, "costs": -19.599999999999998, "simulationMode": [null, null, null, null, null, null], "rewards": [2, -1, -1, -6, 25], "path": ["0", "0", "1", "2", "3", "8", "10"], "rt": [29540, 959, 113, 149, 335, 118], "actions": ["up", "up", "up", "up", "left", "down"], "actionTimes": [32629, 33613, 34275, 34967, 35817, 36481], "queries": {"click": {"state": {"target": ["1", "5", "6", "9", "11", "10", "27", "29", "33", "32", "31", "28", "22", "21"], "time": [4303, 6528, 8574, 10811, 13155, 15134, 17433, 19757, 21723, 24084, 25905, 27788, 29366, 31538]}, "edge": {"target": [], "time": []}}, "mouseover": {"state": {"target": ["1", "2", "5", "6", "9", "11", "10", "27", "29", "33", "32", "31", "24", "28", "22", "22", "21"], "time": [3812, 4838, 5574, 7322, 9522, 11819, 13896, 16259, 18344, 21192, 22612, 24693, 26595, 27349, 28592, 28971, 31125]}, "edge": {"target": [], "time": []}}, "mouseout": {"state": {"target": ["28", "0", "1", "2", "5", "5", "6", "9", "11", "10", "27", "29", "33", "32", "31", "24", "28", "22", "22"], "time": [1278, 3170, 4769, 5277, 6657, 7161, 9185, 11448, 13749, 15243, 18008, 20555, 22428, 24606, 26575, 27280, 28394, 28665, 30843]}, "edge": {"target": [], "time": []}}}, "displayed_time": "37.01", "trialTime": 39320, "trial_type": "mouselab-mdp", "trial_index": 20, "time_elapsed": 2256762, "internal_node_id": "0.0-6.0-1.0-5.0"}}, {"uniqueid": "w35031936:a58692795", "current_trial": 21, "dateTime": 1693568001657, "trialdata": {"revealed_states": [], "clicked_states": ["1", "6", "5", "7", "10", "11", "9", "27", "29", "28", "33", "32", "31"], "num_clicks_accrued": [0, 0, 0, 0, 0, 0, 0, 0, 0, 0, 0, 0, 0], "stateRewards": ["", -2, -3, -6, -7, 9, 16, 65, 5, -41, 20, -25, -1, -4, 1, -11, -49, -4, 71, 1, 39, -62, 52, -2, -3, 7, -9, -28, -70, 84, 8, 24, -58, 82], "withholdReward": false, "trial_id": "mdp_trial_7", "block": "test", "trialIndex": 10, "score": 58.8, "costs": -18.2, "simulationMode": [null, null, null, null, null], "rewards": [-2, -3, 7, -9, 84], "path": ["0", "0", "23", "24", "25", "26", "29"], "rt": [29688, 85, 289, 330, 186], "actions": ["left", "left", "left", "up", "left"], "actionTimes": [35793, 36433, 37259, 38157, 38887], "queries": {"click": {"state": {"target": ["1", "6", "5", "7", "10", "11", "9", "27", "29", "28", "33", "32", "31"], "time": [7297, 9870, 12175, 14578, 16632, 18750, 21342, 23034, 25197, 27679, 29830, 31775, 34064]}, "edge": {"target": [], "time": []}}, "mouseover": {"state": {"target": ["1", "7", "6", "5", "4", "7", "2", "10", "11", "9", "27", "29", "26", "28", "25", "33", "32", "31"], "time": [6842, 7912, 8198, 10593, 12729, 13063, 15216, 15545, 17265, 19545, 22583, 24609, 25882, 26046, 28409, 28709, 30614, 32664]}, "edge": {"target": [], "time": []}}, "mouseout": {"state": {"target": ["21", "0", "1", "7", "6", "5", "4", "7", "2", "10", "11", "9", "11", "27", "27", "29", "26", "28", "25", "33", "32"], "time": [3107, 6765, 7813, 7970, 10447, 12715, 12797, 15199, 15406, 16728, 18866, 22131, 22329, 23133, 24379, 25864, 25952, 28295, 28516, 30350, 32360]}, "edge": {"target": [], "time": []}}}, "displayed_time": "39.43", "trialTime": 40686, "trial_type": "mouselab-mdp", "trial_index": 21, "time_elapsed": 2299151, "internal_node_id": "0.0-6.0-1.0-6.0"}}, {"uniqueid": "w35031936:a58692795", "current_trial": 22, "dateTime": 1693568022226, "trialdata": {"revealed_states": [], "clicked_states": ["21", "20"], "num_clicks_accrued": [0, 0, 0, 0, 0, 0, 0, 0, 0, 0, 0, 0, 0], "stateRewards": ["", -1, -4, -1, -5, -28, -23, -15, -15, -38, 59, -87, 2, 2, -5, 9, -55, -39, -71, -6, 85, -85, -11, -1, -2, 5, -10, 1, 25, 41, -4, 69, -35, 86], "withholdReward": false, "trial_id": "mdp_trial_8", "block": "test", "trialIndex": 11, "score": 75.2, "costs": -2.8, "simulationMode": [null, null, null, null, null], "rewards": [2, 2, -5, -6, 85], "path": ["0", "0", "12", "13", "14", "19", "20"], "rt": [8332, 31, 30, 169, 301], "actions": ["right", "right", "right", "down", "right"], "actionTimes": [10773, 11394, 11966, 12702, 13554], "queries": {"click": {"state": {"target": ["21", "20"], "time": [4260, 6888]}, "edge": {"target": [], "time": []}}, "mouseover": {"state": {"target": ["22", "21", "20", "22", "19", "12", "0"], "time": [3312, 3729, 5372, 8139, 9774, 10227, 10326]}, "edge": {"target": [], "time": []}}, "mouseout": {"state": {"target": ["31", "0", "22", "21", "20", "22", "19", "12", "0"], "time": [714, 3197, 3380, 5130, 7515, 9728, 9819, 10274, 17824]}, "edge": {"target": [], "time": []}}}, "displayed_time": "16.45", "trialTime": 18917, "trial_type": "mouselab-mdp", "trial_index": 22, "time_elapsed": 2319718, "internal_node_id": "0.0-6.0-1.0-7.0"}}, {"uniqueid": "w35031936:a58692795", "current_trial": 23, "dateTime": 1693568044188, "trialdata": {"revealed_states": [], "clicked_states": ["5", "11", "27"], "num_clicks_accrued": [0, 0, 0, 0, 0, 0, 0, 0, 0, 0, 0, 0, 0], "stateRewards": ["", -1, -1, 7, -15, -43, -21, -84, -9, -45, -66, 2, 1, -2, 2, 8, -27, 44, -52, -5, -84, 11, 53, 1, 4, -4, 16, 83, -82, -15, -16, 68, -43, 81], "withholdReward": false, "trial_id": "mdp_trial_9", "block": "test", "trialIndex": 12, "score": 95.8, "costs": -4.199999999999999, "simulationMode": [null, null, null, null, null], "rewards": [1, 4, -4, 16, 83], "path": ["0", "0", "23", "24", "25", "26", "27"], "rt": [10078, 47, 125, 436, 7], "actions": ["left", "left", "left", "up", "up"], "actionTimes": [13135, 13741, 14428, 15412, 15969], "queries": {"click": {"state": {"target": ["5", "11", "27"], "time": [4636, 7327, 9202]}, "edge": {"target": [], "time": []}}, "mouseover": {"state": {"target": ["2", "3", "5", "9", "11", "27", "29"], "time": [3907, 4013, 4153, 5598, 6852, 8166, 10119]}, "edge": {"target": [], "time": []}}, "mouseout": {"state": {"target": ["0", "0", "2", "3", "5", "9", "11", "27"], "time": [1088, 3849, 3963, 4058, 5263, 6765, 8061, 9765]}, "edge": {"target": [], "time": []}}}, "displayed_time": "17.07", "trialTime": 20162, "trial_type": "mouselab-mdp", "trial_index": 23, "time_elapsed": 2341680, "internal_node_id": "0.0-6.0-1.0-8.0"}}, {"uniqueid": "w35031936:a58692795", "current_trial": 24, "dateTime": 1693568100518, "trialdata": {"revealed_states": [], "clicked_states": ["9", "11", "27", "33", "29", "28", "32", "31", "21", "22", "20", "17", "16", "18", "7", "6", "5", "10"], "num_clicks_accrued": [0, 0, 0, 0, 0, 0, 0, 0, 0, 0, 0, 0, 0], "stateRewards": ["", -2, 1, -8, 12, -65, -79, 16, 7, -80, -17, -45, -2, 2, -5, -2, -85, 23, -4, -7, 48, 27, -76, 2, 3, 5, 2, 43, 71, -13, 7, -49, 59, -31], "withholdReward": false, "trial_id": "mdp_trial_10", "block": "test", "trialIndex": 13, "score": 29.800000000000008, "costs": -25.199999999999992, "simulationMode": [null, null, null, null, null], "rewards": [2, 3, 5, 2, 43], "path": ["0", "0", "23", "24", "25", "26", "27"], "rt": [42933, 454, 552, 737, 16], "actions": ["left", "left", "left", "up", "up"], "actionTimes": [49007, 50021, 51120, 52405, 52971], "queries": {"click": {"state": {"target": ["9", "11", "27", "33", "29", "28", "32", "31", "21", "22", "20", "17", "16", "18", "7", "6", "5", "10"], "time": [7791, 9785, 12505, 15720, 17978, 19645, 21254, 22848, 25568, 27868, 30118, 31871, 34469, 37034, 38991, 41243, 43360, 45821]}, "edge": {"target": [], "time": []}}, "mouseover": {"state": {"target": ["1", "2", "3", "9", "11", "27", "29", "33", "29", "26", "28", "28", "24", "32", "31", "21", "22", "19", "20", "17", "16", "18", "7", "6", "5", "3", "10"], "time": [6871, 7035, 7173, 7284, 8513, 10602, 13433, 15202, 16560, 18593, 18669, 19155, 20449, 20703, 22370, 25048, 26629, 28488, 28643, 31458, 33981, 35275, 37707, 39791, 42258, 44584, 45094]}, "edge": {"target": [], "time": []}}, "mouseout": {"state": {"target": ["29", "26", "28", "23", "0", "1", "2", "3", "9", "9", "11", "11", "27", "29", "33", "29", "26", "28", "28", "24", "32", "31", "21", "22", "19", "20", "17", "16", "18", "7", "6", "5", "3"], "time": [3381, 3513, 3581, 3913, 6820, 6968, 7130, 7221, 7897, 8410, 9898, 10419, 13235, 14634, 16274, 18576, 18655, 18911, 20431, 20515, 21973, 24171, 26198, 28428, 28546, 30797, 32640, 35084, 37601, 39685, 41834, 44181, 44635]}, "edge": {"target": [], "time": []}}}, "displayed_time": "53.53", "trialTime": 54531, "trial_type": "mouselab-mdp", "trial_index": 24, "time_elapsed": 2398011, "internal_node_id": "0.0-6.0-1.0-9.0"}}, {"uniqueid": "w35031936:a58692795", "current_trial": 25, "dateTime": 1693568120527, "trialdata": {"revealed_states": [], "clicked_states": ["9", "5"], "num_clicks_accrued": [0, 0, 0, 0, 0, 0, 0, 0, 0, 0, 0, 0, 0], "stateRewards": ["", -2, 4, -5, -12, 85, -24, -18, -15, -78, -22, 26, -1, -1, 2, 14, -45, 52, -23, 7, -33, 24, -6, -2, -4, 5, -7, -16, 36, -39, 5, 71, -87, -23], "withholdReward": false, "trial_id": "mdp_trial_11", "block": "test", "trialIndex": 14, "score": 67.2, "costs": -2.8, "simulationMode": [null, null, null, null, null], "rewards": [-2, 4, -5, -12, 85], "path": ["0", "0", "1", "2", "3", "4", "5"], "rt": [6753, 170, 76, 593, 165], "actions": ["up", "up", "up", "right", "up"], "actionTimes": [9591, 10308, 10940, 12092, 12776], "queries": {"click": {"state": {"target": ["9", "5"], "time": [4248, 6160]}, "edge": {"target": [], "time": []}}, "mouseover": {"state": {"target": ["1", "2", "9", "5", "6"], "time": [3439, 3527, 3683, 5400, 7222]}, "edge": {"target": [], "time": []}}, "mouseout": {"state": {"target": ["10", "0", "1", "2", "9", "5", "6", "16", "15", "13"], "time": [1086, 3386, 3487, 3574, 4813, 7011, 17282, 17532, 17683, 17815]}, "edge": {"target": [], "time": []}}}, "displayed_time": "16.84", "trialTime": 18271, "trial_type": "mouselab-mdp", "trial_index": 25, "time_elapsed": 2418020, "internal_node_id": "0.0-6.0-1.0-10.0"}}, {"uniqueid": "w35031936:a58692795", "current_trial": 26, "dateTime": 1693568166468, "trialdata": {"revealed_states": [], "clicked_states": [], "num_clicks_accrued": [0, 0, 0, 0, 0, 0, 0, 0, 0, 0, 0, 0, 0], "stateRewards": ["", -2, 2, -5, -6, 10, -66, -58, -10, -11, -63, -70, -1, -4, -5, 7, 66, -64, -43, -3, 45, -37, 4, -2, -2, -6, -4, -30, 33, 43, 15, -32, -65, -59], "withholdReward": false, "trial_id": "mdp_trial_12", "block": "test", "trialIndex": 15, "score": -44, "costs": 0, "simulationMode": [null, null, null, null, null], "rewards": [-2, -2, -6, -4, -30], "path": ["0", "0", "23", "24", "25", "26", "27"], "rt": [28491, 4641, 114, 312, 731], "actions": ["left", "left", "left", "up", "up"], "actionTimes": [31236, 36421, 37066, 37899, 39180], "queries": {"click": {"state": {"target": [], "time": []}, "edge": {"target": [], "time": []}}, "mouseover": {"state": {"target": ["1", "2", "5", "2", "0", "1", "2", "5", "5"], "time": [4479, 4584, 5064, 9632, 19150, 20251, 20322, 20439, 20866]}, "edge": {"target": [], "time": []}}, "mouseout": {"state": {"target": ["13", "0", "1", "2", "5", "2", "0", "1", "2", "5", "5", "5", "5", "5", "6"], "time": [697, 4161, 4538, 4639, 9571, 9776, 20207, 20307, 20373, 20511, 32872, 33657, 34351, 41053, 41418]}, "edge": {"target": [], "time": []}}}, "displayed_time": "39.73", "trialTime": 44186, "trial_type": "mouselab-mdp", "trial_index": 26, "time_elapsed": 2463964, "internal_node_id": "0.0-6.0-1.0-11.0"}}, {"uniqueid": "w35031936:a58692795", "current_trial": 27, "dateTime": 1693568189425, "trialdata": {"revealed_states": [], "clicked_states": ["5", "6", "7", "9", "11"], "num_clicks_accrued": [0, 0, 0, 0, 0, 0, 0, 0, 0, 0, 0, 0, 0], "stateRewards": ["", 2, 3, -6, -5, -3, 55, 40, 11, 61, 11, 51, 2, -4, -6, 9, -25, 29, -15, -6, 7, -77, -2, -2, -4, 1, 14, -43, -1, 56, -12, -54, 41, -74], "withholdReward": false, "trial_id": "mdp_trial_13", "block": "test", "trialIndex": 16, "score": 64, "costs": -7, "simulationMode": [null, null, null, null, null], "rewards": [2, 3, -6, 11, 61], "path": ["0", "0", "1", "2", "3", "8", "9"], "rt": [12682, 339, 411, 597, 92], "actions": ["up", "up", "up", "left", "up"], "actionTimes": [16028, 16907, 17886, 19030, 19667], "queries": {"click": {"state": {"target": ["5", "6", "7", "9", "11"], "time": [5047, 6933, 9399, 11854, 13507]}, "edge": {"target": [], "time": []}}, "mouseover": {"state": {"target": ["1", "3", "5", "6", "7", "3", "9", "11", "10"], "time": [4119, 4222, 4508, 6037, 7718, 10017, 10146, 12853, 14599]}, "edge": {"target": [], "time": []}}, "mouseout": {"state": {"target": ["18", "1", "3", "5", "6", "7", "3", "9", "11", "10"], "time": [1387, 4182, 4357, 5883, 7614, 9951, 10084, 12537, 14440, 14665]}, "edge": {"target": [], "time": []}}}, "displayed_time": "20.19", "trialTime": 21033, "trial_type": "mouselab-mdp", "trial_index": 27, "time_elapsed": 2486918, "internal_node_id": "0.0-6.0-1.0-12.0"}}, {"uniqueid": "w35031936:a58692795", "current_trial": 28, "dateTime": 1693568209631, "trialdata": {"revealed_states": [], "clicked_states": ["5", "6", "7"], "num_clicks_accrued": [0, 0, 0, 0, 0, 0, 0, 0, 0, 0, 0, 0, 0], "stateRewards": ["", -1, -2, -1, -10, -57, 73, -72, -16, 75, -14, -46, -2, -3, -7, -1, -61, -60, 76, -4, 50, 4, 14, 2, 2, -7, 12, -65, -32, 15, -8, -76, -25, -61], "withholdReward": false, "trial_id": "mdp_trial_14", "block": "test", "trialIndex": 17, "score": 54.8, "costs": -4.199999999999999, "simulationMode": [null, null, null, null, null], "rewards": [-1, -2, -1, -10, 73], "path": ["0", "0", "1", "2", "3", "4", "6"], "rt": [9263, 363, 319, 288, 741], "actions": ["up", "up", "up", "right", "right"], "actionTimes": [12106, 13011, 13876, 14691, 15973], "queries": {"click": {"state": {"target": ["5", "6", "7"], "time": [5472, 7539, 9863]}, "edge": {"target": [], "time": []}}, "mouseover": {"state": {"target": ["1", "2", "5", "6", "7", "1"], "time": [4119, 4177, 5043, 6763, 9052, 11038]}, "edge": {"target": [], "time": []}}, "mouseout": {"state": {"target": ["1", "13", "22", "0", "1", "2", "5", "6", "7"], "time": [294, 590, 790, 4072, 4165, 4232, 6202, 8864, 10822]}, "edge": {"target": [], "time": []}}}, "displayed_time": "16.85", "trialTime": 18231, "trial_type": "mouselab-mdp", "trial_index": 28, "time_elapsed": 2507124, "internal_node_id": "0.0-6.0-1.0-13.0"}}, {"uniqueid": "w35031936:a58692795", "current_trial": 29, "dateTime": 1693568233415, "trialdata": {"revealed_states": [], "clicked_states": ["27", "29"], "num_clicks_accrued": [0, 0, 0, 0, 0, 0, 0, 0, 0, 0, 0, 0, 0], "stateRewards": ["", 1, 2, -5, 14, 54, -14, -25, 16, -5, -87, 78, -1, 1, 3, -3, 52, 53, 53, -10, 73, -69, -48, 2, 3, 1, 8, -62, -7, 85, 7, 82, 52, -28], "withholdReward": false, "trial_id": "mdp_trial_15", "block": "test", "trialIndex": 18, "score": 96.2, "costs": -2.8, "simulationMode": [null, null, null, null, null], "rewards": [2, 3, 1, 8, 85], "path": ["0", "0", "23", "24", "25", "26", "29"], "rt": [8506, 260, 91, 293, 15], "actions": ["left", "left", "left", "up", "left"], "actionTimes": [14811, 15625, 16273, 17098, 17636], "queries": {"click": {"state": {"target": ["27", "29"], "time": [8516, 11379]}, "edge": {"target": [], "time": []}}, "mouseover": {"state": {"target": ["1", "10", "27", "29", "25"], "time": [7231, 7394, 7961, 10914, 13760]}, "edge": {"target": [], "time": []}}, "mouseout": {"state": {"target": ["1", "0", "1", "10", "27", "29", "25"], "time": [4092, 7102, 7290, 7451, 10645, 13645, 13815]}, "edge": {"target": [], "time": []}}}, "displayed_time": "20.31", "trialTime": 21768, "trial_type": "mouselab-mdp", "trial_index": 29, "time_elapsed": 2530908, "internal_node_id": "0.0-6.0-1.0-14.0"}}, {"uniqueid": "w35031936:a58692795", "current_trial": 30, "dateTime": 1693568270412, "trialdata": {"revealed_states": [], "clicked_states": ["9", "11", "5", "6", "16", "17", "20", "21", "22", "32"], "num_clicks_accrued": [0, 0, 0, 0, 0, 0, 0, 0, 0, 0, 0, 0, 0], "stateRewards": ["", 1, 2, 3, 16, 63, -25, 16, -4, -14, 82, -66, -1, -3, -3, -11, -14, 19, 46, 3, -34, -82, 66, -2, -3, 4, -5, -63, 77, -37, -1, -45, -41, 84], "withholdReward": false, "trial_id": "mdp_trial_16", "block": "test", "trialIndex": 19, "score": 48, "costs": -14.000000000000002, "simulationMode": [null, null, null, null, null], "rewards": [-1, -3, -3, 3, 66], "path": ["0", "0", "12", "13", "14", "19", "22"], "rt": [24310, 71, 53, 209, 174], "actions": ["right", "right", "right", "down", "left"], "actionTimes": [27149, 27787, 28456, 29230, 29923], "queries": {"click": {"state": {"target": ["9", "11", "5", "6", "16", "17", "20", "21", "22", "32"], "time": [5563, 7898, 9673, 12557, 14691, 17239, 18938, 21289, 23385, 24985]}, "edge": {"target": [], "time": []}}, "mouseover": {"state": {"target": ["1", "3", "8", "9", "11", "8", "5", "6", "16", "17", "20", "21", "22", "32"], "time": [4494, 4704, 4856, 5041, 6963, 8749, 9095, 10675, 13733, 15550, 18281, 19970, 22099, 24439]}, "edge": {"target": [], "time": []}}, "mouseout": {"state": {"target": ["0", "1", "3", "8", "9", "11", "8", "5", "6", "16", "16", "17", "20", "21", "22", "32", "21"], "time": [4443, 4549, 4778, 4913, 6585, 8731, 8810, 10514, 13530, 14817, 15337, 18068, 19538, 21932, 24097, 25996, 34149]}, "edge": {"target": [], "time": []}}}, "displayed_time": "30.46", "trialTime": 35131, "trial_type": "mouselab-mdp", "trial_index": 30, "time_elapsed": 2567906, "internal_node_id": "0.0-6.0-1.0-15.0"}}, {"uniqueid": "w35031936:a58692795", "current_trial": 31, "dateTime": 1693568317013, "trialdata": {"revealed_states": [], "clicked_states": ["9", "11", "5", "6", "7", "27", "29", "33", "32", "31", "28", "18", "16", "17", "20", "21"], "num_clicks_accrued": [0, 0, 0, 0, 0, 0, 0, 0, 0, 0, 0, 0, 0], "stateRewards": ["", -2, 1, -3, -16, -39, -52, 30, -7, -41, -59, 11, 2, 1, 8, 2, -11, -26, -42, -13, 87, -59, -48, -1, -1, -1, 16, -79, 31, 50, -1, -84, 34, -82], "withholdReward": false, "trial_id": "mdp_trial_17", "block": "test", "trialIndex": 20, "score": 62.60000000000001, "costs": -22.399999999999995, "simulationMode": [null, null, null, null, null, null], "rewards": [2, 1, 8, -13, 87], "path": ["0", "0", "12", "13", "14", "19", "20"], "rt": [35209, 1238, 45, 630, 363, 162], "actions": ["right", "right", "right", "right", "down", "right"], "actionTimes": [38395, 39647, 40240, 41443, 42335, 43052], "queries": {"click": {"state": {"target": ["9", "11", "5", "6", "7", "27", "29", "33", "32", "31", "28", "18", "16", "17", "20", "21"], "time": [6173, 8403, 9995, 12289, 14571, 17054, 19427, 21856, 23514, 25914, 27616, 29723, 31855, 33418, 35178, 36955]}, "edge": {"target": [], "time": []}}, "mouseover": {"state": {"target": ["1", "9", "11", "8", "5", "6", "7", "2", "10", "27", "29", "33", "32", "31", "24", "28", "18", "16", "17", "20", "21"], "time": [4426, 5759, 7307, 9132, 9517, 10757, 13027, 15110, 15189, 15457, 17740, 20382, 22970, 25370, 26674, 27075, 29140, 30575, 32730, 34648, 36487]}, "edge": {"target": [], "time": []}}, "mouseout": {"state": {"target": ["23", "0", "1", "9", "11", "8", "5", "5", "6", "7", "2", "10", "27", "29", "33", "32", "31", "24", "28", "18", "16", "17", "20"], "time": [1502, 4366, 4479, 7104, 9066, 9200, 10141, 10695, 12893, 15094, 15173, 15250, 17615, 19946, 22773, 25005, 26556, 26879, 28662, 30245, 32527, 34359, 35998]}, "edge": {"target": [], "time": []}}}, "displayed_time": "43.59", "trialTime": 44691, "trial_type": "mouselab-mdp", "trial_index": 31, "time_elapsed": 2614507, "internal_node_id": "0.0-6.0-1.0-16.0"}}, {"uniqueid": "w35031936:a58692795", "current_trial": 32, "dateTime": 1693568345459, "trialdata": {"revealed_states": [], "clicked_states": [], "num_clicks_accrued": [0, 0, 0, 0, 0, 0, 0, 0, 0, 0, 0, 0, 0], "stateRewards": ["", 2, -1, 4, -9, -43, 7, 54, -13, 38, -40, -83, -1, 2, -8, -10, 34, -33, 11, -14, -79, 65, 26, 1, 2, 4, 10, 21, 1, 86, 4, -53, 28, -29], "withholdReward": false, "trial_id": "mdp_trial_18", "block": "test", "trialIndex": 21, "score": 44, "costs": 0, "simulationMode": [null, null, null, null, null], "rewards": [-1, 2, -8, -14, 65], "path": ["0", "0", "12", "13", "14", "19", "21"], "rt": [14810, 34, 593, 252, 632], "actions": ["right", "right", "right", "down", "down"], "actionTimes": [20263, 20845, 22018, 22797, 24004], "queries": {"click": {"state": {"target": [], "time": []}, "edge": {"target": [], "time": []}}, "mouseover": {"state": {"target": ["13", "19", "22", "19"], "time": [8161, 8328, 8926, 11382]}, "edge": {"target": [], "time": []}}, "mouseout": {"state": {"target": ["21", "0", "13", "19", "22", "19"], "time": [3620, 7834, 8219, 8874, 11328, 11433]}, "edge": {"target": [], "time": []}}}, "displayed_time": "24.56", "trialTime": 26430, "trial_type": "mouselab-mdp", "trial_index": 32, "time_elapsed": 2642952, "internal_node_id": "0.0-6.0-1.0-17.0"}}, {"uniqueid": "w35031936:a58692795", "current_trial": 33, "dateTime": 1693568376996, "trialdata": {"revealed_states": [], "clicked_states": ["12", "16", "17", "20", "18", "21", "32", "31", "33"], "num_clicks_accrued": [0, 0, 0, 0, 0, 0, 0, 0, 0, 0, 0, 0, 0], "stateRewards": ["", -2, -3, 8, -4, -30, 31, 69, 9, 66, 87, 64, -2, 2, 8, 5, 47, 16, -39, -8, -54, 51, -19, 1, -2, -2, -11, -25, -26, 43, -9, 19, -84, 86], "withholdReward": false, "trial_id": "mdp_trial_19", "block": "test", "trialIndex": 22, "score": 61.4, "costs": -12.600000000000001, "simulationMode": [null, null, null, null, null], "rewards": [1, -2, -2, -9, 86], "path": ["0", "0", "23", "24", "25", "30", "33"], "rt": [21263, 10, 361, 308, 10], "actions": ["left", "left", "left", "down", "left"], "actionTimes": [24483, 25021, 25944, 26800, 27350], "queries": {"click": {"state": {"target": ["12", "16", "17", "20", "18", "21", "32", "31", "33"], "time": [5215, 7438, 9721, 12111, 14040, 15662, 17513, 19461, 21192]}, "edge": {"target": [], "time": []}}, "mouseover": {"state": {"target": ["12", "13", "12", "13", "15", "16", "16", "17", "20", "20", "14", "18", "13", "21", "32", "31", "31", "30", "33", "33", "29", "24"], "time": [4307, 4381, 4758, 5872, 6324, 6562, 7028, 8263, 10355, 10715, 12833, 13065, 14747, 15186, 16937, 18436, 19080, 20159, 20247, 20592, 22368, 23819]}, "edge": {"target": [], "time": []}}, "mouseout": {"state": {"target": ["20", "19", "12", "0", "12", "13", "12", "13", "15", "16", "16", "16", "17", "20", "20", "14", "18", "13", "21", "32", "31", "31", "30", "33", "33", "29", "24"], "time": [788, 843, 1109, 4219, 4368, 4430, 5804, 6264, 6545, 6623, 7544, 8187, 10237, 10473, 12708, 12899, 14678, 14814, 15792, 17617, 18592, 20146, 20233, 20313, 21771, 23695, 23880]}, "edge": {"target": [], "time": []}}}, "displayed_time": "27.92", "trialTime": 29295, "trial_type": "mouselab-mdp", "trial_index": 33, "time_elapsed": 2674488, "internal_node_id": "0.0-6.0-1.0-18.0"}}, {"uniqueid": "w35031936:a58692795", "current_trial": 34, "dateTime": 1693568406814, "trialdata": {"revealed_states": [], "clicked_states": ["5", "9", "11", "10", "6", "7", "16"], "num_clicks_accrued": [0, 0, 0, 0, 0, 0, 0, 0, 0, 0, 0, 0, 0], "stateRewards": ["", 2, -3, -8, 14, -7, -51, 73, 2, 36, 36, -43, -1, 3, -4, 1, 6, 87, -65, 15, 61, -42, -83, -1, 3, -2, -7, 30, -48, 35, 13, 26, 60, 78], "withholdReward": false, "trial_id": "mdp_trial_20", "block": "test", "trialIndex": 23, "score": 68.2, "costs": -9.8, "simulationMode": [null, null, null, null, null, null], "rewards": [2, -3, -8, 14, 73], "path": ["0", "0", "1", "2", "3", "4", "7"], "rt": [15940, 1474, 189, 153, 148, 152], "actions": ["up", "up", "up", "up", "right", "down"], "actionTimes": [20337, 21825, 22569, 23259, 23938, 24640], "queries": {"click": {"state": {"target": ["5", "9", "11", "10", "6", "7", "16"], "time": [6306, 8525, 10483, 12748, 15016, 17062, 18988]}, "edge": {"target": [], "time": []}}, "mouseover": {"state": {"target": ["1", "2", "5", "9", "11", "10", "6", "7", "7", "16"], "time": [5166, 5288, 5663, 7534, 9250, 11479, 13623, 15718, 16525, 18027]}, "edge": {"target": [], "time": []}}, "mouseout": {"state": {"target": ["0", "1", "2", "5", "9", "11", "11", "10", "6", "7", "7"], "time": [752, 5233, 5553, 6371, 9057, 10625, 11240, 13315, 15650, 15873, 17624]}, "edge": {"target": [], "time": []}}}, "displayed_time": "25.17", "trialTime": 27352, "trial_type": "mouselab-mdp", "trial_index": 34, "time_elapsed": 2704308, "internal_node_id": "0.0-6.0-1.0-19.0"}}, {"uniqueid": "w35031936:a58692795", "current_trial": 35, "dateTime": 1693568452821, "trialdata": {"revealed_states": [], "clicked_states": ["11", "5", "6", "17", "20", "21", "22", "32", "31", "33", "29", "27"], "num_clicks_accrued": [0, 0, 0, 0, 0, 0, 0, 0, 0, 0, 0, 0, 0], "stateRewards": ["", -1, 4, -5, 9, 29, -75, -42, -16, 24, -28, -41, 2, -3, 1, 10, 60, 47, 55, -1, -53, 22, -40, 2, -3, -6, 4, -26, 44, 54, 15, -76, 42, 14], "withholdReward": false, "trial_id": "mdp_trial_21", "block": "test", "trialIndex": 24, "score": 34.2, "costs": -16.8, "simulationMode": [null, null, null, null, null, null], "rewards": [2, -3, -6, 4, 54], "path": ["0", "0", "23", "24", "25", "26", "29"], "rt": [28831, 876, 10, 809, 417, 36], "actions": ["left", "left", "left", "left", "up", "left"], "actionTimes": [35292, 36182, 36734, 38101, 39057, 39644], "queries": {"click": {"state": {"target": ["11", "5", "6", "17", "20", "21", "22", "32", "31", "33", "29", "27"], "time": [8373, 10402, 13187, 16945, 19099, 21255, 23746, 25968, 27943, 29783, 32107, 33867]}, "edge": {"target": [], "time": []}}, "mouseover": {"state": {"target": ["1", "2", "10", "11", "9", "5", "6", "16", "17", "17", "20", "20", "21", "22", "32", "31", "30", "33", "29", "27"], "time": [7279, 7427, 7583, 7846, 9481, 9977, 11207, 14204, 15546, 16577, 17756, 18258, 19977, 22457, 24772, 26735, 28513, 28589, 30628, 32750]}, "edge": {"target": [], "time": []}}, "mouseout": {"state": {"target": ["16", "1", "2", "10", "11", "9", "5", "5", "6", "16", "17", "17", "20", "20", "21", "22", "32", "31", "30", "33", "29", "27"], "time": [1395, 7347, 7520, 7706, 8610, 9697, 10528, 11092, 14130, 15432, 15659, 17687, 17850, 19668, 22067, 24326, 26531, 28496, 28575, 30402, 32629, 33994]}, "edge": {"target": [], "time": []}}}, "displayed_time": "40.21", "trialTime": 43694, "trial_type": "mouselab-mdp", "trial_index": 35, "time_elapsed": 2750317, "internal_node_id": "0.0-6.0-1.0-20.0"}}, {"uniqueid": "w35031936:a58692795", "current_trial": 36, "dateTime": 1693568472423, "trialdata": {"revealed_states": [], "clicked_states": ["9", "11", "5"], "num_clicks_accrued": [0, 0, 0, 0, 0, 0, 0, 0, 0, 0, 0, 0, 0], "stateRewards": ["", 2, -3, -5, 5, 11, -9, -33, 6, 67, 6, -30, -1, -2, -6, 13, 55, 13, 72, -14, 75, 21, -66, -2, -4, 6, 15, -1, -35, 60, 2, 51, -73, 12], "withholdReward": false, "trial_id": "mdp_trial_22", "block": "test", "trialIndex": 25, "score": 62.8, "costs": -4.199999999999999, "simulationMode": [null, null, null, null, null, null], "rewards": [2, -3, -5, 6, 67], "path": ["0", "0", "1", "2", "3", "8", "9"], "rt": [6818, 734, 216, 604, 150, 246], "actions": ["up", "up", "up", "up", "left", "up"], "actionTimes": [9412, 10160, 10921, 12020, 12712, 13498], "queries": {"click": {"state": {"target": ["9", "11", "5"], "time": [4213, 6226, 8334]}, "edge": {"target": [], "time": []}}, "mouseover": {"state": {"target": ["1", "3", "8", "9", "11", "8", "5"], "time": [3291, 3416, 3606, 3748, 5008, 6810, 7250]}, "edge": {"target": [], "time": []}}, "mouseout": {"state": {"target": ["27", "1", "3", "8", "9", "11", "8"], "time": [673, 3347, 3500, 3661, 4844, 6795, 6875]}, "edge": {"target": [], "time": []}}}, "displayed_time": "16.60", "trialTime": 17517, "trial_type": "mouselab-mdp", "trial_index": 36, "time_elapsed": 2769916, "internal_node_id": "0.0-6.0-1.0-21.0"}}, {"uniqueid": "w35031936:a58692795", "current_trial": 37, "dateTime": 1693568495004, "trialdata": {"revealed_states": [], "clicked_states": ["32", "33", "29", "27", "28", "11"], "num_clicks_accrued": [0, 0, 0, 0, 0, 0, 0, 0, 0, 0, 0, 0, 0], "stateRewards": ["", -2, -4, 4, -11, -63, -60, -7, 2, -14, 81, -43, -1, -1, -5, 7, 10, 69, 40, 8, -83, 52, 60, 1, 2, 5, -5, 16, 64, 14, -3, 29, 7, -51], "withholdReward": false, "trial_id": "mdp_trial_23", "block": "test", "trialIndex": 26, "score": 58.6, "costs": -8.4, "simulationMode": [null, null, null, null, null], "rewards": [1, 2, 5, -5, 64], "path": ["0", "0", "23", "24", "25", "26", "28"], "rt": [13785, 61, 131, 149, 47], "actions": ["left", "left", "left", "up", "right"], "actionTimes": [16579, 17176, 17859, 18555, 19152], "queries": {"click": {"state": {"target": ["32", "33", "29", "27", "28", "11"], "time": [4498, 6738, 9390, 11446, 13394, 14996]}, "edge": {"target": [], "time": []}}, "mouseover": {"state": {"target": ["23", "31", "32", "32", "33", "29", "27", "28", "11", "10", "1"], "time": [3547, 3640, 3787, 4133, 5964, 7731, 10305, 12157, 14491, 15904, 16055]}, "edge": {"target": [], "time": []}}, "mouseout": {"state": {"target": ["5", "0", "23", "31", "32", "32", "33", "29", "27", "28", "11", "10"], "time": [259, 3496, 3595, 3693, 3838, 5239, 7362, 9990, 12046, 14046, 15835, 15975]}, "edge": {"target": [], "time": []}}}, "displayed_time": "19.72", "trialTime": 20439, "trial_type": "mouselab-mdp", "trial_index": 37, "time_elapsed": 2792498, "internal_node_id": "0.0-6.0-1.0-22.0"}}, {"uniqueid": "w35031936:a58692795", "current_trial": 38, "dateTime": 1693568521479, "trialdata": {"revealed_states": [], "clicked_states": ["5", "9"], "num_clicks_accrued": [0, 0, 0, 0, 0, 0, 0, 0, 0, 0, 0, 0, 0], "stateRewards": ["", 1, 1, 7, -11, 80, -20, -53, -14, 3, 31, 27, 2, -1, -8, -10, 33, 41, 86, 9, 78, -37, -13, -1, -2, -6, -8, -80, 75, 4, -16, -49, -74, 24], "withholdReward": false, "trial_id": "mdp_trial_24", "block": "test", "trialIndex": 27, "score": 75.2, "costs": -2.8, "simulationMode": [null, null, null, null, null, null], "rewards": [1, 1, 7, -11, 80], "path": ["0", "0", "1", "2", "3", "4", "5"], "rt": [5343, 848, 353, 584, 206, 323], "actions": ["up", "up", "up", "up", "right", "up"], "actionTimes": [12058, 12922, 13828, 14971, 15697, 16610], "queries": {"click": {"state": {"target": ["5", "9"], "time": [8969, 10570]}, "edge": {"target": [], "time": []}}, "mouseover": {"state": {"target": ["1", "2", "5", "9", "2"], "time": [7562, 7879, 8421, 10113, 11429]}, "edge": {"target": [], "time": []}}, "mouseout": {"state": {"target": ["1", "1", "2", "5", "9", "2", "0"], "time": [4987, 7673, 7930, 9802, 11312, 22534, 22620]}, "edge": {"target": [], "time": []}}}, "displayed_time": "20.73", "trialTime": 24421, "trial_type": "mouselab-mdp", "trial_index": 38, "time_elapsed": 2818971, "internal_node_id": "0.0-6.0-1.0-23.0"}}, {"uniqueid": "w35031936:a58692795", "current_trial": 39, "dateTime": 1693568545680, "trialdata": {"revealed_states": [], "clicked_states": ["11", "16", "17", "20"], "num_clicks_accrued": [0, 0, 0, 0, 0, 0, 0, 0, 0, 0, 0, 0, 0], "stateRewards": ["", -2, 4, -3, -13, 63, -36, 62, 11, 78, 34, -51, 2, -2, 8, -6, -40, -18, 31, 9, 64, 39, 79, 1, 4, -4, 15, -12, 76, 73, -10, -77, 86, -4], "withholdReward": false, "trial_id": "mdp_trial_25", "block": "test", "trialIndex": 28, "score": 75.4, "costs": -5.6, "simulationMode": [null, null, null, null, null], "rewards": [2, -2, 8, 9, 64], "path": ["0", "0", "12", "13", "14", "19", "20"], "rt": [12366, 52, 35, 182, 189], "actions": ["right", "right", "right", "down", "right"], "actionTimes": [15401, 16004, 16611, 17443, 18164], "queries": {"click": {"state": {"target": ["11", "16", "17", "20"], "time": [4671, 7438, 9809, 12029]}, "edge": {"target": [], "time": []}}, "mouseover": {"state": {"target": ["10", "11", "9", "5", "15", "16", "17", "20", "21"], "time": [3875, 4204, 5471, 5752, 6252, 6929, 8180, 11519, 13916]}, "edge": {"target": [], "time": []}}, "mouseout": {"state": {"target": ["12", "1", "0", "10", "11", "9", "5", "15", "16", "17", "20"], "time": [885, 1183, 3718, 4041, 5200, 5587, 5817, 6627, 8009, 10867, 13597]}, "edge": {"target": [], "time": []}}}, "displayed_time": "18.71", "trialTime": 21764, "trial_type": "mouselab-mdp", "trial_index": 39, "time_elapsed": 2843173, "internal_node_id": "0.0-6.0-1.0-24.0"}}, {"uniqueid": "w35031936:a58692795", "current_trial": 40, "dateTime": 1693568573310, "trialdata": {"revealed_states": [], "clicked_states": ["11", "27", "29", "33", "32", "31", "22"], "num_clicks_accrued": [0, 0, 0, 0, 0, 0, 0, 0, 0, 0, 0, 0, 0], "stateRewards": ["", -2, -4, -2, 10, -8, -15, -47, 7, -84, 53, 5, -1, 2, -7, 3, 83, 31, 47, -1, 30, -8, 69, 2, -4, -1, 8, -7, 12, -8, -8, -13, 30, -84], "withholdReward": false, "trial_id": "mdp_trial_26", "block": "test", "trialIndex": 29, "score": 52.2, "costs": -9.8, "simulationMode": [null, null, null, null, null], "rewards": [-1, 2, -7, -1, 69], "path": ["0", "0", "12", "13", "14", "19", "22"], "rt": [17795, 305, 281, 164, 30], "actions": ["right", "right", "right", "down", "left"], "actionTimes": [21041, 21899, 22725, 23381, 23951], "queries": {"click": {"state": {"target": ["11", "27", "29", "33", "32", "31", "22"], "time": [5253, 7660, 9522, 12432, 14166, 16267, 18105]}, "edge": {"target": [], "time": []}}, "mouseover": {"state": {"target": ["1", "11", "27", "29", "33", "32", "31", "22", "21"], "time": [4485, 4714, 6002, 8351, 10634, 13122, 15179, 17567, 19160]}, "edge": {"target": [], "time": []}}, "mouseout": {"state": {"target": ["21", "22", "12", "1", "11", "11", "27", "29", "33", "32", "31", "22"], "time": [1025, 1119, 1348, 4542, 5386, 5889, 8240, 10157, 13001, 14722, 16931, 19029]}, "edge": {"target": [], "time": []}}}, "displayed_time": "24.51", "trialTime": 25381, "trial_type": "mouselab-mdp", "trial_index": 40, "time_elapsed": 2870804, "internal_node_id": "0.0-6.0-1.0-25.0"}}, {"uniqueid": "w35031936:a58692795", "current_trial": 41, "dateTime": 1693568594810, "trialdata": {"revealed_states": [], "clicked_states": ["9", "5", "6", "16"], "num_clicks_accrued": [0, 0, 0, 0, 0, 0, 0, 0, 0, 0, 0, 0, 0], "stateRewards": ["", -1, 4, -8, 12, 14, 69, -8, 5, -72, -14, 56, -1, -1, -1, 9, 67, 19, 11, -9, -88, -58, 3, 2, -4, -8, 4, 62, 77, -74, 5, -31, 65, 88], "withholdReward": false, "trial_id": "mdp_trial_27", "block": "test", "trialIndex": 30, "score": 70.4, "costs": -5.6, "simulationMode": [null, null, null, null, null, null], "rewards": [-1, 4, -8, 12, 69], "path": ["0", "0", "1", "2", "3", "4", "6"], "rt": [8750, 2863, 452, 553, 261, 178], "actions": ["up", "up", "up", "up", "right", "right"], "actionTimes": [11425, 14304, 15301, 16385, 17182, 17906], "queries": {"click": {"state": {"target": ["9", "5", "6", "16"], "time": [4376, 6043, 8383, 10185]}, "edge": {"target": [], "time": []}}, "mouseover": {"state": {"target": ["1", "8", "9", "5", "6", "16"], "time": [3413, 3681, 3917, 5447, 6805, 9081]}, "edge": {"target": [], "time": []}}, "mouseout": {"state": {"target": ["21", "0", "1", "8", "9", "5", "6"], "time": [528, 890, 3478, 3847, 5377, 6194, 8927]}, "edge": {"target": [], "time": []}}}, "displayed_time": "18.46", "trialTime": 19196, "trial_type": "mouselab-mdp", "trial_index": 41, "time_elapsed": 2892304, "internal_node_id": "0.0-6.0-1.0-26.0"}}, {"uniqueid": "w35031936:a58692795", "current_trial": 42, "dateTime": 1693568623293, "trialdata": {"revealed_states": [], "clicked_states": ["29", "33", "32", "21", "20", "22", "18"], "num_clicks_accrued": [0, 0, 0, 0, 0, 0, 0, 0, 0, 0, 0, 0, 0], "stateRewards": ["", -1, 3, -7, 16, -32, -74, -48, 2, 10, 15, -30, 1, 1, -2, 10, 12, -83, 67, 13, -66, 47, 65, -2, 4, 2, -14, -8, -57, 24, 9, 65, 12, 46], "withholdReward": false, "trial_id": "mdp_trial_28", "block": "test", "trialIndex": 31, "score": 68.2, "costs": -9.8, "simulationMode": [null, null, null, null, null, null], "rewards": [1, 1, -2, 13, 65], "path": ["0", "0", "12", "13", "14", "19", "22"], "rt": [15052, 1668, 213, 350, 95, 139], "actions": ["right", "right", "right", "right", "down", "left"], "actionTimes": [17876, 19559, 20310, 21176, 21807, 22534], "queries": {"click": {"state": {"target": ["29", "33", "32", "21", "20", "22", "18"], "time": [4590, 6864, 8737, 10917, 12926, 14719, 16770]}, "edge": {"target": [], "time": []}}, "mouseover": {"state": {"target": ["28", "26", "29", "33", "32", "21", "20", "19", "22", "18"], "time": [3765, 3873, 4151, 5459, 7514, 9722, 11706, 13939, 14283, 16255]}, "edge": {"target": [], "time": []}}, "mouseout": {"state": {"target": ["16", "12", "0", "28", "26", "29", "33", "33", "32", "21", "20", "19", "22"], "time": [712, 1081, 3629, 3815, 3935, 5277, 6983, 7390, 9274, 11469, 13870, 14059, 15829]}, "edge": {"target": [], "time": []}}}, "displayed_time": "23.09", "trialTime": 26234, "trial_type": "mouselab-mdp", "trial_index": 42, "time_elapsed": 2920786, "internal_node_id": "0.0-6.0-1.0-27.0"}}, {"uniqueid": "w35031936:a58692795", "current_trial": 43, "dateTime": 1693568660654, "trialdata": {"revealed_states": [], "clicked_states": ["9", "5", "17", "16", "6", "7", "11", "33", "32", "31", "29"], "num_clicks_accrued": [0, 0, 0, 0, 0, 0, 0, 0, 0, 0, 0, 0, 0], "stateRewards": ["", -2, -1, -1, 5, -54, -87, 35, 2, -8, 20, -22, 1, 3, 6, 13, -75, -32, -55, -3, 56, 62, -22, -1, -4, -1, -7, -51, 84, 70, 7, -15, 5, 55], "withholdReward": false, "trial_id": "mdp_trial_29", "block": "test", "trialIndex": 32, "score": 41.599999999999994, "costs": -15.400000000000002, "simulationMode": [null, null, null, null, null], "rewards": [-1, -4, -1, -7, 70], "path": ["0", "0", "23", "24", "25", "26", "29"], "rt": [25628, 12, 177, 256, 14], "actions": ["left", "left", "left", "up", "left"], "actionTimes": [30147, 30707, 31454, 32262, 32801], "queries": {"click": {"state": {"target": ["9", "5", "17", "16", "6", "7", "11", "33", "32", "31", "29"], "time": [6261, 8481, 10699, 12864, 14748, 16692, 19113, 21343, 22963, 24916, 27168]}, "edge": {"target": [], "time": []}}, "mouseover": {"state": {"target": ["1", "8", "9", "5", "6", "16", "17", "16", "6", "7", "11", "26", "33", "32", "31", "29", "27"], "time": [5316, 5507, 5721, 7148, 9101, 9186, 9487, 11822, 13619, 15704, 17899, 19864, 20183, 22006, 23677, 26699, 28147]}, "edge": {"target": [], "time": []}}, "mouseout": {"state": {"target": ["0", "1", "8", "9", "5", "6", "16", "17", "16", "6", "7", "11", "26", "33", "32", "31", "29"], "time": [2899, 5371, 5600, 6890, 9017, 9171, 9419, 11448, 13544, 15387, 17191, 19798, 19932, 21891, 23115, 25051, 27868]}, "edge": {"target": [], "time": []}}}, "displayed_time": "33.34", "trialTime": 35026, "trial_type": "mouselab-mdp", "trial_index": 43, "time_elapsed": 2958148, "internal_node_id": "0.0-6.0-1.0-28.0"}}, {"uniqueid": "w35031936:a58692795", "current_trial": 44, "dateTime": 1693568707294, "trialdata": {"revealed_states": [], "clicked_states": ["9", "5", "6", "7", "10", "11", "27", "29", "33", "32", "31", "21", "22", "20", "17", "16", "18"], "num_clicks_accrued": [0, 0, 0, 0, 0, 0, 0, 0, 0, 0, 0, 0, 0], "stateRewards": ["", -1, 1, -5, -6, -78, 47, -13, 12, 48, -88, 20, 2, -3, -2, 13, -20, 37, -57, 14, -38, 30, 31, -2, -2, 8, 2, -23, 78, 28, 12, -74, -88, 8], "withholdReward": false, "trial_id": "mdp_trial_30", "block": "test", "trialIndex": 33, "score": 31.200000000000006, "costs": -23.799999999999994, "simulationMode": [null, null, null, null, null], "rewards": [-1, 1, -5, 12, 48], "path": ["0", "0", "1", "2", "3", "8", "9"], "rt": [35502, 41, 334, 394, 68], "actions": ["up", "up", "up", "left", "up"], "actionTimes": [38254, 38831, 39728, 40658, 41281], "queries": {"click": {"state": {"target": ["9", "5", "6", "7", "10", "11", "27", "29", "33", "32", "31", "21", "22", "20", "17", "16", "18"], "time": [4298, 5887, 7512, 10270, 12421, 14354, 16336, 18295, 20143, 22000, 23917, 25949, 28015, 29920, 31900, 33876, 35462]}, "edge": {"target": [], "time": []}}, "mouseover": {"state": {"target": ["1", "8", "9", "5", "6", "7", "2", "10", "11", "27", "29", "33", "32", "31", "21", "22", "20", "17", "16", "18"], "time": [3522, 3698, 3861, 5236, 7094, 8489, 10953, 11323, 13727, 15203, 17137, 19763, 21060, 22646, 25323, 26930, 28639, 31037, 32610, 34822]}, "edge": {"target": [], "time": []}}, "mouseout": {"state": {"target": ["27", "1", "1", "8", "9", "5", "6", "7", "2", "10", "11", "27", "29", "33", "32", "31", "21", "22", "20", "17", "16"], "time": [658, 1044, 3574, 3783, 4402, 6974, 8266, 10937, 11074, 13178, 15077, 16866, 18821, 20800, 22137, 24586, 26612, 28508, 30476, 32506, 34651]}, "edge": {"target": [], "time": []}}}, "displayed_time": "41.83", "trialTime": 44370, "trial_type": "mouselab-mdp", "trial_index": 44, "time_elapsed": 3004787, "internal_node_id": "0.0-6.0-1.0-29.0"}}, {"uniqueid": "w35031936:a58692795", "current_trial": 45, "dateTime": 1693568732328, "trialdata": {"revealed_states": [], "clicked_states": ["9", "5", "6", "7", "10", "11"], "num_clicks_accrued": [0, 0, 0, 0, 0, 0, 0, 0, 0, 0, 0, 0, 0], "stateRewards": ["", -1, 3, -5, -2, -13, -9, -34, -7, -81, 32, 35, -2, -2, 1, -14, -32, 81, 7, 4, 82, 56, -8, -1, 3, -8, 6, -24, -24, -53, 2, 38, 61, 54], "withholdReward": false, "trial_id": "mdp_trial_31", "block": "test", "trialIndex": 34, "score": 16.6, "costs": -8.4, "simulationMode": [null, null, null, null, null], "rewards": [-1, 3, -5, -7, 35], "path": ["0", "0", "1", "2", "3", "8", "11"], "rt": [14630, 352, 843, 51, 13], "actions": ["up", "up", "up", "left", "left"], "actionTimes": [18023, 18920, 20303, 20904, 21487], "queries": {"click": {"state": {"target": ["9", "5", "6", "7", "10", "11"], "time": [4896, 7055, 8881, 10771, 12842, 15120]}, "edge": {"target": [], "time": []}}, "mouseover": {"state": {"target": ["2", "8", "9", "5", "5", "6", "7", "2", "10", "11"], "time": [4116, 4315, 4435, 5599, 6008, 7753, 9603, 11769, 12108, 13814]}, "edge": {"target": [], "time": []}}, "mouseout": {"state": {"target": ["18", "23", "23", "0", "2", "8", "9", "5", "5", "6", "7", "2", "10"], "time": [1081, 1259, 1540, 4047, 4176, 4368, 5008, 5665, 7673, 9487, 11670, 11940, 13623]}, "edge": {"target": [], "time": []}}}, "displayed_time": "22.05", "trialTime": 22933, "trial_type": "mouselab-mdp", "trial_index": 45, "time_elapsed": 3029822, "internal_node_id": "0.0-6.0-1.0-30.0"}}, {"uniqueid": "w35031936:a58692795", "current_trial": 46, "dateTime": 1693568752796, "trialdata": {"revealed_states": [], "clicked_states": ["29", "33", "32"], "num_clicks_accrued": [0, 0, 0, 0, 0, 0, 0, 0, 0, 0, 0, 0, 0], "stateRewards": ["", 2, 4, -3, 16, -58, 30, -35, 11, -60, 47, 27, -2, -1, -7, -16, 23, -70, 68, -10, -65, -43, -34, -2, 1, 7, 9, -63, 34, -31, -8, -12, -86, 59], "withholdReward": false, "trial_id": "mdp_trial_32", "block": "test", "trialIndex": 35, "score": 52.8, "costs": -4.199999999999999, "simulationMode": [null, null, null, null, null], "rewards": [-2, 1, 7, -8, 59], "path": ["0", "0", "23", "24", "25", "30", "33"], "rt": [7266, 13, 46, 186, 13], "actions": ["left", "left", "left", "down", "left"], "actionTimes": [9642, 10220, 10826, 11583, 12150], "queries": {"click": {"state": {"target": ["29", "33", "32"], "time": [4008, 6484, 8081]}, "edge": {"target": [], "time": []}}, "mouseover": {"state": {"target": ["23", "24", "25", "29", "33", "32"], "time": [3134, 3207, 3279, 3445, 4835, 7143]}, "edge": {"target": [], "time": []}}, "mouseout": {"state": {"target": ["0", "23", "24", "25", "29", "33", "32"], "time": [807, 3192, 3268, 3349, 4664, 7018, 9038]}, "edge": {"target": [], "time": []}}}, "displayed_time": "16.38", "trialTime": 17939, "trial_type": "mouselab-mdp", "trial_index": 46, "time_elapsed": 3050290, "internal_node_id": "0.0-6.0-1.0-31.0"}}, {"uniqueid": "w35031936:a58692795", "current_trial": 47, "dateTime": 1693568777575, "trialdata": {"revealed_states": [], "clicked_states": ["9", "5", "16", "6", "11", "27"], "num_clicks_accrued": [0, 0, 0, 0, 0, 0, 0, 0, 0, 0, 0, 0, 0], "stateRewards": ["", -1, -2, 8, -6, -79, -6, 87, 9, -5, -66, -38, 2, 2, 5, -6, -82, 74, 85, -8, 67, -30, -15, 1, -2, -2, -2, 87, 64, 49, 7, 2, -38, -9], "withholdReward": false, "trial_id": "mdp_trial_33", "block": "test", "trialIndex": 36, "score": 73.6, "costs": -8.4, "simulationMode": [null, null, null, null, null], "rewards": [1, -2, -2, -2, 87], "path": ["0", "0", "23", "24", "25", "26", "27"], "rt": [14932, 108, 275, 181, 57], "actions": ["left", "left", "left", "up", "up"], "actionTimes": [17970, 18673, 19515, 20230, 20822], "queries": {"click": {"state": {"target": ["9", "5", "16", "6", "11", "27"], "time": [5704, 7586, 9321, 11359, 13004, 15068]}, "edge": {"target": [], "time": []}}, "mouseover": {"state": {"target": ["2", "9", "5", "6", "16", "6", "11", "27", "29"], "time": [3872, 5210, 6566, 8195, 8430, 10075, 12561, 13795, 15993]}, "edge": {"target": [], "time": []}}, "mouseout": {"state": {"target": ["22", "0", "2", "9", "5", "6", "16", "6", "11", "27"], "time": [283, 3779, 3970, 6217, 8111, 8266, 9894, 12062, 13661, 15647]}, "edge": {"target": [], "time": []}}}, "displayed_time": "21.40", "trialTime": 22217, "trial_type": "mouselab-mdp", "trial_index": 47, "time_elapsed": 3075069, "internal_node_id": "0.0-6.0-1.0-32.0"}}, {"uniqueid": "w35031936:a58692795", "current_trial": 48, "dateTime": 1693568798102, "trialdata": {"revealed_states": [], "clicked_states": ["21", "22", "20", "17"], "num_clicks_accrued": [0, 0, 0, 0, 0, 0, 0, 0, 0, 0, 0, 0, 0], "stateRewards": ["", -1, 3, 1, -7, 56, 76, 57, 3, 11, -9, 14, 1, -2, 2, 8, -77, -3, 79, -5, 88, 24, -66, -2, -1, 7, -7, -30, 14, -76, 11, -36, 28, -6], "withholdReward": false, "trial_id": "mdp_trial_34", "block": "test", "trialIndex": 37, "score": 78.4, "costs": -5.6, "simulationMode": [null, null, null, null, null], "rewards": [1, -2, 2, -5, 88], "path": ["0", "0", "12", "13", "14", "19", "20"], "rt": [9495, 62, 246, 184, 262], "actions": ["right", "right", "right", "down", "right"], "actionTimes": [12794, 13396, 14185, 14919, 15717], "queries": {"click": {"state": {"target": ["21", "22", "20", "17"], "time": [4755, 6965, 8958, 10579]}, "edge": {"target": [], "time": []}}, "mouseover": {"state": {"target": ["21", "22", "19", "20", "17"], "time": [3990, 5667, 7516, 7842, 10163]}, "edge": {"target": [], "time": []}}, "mouseout": {"state": {"target": ["29", "26", "23", "0", "21", "22", "19", "20"], "time": [623, 805, 1142, 3893, 5430, 7433, 7649, 9640]}, "edge": {"target": [], "time": []}}}, "displayed_time": "17.31", "trialTime": 18066, "trial_type": "mouselab-mdp", "trial_index": 48, "time_elapsed": 3095595, "internal_node_id": "0.0-6.0-1.0-33.0"}}, {"uniqueid": "w35031936:a58692795", "current_trial": 49, "dateTime": 1693568818107, "trialdata": {"revealed_states": [], "clicked_states": ["9", "11", "29"], "num_clicks_accrued": [0, 0, 0, 0, 0, 0, 0, 0, 0, 0, 0, 0, 0], "stateRewards": ["", 2, -4, 1, -12, -59, -53, -74, 16, -88, -66, 66, 1, -2, 8, -9, -14, 22, 25, -1, -39, 47, -14, -1, -1, -2, 1, -4, 52, -26, 15, -7, 46, 43], "withholdReward": false, "trial_id": "mdp_trial_35", "block": "test", "trialIndex": 38, "score": 76.8, "costs": -4.199999999999999, "simulationMode": [null, null, null, null, null], "rewards": [2, -4, 1, 16, 66], "path": ["0", "0", "1", "2", "3", "8", "11"], "rt": [8080, 91, 733, 733, 111], "actions": ["up", "up", "up", "left", "left"], "actionTimes": [11202, 11833, 13142, 14553, 15221], "queries": {"click": {"state": {"target": ["9", "11", "29"], "time": [4896, 7471, 9062]}, "edge": {"target": [], "time": []}}, "mouseover": {"state": {"target": ["1", "8", "9", "11", "27", "29", "27", "2"], "time": [3984, 4198, 4516, 5647, 8169, 8523, 10039, 10292]}, "edge": {"target": [], "time": []}}, "mouseout": {"state": {"target": ["17", "18", "0", "1", "8", "9", "11", "27", "29", "27", "2"], "time": [613, 696, 3968, 4059, 4332, 5523, 8155, 8273, 9954, 10124, 10377]}, "edge": {"target": [], "time": []}}}, "displayed_time": "17.13", "trialTime": 17536, "trial_type": "mouselab-mdp", "trial_index": 49, "time_elapsed": 3115601, "internal_node_id": "0.0-6.0-1.0-34.0"}}, {"uniqueid": "w35031936:a58692795", "current_trial": 50, "dateTime": 1693568852851, "trialdata": {"revealed_states": [], "clicked_states": ["9", "5", "6", "7"], "num_clicks_accrued": [0, 0, 0, 0, 0, 0, 0, 0, 0, 0, 0, 0, 0], "stateRewards": ["", 1, -3, -6, -5, 47, 80, -29, 11, -71, 10, -29, -2, 3, -6, 12, 2, -78, -6, 8, 34, -16, -5, -1, 3, 3, -13, 84, -36, -62, -3, -27, 66, 15], "withholdReward": false, "trial_id": "mdp_trial_36", "block": "test", "trialIndex": 39, "score": 61.4, "costs": -5.6, "simulationMode": [null, null, null, null, null], "rewards": [1, -3, -6, -5, 80], "path": ["0", "0", "1", "2", "3", "4", "6"], "rt": [10457, 7724, 481, 6090, 172], "actions": ["up", "up", "up", "right", "right"], "actionTimes": [13496, 21883, 22958, 30022, 30762], "queries": {"click": {"state": {"target": ["9", "5", "6", "7"], "time": [5468, 7680, 9957, 11764]}, "edge": {"target": [], "time": []}}, "mouseover": {"state": {"target": ["2", "9", "5", "6", "7"], "time": [3857, 5039, 6539, 8766, 10715]}, "edge": {"target": [], "time": []}}, "mouseout": {"state": {"target": ["0", "2", "9", "5", "6", "7"], "time": [1284, 3961, 6097, 8413, 10595, 11876]}, "edge": {"target": [], "time": []}}}, "displayed_time": "31.30", "trialTime": 31937, "trial_type": "mouselab-mdp", "trial_index": 50, "time_elapsed": 3150342, "internal_node_id": "0.0-6.0-1.0-35.0"}}, {"uniqueid": "w35031936:a58692795", "current_trial": 51, "dateTime": 1693568873656, "trialdata": {"revealed_states": [], "clicked_states": ["5", "9", "11"], "num_clicks_accrued": [0, 0, 0, 0, 0, 0, 0, 0, 0, 0, 0, 0, 0], "stateRewards": ["", -2, 2, -5, 1, 42, -63, -58, -6, 2, 16, 81, -2, 4, 7, -10, 33, 3, -33, -2, -52, -84, -27, 2, -3, -3, 15, -74, -14, -5, -5, -84, 79, -31], "withholdReward": false, "trial_id": "mdp_trial_37", "block": "test", "trialIndex": 40, "score": 65.8, "costs": -4.199999999999999, "simulationMode": [null, null, null, null, null], "rewards": [-2, 2, -5, -6, 81], "path": ["0", "0", "1", "2", "3", "8", "11"], "rt": [9726, 47, 172, 111, 44], "actions": ["up", "up", "up", "left", "left"], "actionTimes": [12908, 13497, 14222, 14847, 15500], "queries": {"click": {"state": {"target": ["5", "9", "11"], "time": [5253, 7705, 9736]}, "edge": {"target": [], "time": []}}, "mouseover": {"state": {"target": ["1", "2", "5", "9", "11", "27", "27", "26"], "time": [4125, 4396, 4625, 6129, 8450, 10958, 11571, 12127]}, "edge": {"target": [], "time": []}}, "mouseout": {"state": {"target": ["2", "1", "0", "1", "2", "5", "9", "11", "27", "27"], "time": [738, 989, 4043, 4382, 4491, 5922, 8372, 10881, 11081, 12013]}, "edge": {"target": [], "time": []}}}, "displayed_time": "17.19", "trialTime": 17722, "trial_type": "mouselab-mdp", "trial_index": 51, "time_elapsed": 3171150, "internal_node_id": "0.0-6.0-1.0-36.0"}}, {"uniqueid": "w35031936:a58692795", "current_trial": 52, "dateTime": 1693568893937, "trialdata": {"revealed_states": [], "clicked_states": ["21", "22", "32", "33"], "num_clicks_accrued": [0, 0, 0, 0, 0, 0, 0, 0, 0, 0, 0, 0, 0], "stateRewards": ["", 1, -2, -8, -3, 31, -84, -55, -14, 15, -58, 17, -2, -3, 7, 7, -12, 48, 67, 4, -44, -68, 46, 2, 3, -5, -7, 76, 27, 5, 11, 57, 52, 59], "withholdReward": false, "trial_id": "mdp_trial_38", "block": "test", "trialIndex": 41, "score": 64.4, "costs": -5.6, "simulationMode": [null, null, null, null, null, null], "rewards": [2, 3, -5, 11, 59], "path": ["0", "0", "23", "24", "25", "30", "33"], "rt": [8692, 858, 127, 251, 238, 14], "actions": ["left", "left", "left", "left", "down", "left"], "actionTimes": [11928, 12799, 13482, 14298, 15098, 15671], "queries": {"click": {"state": {"target": ["21", "22", "32", "33"], "time": [4916, 7040, 8640, 10559]}, "edge": {"target": [], "time": []}}, "mouseover": {"state": {"target": ["21", "22", "32", "33"], "time": [4516, 5787, 8084, 9784]}, "edge": {"target": [], "time": []}}, "mouseout": {"state": {"target": ["26", "24", "0", "21", "22", "32"], "time": [529, 646, 4000, 5438, 7658, 9516]}, "edge": {"target": [], "time": []}}}, "displayed_time": "17.24", "trialTime": 17798, "trial_type": "mouselab-mdp", "trial_index": 52, "time_elapsed": 3191431, "internal_node_id": "0.0-6.0-1.0-37.0"}}, {"uniqueid": "w35031936:a58692795", "current_trial": 53, "dateTime": 1693568922630, "trialdata": {"revealed_states": [], "clicked_states": ["9", "11", "27", "29", "33", "32"], "num_clicks_accrued": [0, 0, 0, 0, 0, 0, 0, 0, 0, 0, 0, 0, 0], "stateRewards": ["", 1, 1, 6, -14, -40, 37, 16, -13, 33, -68, 49, 2, 4, 3, 6, 55, 27, 32, 10, -65, 20, -87, 2, 1, -6, -5, -42, 12, 29, -8, 16, 76, -33], "withholdReward": false, "trial_id": "mdp_trial_39", "block": "test", "trialIndex": 42, "score": 56.6, "costs": -8.4, "simulationMode": [null, null, null, null, null], "rewards": [2, 1, -6, -8, 76], "path": ["0", "0", "23", "24", "25", "30", "32"], "rt": [15220, 91, 205, 95, 15], "actions": ["left", "left", "left", "down", "down"], "actionTimes": [18627, 19241, 20005, 20626, 21211], "queries": {"click": {"state": {"target": ["9", "11", "27", "29", "33", "32"], "time": [5083, 7300, 9078, 11541, 13616, 15742]}, "edge": {"target": [], "time": []}}, "mouseover": {"state": {"target": ["2", "3", "9", "11", "27", "29", "33", "32", "31"], "time": [4246, 4330, 4724, 5967, 8079, 10029, 12504, 14350, 16412]}, "edge": {"target": [], "time": []}}, "mouseout": {"state": {"target": ["33", "30", "31", "2", "3", "9", "11", "27", "29", "29", "33", "33", "32"], "time": [958, 1010, 1105, 4315, 4393, 5783, 7880, 9774, 11658, 12129, 13738, 14273, 15850]}, "edge": {"target": [], "time": []}}}, "displayed_time": "21.76", "trialTime": 26141, "trial_type": "mouselab-mdp", "trial_index": 53, "time_elapsed": 3220124, "internal_node_id": "0.0-6.0-1.0-38.0"}}, {"uniqueid": "w35031936:a58692795", "current_trial": 54, "dateTime": 1693568950432, "trialdata": {"revealed_states": [], "clicked_states": ["9", "5", "6", "16", "17", "20"], "num_clicks_accrued": [0, 0, 0, 0, 0, 0, 0, 0, 0, 0, 0, 0, 0], "stateRewards": ["", 2, 3, 6, -12, -29, 12, 87, 4, 35, -30, 67, 2, 3, -5, -9, 44, 69, -8, 1, 45, -8, 28, -2, -1, -8, 11, -12, -5, 81, 9, 87, 82, 88], "withholdReward": false, "trial_id": "mdp_trial_40", "block": "test", "trialIndex": 43, "score": 51.6, "costs": -8.4, "simulationMode": [null, null, null, null, null], "rewards": [2, 3, -5, -9, 69], "path": ["0", "0", "12", "13", "14", "15", "17"], "rt": [14142, 44, 356, 770, 111], "actions": ["right", "right", "right", "up", "right"], "actionTimes": [17281, 17840, 18756, 20101, 20740], "queries": {"click": {"state": {"target": ["9", "5", "6", "16", "17", "20"], "time": [5158, 7299, 9068, 11065, 12804, 14767]}, "edge": {"target": [], "time": []}}, "mouseover": {"state": {"target": ["2", "9", "5", "6", "16", "17", "20", "21"], "time": [4124, 4851, 5948, 8119, 9886, 11849, 13683, 15909]}, "edge": {"target": [], "time": []}}, "mouseout": {"state": {"target": ["31", "0", "2", "9", "5", "6", "16", "17", "17", "20"], "time": [738, 4046, 4188, 5699, 7881, 9608, 11663, 12918, 13436, 15548]}, "edge": {"target": [], "time": []}}}, "displayed_time": "21.28", "trialTime": 25216, "trial_type": "mouselab-mdp", "trial_index": 54, "time_elapsed": 3247925, "internal_node_id": "0.0-6.0-1.0-39.0"}}, {"uniqueid": "w35031936:a58692795", "current_trial": 55, "dateTime": 1693569020571, "trialdata": {"rt": 69493, "response": {"Q0": "$-88 to $88", "Q1": "$-16 to $16", "Q2": "$-88 to $88", "Q3": "The cost for clicking on nodes varied between nodes.", "Q4": "Slightly motivated"}, "question_order": [0, 1, 2, 3, 4], "trial_id": "final_quiz_control", "trial_type": "survey-multi-choice", "trial_index": 55, "time_elapsed": 3318065, "internal_node_id": "0.0-6.0-2.0"}}, {"uniqueid": "w35031936:a58692795", "current_trial": 56, "dateTime": 1693569094696, "trialdata": {"rt": 73755, "response": {"Q0": "to revel the lasy node", "Q1": "yes but choosing the highest number", "Q2": "it was not difficult"}, "trial_id": "self_report_control", "trial_type": "survey-text", "trial_index": 56, "time_elapsed": 3392192, "internal_node_id": "0.0-6.0-3.0"}}, {"uniqueid": "w35031936:a58692795", "current_trial": 57, "dateTime": 1693569126946, "trialdata": {"rt": 32102, "response": {"gender": "female", "age": "24", "colorblind": "1", "effort": "0"}, "trial_type": "survey-html-form", "trial_index": 57, "time_elapsed": 3424443, "internal_node_id": "0.0-6.0-4.0"}}, {"uniqueid": "w35031936:a58692795", "current_trial": 58, "dateTime": 1693569150027, "trialdata": {"rt": 23017, "response": {"Q0": "no", "Q1": "no", "Q2": ""}, "trial_type": "survey-text", "trial_index": 58, "time_elapsed": 3447524, "internal_node_id": "0.0-6.0-5.0"}}], "questiondata": {"params": {"CODE": "C6DMOQA6", "MIN_TIME": 14, "inspectCost": 1, "startTime": "Fri Sep 01 2023 12:54:58 GMT+0200 (South Africa Standard Time)", "bonusRate": 0.002, "variance": "1_2_4_8_44", "branching": "31123"}}, "eventdata": [{"eventtype": "initialized", "value": null, "timestamp": 1693565697229, "interval": 0}, {"eventtype": "window_resize", "value": [1024, 654], "timestamp": 1693565697229, "interval": 0}, {"eventtype": "window_resize", "value": [1024, 654], "timestamp": 1693565698232, "interval": 1003}, {"eventtype": "window_resize", "value": [1366, 768], "timestamp": 1693565709518, "interval": 11286}, {"eventtype": "window_resize", "value": [1024, 654], "timestamp": 1693566078533, "interval": 369015}, {"eventtype": "focus", "value": "off", "timestamp": 1693566079697, "interval": 1164}, {"eventtype": "focus", "value": "on", "timestamp": 1693566121373, "interval": 41676}, {"eventtype": "window_resize", "value": [1366, 670], "timestamp": 1693566123876, "interval": 2503}, {"eventtype": "focus", "value": "off", "timestamp": 1693566825551, "interval": 701675}, {"eventtype": "focus", "value": "on", "timestamp": 1693566825553, "interval": 2}, {"eventtype": "window_resize", "value": [1366, 768], "timestamp": 1693566831371, "interval": 5818}], "useragent": "Mozilla/5.0 (Windows NT 10.0; Win64; x64) AppleWebKit/537.36 (KHTML, like Gecko) Chrome/116.0.0.0 Safari/537.36", "mode": "live", "id": "w35031936:a58692795", "status": "user data saved", "Beginhit": "2023-09-01 10:54:51.678457", "Beginexp": "2023-09-01 10:55:11.27759", "Endhit": null, "psiturkStatus": 2, "browser": "<redacted>", "platform": "windows", "language": "en-ZA"}