{"condition": 1, "counterbalance": 0, "assignmentId": "a85096271", "workerId": "w25001236", "hitId": "h31804577", "currenttrial": 56, "bonus": 0, "data": [{"uniqueid": "w25001236:a85096271", "current_trial": 0, "dateTime": 1691159619090, "trialdata": {"success": true, "trial_type": "fullscreen", "trial_index": 0, "time_elapsed": 67822, "internal_node_id": "0.0-0.0"}}, {"uniqueid": "w25001236:a85096271", "current_trial": 1, "dateTime": 1691159657637, "trialdata": {"view_history": [{"page_index": 0, "viewing_time": 38511}], "rt": 38515, "trial_id": "exp_instructions_misaligned", "trial_type": "instructions", "trial_index": 1, "time_elapsed": 106370, "internal_node_id": "0.0-1.0"}}, {"uniqueid": "w25001236:a85096271", "current_trial": 2, "dateTime": 1691159664732, "trialdata": {"success": true, "trial_type": "fullscreen", "trial_index": 2, "time_elapsed": 113466, "internal_node_id": "0.0-2.0-0.0"}}, {"uniqueid": "w25001236:a85096271", "current_trial": 3, "dateTime": 1691160090480, "trialdata": {"view_history": [{"page_index": 0, "viewing_time": 81822}, {"page_index": 1, "viewing_time": 23341}, {"page_index": 0, "viewing_time": 2522}, {"page_index": 1, "viewing_time": 2986}, {"page_index": 2, "viewing_time": 7798}, {"page_index": 1, "viewing_time": 161096}, {"page_index": 2, "viewing_time": 73983}, {"page_index": 3, "viewing_time": 72189}], "rt": 425738, "trial_id": "mouselab_instructions_1_misaligned", "trial_type": "instructions", "trial_index": 3, "time_elapsed": 539213, "internal_node_id": "0.0-2.0-1.0"}}, {"uniqueid": "w25001236:a85096271", "current_trial": 4, "dateTime": 1691160118917, "trialdata": {"revealed_states": [], "clicked_states": [], "num_clicks_accrued": [0, 0, 0, 0, 0, 0, 0, 0, 0, 0, 0, 0, 0], "stateRewards": ["", 10, 10, -10, 10, -10, -10, -10, 10, -10, 10, -10, -10, 10, -10, -10, -10, -10, -10, 10, 10, -10, 10, -10, -10, -10, -10, 10, -10, -10, 10, -10, 10, 10], "withholdReward": false, "trial_id": "practice_1", "block": "test", "trialIndex": 0, "score": -26.5, "costs": 0, "simulationMode": [null, null, null, null, null], "rewards": [-10, -10, -10, -10, 10], "path": ["0", "0", "23", "24", "25", "26", "27"], "rt": [4995, 1381, 4892, 1672, 56], "actions": ["left", "left", "left", "up", "up"], "actionTimes": [9689, 11578, 16969, 19164, 19726], "queries": {"click": {"state": {"target": [], "time": []}, "edge": {"target": [], "time": []}}, "mouseover": {"state": {"target": ["23"], "time": [7628]}, "edge": {"target": [], "time": []}}, "mouseout": {"state": {"target": ["0", "23", "25", "26", "28", "23"], "time": [7315, 12929, 13057, 15577, 15608, 24148]}, "edge": {"target": [], "time": []}}}, "displayed_time": "20.27", "trialTime": 26979, "trial_type": "mouselab-mdp", "trial_index": 4, "time_elapsed": 567649, "internal_node_id": "0.0-2.0-2.0-0.0"}}, {"uniqueid": "w25001236:a85096271", "current_trial": 5, "dateTime": 1691160153961, "trialdata": {"revealed_states": [], "clicked_states": ["15"], "num_clicks_accrued": [0, 0, 0, 0, 0, 0, 0, 0, 0, 0, 0, 0, 0], "stateRewards": ["", -10, -10, -10, -10, 10, 10, -10, -10, 10, -10, 10, 10, -10, 10, -10, 10, -10, 10, -10, 10, 10, 10, 10, 10, -10, 10, -10, 10, -10, 10, 10, 10, -10], "withholdReward": false, "trial_id": "practice_2", "block": "test", "trialIndex": 1, "score": -27, "costs": -0.5, "simulationMode": [null, null, null, null, null], "rewards": [-10, -10, -10, -10, 10], "path": ["0", "0", "1", "2", "3", "8", "9"], "rt": [15716, 319, 186, 1294, 5125], "actions": ["up", "up", "up", "left", "up"], "actionTimes": [19853, 20691, 21390, 23198, 28846], "queries": {"click": {"state": {"target": ["15"], "time": [12981]}, "edge": {"target": [], "time": []}}, "mouseover": {"state": {"target": ["12", "13", "14", "15", "14", "15", "18", "1"], "time": [8864, 10719, 11059, 11592, 12110, 12439, 15192, 16012]}, "edge": {"target": [], "time": []}}, "mouseout": {"state": {"target": ["0", "12", "13", "14", "15", "14", "15", "15", "18", "1"], "time": [3106, 10536, 10981, 11540, 11898, 12414, 13171, 15145, 15910, 16027]}, "edge": {"target": [], "time": []}}}, "displayed_time": "29.35", "trialTime": 34351, "trial_type": "mouselab-mdp", "trial_index": 5, "time_elapsed": 602693, "internal_node_id": "0.0-2.0-2.0-1.0"}}, {"uniqueid": "w25001236:a85096271", "current_trial": 6, "dateTime": 1691160234124, "trialdata": {"view_history": [{"page_index": 0, "viewing_time": 66891}, {"page_index": 1, "viewing_time": 13255}], "rt": 80148, "trial_id": "mouselab_instructions_2_misaligned", "trial_type": "instructions", "trial_index": 6, "time_elapsed": 682857, "internal_node_id": "0.0-2.0-3.0"}}, {"uniqueid": "w25001236:a85096271", "current_trial": 7, "dateTime": 1691160367565, "trialdata": {"rt": 133416, "response": {"Q0": "The cost for clicking on nodes may vary between nodes.", "Q1": "The better I perform the higher my bonus will be.", "Q2": "No, the amount of cash at each node of the web may be different each time.", "Q3": "To get the highest total score.", "Q4": "Only before moving the spider.", "Q5": "3 seconds"}, "question_order": [0, 1, 2, 3, 4, 5], "correct": {"Q0": "The cost for clicking on nodes may vary between nodes.", "Q1": "The better I perform the higher my bonus will be.", "Q2": "No, the amount of cash at each node of the web may be different each time.", "Q3": "To get the highest total score.", "Q4": "Only before moving the spider.", "Q5": "3 seconds"}, "trial_id": "mouselab_quiz_misaligned", "trial_type": "survey-multi-choice", "trial_index": 7, "time_elapsed": 816299, "internal_node_id": "0.0-2.0-4.0"}}, {"uniqueid": "w25001236:a85096271", "current_trial": 8, "dateTime": 1691160410752, "trialdata": {"rt": 43151, "stimulus": "\n<h1> Get ready to start the game! </h1>\n\nThank you for reading the instructions. Get ready start with the 40 rounds of this game.\n<br><br>\nIf you need to take a break, feel free to take one after the end of a round, before continuing to the next one.\n<br><br>\nRemember, the more money the spider gets, the bigger your bonus will be!\n<br><br>\n<div style='text-align: center;'>Press <code>space</code> to begin.</div>\n\n<br><br>\n(If, at any point, the <code>space</code> key does not take you to the next page, click once on the text and try again.)", "response": " ", "trial_id": "mdp_ready", "trial_type": "html-keyboard-response", "trial_index": 8, "time_elapsed": 859485, "internal_node_id": "0.0-4.0-0.0"}}, {"uniqueid": "w25001236:a85096271", "current_trial": 9, "dateTime": 1691160437805, "trialdata": {"revealed_states": [], "clicked_states": [], "num_clicks_accrued": [0, 0, 0, 0, 0, 0, 0, 0, 0, 0, 0, 0, 0], "stateRewards": ["", -1, 1, 8, -3, -24, 11, -65, -6, -77, 48, 44, -2, 1, -2, -7, -55, -35, 33, 8, -28, 19, -53, -1, -1, -5, -5, -70, 10, 44, 8, -58, -70, 51], "withholdReward": false, "trial_id": "mdp_trial_1", "block": "test", "trialIndex": 2, "score": -57, "costs": 0, "simulationMode": [null, null, null, null, null], "rewards": [-1, -1, -5, 8, -58], "path": ["0", "0", "23", "24", "25", "30", "31"], "rt": [7687, 2061, 1840, 803, 622], "actions": ["left", "left", "left", "down", "right"], "actionTimes": [15181, 17747, 20109, 21432, 22569], "queries": {"click": {"state": {"target": [], "time": []}, "edge": {"target": [], "time": []}}, "mouseover": {"state": {"target": ["23", "24"], "time": [9454, 10961]}, "edge": {"target": [], "time": []}}, "mouseout": {"state": {"target": ["0", "23", "0", "23"], "time": [2591, 3008, 9404, 10954]}, "edge": {"target": [], "time": []}}}, "displayed_time": "23.08", "trialTime": 26363, "trial_type": "mouselab-mdp", "trial_index": 9, "time_elapsed": 886539, "internal_node_id": "0.0-4.0-1.0-0.0"}}, {"uniqueid": "w25001236:a85096271", "current_trial": 10, "dateTime": 1691160461981, "trialdata": {"revealed_states": [], "clicked_states": ["16"], "num_clicks_accrued": [0, 0, 0, 0, 0, 0, 0, 0, 0, 0, 0, 0, 0], "stateRewards": ["", 1, 3, -2, 15, 51, 15, -19, 11, 67, -45, -73, 2, 4, -2, -13, 36, 9, -28, 10, -30, 31, 16, 1, 2, -1, -16, 14, -22, 36, -1, 88, -5, 45], "withholdReward": false, "trial_id": "mdp_trial_2", "block": "test", "trialIndex": 3, "score": 29.85, "costs": -2.15, "simulationMode": [null, null, null, null, null], "rewards": [1, 3, -2, 15, 15], "path": ["0", "0", "1", "2", "3", "4", "6"], "rt": [4844, 2799, 2475, 2397, 126], "actions": ["up", "up", "up", "right", "right"], "actionTimes": [6633, 9947, 12934, 15841, 16484], "queries": {"click": {"state": {"target": ["16"], "time": [2891]}, "edge": {"target": [], "time": []}}, "mouseover": {"state": {"target": ["18", "15", "16", "18", "12", "0"], "time": [1860, 1964, 2413, 4783, 4923, 4999]}, "edge": {"target": [], "time": []}}, "mouseout": {"state": {"target": ["24", "23", "0", "18", "15", "16", "18", "12"], "time": [588, 698, 1817, 1937, 2065, 4688, 4852, 4947]}, "edge": {"target": [], "time": []}}}, "displayed_time": "17.01", "trialTime": 23513, "trial_type": "mouselab-mdp", "trial_index": 10, "time_elapsed": 910712, "internal_node_id": "0.0-4.0-1.0-1.0"}}, {"uniqueid": "w25001236:a85096271", "current_trial": 11, "dateTime": 1691160486652, "trialdata": {"revealed_states": [], "clicked_states": ["27"], "num_clicks_accrued": [0, 0, 0, 0, 0, 0, 0, 0, 0, 0, 0, 0, 0], "stateRewards": ["", 1, 1, -5, 8, -6, 45, 16, -6, -7, -22, -38, -1, -4, 8, -11, -16, 21, -45, -15, -59, -32, 42, -1, 3, 6, 11, -7, 34, -27, -8, 85, 43, -9], "withholdReward": false, "trial_id": "mdp_trial_3", "block": "test", "trialIndex": 4, "score": 27.85, "costs": -2.15, "simulationMode": [null, null, null, null, null], "rewards": [-1, -4, 8, -15, 42], "path": ["0", "0", "12", "13", "14", "19", "22"], "rt": [7046, 603, 567, 541, 841], "actions": ["right", "right", "right", "down", "left"], "actionTimes": [9978, 11096, 12175, 13232, 14581], "queries": {"click": {"state": {"target": ["27"], "time": [3775]}, "edge": {"target": [], "time": []}}, "mouseover": {"state": {"target": ["28", "27", "26"], "time": [2970, 3359, 5929]}, "edge": {"target": [], "time": []}}, "mouseout": {"state": {"target": ["0", "0", "28", "27", "26"], "time": [1523, 2962, 3013, 5871, 6392]}, "edge": {"target": [], "time": []}}}, "displayed_time": "16.94", "trialTime": 24000, "trial_type": "mouselab-mdp", "trial_index": 11, "time_elapsed": 935383, "internal_node_id": "0.0-4.0-1.0-2.0"}}, {"uniqueid": "w25001236:a85096271", "current_trial": 12, "dateTime": 1691160512278, "trialdata": {"revealed_states": [], "clicked_states": ["28"], "num_clicks_accrued": [0, 0, 0, 0, 0, 0, 0, 0, 0, 0, 0, 0, 0], "stateRewards": ["", -1, 2, 6, 11, 21, -21, -21, -6, 48, -71, 88, -1, -3, 3, 7, 64, 2, 9, -4, 37, -67, 72, 2, 2, -8, -8, -10, 71, -40, -3, 73, 80, 47], "withholdReward": false, "trial_id": "mdp_trial_4", "block": "test", "trialIndex": 5, "score": 56.85, "costs": -2.15, "simulationMode": [null, null, null, null, null], "rewards": [2, 2, -8, -8, 71], "path": ["0", "0", "23", "24", "25", "26", "28"], "rt": [8040, 394, 330, 1035, 676], "actions": ["left", "left", "left", "up", "right"], "actionTimes": [11332, 12248, 13098, 14653, 15843], "queries": {"click": {"state": {"target": ["28"], "time": [4948]}, "edge": {"target": [], "time": []}}, "mouseover": {"state": {"target": ["1", "28"], "time": [3624, 3945]}, "edge": {"target": [], "time": []}}, "mouseout": {"state": {"target": ["0", "1", "28", "24"], "time": [3343, 3791, 6875, 20431]}, "edge": {"target": [], "time": []}}}, "displayed_time": "17.30", "trialTime": 24859, "trial_type": "mouselab-mdp", "trial_index": 12, "time_elapsed": 961010, "internal_node_id": "0.0-4.0-1.0-3.0"}}, {"uniqueid": "w25001236:a85096271", "current_trial": 13, "dateTime": 1691160534191, "trialdata": {"revealed_states": [], "clicked_states": ["11"], "num_clicks_accrued": [0, 0, 0, 0, 0, 0, 0, 0, 0, 0, 0, 0, 0], "stateRewards": ["", -2, -3, -7, 7, -54, -69, -4, -14, -77, 22, 40, -2, -1, 5, 6, -35, 50, -60, 10, -28, 75, 57, 1, -4, -2, 2, 68, 34, -18, 12, 3, -21, -43], "withholdReward": false, "trial_id": "mdp_trial_5", "block": "test", "trialIndex": 6, "score": 11.850000000000001, "costs": -2.15, "simulationMode": [null, null, null, null, null], "rewards": [-2, -3, -7, -14, 40], "path": ["0", "0", "1", "2", "3", "8", "11"], "rt": [7551, 269, 276, 448, 165], "actions": ["up", "up", "up", "left", "left"], "actionTimes": [11082, 11867, 12654, 13625, 14308], "queries": {"click": {"state": {"target": ["11"], "time": [4431]}, "edge": {"target": [], "time": []}}, "mouseover": {"state": {"target": ["2", "10", "11", "8", "2", "1", "1", "2", "3", "8", "3", "7"], "time": [3610, 3715, 4048, 8674, 8762, 8879, 9332, 9366, 9444, 9667, 10038, 10176]}, "edge": {"target": [], "time": []}}, "mouseout": {"state": {"target": ["0", "2", "8", "10", "1", "0", "2", "10", "11", "8", "2", "1", "1", "2", "3", "8", "11", "11", "3", "7", "22"], "time": [506, 1088, 2227, 2266, 2398, 3573, 3631, 3817, 4621, 8696, 8848, 8945, 9360, 9382, 9627, 9732, 9860, 9996, 10079, 10277, 18958]}, "edge": {"target": [], "time": []}}}, "displayed_time": "17.53", "trialTime": 21036, "trial_type": "mouselab-mdp", "trial_index": 13, "time_elapsed": 982922, "internal_node_id": "0.0-4.0-1.0-4.0"}}, {"uniqueid": "w25001236:a85096271", "current_trial": 14, "dateTime": 1691160555528, "trialdata": {"revealed_states": [], "clicked_states": ["5"], "num_clicks_accrued": [0, 0, 0, 0, 0, 0, 0, 0, 0, 0, 0, 0, 0], "stateRewards": ["", -2, -2, -7, -13, -10, 49, -68, -1, 84, 70, 88, 1, 4, 4, 12, -57, 25, 30, 8, -1, -77, 57, 2, 3, 2, 3, -18, -80, 23, -15, -41, 70, 11], "withholdReward": false, "trial_id": "mdp_trial_6", "block": "test", "trialIndex": 7, "score": -94.15, "costs": -2.15, "simulationMode": [null, null, null, null, null], "rewards": [-2, -2, -7, -13, -68], "path": ["0", "0", "1", "2", "3", "4", "7"], "rt": [8711, 198, 177, 775, 443], "actions": ["up", "up", "up", "right", "down"], "actionTimes": [11778, 12483, 13176, 14475, 15425], "queries": {"click": {"state": {"target": ["5"], "time": [4406]}, "edge": {"target": [], "time": []}}, "mouseover": {"state": {"target": ["2", "3", "5", "3", "2", "1"], "time": [3479, 3509, 3771, 9352, 9482, 9615]}, "edge": {"target": [], "time": []}}, "mouseout": {"state": {"target": ["21", "19", "22", "2", "3", "5", "3", "2"], "time": [491, 838, 905, 3503, 3606, 9289, 9415, 9566]}, "edge": {"target": [], "time": []}}}, "displayed_time": "17.07", "trialTime": 20431, "trial_type": "mouselab-mdp", "trial_index": 14, "time_elapsed": 1004259, "internal_node_id": "0.0-4.0-1.0-5.0"}}, {"uniqueid": "w25001236:a85096271", "current_trial": 15, "dateTime": 1691160581682, "trialdata": {"revealed_states": [], "clicked_states": ["32"], "num_clicks_accrued": [0, 0, 0, 0, 0, 0, 0, 0, 0, 0, 0, 0, 0], "stateRewards": ["", -1, -4, -1, -11, 43, 69, 39, 4, 17, -20, -82, -2, -1, 4, 8, -79, 24, -79, 11, 36, 64, 41, 2, 4, -1, 11, -79, -47, 75, -3, 63, -36, -19], "withholdReward": false, "trial_id": "mdp_trial_7", "block": "test", "trialIndex": 8, "score": 73.85, "costs": -2.15, "simulationMode": [null, null, null, null, null], "rewards": [-2, -1, 4, 11, 64], "path": ["0", "0", "12", "13", "14", "19", "21"], "rt": [9789, 393, 374, 634, 636], "actions": ["right", "right", "right", "down", "down"], "actionTimes": [15838, 16756, 17653, 18811, 19972], "queries": {"click": {"state": {"target": ["32"], "time": [7947]}, "edge": {"target": [], "time": []}}, "mouseover": {"state": {"target": ["31", "30", "32"], "time": [6733, 7334, 7519]}, "edge": {"target": [], "time": []}}, "mouseout": {"state": {"target": ["1", "0", "0", "31", "30", "32", "31"], "time": [4535, 4566, 6534, 7183, 7352, 12158, 24585]}, "edge": {"target": [], "time": []}}}, "displayed_time": "20.49", "trialTime": 25235, "trial_type": "mouselab-mdp", "trial_index": 15, "time_elapsed": 1030414, "internal_node_id": "0.0-4.0-1.0-6.0"}}, {"uniqueid": "w25001236:a85096271", "current_trial": 16, "dateTime": 1691160603996, "trialdata": {"revealed_states": [], "clicked_states": ["17"], "num_clicks_accrued": [0, 0, 0, 0, 0, 0, 0, 0, 0, 0, 0, 0, 0], "stateRewards": ["", 2, 3, 8, 14, 69, -27, 17, 2, -71, -65, -10, 2, -3, 7, 8, 65, -10, 65, -12, 73, -12, 13, -2, -2, 6, 10, -79, -69, -18, 10, -85, 67, 74], "withholdReward": false, "trial_id": "mdp_trial_8", "block": "test", "trialIndex": 9, "score": 76.85, "costs": -2.15, "simulationMode": [null, null, null, null, null], "rewards": [2, -3, 7, 8, 65], "path": ["0", "0", "12", "13", "14", "15", "18"], "rt": [8914, 292, 266, 695, 396], "actions": ["right", "right", "right", "up", "left"], "actionTimes": [11772, 12588, 13377, 14587, 15505], "queries": {"click": {"state": {"target": ["17"], "time": [5546]}, "edge": {"target": [], "time": []}}, "mouseover": {"state": {"target": ["12", "13", "15", "17", "14"], "time": [3918, 4434, 4783, 4984, 9447]}, "edge": {"target": [], "time": []}}, "mouseout": {"state": {"target": ["0", "12", "13", "15", "17", "17"], "time": [3908, 4301, 4551, 4917, 5745, 9325]}, "edge": {"target": [], "time": []}}}, "displayed_time": "16.87", "trialTime": 21187, "trial_type": "mouselab-mdp", "trial_index": 16, "time_elapsed": 1052728, "internal_node_id": "0.0-4.0-1.0-7.0"}}, {"uniqueid": "w25001236:a85096271", "current_trial": 17, "dateTime": 1691160623588, "trialdata": {"revealed_states": [], "clicked_states": ["28"], "num_clicks_accrued": [0, 0, 0, 0, 0, 0, 0, 0, 0, 0, 0, 0, 0], "stateRewards": ["", -1, 4, 3, 12, -27, 34, -33, 3, -63, 1, 6, 2, 2, -6, -11, -77, -85, 68, -6, 51, 81, -60, -2, -2, 1, 15, 20, 15, 68, -10, -14, 6, -4], "withholdReward": false, "trial_id": "mdp_trial_9", "block": "test", "trialIndex": 10, "score": 24.85, "costs": -2.15, "simulationMode": [null, null, null, null, null], "rewards": [-2, -2, 1, 15, 15], "path": ["0", "0", "23", "24", "25", "26", "28"], "rt": [5127, 195, 131, 437, 13], "actions": ["left", "left", "left", "up", "right"], "actionTimes": [7440, 8155, 8808, 9766, 10320], "queries": {"click": {"state": {"target": ["28"], "time": [3638]}, "edge": {"target": [], "time": []}}, "mouseover": {"state": {"target": ["23", "28"], "time": [2810, 3060]}, "edge": {"target": [], "time": []}}, "mouseout": {"state": {"target": ["14", "12", "0", "23", "28", "28"], "time": [577, 1135, 1328, 2881, 3825, 4912]}, "edge": {"target": [], "time": []}}}, "displayed_time": "16.32", "trialTime": 18661, "trial_type": "mouselab-mdp", "trial_index": 17, "time_elapsed": 1072320, "internal_node_id": "0.0-4.0-1.0-8.0"}}, {"uniqueid": "w25001236:a85096271", "current_trial": 18, "dateTime": 1691160643535, "trialdata": {"revealed_states": [], "clicked_states": ["9"], "num_clicks_accrued": [0, 0, 0, 0, 0, 0, 0, 0, 0, 0, 0, 0, 0], "stateRewards": ["", -2, -2, -3, -6, -15, -11, 41, -12, -63, -76, 2, -2, -3, 8, 9, -36, -2, -18, -16, -32, -85, -17, -2, 1, 5, -16, 82, 35, -88, -1, 80, -82, -20], "withholdReward": false, "trial_id": "mdp_trial_10", "block": "test", "trialIndex": 11, "score": 67.85, "costs": -2.15, "simulationMode": [null, null, null, null, null], "rewards": [-2, 1, 5, -16, 82], "path": ["0", "0", "23", "24", "25", "26", "27"], "rt": [7539, 172, 280, 358, 241], "actions": ["left", "left", "left", "up", "up"], "actionTimes": [9531, 10246, 11039, 11916, 12681], "queries": {"click": {"state": {"target": ["9"], "time": [3508]}, "edge": {"target": [], "time": []}}, "mouseover": {"state": {"target": ["1", "10", "8", "9", "3", "2"], "time": [2596, 2666, 2700, 3072, 8431, 8608]}, "edge": {"target": [], "time": []}}, "mouseout": {"state": {"target": ["0", "1", "10", "8", "9", "3", "2", "18", "19"], "time": [2282, 2636, 2685, 3017, 8275, 8559, 17671, 17748, 17819]}, "edge": {"target": [], "time": []}}}, "displayed_time": "16.00", "trialTime": 18994, "trial_type": "mouselab-mdp", "trial_index": 18, "time_elapsed": 1092268, "internal_node_id": "0.0-4.0-1.0-9.0"}}, {"uniqueid": "w25001236:a85096271", "current_trial": 19, "dateTime": 1691160662903, "trialdata": {"revealed_states": [], "clicked_states": ["17"], "num_clicks_accrued": [0, 0, 0, 0, 0, 0, 0, 0, 0, 0, 0, 0, 0], "stateRewards": ["", 2, 2, 3, -15, 23, -14, 73, -7, -32, -20, -6, 1, 1, -5, -12, 73, 6, -84, 11, -81, -57, 13, -2, -1, -4, -8, -52, -58, 49, 13, 5, -41, -41], "withholdReward": false, "trial_id": "mdp_trial_11", "block": "test", "trialIndex": 12, "score": -11.149999999999999, "costs": -2.15, "simulationMode": [null, null, null, null, null], "rewards": [1, 1, -5, -12, 6], "path": ["0", "0", "12", "13", "14", "15", "17"], "rt": [6341, 82, 53, 586, 1291], "actions": ["right", "right", "right", "up", "right"], "actionTimes": [8335, 8928, 9519, 10650, 12467], "queries": {"click": {"state": {"target": ["17"], "time": [3563]}, "edge": {"target": [], "time": []}}, "mouseover": {"state": {"target": ["15", "16", "17"], "time": [2368, 2820, 3053]}, "edge": {"target": [], "time": []}}, "mouseout": {"state": {"target": ["21", "13", "12", "0", "15", "16"], "time": [568, 834, 864, 2022, 2551, 2986]}, "edge": {"target": [], "time": []}}}, "displayed_time": "16.00", "trialTime": 18348, "trial_type": "mouselab-mdp", "trial_index": 19, "time_elapsed": 1111635, "internal_node_id": "0.0-4.0-1.0-10.0"}}, {"uniqueid": "w25001236:a85096271", "current_trial": 20, "dateTime": 1691160688839, "trialdata": {"revealed_states": [], "clicked_states": ["29", "28", "27"], "num_clicks_accrued": [0, 0, 0, 0, 0, 0, 0, 0, 0, 0, 0, 0, 0], "stateRewards": ["", -2, -4, -6, 12, -58, -70, -80, 2, 16, -88, -62, 1, 2, -5, 11, 77, -35, -44, -5, 18, -83, 87, 1, -3, -5, 13, -44, -21, -86, 10, -52, 8, 29], "withholdReward": false, "trial_id": "mdp_trial_12", "block": "test", "trialIndex": 13, "score": -96.45, "costs": -6.449999999999999, "simulationMode": [null, null, null, null, null], "rewards": [1, 2, -5, -5, -83], "path": ["0", "0", "12", "13", "14", "19", "21"], "rt": [17140, 291, 98, 321, 271], "actions": ["right", "right", "right", "down", "down"], "actionTimes": [19253, 20060, 20684, 21541, 22339], "queries": {"click": {"state": {"target": ["29", "28", "27"], "time": [3252, 8164, 13246]}, "edge": {"target": [], "time": []}}, "mouseover": {"state": {"target": ["28", "26", "29", "26", "28", "27"], "time": [2146, 2329, 2761, 6579, 7259, 12758]}, "edge": {"target": [], "time": []}}, "mouseout": {"state": {"target": ["17", "27", "10", "1", "28", "26", "29", "26", "28"], "time": [21, 649, 695, 829, 2283, 2595, 6540, 6845, 12385]}, "edge": {"target": [], "time": []}}}, "displayed_time": "22.86", "trialTime": 24950, "trial_type": "mouselab-mdp", "trial_index": 20, "time_elapsed": 1137571, "internal_node_id": "0.0-4.0-1.0-11.0"}}, {"uniqueid": "w25001236:a85096271", "current_trial": 21, "dateTime": 1691160721027, "trialdata": {"revealed_states": [], "clicked_states": ["9", "11", "10", "5"], "num_clicks_accrued": [0, 0, 0, 0, 0, 0, 0, 0, 0, 0, 0, 0, 0], "stateRewards": ["", -2, 1, 6, -2, -10, -78, -69, 14, -15, 7, -1, 1, -1, -2, 13, 77, 32, 87, 5, -74, 30, -26, 1, 3, 4, 12, 39, 54, -43, 2, 10, 23, 13], "withholdReward": false, "trial_id": "mdp_trial_13", "block": "test", "trialIndex": 14, "score": 17.4, "costs": -8.6, "simulationMode": [null, null, null, null, null], "rewards": [-2, 1, 6, 14, 7], "path": ["0", "0", "1", "2", "3", "8", "10"], "rt": [16041, 261, 447, 610, 80], "actions": ["up", "up", "up", "left", "down"], "actionTimes": [21224, 21998, 22972, 24114, 24738], "queries": {"click": {"state": {"target": ["9", "11", "10", "5"], "time": [6705, 10191, 13493, 16855]}, "edge": {"target": [], "time": []}}, "mouseover": {"state": {"target": ["10", "8", "9", "11", "10", "4", "5", "3"], "time": [5610, 5694, 5914, 9182, 11159, 15356, 15522, 17667]}, "edge": {"target": [], "time": []}}, "mouseout": {"state": {"target": ["27", "11", "8", "1", "10", "8", "9", "11", "10", "4", "5", "3", "10", "30", "30"], "time": [3728, 3764, 3827, 3928, 5650, 5844, 9106, 10897, 13704, 15391, 17656, 17723, 20489, 29341, 30258]}, "edge": {"target": [], "time": []}}}, "displayed_time": "25.27", "trialTime": 31293, "trial_type": "mouselab-mdp", "trial_index": 21, "time_elapsed": 1169759, "internal_node_id": "0.0-4.0-1.0-12.0"}}, {"uniqueid": "w25001236:a85096271", "current_trial": 22, "dateTime": 1691160741060, "trialdata": {"revealed_states": [], "clicked_states": ["33", "32"], "num_clicks_accrued": [0, 0, 0, 0, 0, 0, 0, 0, 0, 0, 0, 0, 0], "stateRewards": ["", 1, 1, -3, 7, 49, 78, 26, -5, 26, 48, -43, -1, -3, 2, -5, 4, -1, -60, 10, -35, 51, 81, -2, 1, -7, -5, -39, -86, -54, 4, -3, 74, 77], "withholdReward": false, "trial_id": "mdp_trial_14", "block": "test", "trialIndex": 15, "score": 68.7, "costs": -4.3, "simulationMode": [null, null, null, null, null], "rewards": [-2, 1, -7, 4, 77], "path": ["0", "0", "23", "24", "25", "30", "33"], "rt": [8196, 504, 456, 490, 304], "actions": ["left", "left", "left", "down", "left"], "actionTimes": [10693, 11716, 12696, 13728, 14559], "queries": {"click": {"state": {"target": ["33", "32"], "time": [3582, 7169]}, "edge": {"target": [], "time": []}}, "mouseover": {"state": {"target": ["33", "32", "32", "0"], "time": [3072, 4234, 4573, 8183]}, "edge": {"target": [], "time": []}}, "mouseout": {"state": {"target": ["30", "33", "31", "0", "33", "32", "32", "0", "0"], "time": [173, 488, 921, 1422, 4132, 4257, 7840, 8427, 18291]}, "edge": {"target": [], "time": []}}}, "displayed_time": "16.50", "trialTime": 18911, "trial_type": "mouselab-mdp", "trial_index": 22, "time_elapsed": 1189793, "internal_node_id": "0.0-4.0-1.0-13.0"}}, {"uniqueid": "w25001236:a85096271", "current_trial": 23, "dateTime": 1691160759487, "trialdata": {"revealed_states": [], "clicked_states": ["20", "21"], "num_clicks_accrued": [0, 0, 0, 0, 0, 0, 0, 0, 0, 0, 0, 0, 0], "stateRewards": ["", -2, 3, -5, -7, 66, 43, -60, -4, -70, -75, 4, -1, 2, 2, -13, 54, 11, -40, -1, 77, 32, 15, -2, 3, -8, -9, -35, 83, -27, 6, -74, -34, 44], "withholdReward": false, "trial_id": "mdp_trial_15", "block": "test", "trialIndex": 16, "score": 74.7, "costs": -4.3, "simulationMode": [null, null, null, null, null], "rewards": [-1, 2, 2, -1, 77], "path": ["0", "0", "12", "13", "14", "19", "20"], "rt": [9334, 404, 133, 883, 50], "actions": ["right", "right", "right", "down", "right"], "actionTimes": [11798, 12731, 13388, 14821, 15395], "queries": {"click": {"state": {"target": ["20", "21"], "time": [4372, 8208]}, "edge": {"target": [], "time": []}}, "mouseover": {"state": {"target": ["20", "21"], "time": [3974, 7259]}, "edge": {"target": [], "time": []}}, "mouseout": {"state": {"target": ["0", "20", "21"], "time": [3273, 7089, 8432]}, "edge": {"target": [], "time": []}}}, "displayed_time": "16.47", "trialTime": 17458, "trial_type": "mouselab-mdp", "trial_index": 23, "time_elapsed": 1208219, "internal_node_id": "0.0-4.0-1.0-14.0"}}, {"uniqueid": "w25001236:a85096271", "current_trial": 24, "dateTime": 1691160781018, "trialdata": {"revealed_states": [], "clicked_states": ["16", "18"], "num_clicks_accrued": [0, 0, 0, 0, 0, 0, 0, 0, 0, 0, 0, 0, 0], "stateRewards": ["", 2, 3, -1, 6, 44, -4, -59, -14, -3, 64, 16, 1, -3, 3, 6, 3, 49, 19, 3, -49, -14, -86, 1, 2, -3, -8, -33, 14, 32, -13, -77, -47, -67], "withholdReward": false, "trial_id": "mdp_trial_16", "block": "test", "trialIndex": 17, "score": 21.7, "costs": -4.3, "simulationMode": [null, null, null, null, null], "rewards": [1, -3, 3, 6, 19], "path": ["0", "0", "12", "13", "14", "15", "18"], "rt": [10234, 805, 146, 387, 247], "actions": ["right", "right", "right", "up", "left"], "actionTimes": [13052, 14383, 15191, 16108, 16879], "queries": {"click": {"state": {"target": ["16", "18"], "time": [4212, 7863]}, "edge": {"target": [], "time": []}}, "mouseover": {"state": {"target": ["18", "15", "15", "16", "18", "17", "17"], "time": [3191, 3343, 3641, 3742, 5531, 8677, 9009]}, "edge": {"target": [], "time": []}}, "mouseout": {"state": {"target": ["18", "15", "15", "16", "18", "17", "17"], "time": [3296, 3458, 3680, 5264, 8050, 8759, 12403]}, "edge": {"target": [], "time": []}}}, "displayed_time": "17.41", "trialTime": 19892, "trial_type": "mouselab-mdp", "trial_index": 24, "time_elapsed": 1229750, "internal_node_id": "0.0-4.0-1.0-15.0"}}, {"uniqueid": "w25001236:a85096271", "current_trial": 25, "dateTime": 1691160805957, "trialdata": {"revealed_states": [], "clicked_states": [], "num_clicks_accrued": [0, 0, 0, 0, 0, 0, 0, 0, 0, 0, 0, 0, 0], "stateRewards": ["", -1, 3, -4, -14, 78, 67, 2, 13, -32, 28, 39, -2, 1, -4, -4, -4, -42, -86, 11, 64, -29, -32, -1, -4, 2, -7, 5, 68, -61, 2, -21, 85, 50], "withholdReward": false, "trial_id": "mdp_trial_17", "block": "test", "trialIndex": 18, "score": -23, "costs": 0, "simulationMode": [null, null, null, null, null], "rewards": [-2, 1, -4, 11, -29], "path": ["0", "0", "12", "13", "14", "19", "21"], "rt": [7722, 761, 6, 354, 2217], "actions": ["right", "right", "right", "down", "down"], "actionTimes": [15734, 17396, 18227, 19131, 21902], "queries": {"click": {"state": {"target": [], "time": []}, "edge": {"target": [], "time": []}}, "mouseover": {"state": {"target": ["12", "1", "2", "3", "4", "7", "7"], "time": [8742, 9158, 9393, 9523, 10689, 11294, 11732]}, "edge": {"target": [], "time": []}}, "mouseout": {"state": {"target": ["13", "12", "0", "12", "1", "2", "3", "4", "7", "7"], "time": [6625, 6673, 7084, 8757, 9327, 9461, 10478, 11277, 11452, 23427]}, "edge": {"target": [], "time": []}}}, "displayed_time": "22.42", "trialTime": 24120, "trial_type": "mouselab-mdp", "trial_index": 25, "time_elapsed": 1254690, "internal_node_id": "0.0-4.0-1.0-16.0"}}, {"uniqueid": "w25001236:a85096271", "current_trial": 26, "dateTime": 1691160833232, "trialdata": {"revealed_states": [], "clicked_states": ["7", "6", "5", "11"], "num_clicks_accrued": [0, 0, 0, 0, 0, 0, 0, 0, 0, 0, 0, 0, 0], "stateRewards": ["", -1, 4, -3, 3, 57, -61, 5, -11, 23, -1, 34, -2, -4, -1, -13, 27, 38, -36, 4, -45, 21, 88, 1, -2, -1, 1, -69, -5, -78, -12, -9, 38, -54], "withholdReward": false, "trial_id": "mdp_trial_18", "block": "test", "trialIndex": 19, "score": 51.4, "costs": -8.6, "simulationMode": [null, null, null, null, null], "rewards": [-1, 4, -3, 3, 57], "path": ["0", "0", "1", "2", "3", "4", "5"], "rt": [14640, 68, 640, 772, 774], "actions": ["up", "up", "up", "right", "up"], "actionTimes": [16995, 17598, 20914, 22198, 23482], "queries": {"click": {"state": {"target": ["7", "6", "5", "11"], "time": [3483, 6877, 10227, 13595]}, "edge": {"target": [], "time": []}}, "mouseover": {"state": {"target": ["4", "7", "6", "5", "9", "11", "8", "3", "4"], "time": [2390, 2971, 5055, 8101, 12176, 12478, 14586, 14717, 14866]}, "edge": {"target": [], "time": []}}, "mouseout": {"state": {"target": ["3", "1", "0", "4", "7", "6", "5", "9", "11", "8", "3", "4", "5"], "time": [653, 919, 2384, 2673, 4569, 7098, 10414, 12219, 14550, 14651, 14752, 14900, 15266]}, "edge": {"target": [], "time": []}}}, "displayed_time": "23.99", "trialTime": 25974, "trial_type": "mouselab-mdp", "trial_index": 26, "time_elapsed": 1281965, "internal_node_id": "0.0-4.0-1.0-17.0"}}, {"uniqueid": "w25001236:a85096271", "current_trial": 27, "dateTime": 1691160851645, "trialdata": {"revealed_states": [], "clicked_states": ["29"], "num_clicks_accrued": [0, 0, 0, 0, 0, 0, 0, 0, 0, 0, 0, 0, 0], "stateRewards": ["", 1, -1, 4, -2, -75, -75, 84, -9, -60, -79, 59, 2, -4, 8, 9, -17, -82, 80, 14, -4, 49, 49, -1, 3, 6, -11, -33, 34, 55, 9, -57, 5, 59], "withholdReward": false, "trial_id": "mdp_trial_19", "block": "test", "trialIndex": 20, "score": 49.85, "costs": -2.15, "simulationMode": [null, null, null, null, null], "rewards": [-1, 3, 6, -11, 55], "path": ["0", "0", "23", "24", "25", "26", "29"], "rt": [5469, 34, 178, 620, 392], "actions": ["left", "left", "left", "up", "left"], "actionTimes": [7587, 8136, 8878, 10026, 10949], "queries": {"click": {"state": {"target": ["29"], "time": [3115]}, "edge": {"target": [], "time": []}}, "mouseover": {"state": {"target": ["23", "24", "25", "29", "27"], "time": [2164, 2254, 2437, 2685, 3818]}, "edge": {"target": [], "time": []}}, "mouseout": {"state": {"target": ["0", "23", "24", "25", "29"], "time": [2156, 2218, 2319, 2503, 3690]}, "edge": {"target": [], "time": []}}}, "displayed_time": "16.13", "trialTime": 17328, "trial_type": "mouselab-mdp", "trial_index": 27, "time_elapsed": 1300377, "internal_node_id": "0.0-4.0-1.0-18.0"}}, {"uniqueid": "w25001236:a85096271", "current_trial": 28, "dateTime": 1691160889780, "trialdata": {"revealed_states": [], "clicked_states": ["9", "11", "10", "7", "6", "5", "16"], "num_clicks_accrued": [0, 0, 0, 0, 0, 0, 0, 0, 0, 0, 0, 0, 0], "stateRewards": ["", -2, 4, -5, -12, 85, -24, -18, -15, -78, -22, 26, -1, -1, 2, 14, -45, 52, -23, 7, -33, 24, -6, -2, -4, 5, -7, -16, 36, -39, 5, 71, -87, -23], "withholdReward": false, "trial_id": "mdp_trial_20", "block": "test", "trialIndex": 21, "score": 54.95, "costs": -15.05, "simulationMode": [null, null, null, null, null], "rewards": [-2, 4, -5, -12, 85], "path": ["0", "0", "1", "2", "3", "4", "5"], "rt": [25102, 491, 236, 1050, 435], "actions": ["up", "up", "up", "right", "up"], "actionTimes": [28844, 29866, 30639, 32230, 33183], "queries": {"click": {"state": {"target": ["9", "11", "10", "7", "6", "5", "16"], "time": [4738, 8042, 11695, 15190, 18562, 21987, 25346]}, "edge": {"target": [], "time": []}}, "mouseover": {"state": {"target": ["10", "9", "11", "10", "4", "7", "6", "5", "4", "16", "4", "2"], "time": [3952, 4350, 5747, 8775, 12575, 13099, 16431, 19612, 23395, 23824, 26148, 26941]}, "edge": {"target": [], "time": []}}, "mouseout": {"state": {"target": ["27", "10", "1", "0", "0", "10", "9", "11", "11", "10", "4", "7", "6", "5", "4", "16", "4", "2"], "time": [267, 485, 775, 1068, 3771, 4087, 5462, 8230, 8569, 11892, 12696, 15360, 19241, 23356, 23434, 25959, 26215, 36044]}, "edge": {"target": [], "time": []}}}, "displayed_time": "33.70", "trialTime": 36894, "trial_type": "mouselab-mdp", "trial_index": 28, "time_elapsed": 1338512, "internal_node_id": "0.0-4.0-1.0-19.0"}}, {"uniqueid": "w25001236:a85096271", "current_trial": 29, "dateTime": 1691160924711, "trialdata": {"revealed_states": [], "clicked_states": ["33", "32", "31", "27", "29", "28"], "num_clicks_accrued": [0, 0, 0, 0, 0, 0, 0, 0, 0, 0, 0, 0, 0], "stateRewards": ["", 1, 2, -3, 6, -88, 74, -45, 7, -46, 40, -77, 1, -4, 4, 3, 22, -25, -59, 8, -83, 19, -60, -1, -1, -1, -8, 26, -29, 64, -7, -88, -51, -55], "withholdReward": false, "trial_id": "mdp_trial_21", "block": "test", "trialIndex": 22, "score": 40.1, "costs": -12.9, "simulationMode": [null, null, null, null, null], "rewards": [-1, -1, -1, -8, 64], "path": ["0", "0", "23", "24", "25", "26", "29"], "rt": [22200, 1015, 302, 661, 394], "actions": ["left", "left", "left", "up", "left"], "actionTimes": [24235, 25800, 26661, 27859, 28776], "queries": {"click": {"state": {"target": ["33", "32", "31", "27", "29", "28"], "time": [3320, 6859, 10275, 13677, 16978, 20338]}, "edge": {"target": [], "time": []}}, "mouseover": {"state": {"target": ["12", "31", "30", "33", "32", "31", "26", "27", "29", "25", "28"], "time": [2295, 2754, 2812, 2879, 4335, 7507, 10925, 11225, 14507, 18057, 19224]}, "edge": {"target": [], "time": []}}, "mouseout": {"state": {"target": ["0", "12", "31", "30", "33", "32", "31", "26", "27", "27", "29", "25", "28", "0"], "time": [994, 2330, 2806, 2839, 4169, 7423, 10838, 10986, 13850, 14303, 17641, 19190, 22987, 31432]}, "edge": {"target": [], "time": []}}}, "displayed_time": "29.30", "trialTime": 33618, "trial_type": "mouselab-mdp", "trial_index": 29, "time_elapsed": 1373443, "internal_node_id": "0.0-4.0-1.0-20.0"}}, {"uniqueid": "w25001236:a85096271", "current_trial": 30, "dateTime": 1691160950482, "trialdata": {"revealed_states": [], "clicked_states": ["20", "21", "22"], "num_clicks_accrued": [0, 0, 0, 0, 0, 0, 0, 0, 0, 0, 0, 0, 0], "stateRewards": ["", 1, -3, -1, 9, -34, -40, 22, -7, 45, 53, -11, 2, 4, 5, 15, 21, 37, -49, -3, 80, -28, -34, 1, -3, 1, 1, -40, -6, -5, -16, -85, -86, 59], "withholdReward": false, "trial_id": "mdp_trial_22", "block": "test", "trialIndex": 23, "score": 81.55, "costs": -6.449999999999999, "simulationMode": [null, null, null, null, null], "rewards": [2, 4, 5, -3, 80], "path": ["0", "0", "12", "13", "14", "19", "20"], "rt": [12238, 259, 388, 673, 364], "actions": ["right", "right", "right", "down", "right"], "actionTimes": [15082, 15861, 16771, 17993, 18904], "queries": {"click": {"state": {"target": ["20", "21", "22"], "time": [4478, 8188, 11590]}, "edge": {"target": [], "time": []}}, "mouseover": {"state": {"target": ["20", "20", "21", "22"], "time": [3689, 4029, 5289, 8960]}, "edge": {"target": [], "time": []}}, "mouseout": {"state": {"target": ["0", "20", "20", "21", "22"], "time": [1769, 3720, 5183, 8785, 20738]}, "edge": {"target": [], "time": []}}}, "displayed_time": "19.45", "trialTime": 24677, "trial_type": "mouselab-mdp", "trial_index": 30, "time_elapsed": 1399215, "internal_node_id": "0.0-4.0-1.0-21.0"}}, {"uniqueid": "w25001236:a85096271", "current_trial": 31, "dateTime": 1691161005590, "trialdata": {"revealed_states": [], "clicked_states": ["16", "18", "17", "5", "7", "6", "9", "11", "10", "27", "29", "28"], "num_clicks_accrued": [0, 0, 0, 0, 0, 0, 0, 0, 0, 0, 0, 0, 0], "stateRewards": ["", -1, 1, 3, -8, -23, -15, -14, -11, -23, 58, 68, 1, 3, 5, 12, -17, -41, -7, -10, -4, 82, 10, 1, 4, -4, 11, 73, 55, -55, -1, -86, -86, 54], "withholdReward": false, "trial_id": "mdp_trial_23", "block": "test", "trialIndex": 24, "score": 59.2, "costs": -25.799999999999994, "simulationMode": [null, null, null, null, null], "rewards": [1, 4, -4, 11, 73], "path": ["0", "0", "23", "24", "25", "26", "27"], "rt": [43723, 797, 352, 454, 337], "actions": ["left", "left", "left", "up", "up"], "actionTimes": [47592, 48998, 49870, 50854, 51721], "queries": {"click": {"state": {"target": ["16", "18", "17", "5", "7", "6", "9", "11", "10", "27", "29", "28"], "time": [4818, 8108, 11523, 14980, 18329, 21870, 25180, 28505, 31931, 36191, 39555, 43015]}, "edge": {"target": [], "time": []}}, "mouseover": {"state": {"target": ["16", "18", "15", "17", "5", "5", "4", "7", "6", "9", "11", "10", "27", "29", "26", "28"], "time": [3935, 5492, 8555, 8671, 12731, 13130, 15608, 15849, 20188, 22887, 26103, 29231, 35777, 38218, 40521, 40655]}, "edge": {"target": [], "time": []}}, "mouseout": {"state": {"target": ["18", "16", "16", "16", "16", "18", "15", "17", "17", "5", "5", "4", "7", "6", "9", "11", "10", "27", "29", "26", "28", "28", "23"], "time": [733, 1198, 2403, 5011, 5366, 8295, 8581, 11708, 12259, 12861, 15564, 15666, 18738, 22423, 25775, 28986, 35436, 38143, 40338, 40607, 43242, 53449, 53491]}, "edge": {"target": [], "time": []}}}, "displayed_time": "52.26", "trialTime": 53904, "trial_type": "mouselab-mdp", "trial_index": 31, "time_elapsed": 1454322, "internal_node_id": "0.0-4.0-1.0-22.0"}}, {"uniqueid": "w25001236:a85096271", "current_trial": 32, "dateTime": 1691161024839, "trialdata": {"revealed_states": [], "clicked_states": ["29", "27"], "num_clicks_accrued": [0, 0, 0, 0, 0, 0, 0, 0, 0, 0, 0, 0, 0], "stateRewards": ["", 1, 2, -5, 14, 54, -14, -25, 16, -5, -87, 78, -1, 1, 3, -3, 52, 53, 53, -10, 73, -69, -48, 2, 3, 1, 8, -62, -7, 85, 7, 82, 52, -28], "withholdReward": false, "trial_id": "mdp_trial_24", "block": "test", "trialIndex": 25, "score": 94.7, "costs": -4.3, "simulationMode": [null, null, null, null, null], "rewards": [2, 3, 1, 8, 85], "path": ["0", "0", "23", "24", "25", "26", "29"], "rt": [9979, 55, 137, 416, 1090], "actions": ["left", "left", "left", "up", "left"], "actionTimes": [12180, 12748, 13430, 14399, 16022], "queries": {"click": {"state": {"target": ["29", "27"], "time": [3406, 6783]}, "edge": {"target": [], "time": []}}, "mouseover": {"state": {"target": ["26", "29", "27", "28"], "time": [2236, 3082, 4331, 7911]}, "edge": {"target": [], "time": []}}, "mouseout": {"state": {"target": ["12", "0", "26", "29", "27", "28"], "time": [832, 2230, 2261, 3614, 7712, 17778]}, "edge": {"target": [], "time": []}}}, "displayed_time": "16.55", "trialTime": 18162, "trial_type": "mouselab-mdp", "trial_index": 32, "time_elapsed": 1473571, "internal_node_id": "0.0-4.0-1.0-23.0"}}, {"uniqueid": "w25001236:a85096271", "current_trial": 33, "dateTime": 1691161045182, "trialdata": {"revealed_states": [], "clicked_states": ["16", "17"], "num_clicks_accrued": [0, 0, 0, 0, 0, 0, 0, 0, 0, 0, 0, 0, 0], "stateRewards": ["", 2, -4, 7, 3, 23, -42, 4, 7, -81, -33, 7, -2, -4, 5, -1, 50, -57, -14, -13, -14, 44, 55, -2, -2, 5, -2, 33, 1, 57, -13, -7, 58, 87], "withholdReward": false, "trial_id": "mdp_trial_25", "block": "test", "trialIndex": 26, "score": 43.7, "costs": -4.3, "simulationMode": [null, null, null, null, null], "rewards": [-2, -4, 5, -1, 50], "path": ["0", "0", "12", "13", "14", "15", "16"], "rt": [9071, 314, 163, 299, 92], "actions": ["right", "right", "right", "up", "up"], "actionTimes": [13037, 13864, 14547, 15374, 15998], "queries": {"click": {"state": {"target": ["16", "17"], "time": [4993, 8567]}, "edge": {"target": [], "time": []}}, "mouseover": {"state": {"target": ["15", "17", "16", "17", "15", "18"], "time": [4001, 4240, 4556, 6045, 9100, 9182]}, "edge": {"target": [], "time": []}}, "mouseout": {"state": {"target": ["28", "0", "15", "17", "16", "17", "15", "18", "18", "12"], "time": [2438, 3994, 4134, 4339, 5724, 9054, 9142, 17843, 18592, 18658]}, "edge": {"target": [], "time": []}}}, "displayed_time": "17.97", "trialTime": 19297, "trial_type": "mouselab-mdp", "trial_index": 33, "time_elapsed": 1493913, "internal_node_id": "0.0-4.0-1.0-24.0"}}, {"uniqueid": "w25001236:a85096271", "current_trial": 34, "dateTime": 1691161082564, "trialdata": {"revealed_states": [], "clicked_states": ["21", "22", "20", "5", "6", "7", "9"], "num_clicks_accrued": [0, 0, 0, 0, 0, 0, 0, 0, 0, 0, 0, 0, 0], "stateRewards": ["", -2, -4, 6, 14, -34, 49, 36, -8, -3, 32, -4, 1, -2, 1, -8, -20, -71, -57, -7, -86, -62, -16, -2, -3, -5, 11, 23, -21, 53, 5, -5, 85, 73], "withholdReward": false, "trial_id": "mdp_trial_26", "block": "test", "trialIndex": 27, "score": 47.95, "costs": -15.05, "simulationMode": [null, null, null, null, null], "rewards": [-2, -4, 6, 14, 49], "path": ["0", "0", "1", "2", "3", "4", "6"], "rt": [26289, 697, 307, 673, 215], "actions": ["up", "up", "up", "right", "right"], "actionTimes": [28205, 29426, 30251, 31450, 32176], "queries": {"click": {"state": {"target": ["21", "22", "20", "5", "6", "7", "9"], "time": [3186, 6662, 10093, 13464, 16837, 20140, 23905]}, "edge": {"target": [], "time": []}}, "mouseover": {"state": {"target": ["12", "22", "21", "22", "19", "20", "14", "15", "16", "6", "5", "6", "7", "8", "9", "11", "8", "3", "4", "6"], "time": [2095, 2495, 2711, 5453, 7220, 7447, 11031, 11112, 11189, 11258, 11760, 14474, 17472, 20853, 20930, 24635, 25670, 25719, 25763, 25858]}, "edge": {"target": [], "time": []}}, "mouseout": {"state": {"target": ["23", "12", "22", "21", "22", "19", "20", "14", "15", "16", "6", "5", "6", "7", "8", "9", "11", "8", "3", "4", "6", "1", "0"], "time": [212, 2471, 2595, 5196, 7183, 7346, 10955, 11073, 11149, 11227, 11579, 14346, 17343, 20770, 20889, 24510, 25622, 25709, 25755, 25799, 26993, 34321, 34352]}, "edge": {"target": [], "time": []}}}, "displayed_time": "32.71", "trialTime": 36191, "trial_type": "mouselab-mdp", "trial_index": 34, "time_elapsed": 1531297, "internal_node_id": "0.0-4.0-1.0-25.0"}}, {"uniqueid": "w25001236:a85096271", "current_trial": 35, "dateTime": 1691161104372, "trialdata": {"revealed_states": [], "clicked_states": ["33", "32", "31"], "num_clicks_accrued": [0, 0, 0, 0, 0, 0, 0, 0, 0, 0, 0, 0, 0], "stateRewards": ["", 2, 3, -1, 16, -78, -11, 46, 2, -20, 79, -67, 2, 3, 2, 11, -83, -42, -58, -11, -67, -22, 55, 2, -1, -1, -16, -83, -82, 23, -11, -29, 13, 13], "withholdReward": false, "trial_id": "mdp_trial_27", "block": "test", "trialIndex": 28, "score": -4.449999999999999, "costs": -6.449999999999999, "simulationMode": [null, null, null, null, null], "rewards": [2, -1, -1, -11, 13], "path": ["0", "0", "23", "24", "25", "30", "33"], "rt": [11831, 738, 345, 825, 431], "actions": ["left", "left", "left", "down", "left"], "actionTimes": [13884, 15136, 15989, 17372, 18324], "queries": {"click": {"state": {"target": ["33", "32", "31"], "time": [3275, 6784, 10166]}, "edge": {"target": [], "time": []}}, "mouseover": {"state": {"target": ["33", "32", "31"], "time": [2655, 4036, 7497]}, "edge": {"target": [], "time": []}}, "mouseout": {"state": {"target": ["0", "33", "32"], "time": [2082, 3948, 7483]}, "edge": {"target": [], "time": []}}}, "displayed_time": "18.85", "trialTime": 20703, "trial_type": "mouselab-mdp", "trial_index": 35, "time_elapsed": 1553104, "internal_node_id": "0.0-4.0-1.0-26.0"}}, {"uniqueid": "w25001236:a85096271", "current_trial": 36, "dateTime": 1691161126348, "trialdata": {"revealed_states": [], "clicked_states": ["9", "11"], "num_clicks_accrued": [0, 0, 0, 0, 0, 0, 0, 0, 0, 0, 0, 0, 0], "stateRewards": ["", 1, 2, 2, -15, -84, 28, -26, 13, 31, 86, 30, -2, 1, -1, -8, 66, -40, -1, -10, -32, 57, -17, 1, 2, -2, 9, -23, 77, 85, 12, -32, -62, -35], "withholdReward": false, "trial_id": "mdp_trial_28", "block": "test", "trialIndex": 29, "score": 44.7, "costs": -4.3, "simulationMode": [null, null, null, null, null], "rewards": [1, 2, 2, 13, 31], "path": ["0", "0", "1", "2", "3", "8", "9"], "rt": [8818, 674, 276, 525, 311], "actions": ["up", "up", "up", "left", "up"], "actionTimes": [12022, 13218, 14018, 15074, 15921], "queries": {"click": {"state": {"target": ["9", "11"], "time": [4230, 7894]}, "edge": {"target": [], "time": []}}, "mouseover": {"state": {"target": ["10", "8", "9", "11", "10", "2", "1"], "time": [3337, 3406, 3747, 5707, 8721, 8805, 10089]}, "edge": {"target": [], "time": []}}, "mouseout": {"state": {"target": ["31", "23", "0", "10", "8", "9", "11", "10", "2", "1"], "time": [732, 782, 1463, 3399, 3602, 5414, 8431, 8765, 9931, 10156]}, "edge": {"target": [], "time": []}}}, "displayed_time": "17.21", "trialTime": 20927, "trial_type": "mouselab-mdp", "trial_index": 36, "time_elapsed": 1575080, "internal_node_id": "0.0-4.0-1.0-27.0"}}, {"uniqueid": "w25001236:a85096271", "current_trial": 37, "dateTime": 1691161149225, "trialdata": {"revealed_states": [], "clicked_states": ["27", "29", "28"], "num_clicks_accrued": [0, 0, 0, 0, 0, 0, 0, 0, 0, 0, 0, 0, 0], "stateRewards": ["", -2, -3, 8, 14, -73, 73, 84, -12, -2, -50, -17, 2, 1, -2, -9, -44, -27, -33, 16, -63, -47, -66, -2, 1, 4, -5, -33, -11, 50, 9, 38, -79, 31], "withholdReward": false, "trial_id": "mdp_trial_29", "block": "test", "trialIndex": 30, "score": 41.55, "costs": -6.449999999999999, "simulationMode": [null, null, null, null, null], "rewards": [-2, 1, 4, -5, 50], "path": ["0", "0", "23", "24", "25", "26", "29"], "rt": [11409, 402, 141, 522, 281], "actions": ["left", "left", "left", "up", "left"], "actionTimes": [15605, 16551, 17225, 18295, 19125], "queries": {"click": {"state": {"target": ["27", "29", "28"], "time": [5217, 8622, 12252]}, "edge": {"target": [], "time": []}}, "mouseover": {"state": {"target": ["28", "27", "29", "26", "28"], "time": [4229, 4743, 5915, 9134, 9348]}, "edge": {"target": [], "time": []}}, "mouseout": {"state": {"target": ["2", "28", "27", "29", "26", "28", "28", "0"], "time": [2779, 4430, 5832, 8825, 9253, 12472, 13092, 20879]}, "edge": {"target": [], "time": []}}}, "displayed_time": "19.67", "trialTime": 21458, "trial_type": "mouselab-mdp", "trial_index": 37, "time_elapsed": 1597958, "internal_node_id": "0.0-4.0-1.0-28.0"}}, {"uniqueid": "w25001236:a85096271", "current_trial": 38, "dateTime": 1691161168619, "trialdata": {"revealed_states": [], "clicked_states": ["16", "18"], "num_clicks_accrued": [0, 0, 0, 0, 0, 0, 0, 0, 0, 0, 0, 0, 0], "stateRewards": ["", 2, -4, -8, -15, 71, -43, -41, 7, -17, 20, 67, -1, -1, -4, 6, 37, -24, -47, 9, 34, 57, 45, 1, 2, -4, -5, -23, 88, -5, 13, -40, 43, 44], "withholdReward": false, "trial_id": "mdp_trial_30", "block": "test", "trialIndex": 31, "score": 32.7, "costs": -4.3, "simulationMode": [null, null, null, null, null], "rewards": [-1, -1, -4, 6, 37], "path": ["0", "0", "12", "13", "14", "15", "16"], "rt": [10034, 9, 63, 804, 348], "actions": ["right", "right", "right", "up", "up"], "actionTimes": [11869, 12423, 13023, 14362, 15226], "queries": {"click": {"state": {"target": ["16", "18"], "time": [3109, 6561]}, "edge": {"target": [], "time": []}}, "mouseover": {"state": {"target": ["18", "16", "18", "15", "17", "15"], "time": [2325, 2425, 4214, 7189, 7361, 10264]}, "edge": {"target": [], "time": []}}, "mouseout": {"state": {"target": ["18", "12", "18", "16", "18", "15", "17", "15", "18"], "time": [429, 659, 2346, 4146, 7167, 7242, 10229, 10326, 17263]}, "edge": {"target": [], "time": []}}}, "displayed_time": "15.84", "trialTime": 17647, "trial_type": "mouselab-mdp", "trial_index": 38, "time_elapsed": 1617350, "internal_node_id": "0.0-4.0-1.0-29.0"}}, {"uniqueid": "w25001236:a85096271", "current_trial": 39, "dateTime": 1691161190317, "trialdata": {"revealed_states": [], "clicked_states": ["5", "6"], "num_clicks_accrued": [0, 0, 0, 0, 0, 0, 0, 0, 0, 0, 0, 0, 0], "stateRewards": ["", -2, 3, -1, -9, 44, 48, -37, -3, 71, -39, 87, -1, 3, -4, 4, -21, 59, -15, -8, -1, 28, -38, 2, 4, 4, 8, -85, -72, -63, 14, 58, 63, -46], "withholdReward": false, "trial_id": "mdp_trial_31", "block": "test", "trialIndex": 32, "score": 34.7, "costs": -4.3, "simulationMode": [null, null, null, null, null], "rewards": [-2, 3, -1, -9, 48], "path": ["0", "0", "1", "2", "3", "4", "6"], "rt": [9034, 8, 171, 656, 93], "actions": ["up", "up", "up", "right", "right"], "actionTimes": [13930, 14455, 15173, 16372, 16993], "queries": {"click": {"state": {"target": ["5", "6"], "time": [6082, 9593]}, "edge": {"target": [], "time": []}}, "mouseover": {"state": {"target": ["5", "6", "7", "3"], "time": [5666, 6827, 10510, 11563]}, "edge": {"target": [], "time": []}}, "mouseout": {"state": {"target": ["7", "7", "1", "5", "6", "7", "3", "2"], "time": [3000, 3416, 3717, 6775, 10345, 11457, 19467, 19554]}, "edge": {"target": [], "time": []}}}, "displayed_time": "18.90", "trialTime": 20510, "trial_type": "mouselab-mdp", "trial_index": 39, "time_elapsed": 1639050, "internal_node_id": "0.0-4.0-1.0-30.0"}}, {"uniqueid": "w25001236:a85096271", "current_trial": 40, "dateTime": 1691161210192, "trialdata": {"revealed_states": [], "clicked_states": ["27", "28"], "num_clicks_accrued": [0, 0, 0, 0, 0, 0, 0, 0, 0, 0, 0, 0, 0], "stateRewards": ["", -2, -3, 7, -13, 60, 9, 37, -6, 37, 20, 1, 2, -2, -8, 6, -80, -31, -10, -7, 70, -65, -44, -1, 1, 7, 6, -11, 73, -85, 16, -21, 47, 34], "withholdReward": false, "trial_id": "mdp_trial_32", "block": "test", "trialIndex": 33, "score": 81.7, "costs": -4.3, "simulationMode": [null, null, null, null, null], "rewards": [-1, 1, 7, 6, 73], "path": ["0", "0", "23", "24", "25", "26", "28"], "rt": [10354, 232, 275, 426, 375], "actions": ["left", "left", "left", "up", "right"], "actionTimes": [12224, 12979, 13771, 14733, 15667], "queries": {"click": {"state": {"target": ["27", "28"], "time": [2894, 7236]}, "edge": {"target": [], "time": []}}, "mouseover": {"state": {"target": ["28", "27", "28", "11", "9", "11"], "time": [2015, 2438, 6815, 8050, 8347, 11109]}, "edge": {"target": [], "time": []}}, "mouseout": {"state": {"target": ["1", "1", "28", "27", "28", "11", "9", "11"], "time": [289, 655, 2372, 6500, 7916, 8107, 11050, 11139]}, "edge": {"target": [], "time": []}}}, "displayed_time": "16.26", "trialTime": 18241, "trial_type": "mouselab-mdp", "trial_index": 40, "time_elapsed": 1658926, "internal_node_id": "0.0-4.0-1.0-31.0"}}, {"uniqueid": "w25001236:a85096271", "current_trial": 41, "dateTime": 1691161228991, "trialdata": {"revealed_states": [], "clicked_states": ["9", "11"], "num_clicks_accrued": [0, 0, 0, 0, 0, 0, 0, 0, 0, 0, 0, 0, 0], "stateRewards": ["", 2, -3, -5, 5, 11, -9, -33, 6, 67, 6, -30, -1, -2, -6, 13, 55, 13, 72, -14, 75, 21, -66, -2, -4, 6, 15, -1, -35, 60, 2, 51, -73, 12], "withholdReward": false, "trial_id": "mdp_trial_33", "block": "test", "trialIndex": 34, "score": 62.7, "costs": -4.3, "simulationMode": [null, null, null, null, null], "rewards": [2, -3, -5, 6, 67], "path": ["0", "0", "1", "2", "3", "8", "9"], "rt": [9182, 41, 268, 852, 1055], "actions": ["up", "up", "up", "left", "up"], "actionTimes": [11064, 11673, 12486, 13883, 15449], "queries": {"click": {"state": {"target": ["9", "11"], "time": [2984, 6521]}, "edge": {"target": [], "time": []}}, "mouseover": {"state": {"target": ["7", "3", "9", "11", "8", "3", "3"], "time": [1916, 2126, 2483, 4147, 7247, 7533, 8034]}, "edge": {"target": [], "time": []}}, "mouseout": {"state": {"target": ["10", "1", "7", "3", "9", "9", "11", "8", "3"], "time": [73, 599, 2120, 2404, 3191, 3918, 7172, 7371, 7734]}, "edge": {"target": [], "time": []}}}, "displayed_time": "15.96", "trialTime": 17568, "trial_type": "mouselab-mdp", "trial_index": 41, "time_elapsed": 1677723, "internal_node_id": "0.0-4.0-1.0-32.0"}}, {"uniqueid": "w25001236:a85096271", "current_trial": 42, "dateTime": 1691161256717, "trialdata": {"revealed_states": [], "clicked_states": ["5", "6", "27", "29", "33"], "num_clicks_accrued": [0, 0, 0, 0, 0, 0, 0, 0, 0, 0, 0, 0, 0], "stateRewards": ["", -1, 3, -7, 16, -32, -74, -48, 2, 10, 15, -30, 1, 1, -2, 10, 12, -83, 67, 13, -66, 47, 65, -2, 4, 2, -14, -8, -57, 24, 9, 65, 12, 46], "withholdReward": false, "trial_id": "mdp_trial_34", "block": "test", "trialIndex": 35, "score": 48.25, "costs": -10.75, "simulationMode": [null, null, null, null, null], "rewards": [-2, 4, 2, 9, 46], "path": ["0", "0", "23", "24", "25", "30", "33"], "rt": [18975, 96, 187, 707, 436], "actions": ["left", "left", "left", "down", "left"], "actionTimes": [21149, 21766, 22498, 23746, 24708], "queries": {"click": {"state": {"target": ["5", "6", "27", "29", "33"], "time": [3094, 6513, 9888, 13174, 16577]}, "edge": {"target": [], "time": []}}, "mouseover": {"state": {"target": ["5", "4", "7", "6", "4", "27", "29", "33", "24"], "time": [2683, 4038, 4400, 4914, 7075, 7601, 10722, 14163, 20286]}, "edge": {"target": [], "time": []}}, "mouseout": {"state": {"target": ["3", "6", "12", "0", "5", "4", "7", "6", "4", "27", "29", "33"], "time": [370, 518, 681, 2204, 4010, 4202, 4835, 6695, 7117, 10615, 13752, 20025]}, "edge": {"target": [], "time": []}}}, "displayed_time": "25.24", "trialTime": 26575, "trial_type": "mouselab-mdp", "trial_index": 42, "time_elapsed": 1705448, "internal_node_id": "0.0-4.0-1.0-33.0"}}, {"uniqueid": "w25001236:a85096271", "current_trial": 43, "dateTime": 1691161275327, "trialdata": {"revealed_states": [], "clicked_states": ["21", "22"], "num_clicks_accrued": [0, 0, 0, 0, 0, 0, 0, 0, 0, 0, 0, 0, 0], "stateRewards": ["", 2, -1, 5, 6, 10, 86, 55, 10, -45, 63, -71, 1, -2, 5, -8, -50, -72, 36, 15, 61, 12, 33, -1, -4, 6, 5, 79, -56, -21, -16, -87, 60, -81], "withholdReward": false, "trial_id": "mdp_trial_35", "block": "test", "trialIndex": 36, "score": 47.7, "costs": -4.3, "simulationMode": [null, null, null, null, null], "rewards": [1, -2, 5, 15, 33], "path": ["0", "0", "12", "13", "14", "19", "22"], "rt": [8960, 776, 299, 334, 565], "actions": ["right", "right", "right", "down", "left"], "actionTimes": [11039, 12338, 13160, 14057, 15151], "queries": {"click": {"state": {"target": ["21", "22"], "time": [3158, 6676]}, "edge": {"target": [], "time": []}}, "mouseover": {"state": {"target": ["19", "21", "22", "14"], "time": [2550, 2730, 4112, 7500]}, "edge": {"target": [], "time": []}}, "mouseout": {"state": {"target": ["24", "23", "19", "21", "22"], "time": [686, 730, 2637, 3346, 7339]}, "edge": {"target": [], "time": []}}}, "displayed_time": "16.09", "trialTime": 17385, "trial_type": "mouselab-mdp", "trial_index": 43, "time_elapsed": 1724057, "internal_node_id": "0.0-4.0-1.0-34.0"}}, {"uniqueid": "w25001236:a85096271", "current_trial": 44, "dateTime": 1691161297699, "trialdata": {"revealed_states": [], "clicked_states": ["29", "28"], "num_clicks_accrued": [0, 0, 0, 0, 0, 0, 0, 0, 0, 0, 0, 0, 0], "stateRewards": ["", 2, -2, 7, -11, -76, -65, -23, 16, -58, 30, 81, 1, 2, 7, 14, 9, 55, -2, 6, 11, -15, 31, -1, -1, -3, 2, 15, 2, 46, 15, 18, 45, -34], "withholdReward": false, "trial_id": "mdp_trial_36", "block": "test", "trialIndex": 37, "score": 38.7, "costs": -4.3, "simulationMode": [null, null, null, null, null], "rewards": [-1, -1, -3, 2, 46], "path": ["0", "0", "23", "24", "25", "26", "29"], "rt": [10457, 139, 180, 736, 432], "actions": ["left", "left", "left", "up", "left"], "actionTimes": [12772, 13432, 14167, 15430, 16397], "queries": {"click": {"state": {"target": ["29", "28"], "time": [3708, 7240]}, "edge": {"target": [], "time": []}}, "mouseover": {"state": {"target": ["24", "25", "29", "26", "28"], "time": [2346, 2907, 3212, 5080, 5939]}, "edge": {"target": [], "time": []}}, "mouseout": {"state": {"target": ["0", "24", "25", "29", "26"], "time": [698, 2529, 3027, 5027, 5865]}, "edge": {"target": [], "time": []}}}, "displayed_time": "16.94", "trialTime": 19174, "trial_type": "mouselab-mdp", "trial_index": 44, "time_elapsed": 1746431, "internal_node_id": "0.0-4.0-1.0-35.0"}}, {"uniqueid": "w25001236:a85096271", "current_trial": 45, "dateTime": 1691161334836, "trialdata": {"revealed_states": [], "clicked_states": ["5", "7", "11", "27", "32", "21", "20"], "num_clicks_accrued": [0, 0, 0, 0, 0, 0, 0, 0, 0, 0, 0, 0, 0], "stateRewards": ["", -1, -4, -1, -5, -28, -23, -15, -15, -38, 59, -87, 2, 2, -5, 9, -55, -39, -71, -6, 85, -85, -11, -1, -2, 5, -10, 1, 25, 41, -4, 69, -35, 86], "withholdReward": false, "trial_id": "mdp_trial_37", "block": "test", "trialIndex": 38, "score": 62.95, "costs": -15.05, "simulationMode": [null, null, null, null, null], "rewards": [2, 2, -5, -6, 85], "path": ["0", "0", "12", "13", "14", "19", "20"], "rt": [27632, 74, 278, 575, 340], "actions": ["right", "right", "right", "down", "right"], "actionTimes": [29326, 29932, 30757, 31929, 32808], "queries": {"click": {"state": {"target": ["5", "7", "11", "27", "32", "21", "20"], "time": [2653, 6232, 9859, 13373, 16925, 20655, 24161]}, "edge": {"target": [], "time": []}}, "mouseover": {"state": {"target": ["4", "5", "4", "7", "3", "8", "11", "27", "26", "30", "32", "21", "20", "16", "18"], "time": [1732, 2224, 3721, 3877, 7178, 7245, 7578, 10642, 13980, 14112, 14360, 18046, 21185, 24934, 28397]}, "edge": {"target": [], "time": []}}, "mouseout": {"state": {"target": ["4", "5", "4", "7", "3", "8", "11", "27", "26", "30", "32", "21", "20", "16"], "time": [1923, 3686, 3777, 6421, 7230, 7283, 10587, 13938, 14033, 14191, 17432, 21080, 24356, 28370]}, "edge": {"target": [], "time": []}}}, "displayed_time": "33.42", "trialTime": 35059, "trial_type": "mouselab-mdp", "trial_index": 45, "time_elapsed": 1783568, "internal_node_id": "0.0-4.0-1.0-36.0"}}, {"uniqueid": "w25001236:a85096271", "current_trial": 46, "dateTime": 1691161359971, "trialdata": {"revealed_states": [], "clicked_states": ["5", "9", "27", "29"], "num_clicks_accrued": [0, 0, 0, 0, 0, 0, 0, 0, 0, 0, 0, 0, 0], "stateRewards": ["", 1, -1, -7, -7, -22, 15, -13, 13, 26, -32, 38, -1, 1, -7, -4, 16, -62, 86, 12, -54, 56, 64, -2, -1, 6, 14, -57, 37, 62, -6, -25, 50, -70], "withholdReward": false, "trial_id": "mdp_trial_38", "block": "test", "trialIndex": 39, "score": 70.4, "costs": -8.6, "simulationMode": [null, null, null, null, null], "rewards": [-2, -1, 6, 14, 62], "path": ["0", "0", "23", "24", "25", "26", "29"], "rt": [16216, 55, 73, 631, 543], "actions": ["left", "left", "left", "up", "left"], "actionTimes": [18232, 18794, 19431, 20625, 21695], "queries": {"click": {"state": {"target": ["5", "9", "27", "29"], "time": [3132, 6597, 10118, 13583]}, "edge": {"target": [], "time": []}}, "mouseover": {"state": {"target": ["5", "9", "11", "27", "29", "33", "24"], "time": [2710, 3936, 7151, 7488, 11033, 14688, 17402]}, "edge": {"target": [], "time": []}}, "mouseout": {"state": {"target": ["2", "1", "5", "9", "11", "27", "29", "33", "24"], "time": [566, 781, 3737, 7107, 7308, 10881, 14189, 17338, 17423]}, "edge": {"target": [], "time": []}}}, "displayed_time": "22.23", "trialTime": 23787, "trial_type": "mouselab-mdp", "trial_index": 46, "time_elapsed": 1808703, "internal_node_id": "0.0-4.0-1.0-37.0"}}, {"uniqueid": "w25001236:a85096271", "current_trial": 47, "dateTime": 1691161381683, "trialdata": {"revealed_states": [], "clicked_states": ["9", "27", "32"], "num_clicks_accrued": [0, 0, 0, 0, 0, 0, 0, 0, 0, 0, 0, 0, 0], "stateRewards": ["", 1, -2, -8, -3, 31, -84, -55, -14, 15, -58, 17, -2, -3, 7, 7, -12, 48, 67, 4, -44, -68, 46, 2, 3, -5, -7, 76, 27, 5, 11, 57, 52, 59], "withholdReward": false, "trial_id": "mdp_trial_39", "block": "test", "trialIndex": 40, "score": 62.55, "costs": -6.449999999999999, "simulationMode": [null, null, null, null, null], "rewards": [2, 3, -5, -7, 76], "path": ["0", "0", "23", "24", "25", "26", "27"], "rt": [13009, 76, 163, 594, 28], "actions": ["left", "left", "left", "up", "up"], "actionTimes": [15213, 15813, 16530, 17668, 18220], "queries": {"click": {"state": {"target": ["9", "27", "32"], "time": [3098, 6596, 10442]}, "edge": {"target": [], "time": []}}, "mouseover": {"state": {"target": ["9", "11", "27", "30", "32", "31", "0"], "time": [2426, 3740, 3894, 7474, 7732, 11191, 11716]}, "edge": {"target": [], "time": []}}, "mouseout": {"state": {"target": ["23", "18", "12", "9", "11", "27", "30", "32", "31", "0"], "time": [644, 855, 972, 3685, 3818, 7175, 7575, 10650, 11234, 11817]}, "edge": {"target": [], "time": []}}}, "displayed_time": "18.74", "trialTime": 20428, "trial_type": "mouselab-mdp", "trial_index": 47, "time_elapsed": 1830416, "internal_node_id": "0.0-4.0-1.0-38.0"}}, {"uniqueid": "w25001236:a85096271", "current_trial": 48, "dateTime": 1691161407142, "trialdata": {"revealed_states": [], "clicked_states": ["5", "9", "27"], "num_clicks_accrued": [0, 0, 0, 0, 0, 0, 0, 0, 0, 0, 0, 0, 0], "stateRewards": ["", -2, -3, 8, -4, -30, 31, 69, 9, 66, 87, 64, -2, 2, 8, 5, 47, 16, -39, -8, -54, 51, -19, 1, -2, -2, -11, -25, -26, 43, -9, 19, -84, 86], "withholdReward": false, "trial_id": "mdp_trial_40", "block": "test", "trialIndex": 41, "score": 71.55, "costs": -6.449999999999999, "simulationMode": [null, null, null, null, null], "rewards": [-2, -3, 8, 9, 66], "path": ["0", "0", "1", "2", "3", "8", "9"], "rt": [14039, 81, 186, 704, 845], "actions": ["up", "up", "up", "left", "up"], "actionTimes": [16782, 17372, 18107, 19333, 20721], "queries": {"click": {"state": {"target": ["5", "9", "27"], "time": [3658, 7146, 11996]}, "edge": {"target": [], "time": []}}, "mouseover": {"state": {"target": ["5", "9", "11", "27", "11", "26", "25", "30", "32", "31"], "time": [2858, 4391, 7714, 7892, 13257, 14216, 14305, 14513, 14881, 15604]}, "edge": {"target": [], "time": []}}, "mouseout": {"state": {"target": ["1", "0", "5", "9", "11", "27", "11", "27", "26", "25", "30", "32", "31"], "time": [462, 2842, 4266, 7671, 7762, 13194, 13538, 14157, 14266, 14405, 14645, 15572, 15654]}, "edge": {"target": [], "time": []}}}, "displayed_time": "21.27", "trialTime": 24027, "trial_type": "mouselab-mdp", "trial_index": 48, "time_elapsed": 1855874, "internal_node_id": "0.0-4.0-1.0-39.0"}}, {"uniqueid": "w25001236:a85096271", "current_trial": 49, "dateTime": 1691161516773, "trialdata": {"rt": 108219, "response": {"Q0": "$-2 to $2", "Q1": "$-16 to $16", "Q2": "$-16 to $16", "Q3": "The cost for clicking on nodes varied between nodes.", "Q4": "Very motivated"}, "question_order": [0, 1, 2, 3, 4], "trial_id": "final_quiz_control", "trial_type": "survey-multi-choice", "trial_index": 49, "time_elapsed": 1965505, "internal_node_id": "0.0-4.0-2.0"}}, {"uniqueid": "w25001236:a85096271", "current_trial": 50, "dateTime": 1691161667291, "trialdata": {"rt": 149887, "response": {"Q0": "To quickly inspect end (5th) nodes until I found one end that was above 50 then I stopped inspecting and went to that node.", "Q1": "Yes it improved by increasing my speed to use the node inspector in 3 seconds.", "Q2": "It was not difficult to improve my clicking speed."}, "trial_id": "self_report_control", "trial_type": "survey-text", "trial_index": 50, "time_elapsed": 2116025, "internal_node_id": "0.0-4.0-3.0"}}, {"uniqueid": "w25001236:a85096271", "current_trial": 51, "dateTime": 1691161745875, "trialdata": {"rt": 78554, "response": {"Q0": "Agree", "Q1": "Neither disagree nor agree", "Q2": "Neither disagree nor agree", "Q3": "Agree", "Q4": "Disagree", "Q5": "Agree", "Q6": "Disagree"}, "question_order": [0, 1, 2, 3, 4, 5, 6], "trial_id": "self_report_2", "trial_type": "survey-multi-choice", "trial_index": 51, "time_elapsed": 2194609, "internal_node_id": "0.0-4.0-4.0"}}, {"uniqueid": "w25001236:a85096271", "current_trial": 52, "dateTime": 1691161796642, "trialdata": {"rt": 50698, "response": {"gender": "female", "age": "24", "colorblind": "0", "effort": "0"}, "trial_type": "survey-html-form", "trial_index": 52, "time_elapsed": 2245376, "internal_node_id": "0.0-4.0-5.0"}}, {"uniqueid": "w25001236:a85096271", "current_trial": 53, "dateTime": 1691161840512, "trialdata": {"rt": 43804, "response": {"Q0": "No", "Q1": "No", "Q2": "None"}, "trial_type": "survey-text", "trial_index": 53, "time_elapsed": 2289246, "internal_node_id": "0.0-4.0-6.0"}}, {"uniqueid": "w25001236:a85096271", "current_trial": 54, "dateTime": 1691161847618, "trialdata": {"rt": 7051, "stimulus": "Press 'Finish HIT' in order to reach the completion code. Once the data has been saved, you will receive the code either in this window or in the original browser window where you started the experiment.\n", "response": 0, "trial_type": "html-button-response", "trial_index": 54, "time_elapsed": 2296352, "internal_node_id": "0.0-5.0"}}, {"uniqueid": "w25001236:a85096271", "current_trial": 55, "dateTime": 1691161848665, "trialdata": {"success": true, "trial_type": "fullscreen", "trial_index": 55, "time_elapsed": 2297399, "internal_node_id": "0.0-6.0"}}], "questiondata": {"params": {"CODE": "C6DMOQA6", "MIN_TIME": 14, "inspectCost": 1, "startTime": "Fri Aug 04 2023 16:32:24 GMT+0200 (South Africa Standard Time)", "bonusRate": 0.002, "variance": "1_2_4_8_44", "branching": "31123"}}, "eventdata": [{"eventtype": "initialized", "value": null, "timestamp": 1691159544007, "interval": 0}, {"eventtype": "window_resize", "value": [1028, 744], "timestamp": 1691159544007, "interval": 0}, {"eventtype": "window_resize", "value": [1028, 744], "timestamp": 1691159544596, "interval": 589}, {"eventtype": "focus", "value": "off", "timestamp": 1691159569988, "interval": 25392}, {"eventtype": "focus", "value": "on", "timestamp": 1691159578181, "interval": 8193}, {"eventtype": "window_resize", "value": [1536, 864], "timestamp": 1691159618760, "interval": 40579}], "useragent": "Mozilla/5.0 (Windows NT 10.0; Win64; x64) AppleWebKit/537.36 (KHTML, like Gecko) Chrome/115.0.0.0 Safari/537.36", "mode": "live", "id": "w25001236:a85096271", "status": "user data saved", "Beginhit": "2023-08-04 14:31:52.64628", "Beginexp": "2023-08-04 14:33:44.162933", "Endhit": "2023-08-04 15:10:55.058142", "psiturkStatus": 3, "browser": "<redacted>", "platform": "windows", "language": "en-US"}