{"condition": 1, "counterbalance": 0, "assignmentId": "a76934449", "workerId": "w77097578", "hitId": "h44647000", "currenttrial": 56, "bonus": 0, "data": [{"uniqueid": "w77097578:a76934449", "current_trial": 0, "dateTime": 1693395916288, "trialdata": {"success": true, "trial_type": "fullscreen", "trial_index": 0, "time_elapsed": 13070, "internal_node_id": "0.0-0.0"}}, {"uniqueid": "w77097578:a76934449", "current_trial": 1, "dateTime": 1693395922540, "trialdata": {"view_history": [{"page_index": 0, "viewing_time": 6249}], "rt": 6249, "trial_id": "exp_instructions_misaligned", "trial_type": "instructions", "trial_index": 1, "time_elapsed": 19322, "internal_node_id": "0.0-1.0"}}, {"uniqueid": "w77097578:a76934449", "current_trial": 2, "dateTime": 1693396055685, "trialdata": {"view_history": [{"page_index": 0, "viewing_time": 47517}, {"page_index": 1, "viewing_time": 41796}, {"page_index": 2, "viewing_time": 26906}, {"page_index": 3, "viewing_time": 16925}], "rt": 133144, "trial_id": "mouselab_instructions_1_misaligned", "trial_type": "instructions", "trial_index": 2, "time_elapsed": 152466, "internal_node_id": "0.0-2.0-1.0"}}, {"uniqueid": "w77097578:a76934449", "current_trial": 3, "dateTime": 1693396095351, "trialdata": {"revealed_states": [], "clicked_states": ["12", "13", "23", "24", "1", "2", "7", "3", "4", "14", "25", "30", "33"], "num_clicks_accrued": [0, 0, 0, 0, 0, 0, 0, 0, 0, 0, 0, 0, 0], "stateRewards": ["", -10, 10, -10, -10, 10, 10, -10, 10, 10, 10, -10, 10, -10, -10, -10, -10, -10, -10, 10, 10, 10, -10, 10, -10, 10, -10, 10, 10, 10, 10, 10, 10, -10], "withholdReward": false, "trial_id": "practice_1", "block": "test", "trialIndex": 0, "score": 7, "costs": -6.5, "simulationMode": [null, null, null, null, null], "rewards": [10, -10, 10, -10, 10], "path": ["0", "0", "23", "24", "25", "26", "27"], "rt": [29782, 222, 164, 441, 331], "actions": ["left", "left", "left", "up", "up"], "actionTimes": [32137, 32850, 33509, 34453, 35278], "queries": {"click": {"state": {"target": ["12", "13", "23", "24", "1", "2", "7", "3", "4", "14", "25", "30", "33"], "time": [5151, 6544, 8928, 10385, 12522, 13921, 16214, 17250, 18554, 19865, 21813, 23139, 24300]}, "edge": {"target": [], "time": []}}, "mouseover": {"state": {"target": ["0", "12", "13", "0", "23", "0", "23", "23", "24", "28", "1", "2", "7", "7", "3", "4", "14", "13", "14", "0", "23", "24", "25", "30", "33", "25", "24", "23", "28", "26", "28", "23", "0"], "time": [4720, 4970, 5838, 7406, 7556, 8456, 8573, 8773, 9224, 12211, 12426, 13094, 15112, 16079, 17097, 18198, 19282, 19566, 19782, 21384, 21417, 21450, 21717, 22468, 23825, 26321, 26471, 26705, 28640, 28973, 29924, 30342, 30491]}, "edge": {"target": [], "time": []}}, "mouseout": {"state": {"target": ["0", "31", "31", "0", "0", "12", "13", "0", "23", "0", "23", "23", "24", "24", "28", "1", "2", "7", "7", "2", "2", "2", "3", "4", "14", "13", "14", "0", "23", "24", "25", "30", "33", "30", "25", "24", "23", "28", "26", "28", "23", "0", "12"], "time": [33, 199, 667, 2635, 4770, 5754, 6972, 7439, 8423, 8557, 8623, 9190, 10742, 12009, 12243, 12912, 14278, 15596, 16530, 16580, 16646, 16913, 17866, 18915, 19482, 19732, 20166, 21400, 21434, 21684, 22318, 23435, 24603, 26171, 26388, 26638, 26889, 28924, 29874, 29991, 30358, 37347, 37531]}, "edge": {"target": [], "time": []}}}, "displayed_time": "35.78", "trialTime": 39441, "trial_type": "mouselab-mdp", "trial_index": 3, "time_elapsed": 192132, "internal_node_id": "0.0-2.0-2.0-0.0"}}, {"uniqueid": "w77097578:a76934449", "current_trial": 4, "dateTime": 1693396115229, "trialdata": {"revealed_states": [], "clicked_states": ["23", "12", "1", "24", "13", "2"], "num_clicks_accrued": [0, 0, 0, 0, 0, 0, 0, 0, 0, 0, 0, 0, 0], "stateRewards": ["", 10, -10, -10, 10, -10, 10, 10, 10, 10, 10, -10, 10, -10, 10, -10, 10, -10, -10, -10, -10, -10, 10, 10, 10, 10, 10, 10, -10, 10, 10, 10, 10, -10], "withholdReward": false, "trial_id": "practice_2", "block": "test", "trialIndex": 1, "score": 50.5, "costs": -3, "simulationMode": [null, null, null, null, null], "rewards": [10, 10, 10, 10, 10], "path": ["0", "0", "23", "24", "25", "30", "31"], "rt": [12008, 109, 154, 138, 245], "actions": ["left", "left", "left", "down", "right"], "actionTimes": [13075, 13676, 14322, 14956, 15698], "queries": {"click": {"state": {"target": ["23", "12", "1", "24", "13", "2"], "time": [2102, 3254, 4662, 6708, 7998, 9976]}, "edge": {"target": [], "time": []}}, "mouseover": {"state": {"target": ["0", "23", "0", "12", "0", "1", "24", "23", "0", "13", "13", "0", "1", "2", "0"], "time": [1606, 1979, 2340, 2474, 3942, 4475, 6360, 6977, 7044, 7161, 7428, 9313, 9429, 9613, 11648]}, "edge": {"target": [], "time": []}}, "mouseout": {"state": {"target": ["0", "0", "23", "0", "12", "0", "1", "1", "23", "24", "23", "0", "13", "13", "13", "0", "1", "2", "0", "0", "1"], "time": [1290, 1640, 2307, 2407, 3641, 4281, 4771, 4909, 5076, 6927, 7028, 7061, 7261, 8103, 8228, 9379, 9496, 10197, 11731, 18437, 18470]}, "edge": {"target": [], "time": []}}}, "displayed_time": "16.19", "trialTime": 19775, "trial_type": "mouselab-mdp", "trial_index": 4, "time_elapsed": 212011, "internal_node_id": "0.0-2.0-2.0-1.0"}}, {"uniqueid": "w77097578:a76934449", "current_trial": 5, "dateTime": 1693396141879, "trialdata": {"view_history": [{"page_index": 0, "viewing_time": 23165}, {"page_index": 1, "viewing_time": 3483}], "rt": 26648, "trial_id": "mouselab_instructions_2_misaligned", "trial_type": "instructions", "trial_index": 5, "time_elapsed": 238661, "internal_node_id": "0.0-2.0-3.0"}}, {"uniqueid": "w77097578:a76934449", "current_trial": 6, "dateTime": 1693396164570, "trialdata": {"rt": 22688, "response": {"Q0": "The cost for clicking on nodes may vary between nodes.", "Q1": "The better I perform the higher my bonus will be.", "Q2": "No, the amount of cash at each node of the web may be different each time.", "Q3": "To get the highest total score.", "Q4": "Only before moving the spider.", "Q5": "3 seconds"}, "question_order": [0, 1, 2, 3, 4, 5], "correct": {"Q0": "The cost for clicking on nodes may vary between nodes.", "Q1": "The better I perform the higher my bonus will be.", "Q2": "No, the amount of cash at each node of the web may be different each time.", "Q3": "To get the highest total score.", "Q4": "Only before moving the spider.", "Q5": "3 seconds"}, "trial_id": "mouselab_quiz_misaligned", "trial_type": "survey-multi-choice", "trial_index": 6, "time_elapsed": 261352, "internal_node_id": "0.0-2.0-4.0"}}, {"uniqueid": "w77097578:a76934449", "current_trial": 7, "dateTime": 1693396168948, "trialdata": {"rt": 4374, "response": {"Q0": "No"}, "question_order": [0], "trial_id": "repeat_check", "trial_type": "survey-multi-choice", "trial_index": 7, "time_elapsed": 265729, "internal_node_id": "0.0-4.0-0.0"}}, {"uniqueid": "w77097578:a76934449", "current_trial": 8, "dateTime": 1693396181138, "trialdata": {"rt": 12187, "stimulus": "\n<h1> Get ready to start the game! </h1>\n\nThank you for reading the instructions. Get ready start with the 40 rounds of this game.\n<br><br>\nIf you need to take a break, feel free to take one after the end of a round, before continuing to the next one.\n<br><br>\nRemember, the more money the spider gets, the bigger your bonus will be!\n<br><br>\n<div style='text-align: center;'>Press <code>space</code> to begin.</div>\n\n<br><br>\n(If, at any point, the <code>space</code> key does not take you to the next page, click once on the text and try again.)", "response": " ", "trial_id": "mdp_ready", "trial_type": "html-keyboard-response", "trial_index": 8, "time_elapsed": 277920, "internal_node_id": "0.0-6.0-0.0"}}, {"uniqueid": "w77097578:a76934449", "current_trial": 9, "dateTime": 1693396199473, "trialdata": {"revealed_states": [], "clicked_states": ["12", "13", "14", "19", "21"], "num_clicks_accrued": [0, 0, 0, 0, 0, 0, 0, 0, 0, 0, 0, 0, 0], "stateRewards": ["", -1, -3, -7, -7, -76, 30, -49, 11, -70, 56, 2, 1, 4, -3, -14, -59, -83, -25, -9, -21, -67, -73, -2, 4, 4, -9, -11, -32, 60, 9, -87, 22, -64], "withholdReward": false, "trial_id": "mdp_trial_1", "block": "test", "trialIndex": 2, "score": -71.75, "costs": -4.75, "simulationMode": [null, null, null, null, null], "rewards": [-1, -3, -7, -7, -49], "path": ["0", "0", "1", "2", "3", "4", "7"], "rt": [6966, 19, 777, 416, 256], "actions": ["up", "up", "up", "right", "down"], "actionTimes": [8836, 9345, 10637, 11543, 12301], "queries": {"click": {"state": {"target": ["12", "13", "14", "19", "21"], "time": [2695, 3250, 3929, 4714, 5296]}, "edge": {"target": [], "time": []}}, "mouseover": {"state": {"target": ["12", "13", "14", "19", "21", "13", "12", "1", "2", "1"], "time": [2537, 3071, 3821, 4371, 5139, 6473, 6540, 6707, 7107, 7541]}, "edge": {"target": [], "time": []}}, "mouseout": {"state": {"target": ["10", "1", "0", "12", "13", "14", "19", "21", "21", "19", "13", "12", "1", "2", "1", "23"], "time": [885, 1069, 2487, 3020, 3721, 4288, 4972, 5399, 5739, 6073, 6506, 6590, 7074, 7491, 14563, 17182]}, "edge": {"target": [], "time": []}}}, "displayed_time": "15.87", "trialTime": 18226, "trial_type": "mouselab-mdp", "trial_index": 9, "time_elapsed": 296254, "internal_node_id": "0.0-6.0-1.0-0.0"}}, {"uniqueid": "w77097578:a76934449", "current_trial": 10, "dateTime": 1693396217289, "trialdata": {"revealed_states": [], "clicked_states": ["23", "24", "25", "30", "33"], "num_clicks_accrued": [0, 0, 0, 0, 0, 0, 0, 0, 0, 0, 0, 0, 0], "stateRewards": ["", 2, 4, 7, -6, -76, -81, 2, 5, -66, -3, 36, -2, -4, 6, -2, -69, 4, -49, -6, 67, 38, -67, 2, 1, 1, 6, -68, -21, 52, -16, -16, 6, -70], "withholdReward": false, "trial_id": "mdp_trial_2", "block": "test", "trialIndex": 3, "score": 57.25, "costs": -4.75, "simulationMode": [null, null, null, null, null], "rewards": [2, 1, 1, 6, 52], "path": ["0", "0", "23", "24", "25", "26", "29"], "rt": [5785, 453, 36, 458, 55], "actions": ["left", "left", "left", "up", "left"], "actionTimes": [7023, 7969, 8503, 9474, 10022], "queries": {"click": {"state": {"target": ["23", "24", "25", "30", "33"], "time": [1908, 2651, 2999, 3451, 3799]}, "edge": {"target": [], "time": []}}, "mouseover": {"state": {"target": ["23", "24", "25", "30", "33", "26", "29", "26", "23"], "time": [1793, 2560, 2894, 3344, 3728, 4395, 4862, 5018, 6297]}, "edge": {"target": [], "time": []}}, "mouseout": {"state": {"target": ["0", "23", "24", "25", "30", "33", "25", "26", "29", "26", "23", "23"], "time": [1075, 2177, 2844, 3277, 3661, 4145, 4295, 4796, 4912, 5713, 6347, 16505]}, "edge": {"target": [], "time": []}}}, "displayed_time": "15.24", "trialTime": 17701, "trial_type": "mouselab-mdp", "trial_index": 10, "time_elapsed": 314071, "internal_node_id": "0.0-6.0-1.0-1.0"}}, {"uniqueid": "w77097578:a76934449", "current_trial": 11, "dateTime": 1693396233515, "trialdata": {"revealed_states": [], "clicked_states": ["1", "2", "3", "12", "13", "14", "19", "20"], "num_clicks_accrued": [0, 0, 0, 0, 0, 0, 0, 0, 0, 0, 0, 0, 0], "stateRewards": ["", -2, -4, -2, -13, -15, 87, -19, -6, -80, 30, 12, 1, 1, -8, 2, 55, 56, 15, 11, -68, -7, 55, -2, 3, -3, -3, 48, 62, 4, 1, -3, 69, -33], "withholdReward": false, "trial_id": "mdp_trial_3", "block": "test", "trialIndex": 4, "score": -9.799999999999999, "costs": -5.799999999999999, "simulationMode": [null, null, null, null, null], "rewards": [-2, 3, -3, 1, -3], "path": ["0", "0", "23", "24", "25", "30", "31"], "rt": [6412, 476, 12, 444, 90], "actions": ["left", "left", "left", "down", "right"], "actionTimes": [7444, 8421, 8923, 9872, 10452], "queries": {"click": {"state": {"target": ["1", "2", "3", "12", "13", "14", "19", "20"], "time": [1452, 1758, 2180, 3059, 3428, 3850, 4378, 4649]}, "edge": {"target": [], "time": []}}, "mouseover": {"state": {"target": ["1", "2", "3", "12", "13", "14", "19", "20", "15", "15"], "time": [1321, 1677, 2055, 2972, 3322, 3739, 4190, 4574, 5257, 5775]}, "edge": {"target": [], "time": []}}, "mouseout": {"state": {"target": ["0", "1", "2", "3", "2", "1", "12", "13", "14", "19", "20", "14", "15", "15", "12"], "time": [787, 1588, 1938, 2589, 2689, 2772, 3256, 3553, 4073, 4524, 4924, 5224, 5341, 6208, 12347]}, "edge": {"target": [], "time": []}}}, "displayed_time": "15.03", "trialTime": 16107, "trial_type": "mouselab-mdp", "trial_index": 11, "time_elapsed": 330297, "internal_node_id": "0.0-6.0-1.0-2.0"}}, {"uniqueid": "w77097578:a76934449", "current_trial": 12, "dateTime": 1693396249838, "trialdata": {"revealed_states": [], "clicked_states": ["12", "13", "14", "19", "20"], "num_clicks_accrued": [0, 0, 0, 0, 0, 0, 0, 0, 0, 0, 0, 0, 0], "stateRewards": ["", -2, -3, 1, -7, 39, -67, 16, 5, -20, 73, 66, -1, 4, 5, -3, 23, -68, -87, -8, 3, -3, 17, 1, -4, -2, -13, -32, 34, 61, -5, -11, -18, 12], "withholdReward": false, "trial_id": "mdp_trial_4", "block": "test", "trialIndex": 5, "score": -67.75, "costs": -4.75, "simulationMode": [null, null, null, null, null], "rewards": [-1, 4, 5, -3, -68], "path": ["0", "0", "12", "13", "14", "15", "17"], "rt": [5838, 235, 503, 55, 71], "actions": ["right", "right", "right", "up", "right"], "actionTimes": [6599, 7333, 8334, 8887, 9454], "queries": {"click": {"state": {"target": ["12", "13", "14", "19", "20"], "time": [1750, 2046, 2335, 2682, 3032]}, "edge": {"target": [], "time": []}}, "mouseover": {"state": {"target": ["0", "12", "13", "14", "19", "20", "21", "15", "16"], "time": [1058, 1575, 1942, 2259, 2593, 2943, 3527, 3994, 4661]}, "edge": {"target": [], "time": []}}, "mouseout": {"state": {"target": ["0", "12", "13", "14", "19", "20", "21", "19", "14", "15", "16", "0"], "time": [1525, 1875, 2192, 2526, 2893, 3343, 3794, 3844, 3910, 4611, 11550, 15871]}, "edge": {"target": [], "time": []}}}, "displayed_time": "14.76", "trialTime": 16204, "trial_type": "mouselab-mdp", "trial_index": 12, "time_elapsed": 346619, "internal_node_id": "0.0-6.0-1.0-3.0"}}, {"uniqueid": "w77097578:a76934449", "current_trial": 13, "dateTime": 1693396272936, "trialdata": {"revealed_states": [], "clicked_states": ["23", "24", "25", "30", "33"], "num_clicks_accrued": [0, 0, 0, 0, 0, 0, 0, 0, 0, 0, 0, 0, 0], "stateRewards": ["", -2, -3, -7, 7, -54, -69, -4, -14, -77, 22, 40, -2, -1, 5, 6, -35, 50, -60, 10, -28, 75, 57, 1, -4, -2, 2, 68, 34, -18, 12, 3, -21, -43], "withholdReward": false, "trial_id": "mdp_trial_5", "block": "test", "trialIndex": 6, "score": 5.25, "costs": -4.75, "simulationMode": [null, null, null, null, null], "rewards": [1, -4, -2, 12, 3], "path": ["0", "0", "23", "24", "25", "30", "31"], "rt": [7425, 353, 2, 43, 478], "actions": ["left", "left", "left", "down", "right"], "actionTimes": [8261, 9114, 9613, 10171, 11157], "queries": {"click": {"state": {"target": ["23", "24", "25", "30", "33"], "time": [2009, 2427, 2813, 3184, 3601]}, "edge": {"target": [], "time": []}}, "mouseover": {"state": {"target": ["0", "0", "23", "24", "25", "30", "33", "32", "30"], "time": [1236, 1370, 1920, 2354, 2738, 3121, 3505, 4172, 7358]}, "edge": {"target": [], "time": []}}, "mouseout": {"state": {"target": ["0", "0", "0", "23", "24", "25", "30", "33", "32", "33", "33", "30", "32", "32"], "time": [1103, 1270, 1887, 2287, 2688, 3038, 3296, 3922, 5490, 6841, 7325, 7442, 20302, 20903]}, "edge": {"target": [], "time": []}}}, "displayed_time": "14.84", "trialTime": 22983, "trial_type": "mouselab-mdp", "trial_index": 13, "time_elapsed": 369717, "internal_node_id": "0.0-6.0-1.0-4.0"}}, {"uniqueid": "w77097578:a76934449", "current_trial": 14, "dateTime": 1693396290953, "trialdata": {"revealed_states": [], "clicked_states": ["1", "2", "3", "4", "5"], "num_clicks_accrued": [0, 0, 0, 0, 0, 0, 0, 0, 0, 0, 0, 0, 0], "stateRewards": ["", -1, 2, 5, -6, 13, -64, -47, 8, -79, -80, -33, 1, 2, -2, -16, 56, -71, -10, 3, 29, 44, 85, -1, 4, 5, 4, -36, -56, 19, 8, 52, -13, -2], "withholdReward": false, "trial_id": "mdp_trial_6", "block": "test", "trialIndex": 7, "score": -70.75, "costs": -4.75, "simulationMode": [null, null, null, null, null, null], "rewards": [-1, 2, 5, 8, -80], "path": ["0", "0", "1", "2", "3", "8", "10"], "rt": [4979, 426, 360, 46, 8, 41], "actions": ["up", "up", "up", "up", "left", "down"], "actionTimes": [6310, 6738, 7604, 8141, 8636, 9186], "queries": {"click": {"state": {"target": ["1", "2", "3", "4", "5"], "time": [1785, 2215, 2710, 3598, 3994]}, "edge": {"target": [], "time": []}}, "mouseover": {"state": {"target": ["1", "2", "3", "4", "4", "5", "8", "8", "9"], "time": [1672, 2089, 2589, 3023, 3473, 3874, 4474, 4774, 5191]}, "edge": {"target": [], "time": []}}, "mouseout": {"state": {"target": ["32", "0", "1", "2", "3", "4", "4", "5", "5", "8", "8", "9", "11"], "time": [470, 1204, 1916, 2456, 2973, 3106, 3710, 4127, 4391, 4508, 5158, 5709, 12181]}, "edge": {"target": [], "time": []}}}, "displayed_time": "15.33", "trialTime": 17899, "trial_type": "mouselab-mdp", "trial_index": 14, "time_elapsed": 387735, "internal_node_id": "0.0-6.0-1.0-5.0"}}, {"uniqueid": "w77097578:a76934449", "current_trial": 15, "dateTime": 1693396307813, "trialdata": {"revealed_states": [], "clicked_states": ["23", "24", "25", "30", "31"], "num_clicks_accrued": [0, 0, 0, 0, 0, 0, 0, 0, 0, 0, 0, 0, 0], "stateRewards": ["", -1, -4, -1, -5, -28, -23, -15, -15, -38, 59, -87, 2, 2, -5, 9, -55, -39, -71, -6, 85, -85, -11, -1, -2, 5, -10, 1, 25, 41, -4, 69, -35, 86], "withholdReward": false, "trial_id": "mdp_trial_7", "block": "test", "trialIndex": 8, "score": 62.25, "costs": -4.75, "simulationMode": [null, null, null, null, null], "rewards": [-1, -2, 5, -4, 69], "path": ["0", "0", "23", "24", "25", "30", "31"], "rt": [7214, 307, 77, 52, 34], "actions": ["left", "left", "left", "down", "right"], "actionTimes": [7967, 8767, 9337, 9880, 10412], "queries": {"click": {"state": {"target": ["23", "24", "25", "30", "31"], "time": [1272, 1592, 2008, 2376, 2786]}, "edge": {"target": [], "time": []}}, "mouseover": {"state": {"target": ["23", "24", "25", "30", "31", "32", "33"], "time": [1136, 1486, 1870, 2304, 2687, 3288, 3872]}, "edge": {"target": [], "time": []}}, "mouseout": {"state": {"target": ["1", "23", "24", "25", "30", "30", "31", "32", "33", "31", "31", "30", "33", "33"], "time": [438, 1453, 1804, 2220, 2387, 2621, 3021, 3688, 4322, 6107, 12786, 13029, 13480, 15882]}, "edge": {"target": [], "time": []}}}, "displayed_time": "14.75", "trialTime": 16742, "trial_type": "mouselab-mdp", "trial_index": 15, "time_elapsed": 404594, "internal_node_id": "0.0-6.0-1.0-6.0"}}, {"uniqueid": "w77097578:a76934449", "current_trial": 16, "dateTime": 1693396326598, "trialdata": {"revealed_states": [], "clicked_states": ["12", "13", "14", "19", "22"], "num_clicks_accrued": [0, 0, 0, 0, 0, 0, 0, 0, 0, 0, 0, 0, 0], "stateRewards": ["", 1, -3, 4, 13, -72, 52, 5, 5, -58, 5, 14, 2, 1, 3, -14, -86, -4, 73, 6, -58, -50, 49, 2, -3, -4, 2, 33, -41, 42, -11, 81, 45, 53], "withholdReward": false, "trial_id": "mdp_trial_8", "block": "test", "trialIndex": 9, "score": 56.25, "costs": -4.75, "simulationMode": [null, null, null, null, null], "rewards": [2, 1, 3, 6, 49], "path": ["0", "0", "12", "13", "14", "19", "22"], "rt": [6597, 529, 125, 135, 99], "actions": ["right", "right", "right", "down", "left"], "actionTimes": [7572, 8602, 9215, 9842, 10440], "queries": {"click": {"state": {"target": ["12", "13", "14", "19", "22"], "time": [1833, 2223, 2634, 3010, 3361]}, "edge": {"target": [], "time": []}}, "mouseover": {"state": {"target": ["0", "12", "13", "14", "19", "22", "21"], "time": [1482, 1733, 2116, 2500, 2900, 3267, 4134]}, "edge": {"target": [], "time": []}}, "mouseout": {"state": {"target": ["0", "0", "12", "13", "14", "19", "22", "21"], "time": [1316, 1683, 2050, 2450, 2833, 3200, 3784, 5019]}, "edge": {"target": [], "time": []}}}, "displayed_time": "14.98", "trialTime": 18659, "trial_type": "mouselab-mdp", "trial_index": 16, "time_elapsed": 423379, "internal_node_id": "0.0-6.0-1.0-7.0"}}, {"uniqueid": "w77097578:a76934449", "current_trial": 17, "dateTime": 1693396344671, "trialdata": {"revealed_states": [], "clicked_states": ["1", "2", "3", "4", "5"], "num_clicks_accrued": [0, 0, 0, 0, 0, 0, 0, 0, 0, 0, 0, 0, 0], "stateRewards": ["", -2, -3, -5, 8, 27, 11, 43, -6, -24, -87, 69, -2, 1, 1, 9, 19, 48, -37, 9, -14, 45, 62, 1, 2, 1, 16, -81, -41, 22, 4, -6, -63, 47], "withholdReward": false, "trial_id": "mdp_trial_9", "block": "test", "trialIndex": 10, "score": 20.25, "costs": -4.75, "simulationMode": [null, null, null, null, null], "rewards": [-2, -3, -5, 8, 27], "path": ["0", "0", "1", "2", "3", "4", "5"], "rt": [7091, 378, 85, 64, 80], "actions": ["up", "up", "up", "right", "up"], "actionTimes": [8535, 9414, 9988, 10551, 11134], "queries": {"click": {"state": {"target": ["1", "2", "3", "4", "5"], "time": [2491, 2908, 3336, 3707, 4149]}, "edge": {"target": [], "time": []}}, "mouseover": {"state": {"target": ["1", "2", "3", "4", "5", "6", "7"], "time": [2229, 2763, 3197, 3580, 4014, 4648, 5565]}, "edge": {"target": [], "time": []}}, "mouseout": {"state": {"target": ["0", "1", "2", "3", "4", "5", "6", "7", "27"], "time": [2162, 2646, 3030, 3530, 3881, 4548, 5148, 7067, 13188]}, "edge": {"target": [], "time": []}}}, "displayed_time": "15.45", "trialTime": 17946, "trial_type": "mouselab-mdp", "trial_index": 17, "time_elapsed": 441453, "internal_node_id": "0.0-6.0-1.0-8.0"}}, {"uniqueid": "w77097578:a76934449", "current_trial": 18, "dateTime": 1693396361316, "trialdata": {"revealed_states": [], "clicked_states": ["12", "13", "14", "19", "22"], "num_clicks_accrued": [0, 0, 0, 0, 0, 0, 0, 0, 0, 0, 0, 0, 0], "stateRewards": ["", 2, -3, -5, 5, 11, -9, -33, 6, 67, 6, -30, -1, -2, -6, 13, 55, 13, 72, -14, 75, 21, -66, -2, -4, 6, 15, -1, -35, 60, 2, 51, -73, 12], "withholdReward": false, "trial_id": "mdp_trial_10", "block": "test", "trialIndex": 11, "score": 12.25, "costs": -4.75, "simulationMode": [null, null, null, null, null], "rewards": [-1, -2, -6, 13, 13], "path": ["0", "0", "12", "13", "14", "15", "17"], "rt": [6789, 321, 36, 54, 303], "actions": ["right", "right", "right", "up", "right"], "actionTimes": [7904, 8721, 9252, 9821, 10620], "queries": {"click": {"state": {"target": ["12", "13", "14", "19", "22"], "time": [1912, 2306, 2748, 3153, 3515]}, "edge": {"target": [], "time": []}}, "mouseover": {"state": {"target": ["12", "13", "14", "19", "22", "21"], "time": [1843, 2176, 2660, 3060, 3394, 3928]}, "edge": {"target": [], "time": []}}, "mouseout": {"state": {"target": ["0", "12", "13", "14", "19", "19", "22", "21", "32"], "time": [1759, 2143, 2526, 2994, 3177, 3344, 3761, 4512, 15971]}, "edge": {"target": [], "time": []}}}, "displayed_time": "15.12", "trialTime": 16523, "trial_type": "mouselab-mdp", "trial_index": 18, "time_elapsed": 458098, "internal_node_id": "0.0-6.0-1.0-9.0"}}, {"uniqueid": "w77097578:a76934449", "current_trial": 19, "dateTime": 1693396378009, "trialdata": {"revealed_states": [], "clicked_states": ["1", "2", "3", "4", "7"], "num_clicks_accrued": [0, 0, 0, 0, 0, 0, 0, 0, 0, 0, 0, 0, 0], "stateRewards": ["", -2, -3, 8, -4, -30, 31, 69, 9, 66, 87, 64, -2, 2, 8, 5, 47, 16, -39, -8, -54, 51, -19, 1, -2, -2, -11, -25, -26, 43, -9, 19, -84, 86], "withholdReward": false, "trial_id": "mdp_trial_11", "block": "test", "trialIndex": 12, "score": 63.25, "costs": -4.75, "simulationMode": [null, null, null, null, null], "rewards": [-2, -3, 8, -4, 69], "path": ["0", "0", "1", "2", "3", "4", "7"], "rt": [6290, 314, 31, 17, 122], "actions": ["up", "up", "up", "right", "down"], "actionTimes": [7738, 8546, 9081, 9617, 10239], "queries": {"click": {"state": {"target": ["1", "2", "3", "4", "7"], "time": [2259, 2618, 3098, 3385, 3716]}, "edge": {"target": [], "time": []}}, "mouseover": {"state": {"target": ["1", "2", "3", "4", "7"], "time": [2142, 2492, 2976, 3293, 3660]}, "edge": {"target": [], "time": []}}, "mouseout": {"state": {"target": ["0", "1", "2", "3", "4", "7", "7", "1", "32"], "time": [1275, 2409, 2809, 3260, 3577, 3831, 3994, 12184, 15654]}, "edge": {"target": [], "time": []}}}, "displayed_time": "15.45", "trialTime": 16568, "trial_type": "mouselab-mdp", "trial_index": 19, "time_elapsed": 474791, "internal_node_id": "0.0-6.0-1.0-10.0"}}, {"uniqueid": "w77097578:a76934449", "current_trial": 20, "dateTime": 1693396396151, "trialdata": {"revealed_states": [], "clicked_states": ["23", "24", "25", "30", "32"], "num_clicks_accrued": [0, 0, 0, 0, 0, 0, 0, 0, 0, 0, 0, 0, 0], "stateRewards": ["", 2, 3, -6, -5, -3, 55, 40, 11, 61, 11, 51, 2, -4, -6, 9, -25, 29, -15, -6, 7, -77, -2, -2, -4, 1, 14, -43, -1, 56, -12, -54, 41, -74], "withholdReward": false, "trial_id": "mdp_trial_12", "block": "test", "trialIndex": 13, "score": 19.25, "costs": -4.75, "simulationMode": [null, null, null, null, null], "rewards": [-2, -4, 1, -12, 41], "path": ["0", "0", "23", "24", "25", "30", "32"], "rt": [6724, 309, 85, 31, 462], "actions": ["left", "left", "left", "down", "down"], "actionTimes": [8025, 8823, 9398, 9928, 10876], "queries": {"click": {"state": {"target": ["23", "24", "25", "30", "32"], "time": [2386, 2845, 3217, 3596, 3953]}, "edge": {"target": [], "time": []}}, "mouseover": {"state": {"target": ["23", "23", "24", "25", "30", "32", "31"], "time": [1673, 2273, 2757, 3124, 3474, 3825, 4608]}, "edge": {"target": [], "time": []}}, "mouseout": {"state": {"target": ["0", "23", "23", "24", "25", "30", "32", "31"], "time": [1539, 1856, 2707, 3057, 3424, 3758, 4508, 4809]}, "edge": {"target": [], "time": []}}}, "displayed_time": "15.30", "trialTime": 18010, "trial_type": "mouselab-mdp", "trial_index": 20, "time_elapsed": 492932, "internal_node_id": "0.0-6.0-1.0-11.0"}}, {"uniqueid": "w77097578:a76934449", "current_trial": 21, "dateTime": 1693396419627, "trialdata": {"revealed_states": [], "clicked_states": ["1", "2", "3", "8", "10"], "num_clicks_accrued": [0, 0, 0, 0, 0, 0, 0, 0, 0, 0, 0, 0, 0], "stateRewards": ["", 2, -2, 7, -11, -76, -65, -23, 16, -58, 30, 81, 1, 2, 7, 14, 9, 55, -2, 6, 11, -15, 31, -1, -1, -3, 2, 15, 2, 46, 15, 18, 45, -34], "withholdReward": false, "trial_id": "mdp_trial_13", "block": "test", "trialIndex": 14, "score": 48.25, "costs": -4.75, "simulationMode": [null, null, null, null, null], "rewards": [2, -2, 7, 16, 30], "path": ["0", "0", "1", "2", "3", "8", "10"], "rt": [8267, 319, 7, 16, 18], "actions": ["up", "up", "up", "left", "down"], "actionTimes": [9130, 9941, 10445, 10971, 11491], "queries": {"click": {"state": {"target": ["1", "2", "3", "8", "10"], "time": [3421, 3742, 4226, 4595, 4984]}, "edge": {"target": [], "time": []}}, "mouseover": {"state": {"target": ["1", "1", "2", "3", "8", "10"], "time": [1847, 3315, 3632, 4116, 4466, 4883]}, "edge": {"target": [], "time": []}}, "mouseout": {"state": {"target": ["0", "1", "1", "2", "3", "8", "10", "10", "2", "0"], "time": [1730, 2180, 3532, 3915, 4416, 4816, 5200, 21080, 21163, 21497]}, "edge": {"target": [], "time": []}}}, "displayed_time": "14.87", "trialTime": 23345, "trial_type": "mouselab-mdp", "trial_index": 21, "time_elapsed": 516408, "internal_node_id": "0.0-6.0-1.0-12.0"}}, {"uniqueid": "w77097578:a76934449", "current_trial": 22, "dateTime": 1693396439625, "trialdata": {"revealed_states": [], "clicked_states": ["12", "13", "14", "15", "18"], "num_clicks_accrued": [0, 0, 0, 0, 0, 0, 0, 0, 0, 0, 0, 0, 0], "stateRewards": ["", 2, -1, -1, 7, 11, -40, -22, -2, 69, 37, 8, -2, 4, -8, -12, -2, -72, -3, -12, 17, 63, 12, 1, 3, -7, 6, 25, 61, 61, -9, 28, -17, 27], "withholdReward": false, "trial_id": "mdp_trial_14", "block": "test", "trialIndex": 15, "score": 59.25, "costs": -4.75, "simulationMode": [null, null, null, null, null], "rewards": [1, 3, -7, 6, 61], "path": ["0", "0", "23", "24", "25", "26", "29"], "rt": [7118, 222, 39, 520, 353], "actions": ["left", "left", "left", "up", "left"], "actionTimes": [7999, 8721, 9254, 10286, 11136], "queries": {"click": {"state": {"target": ["12", "13", "14", "15", "18"], "time": [1673, 2038, 2366, 2716, 3084]}, "edge": {"target": [], "time": []}}, "mouseover": {"state": {"target": ["12", "13", "14", "15", "18", "0", "0"], "time": [1525, 1892, 2242, 2575, 2943, 4244, 7213]}, "edge": {"target": [], "time": []}}, "mouseout": {"state": {"target": ["0", "12", "13", "14", "15", "18", "12", "0", "0", "22", "21"], "time": [1224, 1858, 2192, 2475, 2909, 3543, 3877, 6529, 18873, 18922, 19106]}, "edge": {"target": [], "time": []}}}, "displayed_time": "14.88", "trialTime": 19868, "trial_type": "mouselab-mdp", "trial_index": 22, "time_elapsed": 536407, "internal_node_id": "0.0-6.0-1.0-13.0"}}, {"uniqueid": "w77097578:a76934449", "current_trial": 23, "dateTime": 1693396468640, "trialdata": {"revealed_states": [], "clicked_states": ["1", "2", "3", "4", "7"], "num_clicks_accrued": [0, 0, 0, 0, 0, 0, 0, 0, 0, 0, 0, 0, 0], "stateRewards": ["", 2, -4, 1, -12, -59, -53, -74, 16, -88, -66, 66, 1, -2, 8, -9, -14, 22, 25, -1, -39, 47, -14, -1, -1, -2, 1, -4, 52, -26, 15, -7, 46, 43], "withholdReward": false, "trial_id": "mdp_trial_15", "block": "test", "trialIndex": 16, "score": -70.75, "costs": -4.75, "simulationMode": [null, null, null, null, null], "rewards": [2, -4, 1, -12, -53], "path": ["0", "0", "1", "2", "3", "4", "6"], "rt": [7396, 219, 425, 67, 33], "actions": ["up", "up", "up", "right", "right"], "actionTimes": [8186, 8899, 9822, 10381, 10914], "queries": {"click": {"state": {"target": ["1", "2", "3", "4", "7"], "time": [2458, 2842, 3179, 3512, 3863]}, "edge": {"target": [], "time": []}}, "mouseover": {"state": {"target": ["1", "2", "3", "4", "7"], "time": [2340, 2724, 3057, 3357, 3758]}, "edge": {"target": [], "time": []}}, "mouseout": {"state": {"target": ["0", "1", "2", "3", "4", "7", "1", "28", "29", "26", "23"], "time": [2073, 2640, 2991, 3324, 3724, 4108, 13232, 13266, 28162, 28195, 28278]}, "edge": {"target": [], "time": []}}}, "displayed_time": "14.79", "trialTime": 28881, "trial_type": "mouselab-mdp", "trial_index": 23, "time_elapsed": 565421, "internal_node_id": "0.0-6.0-1.0-14.0"}}, {"uniqueid": "w77097578:a76934449", "current_trial": 24, "dateTime": 1693396485408, "trialdata": {"revealed_states": [], "clicked_states": ["23", "24", "25", "26", "28"], "num_clicks_accrued": [0, 0, 0, 0, 0, 0, 0, 0, 0, 0, 0, 0, 0], "stateRewards": ["", 1, 1, -6, -2, 7, 77, 3, 16, -16, 66, 31, -1, 3, -8, -6, 33, -50, -48, 7, -60, -66, 36, 2, -3, 3, -7, -12, -61, -79, -4, 8, 74, -70], "withholdReward": false, "trial_id": "mdp_trial_16", "block": "test", "trialIndex": 17, "score": -76.75, "costs": -4.75, "simulationMode": [null, null, null, null, null], "rewards": [2, -3, 3, -4, -70], "path": ["0", "0", "23", "24", "25", "30", "33"], "rt": [7357, 148, 405, 37, 9], "actions": ["left", "left", "left", "down", "left"], "actionTimes": [8064, 8709, 9616, 10149, 10671], "queries": {"click": {"state": {"target": ["23", "24", "25", "26", "28"], "time": [1565, 1945, 2822, 3159, 3544]}, "edge": {"target": [], "time": []}}, "mouseover": {"state": {"target": ["23", "24", "25", "26", "25", "26", "28"], "time": [1504, 1904, 2305, 2554, 2738, 3088, 3489]}, "edge": {"target": [], "time": []}}, "mouseout": {"state": {"target": ["0", "23", "23", "24", "25", "26", "25", "26", "28"], "time": [1020, 1637, 1820, 2170, 2488, 2705, 2988, 3405, 3972]}, "edge": {"target": [], "time": []}}}, "displayed_time": "14.71", "trialTime": 16640, "trial_type": "mouselab-mdp", "trial_index": 24, "time_elapsed": 582190, "internal_node_id": "0.0-6.0-1.0-15.0"}}, {"uniqueid": "w77097578:a76934449", "current_trial": 25, "dateTime": 1693396503383, "trialdata": {"revealed_states": [], "clicked_states": ["12", "13", "14", "15", "18"], "num_clicks_accrued": [0, 0, 0, 0, 0, 0, 0, 0, 0, 0, 0, 0, 0], "stateRewards": ["", -2, -1, -2, -15, 87, 57, 29, -10, 77, -80, -7, 1, -3, 6, 14, -11, 87, -59, 4, -71, 16, -11, 2, 2, -7, 2, -47, 61, 50, 14, -20, 17, 81], "withholdReward": false, "trial_id": "mdp_trial_17", "block": "test", "trialIndex": 18, "score": -67.75, "costs": -4.75, "simulationMode": [null, null, null, null, null], "rewards": [1, -3, 6, 4, -71], "path": ["0", "0", "12", "13", "14", "19", "20"], "rt": [8287, 167, 314, 47, 331], "actions": ["right", "right", "right", "down", "right"], "actionTimes": [10147, 10806, 11619, 12153, 12971], "queries": {"click": {"state": {"target": ["12", "13", "14", "15", "18"], "time": [3582, 3883, 4212, 4562, 5217]}, "edge": {"target": [], "time": []}}, "mouseover": {"state": {"target": ["0", "23", "0", "12", "13", "14", "15", "18"], "time": [2180, 2230, 3248, 3448, 3765, 4082, 4449, 5066]}, "edge": {"target": [], "time": []}}, "mouseout": {"state": {"target": ["23", "0", "23", "0", "12", "13", "14", "15", "18", "21"], "time": [1596, 2214, 3181, 3281, 3732, 4015, 4349, 4766, 5483, 17360]}, "edge": {"target": [], "time": []}}}, "displayed_time": "15.86", "trialTime": 17843, "trial_type": "mouselab-mdp", "trial_index": 25, "time_elapsed": 600164, "internal_node_id": "0.0-6.0-1.0-16.0"}}, {"uniqueid": "w77097578:a76934449", "current_trial": 26, "dateTime": 1693396520377, "trialdata": {"revealed_states": [], "clicked_states": ["23", "24", "25", "30", "31"], "num_clicks_accrued": [0, 0, 0, 0, 0, 0, 0, 0, 0, 0, 0, 0, 0], "stateRewards": ["", 1, -1, 4, 5, -32, 18, 20, 6, -88, -74, 9, -2, 1, -2, -14, 34, -77, -38, -1, 80, -36, 73, 2, 3, -8, 10, -48, -73, -71, -11, -22, 20, 54], "withholdReward": false, "trial_id": "mdp_trial_18", "block": "test", "trialIndex": 19, "score": 12.25, "costs": -4.75, "simulationMode": [null, null, null, null, null], "rewards": [-2, 1, -2, -14, 34], "path": ["0", "0", "12", "13", "14", "15", "16"], "rt": [9238, 211, 171, 113, 99], "actions": ["right", "right", "right", "up", "up"], "actionTimes": [9883, 10594, 11254, 11863, 12449], "queries": {"click": {"state": {"target": ["23", "24", "25", "30", "31"], "time": [3218, 3586, 4055, 4449, 5007]}, "edge": {"target": [], "time": []}}, "mouseover": {"state": {"target": ["12", "23", "24", "25", "30", "31", "32", "33", "30", "23", "0"], "time": [2658, 2942, 3559, 4026, 4326, 4910, 5477, 6378, 8213, 8730, 8830]}, "edge": {"target": [], "time": []}}, "mouseout": {"state": {"target": ["0", "12", "23", "24", "25", "30", "31", "32", "33", "30", "30", "31", "23", "0", "12", "13", "20", "14"], "time": [2642, 2893, 3425, 3809, 4260, 4827, 5360, 5911, 6845, 7212, 8313, 8596, 8746, 16087, 16153, 16186, 16253, 16470]}, "edge": {"target": [], "time": []}}}, "displayed_time": "14.65", "trialTime": 16866, "trial_type": "mouselab-mdp", "trial_index": 26, "time_elapsed": 617159, "internal_node_id": "0.0-6.0-1.0-17.0"}}, {"uniqueid": "w77097578:a76934449", "current_trial": 27, "dateTime": 1693396540101, "trialdata": {"revealed_states": [], "clicked_states": ["1", "2", "3", "8", "9"], "num_clicks_accrued": [0, 0, 0, 0, 0, 0, 0, 0, 0, 0, 0, 0, 0], "stateRewards": ["", 2, 3, -3, 12, -43, 81, -82, -15, 58, -7, -75, -1, -1, 3, -5, 50, -25, -8, 4, 66, 65, -66, 2, -4, 2, -1, -10, 10, 37, 11, 88, -37, 8], "withholdReward": false, "trial_id": "mdp_trial_19", "block": "test", "trialIndex": 20, "score": 40.25, "costs": -4.75, "simulationMode": [null, null, null, null, null], "rewards": [2, 3, -3, -15, 58], "path": ["0", "0", "1", "2", "3", "8", "9"], "rt": [6480, 179, 462, 37, 316], "actions": ["up", "up", "up", "left", "up"], "actionTimes": [7267, 7936, 8887, 9412, 10225], "queries": {"click": {"state": {"target": ["1", "2", "3", "8", "9"], "time": [1450, 1798, 2135, 2441, 2737]}, "edge": {"target": [], "time": []}}, "mouseover": {"state": {"target": ["1", "2", "3", "8", "9", "10"], "time": [1351, 1668, 2035, 2335, 2652, 3069]}, "edge": {"target": [], "time": []}}, "mouseout": {"state": {"target": ["12", "1", "2", "3", "8", "9", "8", "10", "10", "23", "31", "22"], "time": [550, 1618, 1906, 2318, 2585, 2985, 3052, 6555, 15396, 15546, 15613, 18832]}, "edge": {"target": [], "time": []}}}, "displayed_time": "14.80", "trialTime": 19603, "trial_type": "mouselab-mdp", "trial_index": 27, "time_elapsed": 636883, "internal_node_id": "0.0-6.0-1.0-18.0"}}, {"uniqueid": "w77097578:a76934449", "current_trial": 28, "dateTime": 1693396556978, "trialdata": {"revealed_states": [], "clicked_states": ["23", "24", "25", "30", "33"], "num_clicks_accrued": [0, 0, 0, 0, 0, 0, 0, 0, 0, 0, 0, 0, 0], "stateRewards": ["", 2, 3, -1, 6, 44, -4, -59, -14, -3, 64, 16, 1, -3, 3, 6, 3, 49, 19, 3, -49, -14, -86, 1, 2, -3, -8, -33, 14, 32, -13, -77, -47, -67], "withholdReward": false, "trial_id": "mdp_trial_20", "block": "test", "trialIndex": 21, "score": 1.25, "costs": -4.75, "simulationMode": [null, null, null, null, null], "rewards": [2, 3, -1, -14, 16], "path": ["0", "0", "1", "2", "3", "8", "11"], "rt": [6772, 238, 211, 77, 61], "actions": ["up", "up", "up", "left", "left"], "actionTimes": [7521, 8255, 8961, 9528, 10079], "queries": {"click": {"state": {"target": ["23", "24", "25", "30", "33"], "time": [1575, 1948, 2283, 2634, 2986]}, "edge": {"target": [], "time": []}}, "mouseover": {"state": {"target": ["0", "23", "24", "25", "30", "33", "30", "31", "23"], "time": [1193, 1477, 1827, 2177, 2544, 2878, 6281, 6314, 6347]}, "edge": {"target": [], "time": []}}, "mouseout": {"state": {"target": ["0", "0", "23", "24", "25", "30", "30", "33", "30", "31", "23"], "time": [576, 1443, 1794, 2127, 2484, 2735, 2844, 3362, 6297, 6331, 6364]}, "edge": {"target": [], "time": []}}}, "displayed_time": "14.75", "trialTime": 16756, "trial_type": "mouselab-mdp", "trial_index": 28, "time_elapsed": 653759, "internal_node_id": "0.0-6.0-1.0-19.0"}}, {"uniqueid": "w77097578:a76934449", "current_trial": 29, "dateTime": 1693396575385, "trialdata": {"revealed_states": [], "clicked_states": ["12", "13", "14", "19", "20"], "num_clicks_accrued": [0, 0, 0, 0, 0, 0, 0, 0, 0, 0, 0, 0, 0], "stateRewards": ["", -2, 2, -5, -6, 10, -66, -58, -10, -11, -63, -70, -1, -4, -5, 7, 66, -64, -43, -3, 45, -37, 4, -2, -2, -6, -4, -30, 33, 43, 15, -32, -65, -59], "withholdReward": false, "trial_id": "mdp_trial_21", "block": "test", "trialIndex": 22, "score": 27.25, "costs": -4.75, "simulationMode": [null, null, null, null, null], "rewards": [-1, -4, -5, -3, 45], "path": ["0", "0", "12", "13", "14", "19", "20"], "rt": [8269, 245, 53, 40, 361], "actions": ["right", "right", "right", "down", "right"], "actionTimes": [10455, 11201, 11742, 12297, 13167], "queries": {"click": {"state": {"target": ["12", "13", "14", "19", "20"], "time": [3142, 3491, 3847, 4194, 4521]}, "edge": {"target": [], "time": []}}, "mouseover": {"state": {"target": ["1", "12", "13", "14", "19", "20", "21", "0"], "time": [2647, 3031, 3365, 3698, 4099, 4382, 4866, 8602]}, "edge": {"target": [], "time": []}}, "mouseout": {"state": {"target": ["0", "1", "12", "13", "14", "19", "20", "20", "21"], "time": [2481, 2864, 3331, 3648, 4015, 4275, 4604, 4799, 4966]}, "edge": {"target": [], "time": []}}}, "displayed_time": "16.19", "trialTime": 18269, "trial_type": "mouselab-mdp", "trial_index": 29, "time_elapsed": 672167, "internal_node_id": "0.0-6.0-1.0-20.0"}}, {"uniqueid": "w77097578:a76934449", "current_trial": 30, "dateTime": 1693396592243, "trialdata": {"revealed_states": [], "clicked_states": ["1", "2", "3", "4", "7"], "num_clicks_accrued": [0, 0, 0, 0, 0, 0, 0, 0, 0, 0, 0, 0, 0], "stateRewards": ["", -2, 3, -5, -7, 66, 43, -60, -4, -70, -75, 4, -1, 2, 2, -13, 54, 11, -40, -1, 77, 32, 15, -2, 3, -8, -9, -35, 83, -27, 6, -74, -34, 44], "withholdReward": false, "trial_id": "mdp_trial_22", "block": "test", "trialIndex": 23, "score": -39.75, "costs": -4.75, "simulationMode": [null, null, null, null, null], "rewards": [-2, 3, -8, 6, -34], "path": ["0", "0", "23", "24", "25", "30", "32"], "rt": [7333, 188, 40, 9, 190], "actions": ["left", "left", "left", "down", "down"], "actionTimes": [8625, 9306, 9842, 10361, 11059], "queries": {"click": {"state": {"target": ["1", "2", "3", "4", "7"], "time": [2234, 2636, 2941, 3213, 3486]}, "edge": {"target": [], "time": []}}, "mouseover": {"state": {"target": ["1", "2", "3", "4", "7"], "time": [2060, 2494, 2828, 3128, 3412]}, "edge": {"target": [], "time": []}}, "mouseout": {"state": {"target": ["0", "1", "2", "3", "4", "7"], "time": [1977, 2427, 2661, 3095, 3361, 3729]}, "edge": {"target": [], "time": []}}}, "displayed_time": "15.29", "trialTime": 16724, "trial_type": "mouselab-mdp", "trial_index": 30, "time_elapsed": 689024, "internal_node_id": "0.0-6.0-1.0-21.0"}}, {"uniqueid": "w77097578:a76934449", "current_trial": 31, "dateTime": 1693396610347, "trialdata": {"revealed_states": [], "clicked_states": ["12", "13", "14", "15", "16"], "num_clicks_accrued": [0, 0, 0, 0, 0, 0, 0, 0, 0, 0, 0, 0, 0], "stateRewards": ["", 2, 3, 8, 14, 69, -27, 17, 2, -71, -65, -10, 2, -3, 7, 8, 65, -10, 65, -12, 73, -12, 13, -2, -2, 6, 10, -79, -69, -18, 10, -85, 67, 74], "withholdReward": false, "trial_id": "mdp_trial_23", "block": "test", "trialIndex": 24, "score": 74.25, "costs": -4.75, "simulationMode": [null, null, null, null, null], "rewards": [2, -3, 7, 8, 65], "path": ["0", "0", "12", "13", "14", "15", "16"], "rt": [7828, 429, 30, 13, 502], "actions": ["right", "right", "right", "up", "up"], "actionTimes": [9106, 10036, 10553, 11071, 12077], "queries": {"click": {"state": {"target": ["12", "13", "14", "15", "16"], "time": [3369, 3682, 3992, 4328, 4617]}, "edge": {"target": [], "time": []}}, "mouseover": {"state": {"target": ["0", "12", "13", "12", "13", "14", "15", "16"], "time": [2299, 2916, 3033, 3284, 3550, 3884, 4217, 4518]}, "edge": {"target": [], "time": []}}, "mouseout": {"state": {"target": ["0", "0", "12", "13", "12", "13", "14", "15", "16", "15", "13"], "time": [1565, 2699, 3000, 3250, 3517, 3834, 4134, 4467, 4818, 4884, 4968]}, "edge": {"target": [], "time": []}}}, "displayed_time": "15.28", "trialTime": 17970, "trial_type": "mouselab-mdp", "trial_index": 31, "time_elapsed": 707129, "internal_node_id": "0.0-6.0-1.0-22.0"}}, {"uniqueid": "w77097578:a76934449", "current_trial": 32, "dateTime": 1693396627158, "trialdata": {"revealed_states": [], "clicked_states": ["1", "2", "3", "4", "6"], "num_clicks_accrued": [0, 0, 0, 0, 0, 0, 0, 0, 0, 0, 0, 0, 0], "stateRewards": ["", 1, -1, 4, -2, -75, -75, 84, -9, -60, -79, 59, 2, -4, 8, 9, -17, -82, 80, 14, -4, 49, 49, -1, 3, 6, -11, -33, 34, 55, 9, -57, 5, 59], "withholdReward": false, "trial_id": "mdp_trial_24", "block": "test", "trialIndex": 25, "score": 49.25, "costs": -4.75, "simulationMode": [null, null, null, null, null], "rewards": [1, -1, 4, -9, 59], "path": ["0", "0", "1", "2", "3", "8", "11"], "rt": [7457, 178, 170, 285, 218], "actions": ["up", "up", "up", "left", "left"], "actionTimes": [8284, 8953, 9612, 10395, 11111], "queries": {"click": {"state": {"target": ["1", "2", "3", "4", "6"], "time": [1958, 2316, 2685, 3024, 3342]}, "edge": {"target": [], "time": []}}, "mouseover": {"state": {"target": ["1", "2", "3", "4", "6", "7"], "time": [1818, 2202, 2586, 2919, 3236, 6973]}, "edge": {"target": [], "time": []}}, "mouseout": {"state": {"target": ["0", "1", "2", "3", "4", "6", "7", "1"], "time": [1752, 2077, 2485, 2886, 3203, 3603, 7356, 14379]}, "edge": {"target": [], "time": []}}}, "displayed_time": "14.83", "trialTime": 16668, "trial_type": "mouselab-mdp", "trial_index": 32, "time_elapsed": 723940, "internal_node_id": "0.0-6.0-1.0-23.0"}}, {"uniqueid": "w77097578:a76934449", "current_trial": 33, "dateTime": 1693396643625, "trialdata": {"revealed_states": [], "clicked_states": ["23", "24", "25", "26", "28"], "num_clicks_accrued": [0, 0, 0, 0, 0, 0, 0, 0, 0, 0, 0, 0, 0], "stateRewards": ["", 1, 1, -7, -9, -44, 24, -83, -15, 44, -24, 72, -2, -3, 4, -5, 57, 55, 29, -11, 22, 12, -25, -1, 2, 7, 12, 33, -8, 47, -4, 8, 50, -4], "withholdReward": false, "trial_id": "mdp_trial_25", "block": "test", "trialIndex": 26, "score": -4.75, "costs": -4.75, "simulationMode": [null, null, null, null, null], "rewards": [-1, 2, 7, -4, -4], "path": ["0", "0", "23", "24", "25", "30", "33"], "rt": [7539, 96, 351, 14, 235], "actions": ["left", "left", "left", "down", "left"], "actionTimes": [8404, 8993, 9831, 10345, 11083], "queries": {"click": {"state": {"target": ["23", "24", "25", "26", "28"], "time": [1646, 1997, 2342, 3042, 3347]}, "edge": {"target": [], "time": []}}, "mouseover": {"state": {"target": ["23", "24", "25", "26", "28"], "time": [1607, 1957, 2257, 2741, 3258]}, "edge": {"target": [], "time": []}}, "mouseout": {"state": {"target": ["0", "23", "24", "25", "26", "28", "24", "31"], "time": [1506, 1890, 2207, 2507, 3208, 3558, 3692, 13700]}, "edge": {"target": [], "time": []}}}, "displayed_time": "14.87", "trialTime": 16326, "trial_type": "mouselab-mdp", "trial_index": 33, "time_elapsed": 740406, "internal_node_id": "0.0-6.0-1.0-24.0"}}, {"uniqueid": "w77097578:a76934449", "current_trial": 34, "dateTime": 1693396660481, "trialdata": {"revealed_states": [], "clicked_states": ["12", "13", "14", "19", "21"], "num_clicks_accrued": [0, 0, 0, 0, 0, 0, 0, 0, 0, 0, 0, 0, 0], "stateRewards": ["", 1, -1, -7, -7, -22, 15, -13, 13, 26, -32, 38, -1, 1, -7, -4, 16, -62, 86, 12, -54, 56, 64, -2, -1, 6, 14, -57, 37, 62, -6, -25, 50, -70], "withholdReward": false, "trial_id": "mdp_trial_26", "block": "test", "trialIndex": 27, "score": 56.25, "costs": -4.75, "simulationMode": [null, null, null, null, null], "rewards": [-1, 1, -7, 12, 56], "path": ["0", "0", "12", "13", "14", "19", "21"], "rt": [6621, 297, 229, 46, 115], "actions": ["right", "right", "right", "down", "down"], "actionTimes": [7477, 8265, 8980, 9515, 10117], "queries": {"click": {"state": {"target": ["12", "13", "14", "19", "21"], "time": [1668, 2018, 2368, 2706, 3028]}, "edge": {"target": [], "time": []}}, "mouseover": {"state": {"target": ["12", "13", "14", "19", "21"], "time": [1661, 1917, 2279, 2645, 2996]}, "edge": {"target": [], "time": []}}, "mouseout": {"state": {"target": ["0", "12", "13", "14", "19", "21", "21"], "time": [1528, 1861, 2195, 2595, 2912, 3046, 3379]}, "edge": {"target": [], "time": []}}}, "displayed_time": "14.86", "trialTime": 16723, "trial_type": "mouselab-mdp", "trial_index": 34, "time_elapsed": 757262, "internal_node_id": "0.0-6.0-1.0-25.0"}}, {"uniqueid": "w77097578:a76934449", "current_trial": 35, "dateTime": 1693396676596, "trialdata": {"revealed_states": [], "clicked_states": ["1", "2", "3", "8", "9"], "num_clicks_accrued": [0, 0, 0, 0, 0, 0, 0, 0, 0, 0, 0, 0, 0], "stateRewards": ["", -1, 4, -3, 3, 57, -61, 5, -11, 23, -1, 34, -2, -4, -1, -13, 27, 38, -36, 4, -45, 21, 88, 1, -2, -1, 1, -69, -5, -78, -12, -9, 38, -54], "withholdReward": false, "trial_id": "mdp_trial_27", "block": "test", "trialIndex": 28, "score": 7.25, "costs": -4.75, "simulationMode": [null, null, null, null, null], "rewards": [-1, 4, -3, -11, 23], "path": ["0", "0", "1", "2", "3", "8", "9"], "rt": [6839, 192, 401, 27, 20], "actions": ["up", "up", "up", "left", "up"], "actionTimes": [7809, 8497, 9392, 9917, 10427], "queries": {"click": {"state": {"target": ["1", "2", "3", "8", "9"], "time": [1888, 2237, 2584, 2955, 3267]}, "edge": {"target": [], "time": []}}, "mouseover": {"state": {"target": ["1", "2", "3", "8", "9", "10"], "time": [1749, 2116, 2499, 2900, 3200, 3600]}, "edge": {"target": [], "time": []}}, "mouseout": {"state": {"target": ["0", "1", "2", "3", "8", "9", "8", "10", "28", "23"], "time": [1019, 2049, 2383, 2833, 3073, 3500, 3567, 3650, 13142, 13392]}, "edge": {"target": [], "time": []}}}, "displayed_time": "14.97", "trialTime": 15978, "trial_type": "mouselab-mdp", "trial_index": 35, "time_elapsed": 773378, "internal_node_id": "0.0-6.0-1.0-26.0"}}, {"uniqueid": "w77097578:a76934449", "current_trial": 36, "dateTime": 1693396692863, "trialdata": {"revealed_states": [], "clicked_states": ["23", "24", "25", "30", "33"], "num_clicks_accrued": [0, 0, 0, 0, 0, 0, 0, 0, 0, 0, 0, 0, 0], "stateRewards": ["", 2, 3, 6, -5, -74, -53, 17, -12, 46, 44, 18, -2, 4, 1, -8, 22, -23, -49, 9, -45, 55, 81, 1, -1, -7, -16, -83, -71, -45, 2, 51, 82, 61], "withholdReward": false, "trial_id": "mdp_trial_28", "block": "test", "trialIndex": 29, "score": 51.25, "costs": -4.75, "simulationMode": [null, null, null, null, null], "rewards": [1, -1, -7, 2, 61], "path": ["0", "0", "23", "24", "25", "30", "33"], "rt": [7260, 191, 169, 45, 49], "actions": ["left", "left", "left", "down", "left"], "actionTimes": [7959, 8653, 9315, 9858, 10412], "queries": {"click": {"state": {"target": ["23", "24", "25", "30", "33"], "time": [2133, 2429, 3049, 3629, 3883]}, "edge": {"target": [], "time": []}}, "mouseover": {"state": {"target": ["23", "23", "24", "25", "30", "33"], "time": [1638, 2055, 2356, 2956, 3482, 3823]}, "edge": {"target": [], "time": []}}, "mouseout": {"state": {"target": ["0", "23", "23", "24", "25", "30", "33", "33", "31"], "time": [1371, 1738, 2323, 2672, 3256, 3790, 4157, 13732, 15400]}, "edge": {"target": [], "time": []}}}, "displayed_time": "14.70", "trialTime": 16138, "trial_type": "mouselab-mdp", "trial_index": 36, "time_elapsed": 789645, "internal_node_id": "0.0-6.0-1.0-27.0"}}, {"uniqueid": "w77097578:a76934449", "current_trial": 37, "dateTime": 1693396710744, "trialdata": {"revealed_states": [], "clicked_states": ["1", "2", "3", "4", "7"], "num_clicks_accrued": [0, 0, 0, 0, 0, 0, 0, 0, 0, 0, 0, 0, 0], "stateRewards": ["", 1, 1, -3, 2, 22, -25, -11, -5, 50, 49, 3, 1, -1, 8, 14, -85, -30, 57, -6, -39, -16, 59, -2, -1, 5, 5, 59, -16, 8, 4, 67, 56, -9], "withholdReward": false, "trial_id": "mdp_trial_29", "block": "test", "trialIndex": 30, "score": 18.25, "costs": -4.75, "simulationMode": [null, null, null, null, null], "rewards": [1, 1, -3, 2, 22], "path": ["0", "0", "1", "2", "3", "4", "5"], "rt": [6585, 166, 117, 35, 406], "actions": ["up", "up", "up", "right", "up"], "actionTimes": [7701, 8363, 8980, 9516, 10437], "queries": {"click": {"state": {"target": ["1", "2", "3", "4", "7"], "time": [1997, 2335, 2646, 2981, 3285]}, "edge": {"target": [], "time": []}}, "mouseover": {"state": {"target": ["1", "2", "3", "4", "7", "0"], "time": [1840, 2224, 2557, 2874, 3208, 3641]}, "edge": {"target": [], "time": []}}, "mouseout": {"state": {"target": ["0", "1", "2", "3", "4", "7", "0"], "time": [1740, 2157, 2474, 2841, 3174, 3525, 3675]}, "edge": {"target": [], "time": []}}}, "displayed_time": "15.12", "trialTime": 17757, "trial_type": "mouselab-mdp", "trial_index": 37, "time_elapsed": 807525, "internal_node_id": "0.0-6.0-1.0-28.0"}}, {"uniqueid": "w77097578:a76934449", "current_trial": 38, "dateTime": 1693396726881, "trialdata": {"revealed_states": [], "clicked_states": ["23", "24", "25", "26", "29"], "num_clicks_accrued": [0, 0, 0, 0, 0, 0, 0, 0, 0, 0, 0, 0, 0], "stateRewards": ["", -1, 1, 8, -3, -24, 11, -65, -6, -77, 48, 44, -2, 1, -2, -7, -55, -35, 33, 8, -28, 19, -53, -1, -1, -5, -5, -70, 10, 44, 8, -58, -70, 51], "withholdReward": false, "trial_id": "mdp_trial_30", "block": "test", "trialIndex": 31, "score": 27.25, "costs": -4.75, "simulationMode": [null, null, null, null, null], "rewards": [-1, -1, -5, -5, 44], "path": ["0", "0", "23", "24", "25", "26", "29"], "rt": [6961, 203, 608, 97, 4], "actions": ["left", "left", "left", "up", "left"], "actionTimes": [7835, 8532, 9637, 10227, 10718], "queries": {"click": {"state": {"target": ["23", "24", "25", "26", "29"], "time": [1619, 2554, 2844, 3245, 3598]}, "edge": {"target": [], "time": []}}, "mouseover": {"state": {"target": ["23", "24", "24", "25", "26", "29"], "time": [1505, 2106, 2456, 2756, 3123, 3507]}, "edge": {"target": [], "time": []}}, "mouseout": {"state": {"target": ["0", "23", "24", "24", "25", "26", "29", "25"], "time": [1455, 1839, 2189, 2706, 3006, 3440, 3907, 15450]}, "edge": {"target": [], "time": []}}}, "displayed_time": "14.88", "trialTime": 16011, "trial_type": "mouselab-mdp", "trial_index": 38, "time_elapsed": 823663, "internal_node_id": "0.0-6.0-1.0-29.0"}}, {"uniqueid": "w77097578:a76934449", "current_trial": 39, "dateTime": 1693396743566, "trialdata": {"revealed_states": [], "clicked_states": ["1", "2", "3", "8", "10"], "num_clicks_accrued": [0, 0, 0, 0, 0, 0, 0, 0, 0, 0, 0, 0, 0], "stateRewards": ["", -1, 1, 3, -8, -23, -15, -14, -11, -23, 58, 68, 1, 3, 5, 12, -17, -41, -7, -10, -4, 82, 10, 1, 4, -4, 11, 73, 55, -55, -1, -86, -86, 54], "withholdReward": false, "trial_id": "mdp_trial_31", "block": "test", "trialIndex": 32, "score": 45.25, "costs": -4.75, "simulationMode": [null, null, null, null, null], "rewards": [-1, 1, 3, -11, 58], "path": ["0", "0", "1", "2", "3", "8", "10"], "rt": [6396, 330, 440, 5, 54], "actions": ["up", "up", "up", "left", "down"], "actionTimes": [7068, 7895, 8822, 9321, 9887], "queries": {"click": {"state": {"target": ["1", "2", "3", "8", "10"], "time": [1502, 1808, 2134, 2544, 2950]}, "edge": {"target": [], "time": []}}, "mouseover": {"state": {"target": ["1", "2", "3", "8", "10", "23"], "time": [1414, 1726, 2026, 2410, 2860, 3360]}, "edge": {"target": [], "time": []}}, "mouseout": {"state": {"target": ["0", "1", "2", "3", "8", "10", "23", "23", "30", "33"], "time": [1309, 1642, 1943, 2360, 2827, 3194, 4645, 13051, 13185, 13220]}, "edge": {"target": [], "time": []}}}, "displayed_time": "14.67", "trialTime": 16553, "trial_type": "mouselab-mdp", "trial_index": 39, "time_elapsed": 840347, "internal_node_id": "0.0-6.0-1.0-30.0"}}, {"uniqueid": "w77097578:a76934449", "current_trial": 40, "dateTime": 1693396772428, "trialdata": {"revealed_states": [], "clicked_states": ["12", "13", "14", "19", "20"], "num_clicks_accrued": [0, 0, 0, 0, 0, 0, 0, 0, 0, 0, 0, 0, 0], "stateRewards": ["", -2, 1, -5, 2, -68, 80, 33, 10, 67, -59, 20, -1, -3, 3, 14, 74, -2, 24, -16, 63, 80, 46, -1, 4, 6, 12, 83, -38, -43, -4, 43, 14, -79], "withholdReward": false, "trial_id": "mdp_trial_32", "block": "test", "trialIndex": 33, "score": 41.25, "costs": -4.75, "simulationMode": [null, null, null, null, null], "rewards": [-1, -3, 3, -16, 63], "path": ["0", "0", "12", "13", "14", "19", "20"], "rt": [6255, 128, 85, 60, 32], "actions": ["right", "right", "right", "down", "right"], "actionTimes": [7279, 7896, 8470, 9028, 9551], "queries": {"click": {"state": {"target": ["12", "13", "14", "19", "20"], "time": [1850, 2194, 2506, 2816, 3171]}, "edge": {"target": [], "time": []}}, "mouseover": {"state": {"target": ["12", "13", "14", "19", "20"], "time": [1811, 2112, 2429, 2745, 3062]}, "edge": {"target": [], "time": []}}, "mouseout": {"state": {"target": ["0", "12", "13", "14", "19", "19", "20", "31", "30", "33", "32"], "time": [810, 2045, 2378, 2679, 2829, 3012, 3413, 11302, 11319, 11352, 28167]}, "edge": {"target": [], "time": []}}}, "displayed_time": "15.03", "trialTime": 28720, "trial_type": "mouselab-mdp", "trial_index": 40, "time_elapsed": 869209, "internal_node_id": "0.0-6.0-1.0-31.0"}}, {"uniqueid": "w77097578:a76934449", "current_trial": 41, "dateTime": 1693396793800, "trialdata": {"revealed_states": [], "clicked_states": ["23", "24", "25", "30", "33"], "num_clicks_accrued": [0, 0, 0, 0, 0, 0, 0, 0, 0, 0, 0, 0, 0], "stateRewards": ["", 2, 3, 6, -12, -29, 12, 87, 4, 35, -30, 67, 2, 3, -5, -9, 44, 69, -8, 1, 45, -8, 28, -2, -1, -8, 11, -12, -5, 81, 9, 87, 82, 88], "withholdReward": false, "trial_id": "mdp_trial_33", "block": "test", "trialIndex": 34, "score": 81.25, "costs": -4.75, "simulationMode": [null, null, null, null, null], "rewards": [-2, -1, -8, 9, 88], "path": ["0", "0", "23", "24", "25", "30", "33"], "rt": [6365, 276, 11, 61, 68], "actions": ["left", "left", "left", "down", "left"], "actionTimes": [7110, 7884, 8386, 8953, 9527], "queries": {"click": {"state": {"target": ["23", "24", "25", "30", "33"], "time": [1506, 1953, 2309, 2649, 3104]}, "edge": {"target": [], "time": []}}, "mouseover": {"state": {"target": ["23", "24", "25", "30", "33"], "time": [1435, 1885, 2219, 2569, 2969]}, "edge": {"target": [], "time": []}}, "mouseout": {"state": {"target": ["0", "23", "24", "25", "30", "33"], "time": [1351, 1818, 2169, 2519, 2886, 3386]}, "edge": {"target": [], "time": []}}}, "displayed_time": "14.75", "trialTime": 21225, "trial_type": "mouselab-mdp", "trial_index": 41, "time_elapsed": 890582, "internal_node_id": "0.0-6.0-1.0-32.0"}}, {"uniqueid": "w77097578:a76934449", "current_trial": 42, "dateTime": 1693396810246, "trialdata": {"revealed_states": [], "clicked_states": ["12", "14", "19", "13", "20"], "num_clicks_accrued": [0, 0, 0, 0, 0, 0, 0, 0, 0, 0, 0, 0, 0], "stateRewards": ["", 1, 2, -3, -5, 66, -50, -47, -5, 1, 28, -27, 1, 1, -1, -6, 37, -25, 56, 1, -82, -66, -40, -1, -4, -7, 15, -61, -23, 26, 10, 14, -56, 29], "withholdReward": false, "trial_id": "mdp_trial_34", "block": "test", "trialIndex": 35, "score": -36.75, "costs": -4.75, "simulationMode": [null, null, null, null, null], "rewards": [1, 2, -3, -5, -27], "path": ["0", "0", "1", "2", "3", "8", "11"], "rt": [7469, 104, 24, 45, 466], "actions": ["up", "up", "up", "left", "left"], "actionTimes": [8261, 8855, 9374, 9913, 10885], "queries": {"click": {"state": {"target": ["12", "14", "19", "13", "20"], "time": [1549, 2299, 2803, 3309, 3729]}, "edge": {"target": [], "time": []}}, "mouseover": {"state": {"target": ["12", "13", "14", "19", "13", "20", "21"], "time": [1426, 1777, 2144, 2694, 3178, 3628, 4079]}, "edge": {"target": [], "time": []}}, "mouseout": {"state": {"target": ["0", "12", "13", "14", "19", "13", "20", "21", "32"], "time": [1110, 1727, 1893, 2611, 3028, 3478, 3995, 4112, 15939]}, "edge": {"target": [], "time": []}}}, "displayed_time": "14.79", "trialTime": 16296, "trial_type": "mouselab-mdp", "trial_index": 42, "time_elapsed": 907028, "internal_node_id": "0.0-6.0-1.0-33.0"}}, {"uniqueid": "w77097578:a76934449", "current_trial": 43, "dateTime": 1693396826329, "trialdata": {"revealed_states": [], "clicked_states": ["23", "24", "25", "30", "31"], "num_clicks_accrued": [0, 0, 0, 0, 0, 0, 0, 0, 0, 0, 0, 0, 0], "stateRewards": ["", -1, -2, -8, 8, -27, -82, 19, -14, -62, 4, 1, -2, 2, 6, 10, 73, -51, -2, 2, 73, -48, 54, -1, 2, -4, 11, -25, 47, 86, 15, 33, 43, -42], "withholdReward": false, "trial_id": "mdp_trial_35", "block": "test", "trialIndex": 36, "score": 40.25, "costs": -4.75, "simulationMode": [null, null, null, null, null], "rewards": [-1, 2, -4, 15, 33], "path": ["0", "0", "23", "24", "25", "30", "31"], "rt": [6166, 80, 36, 71, 51], "actions": ["left", "left", "left", "down", "right"], "actionTimes": [6882, 7457, 7980, 8550, 9113], "queries": {"click": {"state": {"target": ["23", "24", "25", "30", "31"], "time": [1381, 1748, 2101, 2447, 2750]}, "edge": {"target": [], "time": []}}, "mouseover": {"state": {"target": ["23", "24", "25", "30", "31"], "time": [1287, 1654, 1988, 2322, 2638]}, "edge": {"target": [], "time": []}}, "mouseout": {"state": {"target": ["0", "23", "24", "25", "30", "31"], "time": [570, 1621, 1905, 2255, 2572, 2989]}, "edge": {"target": [], "time": []}}}, "displayed_time": "14.72", "trialTime": 15942, "trial_type": "mouselab-mdp", "trial_index": 43, "time_elapsed": 923110, "internal_node_id": "0.0-6.0-1.0-34.0"}}, {"uniqueid": "w77097578:a76934449", "current_trial": 44, "dateTime": 1693396843966, "trialdata": {"revealed_states": [], "clicked_states": ["1", "2", "3", "8", "9"], "num_clicks_accrued": [0, 0, 0, 0, 0, 0, 0, 0, 0, 0, 0, 0, 0], "stateRewards": ["", -2, -3, -6, -7, 9, 16, 65, 5, -41, 20, -25, -1, -4, 1, -11, -49, -4, 71, 1, 39, -62, 52, -2, -3, 7, -9, -28, -70, 84, 8, 24, -58, 82], "withholdReward": false, "trial_id": "mdp_trial_36", "block": "test", "trialIndex": 37, "score": 31.25, "costs": -4.75, "simulationMode": [null, null, null, null, null], "rewards": [-1, -4, 1, 1, 39], "path": ["0", "0", "12", "13", "14", "19", "20"], "rt": [8630, 151, 119, 395, 74], "actions": ["right", "right", "right", "down", "right"], "actionTimes": [9797, 10446, 11064, 11957, 12520], "queries": {"click": {"state": {"target": ["1", "2", "3", "8", "9"], "time": [2257, 2635, 2961, 3571, 3878]}, "edge": {"target": [], "time": []}}, "mouseover": {"state": {"target": ["1", "2", "3", "8", "9", "11", "10", "1", "12"], "time": [2070, 2486, 2887, 3220, 3788, 4371, 7624, 7774, 7991]}, "edge": {"target": [], "time": []}}, "mouseout": {"state": {"target": ["0", "1", "2", "3", "8", "9", "11", "10", "1", "12", "12"], "time": [918, 2386, 2734, 3154, 3721, 4271, 4405, 7674, 7824, 8108, 14163]}, "edge": {"target": [], "time": []}}}, "displayed_time": "15.17", "trialTime": 17498, "trial_type": "mouselab-mdp", "trial_index": 44, "time_elapsed": 940748, "internal_node_id": "0.0-6.0-1.0-35.0"}}, {"uniqueid": "w77097578:a76934449", "current_trial": 45, "dateTime": 1693396860419, "trialdata": {"revealed_states": [], "clicked_states": ["23", "24", "25", "26", "28"], "num_clicks_accrued": [0, 0, 0, 0, 0, 0, 0, 0, 0, 0, 0, 0, 0], "stateRewards": ["", 2, -1, -3, 16, -3, -16, -62, -1, 13, -26, 43, -1, 4, 3, -9, -54, -37, -3, -12, -71, -68, -57, 1, -3, 2, -9, 2, -2, -9, -11, 84, -52, 55], "withholdReward": false, "trial_id": "mdp_trial_37", "block": "test", "trialIndex": 38, "score": -44.75, "costs": -4.75, "simulationMode": [null, null, null, null, null], "rewards": [-1, 4, 3, -9, -37], "path": ["0", "0", "12", "13", "14", "15", "17"], "rt": [7839, 181, 276, 45, 378], "actions": ["right", "right", "right", "up", "right"], "actionTimes": [8699, 9379, 10157, 10694, 11560], "queries": {"click": {"state": {"target": ["23", "24", "25", "26", "28"], "time": [1779, 2116, 2441, 2767, 3098]}, "edge": {"target": [], "time": []}}, "mouseover": {"state": {"target": ["23", "24", "25", "26", "28", "31", "0", "0"], "time": [1690, 2007, 2357, 2657, 3007, 3475, 6644, 7262]}, "edge": {"target": [], "time": []}}, "mouseout": {"state": {"target": ["0", "23", "24", "25", "26", "28", "24", "31", "0", "0", "23", "24"], "time": [1640, 1957, 2307, 2591, 2974, 3358, 3441, 4008, 6761, 13250, 13283, 13300]}, "edge": {"target": [], "time": []}}}, "displayed_time": "14.86", "trialTime": 16307, "trial_type": "mouselab-mdp", "trial_index": 45, "time_elapsed": 957201, "internal_node_id": "0.0-6.0-1.0-36.0"}}, {"uniqueid": "w77097578:a76934449", "current_trial": 46, "dateTime": 1693396878039, "trialdata": {"revealed_states": [], "clicked_states": ["12", "13", "14", "19", "21"], "num_clicks_accrued": [0, 0, 0, 0, 0, 0, 0, 0, 0, 0, 0, 0, 0], "stateRewards": ["", -2, -3, -3, 9, 79, 67, 22, -15, -56, 27, -85, -2, 4, -4, -15, -20, -32, 60, 15, 71, 57, 17, 1, 2, -8, 15, -37, -81, 82, 15, 21, -3, 2], "withholdReward": false, "trial_id": "mdp_trial_38", "block": "test", "trialIndex": 39, "score": 65.25, "costs": -4.75, "simulationMode": [null, null, null, null, null], "rewards": [-2, 4, -4, 15, 57], "path": ["0", "0", "12", "13", "14", "19", "21"], "rt": [6319, 43, 332, 80, 39], "actions": ["right", "right", "right", "down", "down"], "actionTimes": [7078, 7615, 8437, 9018, 9545], "queries": {"click": {"state": {"target": ["12", "13", "14", "19", "21"], "time": [1587, 1903, 2258, 2575, 2875]}, "edge": {"target": [], "time": []}}, "mouseover": {"state": {"target": ["12", "13", "14", "19", "21"], "time": [1464, 1765, 2082, 2482, 2766]}, "edge": {"target": [], "time": []}}, "mouseout": {"state": {"target": ["0", "12", "13", "14", "19", "21", "32", "32"], "time": [1414, 1731, 2048, 2432, 2732, 3133, 11306, 17061]}, "edge": {"target": [], "time": []}}}, "displayed_time": "14.76", "trialTime": 17486, "trial_type": "mouselab-mdp", "trial_index": 46, "time_elapsed": 974820, "internal_node_id": "0.0-6.0-1.0-37.0"}}, {"uniqueid": "w77097578:a76934449", "current_trial": 47, "dateTime": 1693396894728, "trialdata": {"revealed_states": [], "clicked_states": ["23", "24", "25", "26", "29"], "num_clicks_accrued": [0, 0, 0, 0, 0, 0, 0, 0, 0, 0, 0, 0, 0], "stateRewards": ["", -1, 2, 7, 8, 75, 67, -11, 6, 52, -17, 38, -1, 4, -8, 14, 74, -37, -17, -12, 52, 55, 71, -2, -1, -5, 2, 21, 6, -88, -14, 64, -61, -47], "withholdReward": false, "trial_id": "mdp_trial_39", "block": "test", "trialIndex": 40, "score": 78.25, "costs": -4.75, "simulationMode": [null, null, null, null, null], "rewards": [-1, 2, 7, 8, 67], "path": ["0", "0", "1", "2", "3", "4", "6"], "rt": [7519, 201, 450, 19, 363], "actions": ["up", "up", "up", "right", "right"], "actionTimes": [8509, 9209, 10158, 10678, 11539], "queries": {"click": {"state": {"target": ["23", "24", "25", "26", "29"], "time": [1719, 2030, 2310, 2625, 2930]}, "edge": {"target": [], "time": []}}, "mouseover": {"state": {"target": ["23", "24", "25", "26", "29", "25", "24", "23", "0"], "time": [1617, 1934, 2234, 2517, 2834, 6654, 6704, 6788, 7055]}, "edge": {"target": [], "time": []}}, "mouseout": {"state": {"target": ["0", "23", "24", "25", "26", "29", "25", "24", "23", "0", "31", "30"], "time": [1267, 1824, 2201, 2438, 2801, 3218, 6688, 6754, 6905, 7255, 13560, 13611]}, "edge": {"target": [], "time": []}}}, "displayed_time": "14.99", "trialTime": 16530, "trial_type": "mouselab-mdp", "trial_index": 47, "time_elapsed": 991510, "internal_node_id": "0.0-6.0-1.0-38.0"}}, {"uniqueid": "w77097578:a76934449", "current_trial": 48, "dateTime": 1693396913805, "trialdata": {"revealed_states": [], "clicked_states": ["12", "14", "13", "19", "20"], "num_clicks_accrued": [0, 0, 0, 0, 0, 0, 0, 0, 0, 0, 0, 0, 0], "stateRewards": ["", 1, 2, -6, -13, -51, 22, -4, -12, -44, -12, 6, -2, -2, -2, -14, -46, -4, -77, -2, 36, -79, 41, 2, -4, 2, -6, -55, 59, 70, -5, 39, -19, 24], "withholdReward": false, "trial_id": "mdp_trial_40", "block": "test", "trialIndex": 41, "score": 23.25, "costs": -4.75, "simulationMode": [null, null, null, null, null], "rewards": [-2, -2, -2, -2, 36], "path": ["0", "0", "12", "13", "14", "19", "20"], "rt": [7635, 218, 244, 19, 260], "actions": ["right", "right", "right", "down", "right"], "actionTimes": [9418, 10133, 10879, 11401, 12159], "queries": {"click": {"state": {"target": ["12", "14", "13", "19", "20"], "time": [2739, 3555, 3888, 4617, 4875]}, "edge": {"target": [], "time": []}}, "mouseover": {"state": {"target": ["12", "13", "14", "13", "19", "20", "21"], "time": [2657, 2990, 3291, 3758, 4559, 4775, 5192]}, "edge": {"target": [], "time": []}}, "mouseout": {"state": {"target": ["0", "12", "13", "14", "13", "14", "19", "20", "21", "31", "30", "33"], "time": [2607, 2957, 3041, 3724, 4091, 4158, 4743, 5142, 5242, 13583, 13616, 13633]}, "edge": {"target": [], "time": []}}}, "displayed_time": "15.78", "trialTime": 18899, "trial_type": "mouselab-mdp", "trial_index": 48, "time_elapsed": 1010587, "internal_node_id": "0.0-6.0-1.0-39.0"}}, {"uniqueid": "w77097578:a76934449", "current_trial": 49, "dateTime": 1693396973637, "trialdata": {"rt": 59828, "response": {"Q0": "$-2 to $2", "Q1": "$-32 to $32", "Q2": "$-88 to $88", "Q3": "The cost for clicking on nodes varied between nodes.", "Q4": "Very motivated"}, "question_order": [0, 1, 2, 3, 4], "trial_id": "final_quiz_control", "trial_type": "survey-multi-choice", "trial_index": 49, "time_elapsed": 1070418, "internal_node_id": "0.0-6.0-2.0"}}, {"uniqueid": "w77097578:a76934449", "current_trial": 50, "dateTime": 1693397149254, "trialdata": {"rt": 175612, "response": {"Q0": "I used the inspector on a planned route - if the route was positive, then I took it, if not, I had to risk another route for a chance to be positive and avoid the negative. I only chose risk when there had to be risk.", "Q1": "I did better, but my strategy didn't really change as I was limited in my inspections.", "Q2": "The limited inspections meant I could only really check one route, and if that route was not viable I had to take a blind guess at another as at least there was then a chance at a positive return."}, "trial_id": "self_report_control", "trial_type": "survey-text", "trial_index": 50, "time_elapsed": 1246036, "internal_node_id": "0.0-6.0-3.0"}}, {"uniqueid": "w77097578:a76934449", "current_trial": 51, "dateTime": 1693397233799, "trialdata": {"rt": 84542, "response": {"Q0": "Agree", "Q1": "Disagree", "Q2": "Agree", "Q3": "Strongly agree", "Q4": "Disagree", "Q5": "Agree", "Q6": "Disagree"}, "question_order": [0, 1, 2, 3, 4, 5, 6], "trial_id": "self_report_2", "trial_type": "survey-multi-choice", "trial_index": 51, "time_elapsed": 1330581, "internal_node_id": "0.0-6.0-4.0"}}, {"uniqueid": "w77097578:a76934449", "current_trial": 52, "dateTime": 1693397262295, "trialdata": {"rt": 28493, "response": {"gender": "male", "age": "45", "colorblind": "0", "effort": "0"}, "trial_type": "survey-html-form", "trial_index": 52, "time_elapsed": 1359076, "internal_node_id": "0.0-6.0-5.0"}}, {"uniqueid": "w77097578:a76934449", "current_trial": 53, "dateTime": 1693397297313, "trialdata": {"rt": 35016, "response": {"Q0": "No, the explanation and instructions were clear and the practice rounds helped.", "Q1": "I haven't done this before, first timer!", "Q2": "Thank you and good luck with your study."}, "trial_type": "survey-text", "trial_index": 53, "time_elapsed": 1394095, "internal_node_id": "0.0-6.0-6.0"}}, {"uniqueid": "w77097578:a76934449", "current_trial": 54, "dateTime": 1693397326598, "trialdata": {"rt": 29283, "stimulus": "<h1>Completion Code Instructions (1/2)</h1>\n<br><br><br><br>\nYou have reached the end of the experiment! The completion code consists of two parts: (1) a code with 2 characters (2) a code with 6 characters. On this page, you will receive the second part of the code. The first part of the completion code will be on the next page.\n<br><br>\nThe second part of your completion code is: <b>EWEK22</b>\n<br><br>\nPlease note this down. Then, press 'Finish HIT' in order to find the first part of your completion code. Once the data has been saved, you will receive this code either in this window or in the original browser window where you started the experiment.\n", "response": 0, "trial_type": "html-button-response", "trial_index": 54, "time_elapsed": 1423380, "internal_node_id": "0.0-6.0-7.0"}}, {"uniqueid": "w77097578:a76934449", "current_trial": 55, "dateTime": 1693397327601, "trialdata": {"success": true, "trial_type": "fullscreen", "trial_index": 55, "time_elapsed": 1424383, "internal_node_id": "0.0-7.0"}}], "questiondata": {"params": {"CODE": "C6DMOQA6", "MIN_TIME": 14, "inspectCost": 1, "startTime": "Wed Aug 30 2023 12:45:02 GMT+0100 (British Summer Time)", "bonusRate": 0.002, "variance": "1_2_4_8_44", "branching": "31123"}, "final_score": 612.95}, "eventdata": [{"eventtype": "initialized", "value": null, "timestamp": 1693395902335, "interval": 0}, {"eventtype": "window_resize", "value": [1024, 767], "timestamp": 1693395902335, "interval": 0}, {"eventtype": "window_resize", "value": [1024, 767], "timestamp": 1693395902679, "interval": 344}, {"eventtype": "focus", "value": "off", "timestamp": 1693395907211, "interval": 4532}, {"eventtype": "focus", "value": "on", "timestamp": 1693395913201, "interval": 5990}, {"eventtype": "window_resize", "value": [1920, 1080], "timestamp": 1693395915510, "interval": 2309}, {"eventtype": "focus", "value": "off", "timestamp": 1693395934129, "interval": 18619}, {"eventtype": "focus", "value": "on", "timestamp": 1693395944239, "interval": 10110}, {"eventtype": "focus", "value": "off", "timestamp": 1693395977970, "interval": 33731}, {"eventtype": "focus", "value": "on", "timestamp": 1693395980509, "interval": 2539}, {"eventtype": "focus", "value": "off", "timestamp": 1693396017566, "interval": 37057}, {"eventtype": "focus", "value": "on", "timestamp": 1693396031458, "interval": 13892}, {"eventtype": "focus", "value": "off", "timestamp": 1693396033343, "interval": 1885}, {"eventtype": "focus", "value": "on", "timestamp": 1693396035771, "interval": 2428}, {"eventtype": "focus", "value": "off", "timestamp": 1693396051594, "interval": 15823}, {"eventtype": "focus", "value": "on", "timestamp": 1693396054596, "interval": 3002}, {"eventtype": "focus", "value": "off", "timestamp": 1693396126231, "interval": 71635}, {"eventtype": "focus", "value": "on", "timestamp": 1693396129789, "interval": 3558}, {"eventtype": "focus", "value": "off", "timestamp": 1693396266862, "interval": 137073}, {"eventtype": "focus", "value": "on", "timestamp": 1693396268362, "interval": 1500}, {"eventtype": "focus", "value": "off", "timestamp": 1693396321344, "interval": 52982}, {"eventtype": "focus", "value": "on", "timestamp": 1693396323911, "interval": 2567}, {"eventtype": "focus", "value": "off", "timestamp": 1693396374665, "interval": 50754}, {"eventtype": "focus", "value": "on", "timestamp": 1693396376432, "interval": 1767}, {"eventtype": "focus", "value": "off", "timestamp": 1693396453804, "interval": 77372}, {"eventtype": "focus", "value": "on", "timestamp": 1693396468227, "interval": 14423}, {"eventtype": "focus", "value": "off", "timestamp": 1693396536668, "interval": 68441}, {"eventtype": "focus", "value": "on", "timestamp": 1693396539509, "interval": 2841}, {"eventtype": "focus", "value": "off", "timestamp": 1693396741114, "interval": 201605}, {"eventtype": "focus", "value": "on", "timestamp": 1693396743250, "interval": 2136}, {"eventtype": "focus", "value": "off", "timestamp": 1693396756052, "interval": 12802}, {"eventtype": "focus", "value": "on", "timestamp": 1693396772125, "interval": 16073}, {"eventtype": "focus", "value": "off", "timestamp": 1693396789269, "interval": 17144}, {"eventtype": "focus", "value": "on", "timestamp": 1693396793100, "interval": 3831}, {"eventtype": "focus", "value": "off", "timestamp": 1693396806793, "interval": 13693}, {"eventtype": "focus", "value": "on", "timestamp": 1693396809726, "interval": 2933}, {"eventtype": "focus", "value": "off", "timestamp": 1693396841242, "interval": 31516}, {"eventtype": "focus", "value": "on", "timestamp": 1693396843226, "interval": 1984}, {"eventtype": "focus", "value": "off", "timestamp": 1693396858147, "interval": 14921}, {"eventtype": "focus", "value": "on", "timestamp": 1693396860202, "interval": 2055}, {"eventtype": "focus", "value": "off", "timestamp": 1693396945148, "interval": 84946}, {"eventtype": "focus", "value": "on", "timestamp": 1693396956790, "interval": 11642}, {"eventtype": "focus", "value": "off", "timestamp": 1693397073569, "interval": 116779}, {"eventtype": "focus", "value": "on", "timestamp": 1693397149157, "interval": 75588}, {"eventtype": "focus", "value": "off", "timestamp": 1693397155004, "interval": 5847}, {"eventtype": "focus", "value": "on", "timestamp": 1693397161467, "interval": 6463}, {"eventtype": "focus", "value": "off", "timestamp": 1693397167748, "interval": 6281}, {"eventtype": "focus", "value": "on", "timestamp": 1693397169989, "interval": 2241}, {"eventtype": "focus", "value": "off", "timestamp": 1693397170475, "interval": 486}, {"eventtype": "focus", "value": "on", "timestamp": 1693397191661, "interval": 21186}, {"eventtype": "focus", "value": "off", "timestamp": 1693397192156, "interval": 495}, {"eventtype": "focus", "value": "on", "timestamp": 1693397194947, "interval": 2791}, {"eventtype": "focus", "value": "off", "timestamp": 1693397197089, "interval": 2142}, {"eventtype": "focus", "value": "on", "timestamp": 1693397233714, "interval": 36625}, {"eventtype": "focus", "value": "off", "timestamp": 1693397234966, "interval": 1252}, {"eventtype": "focus", "value": "on", "timestamp": 1693397249702, "interval": 14736}, {"eventtype": "focus", "value": "off", "timestamp": 1693397313907, "interval": 64205}, {"eventtype": "focus", "value": "on", "timestamp": 1693397325687, "interval": 11780}, {"eventtype": "window_resize", "value": [1024, 767], "timestamp": 1693397326813, "interval": 1126}], "useragent": "Mozilla/5.0 (Windows NT 10.0; Win64; x64) AppleWebKit/537.36 (KHTML, like Gecko) Chrome/116.0.0.0 Safari/537.36", "mode": "live", "id": "w77097578:a76934449", "status": "user data saved", "Beginhit": "2023-08-30 11:45:27.973509", "Beginexp": "2023-08-30 11:45:42.741647", "Endhit": "2023-08-30 12:09:14.315183", "psiturkStatus": 3, "browser": "<redacted>", "platform": "windows", "language": "en-GB"}