{"condition": 0, "counterbalance": 0, "assignmentId": "a11043327", "workerId": "w99129593", "hitId": "h37057371", "currenttrial": 55, "bonus": 0, "data": [{"uniqueid": "w99129593:a11043327", "current_trial": 0, "dateTime": 1693564691399, "trialdata": {"success": true, "trial_type": "fullscreen", "trial_index": 0, "time_elapsed": 6891, "internal_node_id": "0.0-0.0"}}, {"uniqueid": "w99129593:a11043327", "current_trial": 1, "dateTime": 1693564719117, "trialdata": {"view_history": [{"page_index": 0, "viewing_time": 27709}], "rt": 27709, "trial_id": "exp_instructions_control", "trial_type": "instructions", "trial_index": 1, "time_elapsed": 34609, "internal_node_id": "0.0-1.0"}}, {"uniqueid": "w99129593:a11043327", "current_trial": 2, "dateTime": 1693565050475, "trialdata": {"view_history": [{"page_index": 0, "viewing_time": 98812}, {"page_index": 1, "viewing_time": 140471}, {"page_index": 2, "viewing_time": 42145}, {"page_index": 3, "viewing_time": 49925}], "rt": 331354, "trial_id": "mouselab_instructions_1_control", "trial_type": "instructions", "trial_index": 2, "time_elapsed": 365967, "internal_node_id": "0.0-2.0-1.0"}}, {"uniqueid": "w99129593:a11043327", "current_trial": 3, "dateTime": 1693565094071, "trialdata": {"revealed_states": [], "clicked_states": ["23", "1"], "num_clicks_accrued": [0, 0, 0, 0, 0, 0, 0, 0, 0, 0, 0, 0, 0], "stateRewards": ["", -10, -10, -10, 10, -10, -10, -10, 10, 10, 10, -10, -10, 10, -10, 10, -10, 10, -10, -10, -10, -10, -10, -10, -10, -10, 10, -10, 10, -10, -10, 10, -10, -10], "withholdReward": false, "trial_id": "practice_1", "block": "test", "trialIndex": 0, "score": -7.5, "costs": -1, "simulationMode": [null, null, null, null, null], "rewards": [-10, 10, -10, 10, -10], "path": ["0", "0", "12", "13", "14", "15", "16"], "rt": [9147, 4667, 1544, 1015, 4241], "actions": ["right", "right", "right", "up", "up"], "actionTimes": [12335, 17511, 19554, 21093, 25843], "queries": {"click": {"state": {"target": ["23", "1"], "time": [5632, 9588]}, "edge": {"target": [], "time": []}}, "mouseover": {"state": {"target": ["23", "24", "12", "1", "1"], "time": [4125, 6646, 8341, 8724, 8923]}, "edge": {"target": [], "time": []}}, "mouseout": {"state": {"target": ["0", "23", "24", "23", "12", "1", "1", "1", "13", "14", "15", "18", "15", "14"], "time": [3556, 6362, 8039, 8074, 8706, 8848, 9719, 14472, 29705, 29788, 30904, 33221, 33571, 36504]}, "edge": {"target": [], "time": []}}}, "displayed_time": "26.36", "trialTime": 42030, "trial_type": "mouselab-mdp", "trial_index": 3, "time_elapsed": 409562, "internal_node_id": "0.0-2.0-2.0-0.0"}}, {"uniqueid": "w99129593:a11043327", "current_trial": 4, "dateTime": 1693565120445, "trialdata": {"revealed_states": [], "clicked_states": ["24"], "num_clicks_accrued": [0, 0, 0, 0, 0, 0, 0, 0, 0, 0, 0, 0, 0], "stateRewards": ["", -10, -10, -10, -10, 10, -10, 10, -10, -10, -10, 10, 10, 10, 10, 10, -10, -10, 10, -10, 10, -10, -10, 10, 10, -10, -10, 10, -10, -10, -10, 10, 10, -10], "withholdReward": false, "trial_id": "practice_2", "block": "test", "trialIndex": 1, "score": 13, "costs": -0.5, "simulationMode": [null, null, null, null, null], "rewards": [10, 10, -10, -10, 10], "path": ["0", "0", "23", "24", "25", "30", "32"], "rt": [5266, 505, 3524, 2067, 663], "actions": ["left", "left", "left", "down", "down"], "actionTimes": [8582, 9601, 13668, 16240, 17403], "queries": {"click": {"state": {"target": ["24"], "time": [5717]}, "edge": {"target": [], "time": []}}, "mouseover": {"state": {"target": ["1", "23", "24", "23", "23"], "time": [4304, 5303, 5701, 6686, 7985]}, "edge": {"target": [], "time": []}}, "mouseout": {"state": {"target": ["12", "0", "1", "23", "24", "23", "23", "31", "30", "25", "18", "15", "17", "19"], "time": [1700, 3985, 5235, 5320, 6481, 6768, 11918, 12151, 12468, 19452, 19652, 20218, 20319, 24034]}, "edge": {"target": [], "time": []}}}, "displayed_time": "17.93", "trialTime": 25818, "trial_type": "mouselab-mdp", "trial_index": 4, "time_elapsed": 435936, "internal_node_id": "0.0-2.0-2.0-1.0"}}, {"uniqueid": "w99129593:a11043327", "current_trial": 5, "dateTime": 1693565192213, "trialdata": {"view_history": [{"page_index": 0, "viewing_time": 53520}, {"page_index": 1, "viewing_time": 18244}], "rt": 71764, "trial_id": "mouselab_instructions_2_control", "trial_type": "instructions", "trial_index": 5, "time_elapsed": 507705, "internal_node_id": "0.0-2.0-3.0"}}, {"uniqueid": "w99129593:a11043327", "current_trial": 6, "dateTime": 1693565263805, "trialdata": {"rt": 71577, "response": {"Q0": "The cost for clicking on nodes may vary between nodes.", "Q1": "The better I perform the higher my bonus will be.", "Q2": "No, the amount of cash at each node of the web may be different each time.", "Q3": "To get the highest total score.", "Q4": "Only before moving the spider.", "Q5": "3 seconds"}, "question_order": [0, 1, 2, 3, 4, 5], "correct": {"Q0": "The cost for clicking on nodes may vary between nodes.", "Q1": "The better I perform the higher my bonus will be.", "Q2": "No, the amount of cash at each node of the web may be different each time.", "Q3": "To get the highest total score.", "Q4": "Only before moving the spider.", "Q5": "3 seconds"}, "trial_id": "mouselab_quiz_control", "trial_type": "survey-multi-choice", "trial_index": 6, "time_elapsed": 579296, "internal_node_id": "0.0-2.0-4.0"}}, {"uniqueid": "w99129593:a11043327", "current_trial": 7, "dateTime": 1693565275535, "trialdata": {"rt": 11716, "response": {"Q0": "No"}, "question_order": [0], "trial_id": "repeat_check", "trial_type": "survey-multi-choice", "trial_index": 7, "time_elapsed": 591026, "internal_node_id": "0.0-4.0-0.0"}}, {"uniqueid": "w99129593:a11043327", "current_trial": 8, "dateTime": 1693565301576, "trialdata": {"rt": 26029, "stimulus": "\n<h1> Get ready to start the game! </h1>\n\nThank you for reading the instructions. Get ready start with the 40 rounds of this game.\n<br><br>\nIf you need to take a break, feel free to take one after the end of a round, before continuing to the next one.\n<br><br>\nRemember, the more money the spider gets, the bigger your bonus will be!\n<br><br>\n<div style='text-align: center;'>Press <code>space</code> to begin.</div>\n\n<br><br>\n(If, at any point, the <code>space</code> key does not take you to the next page, click once on the text and try again.)", "response": " ", "trial_id": "mdp_ready", "trial_type": "html-keyboard-response", "trial_index": 8, "time_elapsed": 617068, "internal_node_id": "0.0-6.0-0.0"}}, {"uniqueid": "w99129593:a11043327", "current_trial": 9, "dateTime": 1693565339661, "trialdata": {"revealed_states": [], "clicked_states": ["2", "24", "13", "10", "3", "12"], "num_clicks_accrued": [0, 0, 0, 0, 0, 0, 0, 0, 0, 0, 0, 0, 0], "stateRewards": ["", -2, -4, -8, 8, 63, -50, -19, -7, -17, -31, 31, 1, 3, -5, 12, -35, -63, -29, -4, -17, -75, -79, -2, -3, -2, 8, -3, -85, 10, -2, -82, -82, 56], "withholdReward": false, "trial_id": "mdp_trial_1", "block": "test", "trialIndex": 2, "score": -32.4, "costs": -8.4, "simulationMode": [null, null, null, null, null], "rewards": [1, 3, -5, 12, -35], "path": ["0", "0", "12", "13", "14", "15", "16"], "rt": [16222, 558, 1040, 2314, 833], "actions": ["right", "right", "right", "up", "up"], "actionTimes": [19318, 20386, 21955, 24802, 26143], "queries": {"click": {"state": {"target": ["2", "24", "13", "10", "3", "12"], "time": [4043, 6024, 7693, 11011, 13401, 15804]}, "edge": {"target": [], "time": []}}, "mouseover": {"state": {"target": ["1", "2", "1", "23", "24", "23", "12", "13", "18", "7", "2", "10", "2", "3", "2", "1", "12", "12", "23"], "time": [3574, 3806, 4675, 5161, 5477, 6626, 6844, 7266, 9216, 9358, 9606, 10575, 12074, 12393, 14096, 14163, 14328, 14946, 16826]}, "edge": {"target": [], "time": []}}, "mouseout": {"state": {"target": ["0", "1", "2", "2", "1", "23", "24", "23", "12", "13", "18", "7", "2", "10", "2", "3", "2", "1", "12", "12", "12", "23", "12", "13", "14"], "time": [3473, 3724, 4173, 4468, 4913, 5378, 6594, 6694, 7060, 8943, 9277, 9406, 9674, 11611, 12096, 13933, 14128, 14196, 14698, 16659, 16794, 17103, 29222, 29323, 29438]}, "edge": {"target": [], "time": []}}}, "displayed_time": "26.65", "trialTime": 37533, "trial_type": "mouselab-mdp", "trial_index": 9, "time_elapsed": 655152, "internal_node_id": "0.0-6.0-1.0-0.0"}}, {"uniqueid": "w99129593:a11043327", "current_trial": 10, "dateTime": 1693565370296, "trialdata": {"revealed_states": [], "clicked_states": ["13", "25", "2", "3"], "num_clicks_accrued": [0, 0, 0, 0, 0, 0, 0, 0, 0, 0, 0, 0, 0], "stateRewards": ["", 2, -4, -4, 13, -80, 62, 13, -11, 57, -13, -44, 1, 4, 3, -4, -29, -88, 15, 16, -58, 68, -45, -1, -3, -1, -9, -44, -86, -19, -7, -36, 59, 66], "withholdReward": false, "trial_id": "mdp_trial_2", "block": "test", "trialIndex": 3, "score": -26.6, "costs": -5.6, "simulationMode": [null, null, null, null, null], "rewards": [1, 4, 3, 16, -45], "path": ["0", "0", "12", "13", "14", "19", "22"], "rt": [15156, 720, 634, 651, 1632], "actions": ["right", "right", "right", "down", "left"], "actionTimes": [18403, 19639, 20787, 21953, 24118], "queries": {"click": {"state": {"target": ["13", "25", "2", "3"], "time": [4745, 8129, 11392, 15677]}, "edge": {"target": [], "time": []}}, "mouseover": {"state": {"target": ["12", "13", "12", "0", "23", "23", "24", "25", "24", "23", "2", "1", "3", "2"], "time": [3977, 4160, 5349, 5452, 5965, 6364, 6826, 7842, 8732, 10325, 10942, 12746, 15309, 16349]}, "edge": {"target": [], "time": []}}, "mouseout": {"state": {"target": ["20", "14", "13", "12", "12", "13", "12", "0", "23", "23", "24", "25", "24", "23", "2", "1", "2", "3", "2", "7"], "time": [1392, 1908, 1975, 2142, 4078, 5298, 5382, 5931, 6081, 6693, 7543, 8649, 10260, 10360, 12531, 12864, 15076, 16198, 16418, 25976]}, "edge": {"target": [], "time": []}}}, "displayed_time": "24.63", "trialTime": 29990, "trial_type": "mouselab-mdp", "trial_index": 10, "time_elapsed": 685788, "internal_node_id": "0.0-6.0-1.0-1.0"}}, {"uniqueid": "w99129593:a11043327", "current_trial": 11, "dateTime": 1693565399223, "trialdata": {"revealed_states": [], "clicked_states": ["1", "25", "13"], "num_clicks_accrued": [0, 0, 0, 0, 0, 0, 0, 0, 0, 0, 0, 0, 0], "stateRewards": ["", -2, 3, -1, -9, 44, 48, -37, -3, 71, -39, 87, -1, 3, -4, 4, -21, 59, -15, -8, -1, 28, -38, 2, 4, 4, 8, -85, -72, -63, 14, 58, 63, -46], "withholdReward": false, "trial_id": "mdp_trial_3", "block": "test", "trialIndex": 4, "score": 56.8, "costs": -4.199999999999999, "simulationMode": [null, null, null, null, null], "rewards": [-1, 3, -4, 4, 59], "path": ["0", "0", "12", "13", "14", "15", "17"], "rt": [10602, 588, 798, 1610, 2193], "actions": ["right", "right", "right", "up", "right"], "actionTimes": [15742, 16848, 18168, 20321, 23030], "queries": {"click": {"state": {"target": ["1", "25", "13"], "time": [6854, 9498, 13413]}, "edge": {"target": [], "time": []}}, "mouseover": {"state": {"target": ["1", "23", "24", "25", "24", "30", "0", "12", "13"], "time": [6277, 7833, 8843, 9259, 10100, 12327, 12758, 12794, 12915]}, "edge": {"target": [], "time": []}}, "mouseout": {"state": {"target": ["14", "12", "1", "23", "24", "25", "24", "30", "0", "12", "13", "14"], "time": [2775, 3074, 7497, 8776, 9125, 9983, 11758, 12692, 12776, 12858, 14117, 25558]}, "edge": {"target": [], "time": []}}}, "displayed_time": "23.53", "trialTime": 28334, "trial_type": "mouselab-mdp", "trial_index": 11, "time_elapsed": 714715, "internal_node_id": "0.0-6.0-1.0-2.0"}}, {"uniqueid": "w99129593:a11043327", "current_trial": 12, "dateTime": 1693565435246, "trialdata": {"revealed_states": [], "clicked_states": ["2", "24", "13", "16"], "num_clicks_accrued": [0, 0, 0, 0, 0, 0, 0, 0, 0, 0, 0, 0, 0], "stateRewards": ["", -2, -1, 3, -3, 71, -58, -21, 7, -10, -75, -37, 2, 4, -1, -12, -79, -29, -48, 3, -41, -10, -30, -1, -2, 1, -15, 13, 66, 22, -1, -42, -86, -55], "withholdReward": false, "trial_id": "mdp_trial_4", "block": "test", "trialIndex": 5, "score": -66.6, "costs": -5.6, "simulationMode": [null, null, null, null, null], "rewards": [-2, -1, 3, -3, -58], "path": ["0", "0", "1", "2", "3", "4", "6"], "rt": [19384, 635, 1224, 1361, 623], "actions": ["up", "up", "up", "right", "right"], "actionTimes": [22292, 23431, 25175, 27063, 28258], "queries": {"click": {"state": {"target": ["2", "24", "13", "16"], "time": [5518, 8719, 12582, 15376]}, "edge": {"target": [], "time": []}}, "mouseover": {"state": {"target": ["1", "2", "1", "23", "24", "23", "12", "13", "13", "15", "16", "15", "14", "13", "12", "1", "2", "8", "9"], "time": [3940, 4223, 6154, 7358, 7823, 11124, 11240, 11373, 12224, 14523, 15060, 16102, 17739, 18089, 18356, 18690, 18813, 19089, 19589]}, "edge": {"target": [], "time": []}}, "mouseout": {"state": {"target": ["22", "0", "1", "2", "1", "23", "24", "23", "12", "13", "13", "15", "16", "15", "14", "13", "12", "1", "2", "8", "9"], "time": [1490, 2073, 4123, 6045, 6382, 7591, 11056, 11173, 11306, 11940, 13494, 14757, 15956, 17312, 17940, 18256, 18439, 18774, 18890, 19207, 21373]}, "edge": {"target": [], "time": []}}}, "displayed_time": "28.79", "trialTime": 35290, "trial_type": "mouselab-mdp", "trial_index": 12, "time_elapsed": 750737, "internal_node_id": "0.0-6.0-1.0-3.0"}}, {"uniqueid": "w99129593:a11043327", "current_trial": 13, "dateTime": 1693565458545, "trialdata": {"revealed_states": [], "clicked_states": [], "num_clicks_accrued": [0, 0, 0, 0, 0, 0, 0, 0, 0, 0, 0, 0, 0], "stateRewards": ["", 2, -1, 5, 8, 75, -35, -77, 1, -9, -81, -58, 1, 2, -7, 5, 77, -16, 19, 16, -10, -18, 40, -2, 3, 7, -5, 64, 1, -62, 10, 27, 10, 65], "withholdReward": false, "trial_id": "mdp_trial_5", "block": "test", "trialIndex": 6, "score": -63, "costs": 0, "simulationMode": [null, null, null, null, null], "rewards": [2, -1, 5, 8, -77], "path": ["0", "0", "1", "2", "3", "4", "7"], "rt": [8023, 914, 807, 565, 409], "actions": ["up", "up", "up", "right", "down"], "actionTimes": [11089, 12507, 13822, 14899, 15842], "queries": {"click": {"state": {"target": [], "time": []}, "edge": {"target": [], "time": []}}, "mouseover": {"state": {"target": ["0", "23", "0", "1", "2", "8", "9", "3", "4", "13", "12", "1", "2", "9", "3"], "time": [3855, 3970, 4668, 4856, 5005, 5838, 6005, 6771, 7121, 8221, 8305, 9621, 9704, 9889, 10688]}, "edge": {"target": [], "time": []}}, "mouseout": {"state": {"target": ["16", "0", "23", "0", "1", "2", "8", "9", "3", "4", "13", "12", "1", "2", "9", "3", "4"], "time": [1437, 3888, 4566, 4687, 4938, 5355, 5872, 6705, 6838, 7255, 8288, 8354, 9671, 9771, 10638, 20377, 20438]}, "edge": {"target": [], "time": []}}}, "displayed_time": "17.07", "trialTime": 22571, "trial_type": "mouselab-mdp", "trial_index": 13, "time_elapsed": 774036, "internal_node_id": "0.0-6.0-1.0-4.0"}}, {"uniqueid": "w99129593:a11043327", "current_trial": 14, "dateTime": 1693565478786, "trialdata": {"revealed_states": [], "clicked_states": [], "num_clicks_accrued": [0, 0, 0, 0, 0, 0, 0, 0, 0, 0, 0, 0, 0], "stateRewards": ["", 1, -2, -3, 14, -42, -87, -37, -11, -50, 33, -44, -2, 4, -7, 13, 48, -75, -66, 12, 23, -2, 82, 1, -4, 3, 12, 51, -15, -26, -11, -52, -29, 82], "withholdReward": false, "trial_id": "mdp_trial_6", "block": "test", "trialIndex": 7, "score": -63, "costs": 0, "simulationMode": [null, null, null, null, null], "rewards": [1, -4, 3, -11, -52], "path": ["0", "0", "23", "24", "25", "30", "31"], "rt": [1195, 1315, 1001, 452, 483], "actions": ["left", "left", "left", "down", "right"], "actionTimes": [4790, 6622, 8131, 9113, 10127], "queries": {"click": {"state": {"target": [], "time": []}, "edge": {"target": [], "time": []}}, "mouseover": {"state": {"target": [], "time": []}, "edge": {"target": [], "time": []}}, "mouseout": {"state": {"target": ["16", "0", "18", "15"], "time": [2267, 15167, 15301, 15351]}, "edge": {"target": [], "time": []}}}, "displayed_time": "17.60", "trialTime": 19527, "trial_type": "mouselab-mdp", "trial_index": 14, "time_elapsed": 794277, "internal_node_id": "0.0-6.0-1.0-5.0"}}, {"uniqueid": "w99129593:a11043327", "current_trial": 15, "dateTime": 1693565500559, "trialdata": {"revealed_states": [], "clicked_states": ["15", "19"], "num_clicks_accrued": [0, 0, 0, 0, 0, 0, 0, 0, 0, 0, 0, 0, 0], "stateRewards": ["", -2, 4, -5, -12, 85, -24, -18, -15, -78, -22, 26, -1, -1, 2, 14, -45, 52, -23, 7, -33, 24, -6, -2, -4, 5, -7, -16, 36, -39, 5, 71, -87, -23], "withholdReward": false, "trial_id": "mdp_trial_7", "block": "test", "trialIndex": 8, "score": -11.8, "costs": -2.8, "simulationMode": [null, null, null, null, null], "rewards": [-1, -1, 2, 14, -23], "path": ["0", "0", "12", "13", "14", "15", "18"], "rt": [6996, 687, 541, 1025, 1210], "actions": ["right", "right", "right", "up", "left"], "actionTimes": [9344, 10536, 11605, 13139, 14875], "queries": {"click": {"state": {"target": ["15", "19"], "time": [3885, 6915]}, "edge": {"target": [], "time": []}}, "mouseover": {"state": {"target": ["15", "14", "19"], "time": [3438, 4645, 4864]}, "edge": {"target": [], "time": []}}, "mouseout": {"state": {"target": ["16", "15", "14", "19"], "time": [187, 4584, 4746, 7580]}, "edge": {"target": [], "time": []}}}, "displayed_time": "16.35", "trialTime": 20805, "trial_type": "mouselab-mdp", "trial_index": 15, "time_elapsed": 816050, "internal_node_id": "0.0-6.0-1.0-6.0"}}, {"uniqueid": "w99129593:a11043327", "current_trial": 16, "dateTime": 1693565522773, "trialdata": {"revealed_states": [], "clicked_states": [], "num_clicks_accrued": [0, 0, 0, 0, 0, 0, 0, 0, 0, 0, 0, 0, 0], "stateRewards": ["", 1, 1, 5, 6, -29, -7, 3, -16, 9, -46, 65, -1, 4, -1, -16, -63, -77, -87, 8, 80, -50, 43, -1, -1, -5, 5, -38, -71, -62, 9, 81, -50, -52], "withholdReward": false, "trial_id": "mdp_trial_8", "block": "test", "trialIndex": 9, "score": 56, "costs": 0, "simulationMode": [null, null, null, null, null], "rewards": [1, 1, 5, -16, 65], "path": ["0", "0", "1", "2", "3", "8", "11"], "rt": [7313, 1241, 688, 398, 2507], "actions": ["up", "up", "up", "left", "left"], "actionTimes": [9489, 11242, 12446, 13355, 16378], "queries": {"click": {"state": {"target": [], "time": []}, "edge": {"target": [], "time": []}}, "mouseover": {"state": {"target": ["12", "23", "24", "10", "2", "2"], "time": [3480, 4063, 4330, 5197, 5362, 7263]}, "edge": {"target": [], "time": []}}, "mouseout": {"state": {"target": ["17", "12", "12", "23", "24", "10", "2", "2"], "time": [751, 1062, 3963, 4147, 4497, 5246, 6796, 19596]}, "edge": {"target": [], "time": []}}}, "displayed_time": "16.88", "trialTime": 21329, "trial_type": "mouselab-mdp", "trial_index": 16, "time_elapsed": 838265, "internal_node_id": "0.0-6.0-1.0-7.0"}}, {"uniqueid": "w99129593:a11043327", "current_trial": 17, "dateTime": 1693565548473, "trialdata": {"revealed_states": [], "clicked_states": [], "num_clicks_accrued": [0, 0, 0, 0, 0, 0, 0, 0, 0, 0, 0, 0, 0], "stateRewards": ["", -1, -4, -6, -15, 21, -67, -63, 9, 51, 69, -14, -1, 3, 8, -8, 39, 72, 63, 15, 19, 47, 15, 1, 4, 5, 16, -18, 34, 35, -14, -80, 40, 1], "withholdReward": false, "trial_id": "mdp_trial_9", "block": "test", "trialIndex": 10, "score": 60, "costs": 0, "simulationMode": [null, null, null, null, null], "rewards": [1, 4, 5, 16, 34], "path": ["0", "0", "23", "24", "25", "26", "28"], "rt": [2921, 875, 1693, 585, 340], "actions": ["left", "left", "left", "up", "right"], "actionTimes": [6959, 8418, 10633, 11717, 12576], "queries": {"click": {"state": {"target": [], "time": []}, "edge": {"target": [], "time": []}}, "mouseover": {"state": {"target": ["1"], "time": [5062]}, "edge": {"target": [], "time": []}}, "mouseout": {"state": {"target": ["14", "1", "18", "15", "17"], "time": [2860, 5895, 21044, 21062, 21079]}, "edge": {"target": [], "time": []}}}, "displayed_time": "18.04", "trialTime": 24878, "trial_type": "mouselab-mdp", "trial_index": 17, "time_elapsed": 863964, "internal_node_id": "0.0-6.0-1.0-8.0"}}, {"uniqueid": "w99129593:a11043327", "current_trial": 18, "dateTime": 1693565571148, "trialdata": {"revealed_states": [], "clicked_states": ["24", "13", "27"], "num_clicks_accrued": [0, 0, 0, 0, 0, 0, 0, 0, 0, 0, 0, 0, 0], "stateRewards": ["", 1, -2, -8, -3, 31, -84, -55, -14, 15, -58, 17, -2, -3, 7, 7, -12, 48, 67, 4, -44, -68, 46, 2, 3, -5, -7, 76, 27, 5, 11, 57, 52, 59], "withholdReward": false, "trial_id": "mdp_trial_10", "block": "test", "trialIndex": 11, "score": 64.8, "costs": -4.199999999999999, "simulationMode": [null, null, null, null, null], "rewards": [2, 3, -5, -7, 76], "path": ["0", "0", "23", "24", "25", "26", "27"], "rt": [9085, 376, 601, 517, 175], "actions": ["left", "left", "left", "up", "up"], "actionTimes": [11766, 12651, 13759, 14793, 15508], "queries": {"click": {"state": {"target": ["24", "13", "27"], "time": [4731, 7428, 9707]}, "edge": {"target": [], "time": []}}, "mouseover": {"state": {"target": ["23", "24", "23", "0", "12", "13", "12", "0", "23", "26", "27"], "time": [3599, 3915, 5471, 5638, 5864, 6288, 7855, 7918, 8655, 9036, 9465]}, "edge": {"target": [], "time": []}}, "mouseout": {"state": {"target": ["14", "13", "12", "23", "24", "23", "0", "12", "13", "12", "0", "23", "24", "26", "27", "10", "2", "7"], "time": [1148, 1181, 1281, 3749, 5355, 5555, 5793, 6151, 7846, 7883, 8028, 8754, 8822, 9198, 19232, 19281, 19299, 19332]}, "edge": {"target": [], "time": []}}}, "displayed_time": "16.68", "trialTime": 21691, "trial_type": "mouselab-mdp", "trial_index": 18, "time_elapsed": 886640, "internal_node_id": "0.0-6.0-1.0-9.0"}}, {"uniqueid": "w99129593:a11043327", "current_trial": 19, "dateTime": 1693565599207, "trialdata": {"revealed_states": [], "clicked_states": ["25", "32", "21", "16", "8"], "num_clicks_accrued": [0, 0, 0, 0, 0, 0, 0, 0, 0, 0, 0, 0, 0], "stateRewards": ["", -1, -2, 8, -6, -79, -6, 87, 9, -5, -66, -38, 2, 2, 5, -6, -82, 74, 85, -8, 67, -30, -15, 1, -2, -2, -2, 87, 64, 49, 7, 2, -38, -9], "withholdReward": false, "trial_id": "mdp_trial_11", "block": "test", "trialIndex": 12, "score": -59, "costs": -7, "simulationMode": [null, null, null, null, null], "rewards": [-1, -2, 8, 9, -66], "path": ["0", "0", "1", "2", "3", "8", "10"], "rt": [15373, 341, 512, 269, 269], "actions": ["up", "up", "up", "left", "down"], "actionTimes": [18428, 19293, 20330, 21104, 21903], "queries": {"click": {"state": {"target": ["25", "32", "21", "16", "8"], "time": [5427, 7885, 10616, 12894, 16182]}, "edge": {"target": [], "time": []}}, "mouseover": {"state": {"target": ["0", "23", "24", "25", "30", "32", "31", "22", "21", "21", "19", "14", "16", "4", "3", "2", "3", "8"], "time": [3127, 4411, 5010, 5151, 6468, 7634, 8417, 9187, 9428, 9667, 11051, 11134, 11567, 13631, 13864, 15643, 15876, 15994]}, "edge": {"target": [], "time": []}}, "mouseout": {"state": {"target": ["14", "13", "12", "0", "0", "23", "24", "25", "30", "32", "31", "22", "21", "21", "19", "14", "16", "4", "3", "2", "3", "8", "2"], "time": [1844, 1892, 1992, 2309, 4378, 4977, 5061, 6300, 7345, 8011, 8484, 9249, 9529, 11017, 11102, 11163, 13533, 13665, 15527, 15780, 15910, 25427, 25610]}, "edge": {"target": [], "time": []}}}, "displayed_time": "22.43", "trialTime": 27163, "trial_type": "mouselab-mdp", "trial_index": 19, "time_elapsed": 914699, "internal_node_id": "0.0-6.0-1.0-10.0"}}, {"uniqueid": "w99129593:a11043327", "current_trial": 20, "dateTime": 1693565621196, "trialdata": {"revealed_states": [], "clicked_states": ["28", "18", "6", "9"], "num_clicks_accrued": [0, 0, 0, 0, 0, 0, 0, 0, 0, 0, 0, 0, 0], "stateRewards": ["", 1, 4, 5, -5, 58, -80, 75, 6, 25, -39, 46, 2, -2, 4, 2, 59, 31, -22, -12, -61, 15, 72, 1, -2, -7, 8, 77, 76, -23, -7, 71, -15, -3], "withholdReward": false, "trial_id": "mdp_trial_12", "block": "test", "trialIndex": 13, "score": 70.4, "costs": -5.6, "simulationMode": [null, null, null, null, null], "rewards": [1, -2, -7, 8, 76], "path": ["0", "0", "23", "24", "25", "26", "28"], "rt": [11067, 255, 403, 132, 84], "actions": ["left", "left", "left", "up", "right"], "actionTimes": [14028, 14816, 15746, 16409, 16996], "queries": {"click": {"state": {"target": ["28", "18", "6", "9"], "time": [4391, 7298, 9570, 11689]}, "edge": {"target": [], "time": []}}, "mouseover": {"state": {"target": ["23", "28", "1", "18", "15", "6", "4", "3", "9", "11"], "time": [3785, 4085, 5091, 5159, 7875, 8522, 10129, 10196, 10790, 12606]}, "edge": {"target": [], "time": []}}, "mouseout": {"state": {"target": ["1", "23", "28", "1", "18", "15", "6", "4", "3", "9", "11", "4"], "time": [2084, 3868, 5024, 5121, 7739, 7994, 10065, 10163, 10690, 12322, 18852, 18901]}, "edge": {"target": [], "time": []}}}, "displayed_time": "17.54", "trialTime": 21112, "trial_type": "mouselab-mdp", "trial_index": 20, "time_elapsed": 936687, "internal_node_id": "0.0-6.0-1.0-11.0"}}, {"uniqueid": "w99129593:a11043327", "current_trial": 21, "dateTime": 1693565645526, "trialdata": {"revealed_states": [], "clicked_states": ["29", "18", "21", "32"], "num_clicks_accrued": [0, 0, 0, 0, 0, 0, 0, 0, 0, 0, 0, 0, 0], "stateRewards": ["", 1, -4, -6, 11, -20, 8, -30, 1, -38, 88, 42, 2, 3, 5, -12, -8, -74, 30, -8, 67, -19, 42, 2, -1, 4, 13, 50, -68, 2, -8, -15, 87, -46], "withholdReward": false, "trial_id": "mdp_trial_13", "block": "test", "trialIndex": 14, "score": 78.4, "costs": -5.6, "simulationMode": [null, null, null, null, null], "rewards": [2, -1, 4, -8, 87], "path": ["0", "0", "23", "24", "25", "30", "32"], "rt": [13092, 301, 432, 174, 237], "actions": ["left", "left", "left", "down", "down"], "actionTimes": [15243, 16059, 17004, 17696, 18466], "queries": {"click": {"state": {"target": ["29", "18", "21", "32"], "time": [4865, 6884, 9847, 12090]}, "edge": {"target": [], "time": []}}, "mouseover": {"state": {"target": ["28", "26", "29", "26", "28", "18", "16", "14", "19", "21", "31", "32", "30", "25", "26", "27"], "time": [3182, 3297, 3764, 5737, 5805, 6379, 8186, 8910, 9014, 9715, 10543, 10942, 12686, 12761, 12869, 13452]}, "edge": {"target": [], "time": []}}, "mouseout": {"state": {"target": ["14", "13", "12", "23", "0", "28", "26", "29", "26", "28", "18", "16", "14", "19", "21", "31", "32", "30", "25", "26", "27", "3", "4", "6"], "time": [713, 755, 805, 1179, 1462, 3214, 3530, 5681, 5772, 5885, 7015, 8881, 8941, 9034, 10017, 10687, 12221, 12752, 12835, 13386, 20864, 21047, 21080, 21122]}, "edge": {"target": [], "time": []}}}, "displayed_time": "19.05", "trialTime": 23421, "trial_type": "mouselab-mdp", "trial_index": 21, "time_elapsed": 961017, "internal_node_id": "0.0-6.0-1.0-12.0"}}, {"uniqueid": "w99129593:a11043327", "current_trial": 22, "dateTime": 1693565671997, "trialdata": {"revealed_states": [], "clicked_states": ["5", "10", "33", "22"], "num_clicks_accrued": [0, 0, 0, 0, 0, 0, 0, 0, 0, 0, 0, 0, 0], "stateRewards": ["", -1, -4, -3, 1, -45, -67, -24, 14, 32, 22, 22, -1, 1, -5, -7, 72, 84, -79, -5, 19, -40, -2, -1, -2, 8, -3, 84, -25, -28, 11, 64, -66, 77], "withholdReward": false, "trial_id": "mdp_trial_14", "block": "test", "trialIndex": 15, "score": 87.4, "costs": -5.6, "simulationMode": [null, null, null, null, null], "rewards": [-1, -2, 8, 11, 77], "path": ["0", "0", "23", "24", "25", "30", "33"], "rt": [12161, 212, 531, 111, 153], "actions": ["left", "left", "left", "down", "left"], "actionTimes": [16781, 17519, 18551, 19216, 19957], "queries": {"click": {"state": {"target": ["5", "10", "33", "22"], "time": [5890, 8471, 11403, 14592]}, "edge": {"target": [], "time": []}}, "mouseover": {"state": {"target": ["7", "4", "5", "3", "10", "10", "28", "24", "25", "30", "33", "30", "22"], "time": [5363, 5463, 5679, 6553, 6735, 7002, 9236, 10116, 10929, 11080, 11248, 11919, 12417]}, "edge": {"target": [], "time": []}}, "mouseout": {"state": {"target": ["13", "12", "0", "7", "4", "5", "3", "10", "10", "28", "24", "25", "30", "33", "30", "22", "13", "14"], "time": [3510, 3612, 5248, 5412, 5579, 6404, 6586, 6852, 9070, 9385, 10597, 10963, 11113, 11870, 11952, 15310, 22579, 22596]}, "edge": {"target": [], "time": []}}}, "displayed_time": "20.49", "trialTime": 24943, "trial_type": "mouselab-mdp", "trial_index": 22, "time_elapsed": 987488, "internal_node_id": "0.0-6.0-1.0-13.0"}}, {"uniqueid": "w99129593:a11043327", "current_trial": 23, "dateTime": 1693565711215, "trialdata": {"revealed_states": [], "clicked_states": ["28", "5", "6", "21", "32"], "num_clicks_accrued": [0, 0, 0, 0, 0, 0, 0, 0, 0, 0, 0, 0, 0], "stateRewards": ["", 1, 1, 1, -3, -7, -1, -41, -10, 20, -72, -63, 1, -4, -2, 2, -66, 30, -84, -2, 49, 23, 71, -1, -4, 4, -12, 67, 5, 18, -16, 88, 56, -5], "withholdReward": false, "trial_id": "mdp_trial_15", "block": "test", "trialIndex": 16, "score": 32, "costs": -7, "simulationMode": [null, null, null, null, null], "rewards": [-1, -4, 4, -16, 56], "path": ["0", "0", "23", "24", "25", "30", "32"], "rt": [15902, 137, 180, 160, 118], "actions": ["left", "left", "left", "down", "down"], "actionTimes": [31079, 31739, 32446, 33110, 33734], "queries": {"click": {"state": {"target": ["28", "5", "6", "21", "32"], "time": [18134, 20837, 22970, 25174, 28509]}, "edge": {"target": [], "time": []}}, "mouseover": {"state": {"target": ["12", "12", "0", "23", "24", "25", "28", "1", "2", "3", "5", "6", "21", "20", "31", "32"], "time": [15509, 16025, 16077, 16128, 16609, 16842, 17497, 18716, 19344, 20208, 20675, 21532, 24179, 25932, 28008, 28291]}, "edge": {"target": [], "time": []}}, "mouseout": {"state": {"target": ["13", "12", "0", "12", "12", "0", "23", "24", "25", "28", "1", "2", "3", "5", "6", "21", "20", "31", "32", "13"], "time": [13408, 14074, 15292, 15676, 16059, 16111, 16226, 16726, 17420, 18566, 18807, 19448, 20342, 21342, 23581, 25292, 27915, 28176, 28932, 37892]}, "edge": {"target": [], "time": []}}}, "displayed_time": "34.23", "trialTime": 38376, "trial_type": "mouselab-mdp", "trial_index": 23, "time_elapsed": 1026707, "internal_node_id": "0.0-6.0-1.0-14.0"}}, {"uniqueid": "w99129593:a11043327", "current_trial": 24, "dateTime": 1693565735619, "trialdata": {"revealed_states": [], "clicked_states": ["29", "21", "17", "16", "6"], "num_clicks_accrued": [0, 0, 0, 0, 0, 0, 0, 0, 0, 0, 0, 0, 0], "stateRewards": ["", -1, 2, -6, 6, 43, 78, 78, -2, 55, -29, -17, -2, -4, 1, -15, 13, 7, -79, 8, -28, -68, 36, -1, -3, 3, -16, 84, -18, 87, 10, 32, 13, -81], "withholdReward": false, "trial_id": "mdp_trial_16", "block": "test", "trialIndex": 17, "score": 63, "costs": -7, "simulationMode": [null, null, null, null, null], "rewards": [-1, -3, 3, -16, 87], "path": ["0", "0", "23", "24", "25", "26", "29"], "rt": [12793, 67, 92, 161, 35], "actions": ["left", "left", "left", "up", "left"], "actionTimes": [16031, 16613, 17276, 17935, 18527], "queries": {"click": {"state": {"target": ["29", "21", "17", "16", "6"], "time": [4796, 6736, 8980, 11168, 13429]}, "edge": {"target": [], "time": []}}, "mouseover": {"state": {"target": ["23", "25", "29", "25", "30", "22", "21", "20", "17", "16", "4", "6", "7"], "time": [3702, 3868, 4351, 5257, 5374, 5604, 6268, 7750, 8114, 10086, 12390, 12852, 14457]}, "edge": {"target": [], "time": []}}, "mouseout": {"state": {"target": ["17", "15", "23", "25", "29", "25", "30", "22", "21", "20", "17", "16", "4", "6", "7"], "time": [1701, 1717, 3735, 4271, 5144, 5287, 5409, 6007, 7407, 7956, 9474, 11640, 12708, 14140, 14490]}, "edge": {"target": [], "time": []}}}, "displayed_time": "19.04", "trialTime": 23424, "trial_type": "mouselab-mdp", "trial_index": 24, "time_elapsed": 1051110, "internal_node_id": "0.0-6.0-1.0-15.0"}}, {"uniqueid": "w99129593:a11043327", "current_trial": 25, "dateTime": 1693565772189, "trialdata": {"revealed_states": [], "clicked_states": ["9", "6", "21", "22", "31", "33", "27", "16"], "num_clicks_accrued": [0, 0, 0, 0, 0, 0, 0, 0, 0, 0, 0, 0, 0], "stateRewards": ["", 2, 4, 4, 9, -88, -10, 44, 16, -54, 64, 78, 1, 2, 5, 16, 80, 36, 7, -4, 9, -47, -70, -1, -3, 6, -16, 11, 80, 28, 8, -1, 34, -17], "withholdReward": false, "trial_id": "mdp_trial_17", "block": "test", "trialIndex": 18, "score": 92.8, "costs": -11.200000000000001, "simulationMode": [null, null, null, null, null], "rewards": [1, 2, 5, 16, 80], "path": ["0", "0", "12", "13", "14", "15", "16"], "rt": [23326, 405, 63, 933, 454], "actions": ["right", "right", "right", "up", "up"], "actionTimes": [25622, 26542, 27128, 28597, 29571], "queries": {"click": {"state": {"target": ["9", "6", "21", "22", "31", "33", "27", "16"], "time": [4387, 6580, 9037, 11382, 14669, 17054, 19302, 22840]}, "edge": {"target": [], "time": []}}, "mouseover": {"state": {"target": ["1", "2", "8", "9", "6", "18", "19", "21", "19", "19", "22", "31", "33", "30", "25", "26", "27", "10", "2", "16", "15"], "time": [3241, 3390, 3825, 4142, 5963, 7893, 8457, 8807, 9624, 10030, 10147, 12146, 16648, 17511, 18110, 18203, 18783, 22073, 22096, 22589, 24641]}, "edge": {"target": [], "time": []}}, "mouseout": {"state": {"target": ["1", "2", "8", "9", "6", "6", "18", "19", "21", "19", "19", "22", "31", "33", "30", "25", "26", "27", "10", "2", "16", "16", "15", "17"], "time": [3309, 3741, 3975, 5065, 6709, 7228, 7929, 8658, 9143, 9717, 10079, 11494, 16325, 17480, 17562, 18178, 18315, 19996, 22091, 22114, 22990, 24541, 33939, 33981]}, "edge": {"target": [], "time": []}}}, "displayed_time": "30.12", "trialTime": 35601, "trial_type": "mouselab-mdp", "trial_index": 25, "time_elapsed": 1087681, "internal_node_id": "0.0-6.0-1.0-16.0"}}, {"uniqueid": "w99129593:a11043327", "current_trial": 26, "dateTime": 1693565794368, "trialdata": {"revealed_states": [], "clicked_states": ["32", "21", "9", "29"], "num_clicks_accrued": [0, 0, 0, 0, 0, 0, 0, 0, 0, 0, 0, 0, 0], "stateRewards": ["", -1, -3, 1, 13, -64, -29, 12, -4, -33, 50, 56, 2, -3, 4, 11, -64, -58, -55, 12, 47, 38, -25, -2, 2, 5, -15, 85, 7, 84, 10, 8, 57, 26], "withholdReward": false, "trial_id": "mdp_trial_18", "block": "test", "trialIndex": 19, "score": 68.4, "costs": -5.6, "simulationMode": [null, null, null, null, null], "rewards": [-2, 2, 5, -15, 84], "path": ["0", "0", "23", "24", "25", "26", "29"], "rt": [12670, 688, 861, 202, 144], "actions": ["left", "left", "left", "up", "left"], "actionTimes": [14662, 15863, 17253, 17976, 18634], "queries": {"click": {"state": {"target": ["32", "21", "9", "29"], "time": [4010, 6629, 9038, 11229]}, "edge": {"target": [], "time": []}}, "mouseover": {"state": {"target": ["0", "23", "30", "33", "32", "21", "14", "15", "4", "9", "11", "27", "29", "26", "28"], "time": [2598, 2666, 2767, 2898, 3615, 5816, 7092, 7244, 7705, 8005, 9798, 10353, 10949, 11657, 11837]}, "edge": {"target": [], "time": []}}, "mouseout": {"state": {"target": ["19", "22", "0", "0", "23", "30", "33", "32", "21", "14", "15", "4", "9", "11", "27", "29", "26"], "time": [747, 814, 1248, 2632, 2684, 2848, 3333, 4402, 6952, 7123, 7624, 7755, 9723, 9924, 10503, 11334, 11754]}, "edge": {"target": [], "time": []}}}, "displayed_time": "19.16", "trialTime": 21073, "trial_type": "mouselab-mdp", "trial_index": 26, "time_elapsed": 1109860, "internal_node_id": "0.0-6.0-1.0-17.0"}}, {"uniqueid": "w99129593:a11043327", "current_trial": 27, "dateTime": 1693565836769, "trialdata": {"revealed_states": [], "clicked_states": ["17", "9", "32", "21", "6", "29", "27", "33", "31", "18"], "num_clicks_accrued": [0, 0, 0, 0, 0, 0, 0, 0, 0, 0, 0, 0, 0], "stateRewards": ["", -2, 1, -7, -8, -37, -76, -87, 11, 30, -63, 80, -1, 4, 2, -1, 42, 17, 52, -3, -75, -80, -68, 2, -3, -5, -15, -48, 82, 24, -7, 5, -22, -71], "withholdReward": false, "trial_id": "mdp_trial_19", "block": "test", "trialIndex": 20, "score": 42, "costs": -14.000000000000002, "simulationMode": [null, null, null, null, null], "rewards": [-1, 4, 2, -1, 52], "path": ["0", "0", "12", "13", "14", "15", "18"], "rt": [29868, 599, 287, 1697, 101], "actions": ["right", "right", "right", "up", "left"], "actionTimes": [31870, 33078, 33884, 36155, 36773], "queries": {"click": {"state": {"target": ["17", "9", "32", "21", "6", "29", "27", "33", "31", "18"], "time": [3410, 5755, 8941, 11664, 14730, 17528, 19825, 22500, 25200, 28734]}, "edge": {"target": [], "time": []}}, "mouseover": {"state": {"target": ["18", "15", "17", "15", "18", "8", "9", "8", "27", "29", "33", "32", "21", "19", "19", "14", "18", "6", "7", "26", "29", "27", "26", "33", "30", "31", "14", "14", "15", "18", "18", "16"], "time": [2657, 2705, 3073, 4098, 4195, 5108, 5311, 6329, 7284, 7739, 8388, 8755, 11555, 13357, 14024, 14045, 14075, 14455, 16774, 17027, 17414, 19102, 21884, 22230, 23517, 24991, 27604, 27771, 28037, 28176, 28487, 30381]}, "edge": {"target": [], "time": []}}, "mouseout": {"state": {"target": ["28", "23", "18", "15", "17", "15", "18", "8", "9", "8", "27", "29", "33", "32", "21", "19", "19", "14", "18", "6", "7", "26", "29", "27", "26", "33", "30", "31", "31", "14", "14", "15", "18", "18", "16"], "time": [954, 1003, 2673, 2872, 4061, 4129, 4395, 5231, 6261, 6410, 7440, 8123, 8455, 9088, 11820, 13391, 14040, 14071, 14091, 15971, 16828, 17297, 18113, 21621, 22012, 23350, 24212, 25396, 26911, 27658, 27872, 28139, 28254, 30039, 39270]}, "edge": {"target": [], "time": []}}}, "displayed_time": "37.31", "trialTime": 41380, "trial_type": "mouselab-mdp", "trial_index": 27, "time_elapsed": 1152260, "internal_node_id": "0.0-6.0-1.0-18.0"}}, {"uniqueid": "w99129593:a11043327", "current_trial": 28, "dateTime": 1693565878103, "trialdata": {"revealed_states": [], "clicked_states": ["18", "7", "10", "32", "21", "20", "29", "27", "9"], "num_clicks_accrued": [0, 0, 0, 0, 0, 0, 0, 0, 0, 0, 0, 0, 0], "stateRewards": ["", -1, -3, -6, 14, 41, 18, 63, -14, 80, 21, 17, -2, -4, -2, -5, 13, 70, 8, -4, -64, -10, -20, 2, -1, 4, -1, -17, -55, 42, -7, 47, 54, 15], "withholdReward": false, "trial_id": "mdp_trial_20", "block": "test", "trialIndex": 21, "score": 43.4, "costs": -12.600000000000001, "simulationMode": [null, null, null, null, null], "rewards": [-1, -3, -6, -14, 80], "path": ["0", "0", "1", "2", "3", "8", "9"], "rt": [27606, 126, 194, 187, 1132], "actions": ["up", "up", "up", "left", "up"], "actionTimes": [31372, 32030, 32742, 33433, 35111], "queries": {"click": {"state": {"target": ["18", "7", "10", "32", "21", "20", "29", "27", "9"], "time": [5301, 7582, 10563, 13515, 16741, 19588, 22371, 25297, 29194]}, "edge": {"target": [], "time": []}}, "mouseover": {"state": {"target": ["18", "7", "2", "10", "26", "10", "29", "32", "21", "20", "19", "23", "29", "29", "27", "27", "8", "9"], "time": [4891, 6494, 8212, 8695, 9276, 10256, 12225, 13224, 16539, 17993, 20601, 21208, 21358, 22172, 24639, 25055, 28138, 28905]}, "edge": {"target": [], "time": []}}, "mouseout": {"state": {"target": ["18", "18", "7", "2", "10", "26", "10", "29", "32", "21", "20", "19", "23", "29", "29", "27", "27", "8", "9", "4", "16"], "time": [2181, 6197, 8180, 8263, 9077, 9672, 11180, 12707, 13636, 16856, 20594, 20644, 21228, 21521, 23661, 24756, 25387, 28466, 37104, 37171, 37239]}, "edge": {"target": [], "time": []}}}, "displayed_time": "35.63", "trialTime": 40118, "trial_type": "mouselab-mdp", "trial_index": 28, "time_elapsed": 1193594, "internal_node_id": "0.0-6.0-1.0-19.0"}}, {"uniqueid": "w99129593:a11043327", "current_trial": 29, "dateTime": 1693565911297, "trialdata": {"revealed_states": [], "clicked_states": ["16", "7", "33", "9", "27", "31", "21", "22"], "num_clicks_accrued": [0, 0, 0, 0, 0, 0, 0, 0, 0, 0, 0, 0, 0], "stateRewards": ["", -2, 2, -2, -7, -50, -62, -45, 7, 36, -24, -72, -1, -1, 8, -1, -67, 20, -52, 2, 35, -50, 80, -1, 1, 6, -6, -70, 6, 88, 8, -47, 74, -19], "withholdReward": false, "trial_id": "mdp_trial_21", "block": "test", "trialIndex": 22, "score": 76.8, "costs": -11.200000000000001, "simulationMode": [null, null, null, null, null], "rewards": [-1, -1, 8, 2, 80], "path": ["0", "0", "12", "13", "14", "19", "22"], "rt": [22611, 105, 220, 359, 664], "actions": ["right", "right", "right", "down", "left"], "actionTimes": [26178, 26801, 27545, 28414, 29603], "queries": {"click": {"state": {"target": ["16", "7", "33", "9", "27", "31", "21", "22"], "time": [5435, 7478, 9788, 12389, 15286, 17551, 20350, 23236]}, "edge": {"target": [], "time": []}}, "mouseover": {"state": {"target": ["18", "15", "18", "16", "7", "2", "10", "25", "33", "32", "28", "9", "11", "27", "27", "28", "24", "31", "22", "22", "21", "19", "22", "19", "20"], "time": [4348, 4399, 4881, 5131, 6605, 7978, 8040, 8836, 9038, 10497, 11325, 12114, 13038, 13303, 14964, 15938, 16060, 16287, 18288, 19269, 19964, 21232, 22870, 23821, 24997]}, "edge": {"target": [], "time": []}}, "mouseout": {"state": {"target": ["17", "13", "12", "0", "18", "15", "18", "16", "7", "2", "10", "25", "33", "32", "28", "9", "11", "27", "27", "27", "28", "24", "31", "22", "22", "21", "19", "22", "19"], "time": [1146, 1314, 1414, 4222, 4381, 4799, 5015, 5988, 7936, 8009, 8071, 8887, 10388, 11286, 11352, 12871, 13073, 14614, 15412, 15836, 16005, 16188, 18121, 18785, 19531, 20468, 22655, 23671, 24021]}, "edge": {"target": [], "time": []}}}, "displayed_time": "30.11", "trialTime": 32240, "trial_type": "mouselab-mdp", "trial_index": 29, "time_elapsed": 1226788, "internal_node_id": "0.0-6.0-1.0-20.0"}}, {"uniqueid": "w99129593:a11043327", "current_trial": 30, "dateTime": 1693565949252, "trialdata": {"revealed_states": [], "clicked_states": ["9", "21", "17", "29", "33", "7", "6", "11", "31"], "num_clicks_accrued": [0, 0, 0, 0, 0, 0, 0, 0, 0, 0, 0, 0, 0], "stateRewards": ["", 2, 1, -3, 7, 46, 11, -36, 16, 71, 5, 1, 2, -2, -8, -3, -4, 6, 55, 7, 68, -54, 2, 1, 1, 6, -6, 42, -4, -84, -11, -65, 63, 25], "withholdReward": false, "trial_id": "mdp_trial_22", "block": "test", "trialIndex": 23, "score": 74.4, "costs": -12.600000000000001, "simulationMode": [null, null, null, null, null], "rewards": [2, 1, -3, 16, 71], "path": ["0", "0", "1", "2", "3", "8", "9"], "rt": [26724, 147, 137, 235, 930], "actions": ["up", "up", "up", "left", "up"], "actionTimes": [29367, 30037, 30690, 31454, 32882], "queries": {"click": {"state": {"target": ["9", "21", "17", "29", "33", "7", "6", "11", "31"], "time": [3854, 6415, 9325, 12295, 15076, 18375, 20676, 23182, 26564]}, "edge": {"target": [], "time": []}}, "mouseover": {"state": {"target": ["10", "8", "9", "13", "19", "21", "19", "14", "15", "15", "17", "15", "12", "23", "26", "29", "30", "33", "30", "24", "10", "2", "7", "7", "6", "4", "3", "8", "11", "1", "0", "31"], "time": [3196, 3231, 3581, 4720, 5250, 5467, 7137, 7179, 7268, 7767, 8312, 10009, 10952, 11579, 11712, 12062, 14512, 14762, 17262, 17302, 17395, 17780, 17832, 18212, 19698, 21252, 21817, 22084, 22611, 25544, 26078, 26361]}, "edge": {"target": [], "time": []}}, "mouseout": {"state": {"target": ["20", "19", "12", "0", "10", "8", "9", "13", "19", "21", "19", "14", "15", "15", "17", "15", "12", "23", "26", "29", "29", "30", "33", "30", "24", "10", "2", "7", "7", "6", "4", "3", "8", "11", "1", "0", "31", "22", "19", "20"], "time": [1037, 1111, 1495, 1661, 3214, 3261, 4586, 4753, 5284, 7103, 7169, 7209, 7369, 7817, 9973, 10043, 11547, 11597, 11912, 12444, 12869, 14613, 16085, 17297, 17329, 17412, 17803, 17928, 18510, 21218, 21300, 21899, 22228, 23869, 25828, 26099, 28645, 35028, 35061, 35097]}, "edge": {"target": [], "time": []}}}, "displayed_time": "33.39", "trialTime": 37044, "trial_type": "mouselab-mdp", "trial_index": 30, "time_elapsed": 1264743, "internal_node_id": "0.0-6.0-1.0-21.0"}}, {"uniqueid": "w99129593:a11043327", "current_trial": 31, "dateTime": 1693565978092, "trialdata": {"revealed_states": [], "clicked_states": ["32", "17", "6", "11", "29", "31"], "num_clicks_accrued": [0, 0, 0, 0, 0, 0, 0, 0, 0, 0, 0, 0, 0], "stateRewards": ["", 1, 1, -5, 8, -6, 45, 16, -6, -7, -22, -38, -1, -4, 8, -11, -16, 21, -45, -15, -59, -32, 42, -1, 3, 6, 11, -7, 34, -27, -8, 85, 43, -9], "withholdReward": false, "trial_id": "mdp_trial_23", "block": "test", "trialIndex": 24, "score": 41.6, "costs": -8.4, "simulationMode": [null, null, null, null, null], "rewards": [1, 1, -5, 8, 45], "path": ["0", "0", "1", "2", "3", "4", "6"], "rt": [18868, 541, 224, 58, 12], "actions": ["up", "up", "up", "right", "right"], "actionTimes": [21302, 22382, 23111, 23709, 24279], "queries": {"click": {"state": {"target": ["32", "17", "6", "11", "29", "31"], "time": [4812, 7130, 10108, 13090, 16032, 18859]}, "edge": {"target": [], "time": []}}, "mouseover": {"state": {"target": ["3", "8", "10", "24", "30", "32", "31", "13", "14", "17", "16", "6", "4", "3", "8", "11", "26", "29", "24", "31"], "time": [3226, 3326, 3776, 4192, 4425, 4526, 5338, 5963, 6082, 6213, 7916, 9685, 11266, 12299, 12460, 12776, 15525, 15876, 18375, 18726]}, "edge": {"target": [], "time": []}}, "mouseout": {"state": {"target": ["21", "12", "0", "3", "8", "10", "24", "30", "32", "31", "13", "14", "17", "16", "6", "4", "3", "8", "11", "26", "29", "24", "31", "13"], "time": [1026, 1558, 2960, 3293, 3709, 3825, 4293, 4445, 5332, 5372, 6032, 6165, 7307, 7965, 11199, 11349, 12406, 12609, 15178, 15758, 18176, 18626, 19042, 26458]}, "edge": {"target": [], "time": []}}}, "displayed_time": "24.83", "trialTime": 27866, "trial_type": "mouselab-mdp", "trial_index": 31, "time_elapsed": 1293584, "internal_node_id": "0.0-6.0-1.0-22.0"}}, {"uniqueid": "w99129593:a11043327", "current_trial": 32, "dateTime": 1693566005305, "trialdata": {"revealed_states": [], "clicked_states": ["21", "6", "29", "33"], "num_clicks_accrued": [0, 0, 0, 0, 0, 0, 0, 0, 0, 0, 0, 0, 0], "stateRewards": ["", -2, -3, -5, 8, 27, 11, 43, -6, -24, -87, 69, -2, 1, 1, 9, 19, 48, -37, 9, -14, 45, 62, 1, 2, 1, 16, -81, -41, 22, 4, -6, -63, 47], "withholdReward": false, "trial_id": "mdp_trial_24", "block": "test", "trialIndex": 25, "score": 3.4000000000000004, "costs": -5.6, "simulationMode": [null, null, null, null, null], "rewards": [-2, -3, -5, 8, 11], "path": ["0", "0", "1", "2", "3", "4", "6"], "rt": [14904, 568, 230, 37, 1121], "actions": ["up", "up", "up", "right", "right"], "actionTimes": [17226, 18314, 19107, 19669, 21319], "queries": {"click": {"state": {"target": ["21", "6", "29", "33"], "time": [3860, 6373, 9706, 13140]}, "edge": {"target": [], "time": []}}, "mouseover": {"state": {"target": ["12", "19", "21", "12", "10", "6", "4", "2", "10", "26", "29", "33", "30", "31"], "time": [2959, 3108, 3423, 4459, 5100, 5574, 6947, 7163, 8624, 9190, 9457, 12623, 13729, 15223]}, "edge": {"target": [], "time": []}}, "mouseout": {"state": {"target": ["20", "22", "0", "12", "19", "21", "12", "10", "6", "4", "2", "10", "26", "29", "33", "30", "31", "22"], "time": [790, 823, 1572, 2978, 3223, 4267, 4496, 5145, 6888, 6981, 8575, 8757, 9274, 11891, 13636, 13878, 15241, 23506]}, "edge": {"target": [], "time": []}}}, "displayed_time": "21.85", "trialTime": 26278, "trial_type": "mouselab-mdp", "trial_index": 32, "time_elapsed": 1320797, "internal_node_id": "0.0-6.0-1.0-23.0"}}, {"uniqueid": "w99129593:a11043327", "current_trial": 33, "dateTime": 1693566039713, "trialdata": {"revealed_states": [], "clicked_states": ["29", "17", "6", "32", "20", "22"], "num_clicks_accrued": [0, 0, 0, 0, 0, 0, 0, 0, 0, 0, 0, 0, 0], "stateRewards": ["", -2, 2, 3, -7, -31, -33, 29, -8, -57, 50, -83, -1, -1, 5, 13, -23, -62, 25, 5, -66, -85, 14, 1, -2, -1, 16, 71, 33, -19, -14, 5, -43, 79], "withholdReward": false, "trial_id": "mdp_trial_25", "block": "test", "trialIndex": 26, "score": 13.6, "costs": -8.4, "simulationMode": [null, null, null, null, null], "rewards": [-1, -1, 5, 5, 14], "path": ["0", "0", "12", "13", "14", "19", "22"], "rt": [24454, 495, 170, 8, 81], "actions": ["right", "right", "right", "down", "left"], "actionTimes": [27136, 28173, 28847, 29384, 30021], "queries": {"click": {"state": {"target": ["29", "17", "6", "32", "20", "22"], "time": [4445, 7208, 11122, 14157, 17290, 20231]}, "edge": {"target": [], "time": []}}, "mouseover": {"state": {"target": ["23", "24", "26", "29", "28", "0", "22", "14", "17", "15", "6", "7", "1", "24", "30", "32", "30", "31", "22", "19", "20", "20", "19", "22", "0", "23", "28", "8", "9", "3"], "time": [3302, 3386, 3850, 4285, 4969, 5165, 5873, 6569, 6952, 9053, 10618, 11860, 13352, 13535, 13668, 13885, 14793, 16051, 16634, 16657, 16734, 17101, 17875, 19918, 23870, 23906, 23983, 24217, 24834, 26417]}, "edge": {"target": [], "time": []}}, "mouseout": {"state": {"target": ["12", "0", "23", "24", "26", "29", "28", "0", "22", "14", "17", "15", "6", "7", "1", "24", "30", "32", "30", "31", "22", "19", "20", "20", "19", "22", "0", "23", "28", "8", "9", "3", "12"], "time": [1801, 3269, 3352, 3823, 3919, 4928, 5101, 5197, 6007, 6669, 8978, 9072, 11679, 12043, 13370, 13584, 13768, 14632, 14832, 16074, 16652, 16700, 16901, 17758, 17968, 23384, 23900, 23923, 24019, 24367, 26367, 26450, 32901]}, "edge": {"target": [], "time": []}}}, "displayed_time": "30.54", "trialTime": 33399, "trial_type": "mouselab-mdp", "trial_index": 33, "time_elapsed": 1355204, "internal_node_id": "0.0-6.0-1.0-24.0"}}, {"uniqueid": "w99129593:a11043327", "current_trial": 34, "dateTime": 1693566068770, "trialdata": {"revealed_states": [], "clicked_states": ["29", "25", "21", "16", "6", "11", "32"], "num_clicks_accrued": [0, 0, 0, 0, 0, 0, 0, 0, 0, 0, 0, 0, 0], "stateRewards": ["", -1, -4, 8, 8, -68, 47, 24, -7, -61, 49, -69, -1, -1, 8, -7, 42, 1, -45, -11, 10, -63, -6, 1, 4, 6, -16, 79, -37, -58, -12, 81, 18, -53], "withholdReward": false, "trial_id": "mdp_trial_26", "block": "test", "trialIndex": 27, "score": 48.2, "costs": -9.8, "simulationMode": [null, null, null, null, null], "rewards": [-1, -4, 8, 8, 47], "path": ["0", "0", "1", "2", "3", "4", "6"], "rt": [18972, 183, 410, 139, 10], "actions": ["up", "up", "up", "right", "right"], "actionTimes": [21262, 21965, 22906, 23551, 24088], "queries": {"click": {"state": {"target": ["29", "25", "21", "16", "6", "11", "32"], "time": [4884, 7201, 9313, 11677, 13685, 16372, 19028]}, "edge": {"target": [], "time": []}}, "mouseover": {"state": {"target": ["23", "24", "25", "26", "29", "26", "27", "26", "25", "23", "0", "12", "19", "20", "21", "20", "14", "15", "16", "6", "4", "8", "11", "11", "28", "30", "32"], "time": [2859, 2937, 3120, 4270, 4621, 5263, 6118, 6326, 6622, 7530, 7595, 7824, 8116, 8310, 8709, 9793, 10344, 10492, 11337, 12941, 14298, 14374, 14859, 15191, 18470, 18787, 18854]}, "edge": {"target": [], "time": []}}, "mouseout": {"state": {"target": ["0", "12", "0", "23", "24", "25", "26", "29", "26", "27", "26", "25", "23", "0", "12", "19", "20", "21", "20", "14", "15", "16", "6", "4", "8", "11", "11", "11", "28", "30", "32", "22", "19", "20"], "time": [888, 1453, 2854, 2905, 3054, 4237, 4371, 4984, 5319, 6243, 6444, 7303, 7562, 7627, 8047, 8227, 8559, 9429, 9859, 10408, 10840, 12077, 14291, 14338, 14808, 14975, 16471, 17310, 18488, 18806, 19489, 25870, 25920, 26103]}, "edge": {"target": [], "time": []}}}, "displayed_time": "24.64", "trialTime": 28044, "trial_type": "mouselab-mdp", "trial_index": 34, "time_elapsed": 1384262, "internal_node_id": "0.0-6.0-1.0-25.0"}}, {"uniqueid": "w99129593:a11043327", "current_trial": 35, "dateTime": 1693566101608, "trialdata": {"revealed_states": [], "clicked_states": ["33", "9", "17", "29", "21", "32", "7"], "num_clicks_accrued": [0, 0, 0, 0, 0, 0, 0, 0, 0, 0, 0, 0, 0], "stateRewards": ["", 2, 4, -6, -13, -75, -81, 30, 7, 5, 59, -65, -1, -1, 7, 14, -38, 36, -41, 1, -54, -5, 64, 2, -1, 5, 6, -19, 79, 11, 16, -33, -50, 58], "withholdReward": false, "trial_id": "mdp_trial_27", "block": "test", "trialIndex": 28, "score": 70.2, "costs": -9.8, "simulationMode": [null, null, null, null, null], "rewards": [2, -1, 5, 16, 58], "path": ["0", "0", "23", "24", "25", "30", "33"], "rt": [21829, 340, 444, 55, 1038], "actions": ["left", "left", "left", "down", "left"], "actionTimes": [23671, 24525, 25481, 26083, 27684], "queries": {"click": {"state": {"target": ["33", "9", "17", "29", "21", "32", "7"], "time": [3262, 5781, 8513, 11096, 14064, 17559, 21276]}, "edge": {"target": [], "time": []}}, "mouseover": {"state": {"target": ["23", "33", "30", "31", "12", "2", "8", "9", "4", "16", "17", "28", "26", "29", "24", "23", "22", "21", "19", "22", "31", "24", "24", "31", "32", "18", "6", "7"], "time": [2572, 2989, 3779, 3894, 4474, 4577, 4814, 5040, 6843, 8022, 8171, 10524, 10607, 10875, 11636, 11758, 12824, 13709, 16323, 16438, 16705, 16806, 17022, 17045, 17372, 20405, 20788, 21022]}, "edge": {"target": [], "time": []}}, "mouseout": {"state": {"target": ["0", "23", "33", "30", "31", "12", "2", "8", "9", "4", "16", "17", "28", "26", "29", "24", "23", "22", "21", "19", "22", "31", "24", "24", "31", "32", "18", "6", "7", "16", "15"], "time": [1221, 2590, 3746, 3862, 3944, 4511, 4627, 4861, 6195, 7127, 8040, 9825, 10579, 10758, 11519, 11746, 11790, 12858, 14183, 16405, 16489, 16772, 16824, 17040, 17072, 18029, 20423, 20938, 29838, 29905, 31489]}, "edge": {"target": [], "time": []}}}, "displayed_time": "28.20", "trialTime": 31851, "trial_type": "mouselab-mdp", "trial_index": 35, "time_elapsed": 1417099, "internal_node_id": "0.0-6.0-1.0-26.0"}}, {"uniqueid": "w99129593:a11043327", "current_trial": 36, "dateTime": 1693566123852, "trialdata": {"revealed_states": [], "clicked_states": ["29", "21"], "num_clicks_accrued": [0, 0, 0, 0, 0, 0, 0, 0, 0, 0, 0, 0, 0], "stateRewards": ["", -2, 2, 8, -6, -25, 3, 87, 2, -62, -2, 74, -2, -1, 2, -1, 79, 49, -37, -14, 5, 67, -9, -1, 2, -2, 5, 15, 38, 32, -14, -38, -38, 30], "withholdReward": false, "trial_id": "mdp_trial_28", "block": "test", "trialIndex": 29, "score": 49.2, "costs": -2.8, "simulationMode": [null, null, null, null, null], "rewards": [-2, -1, 2, -14, 67], "path": ["0", "0", "12", "13", "14", "19", "21"], "rt": [7447, 296, 529, 822, 46], "actions": ["right", "right", "right", "down", "down"], "actionTimes": [10368, 11209, 12245, 13592, 14215], "queries": {"click": {"state": {"target": ["29", "21"], "time": [4485, 7243]}, "edge": {"target": [], "time": []}}, "mouseover": {"state": {"target": ["1", "29", "0", "22", "21", "19", "14", "18", "7"], "time": [2958, 4240, 5846, 6080, 6856, 8063, 8155, 8746, 8958]}, "edge": {"target": [], "time": []}}, "mouseout": {"state": {"target": ["1", "1", "29", "0", "22", "21", "19", "14", "18", "7", "16"], "time": [1778, 3124, 4719, 5912, 6241, 8030, 8148, 8191, 8794, 9724, 18490]}, "edge": {"target": [], "time": []}}}, "displayed_time": "16.92", "trialTime": 21264, "trial_type": "mouselab-mdp", "trial_index": 36, "time_elapsed": 1439343, "internal_node_id": "0.0-6.0-1.0-27.0"}}, {"uniqueid": "w99129593:a11043327", "current_trial": 37, "dateTime": 1693566156588, "trialdata": {"revealed_states": [], "clicked_states": ["29", "10", "17", "21", "32", "33", "9"], "num_clicks_accrued": [0, 0, 0, 0, 0, 0, 0, 0, 0, 0, 0, 0, 0], "stateRewards": ["", 1, -1, 1, -14, -10, 67, -28, -11, 72, 40, -65, -1, 1, 1, -2, 8, -55, 34, -10, 61, 33, -15, 2, -4, 7, 4, -75, 63, -21, -16, 61, 19, 21], "withholdReward": false, "trial_id": "mdp_trial_29", "block": "test", "trialIndex": 30, "score": 52.2, "costs": -9.8, "simulationMode": [null, null, null, null, null], "rewards": [1, -1, 1, -11, 72], "path": ["0", "0", "1", "2", "3", "8", "9"], "rt": [18469, 264, 191, 167, 86], "actions": ["up", "up", "up", "left", "up"], "actionTimes": [21338, 22117, 22825, 23499, 24106], "queries": {"click": {"state": {"target": ["29", "10", "17", "21", "32", "33", "9"], "time": [5495, 7638, 9380, 11621, 14239, 16894, 19259]}, "edge": {"target": [], "time": []}}, "mouseover": {"state": {"target": ["23", "24", "25", "25", "29", "8", "8", "10", "2", "7", "18", "14", "17", "15", "15", "14", "21", "19", "22", "32", "33", "33", "30", "24", "2", "3", "9", "4"], "time": [3843, 3913, 3992, 4376, 5093, 6039, 6897, 7094, 8043, 8112, 8276, 8403, 8782, 10164, 10813, 10908, 11425, 12481, 12839, 14075, 15261, 16559, 17307, 17354, 17465, 17964, 18288, 19954]}, "edge": {"target": [], "time": []}}, "mouseout": {"state": {"target": ["6", "7", "23", "24", "25", "25", "29", "8", "8", "10", "2", "7", "18", "14", "17", "15", "15", "14", "21", "19", "22", "32", "33", "33", "30", "24", "2", "3", "9", "4", "6", "21"], "time": [1675, 1741, 3893, 3960, 4059, 5043, 5595, 6647, 6931, 8036, 8081, 8170, 8328, 8676, 10131, 10296, 10863, 10996, 11779, 12697, 12933, 14396, 16258, 17299, 17346, 17387, 17595, 18014, 19633, 27836, 27858, 29908]}, "edge": {"target": [], "time": []}}}, "displayed_time": "24.65", "trialTime": 31754, "trial_type": "mouselab-mdp", "trial_index": 37, "time_elapsed": 1472080, "internal_node_id": "0.0-6.0-1.0-28.0"}}, {"uniqueid": "w99129593:a11043327", "current_trial": 38, "dateTime": 1693566179511, "trialdata": {"revealed_states": [], "clicked_states": [], "num_clicks_accrued": [0, 0, 0, 0, 0, 0, 0, 0, 0, 0, 0, 0, 0], "stateRewards": ["", 1, 1, -2, 7, -31, -6, 76, 1, -36, -16, -53, 2, 1, 7, 13, -47, -10, 47, -7, 72, 46, -56, -2, -2, -2, 11, -80, 44, 38, 16, 67, 85, -78], "withholdReward": false, "trial_id": "mdp_trial_30", "block": "test", "trialIndex": 31, "score": 70, "costs": 0, "simulationMode": [null, null, null, null, null], "rewards": [2, 1, 7, 13, 47], "path": ["0", "0", "12", "13", "14", "15", "18"], "rt": [7599, 385, 427, 24, 1085], "actions": ["right", "right", "right", "up", "left"], "actionTimes": [10233, 11192, 12125, 12655, 14282], "queries": {"click": {"state": {"target": [], "time": []}, "edge": {"target": [], "time": []}}, "mouseover": {"state": {"target": ["23", "24", "25", "24", "25", "30", "32", "22", "21"], "time": [3755, 3888, 4472, 5005, 5505, 5756, 6138, 8255, 8655]}, "edge": {"target": [], "time": []}}, "mouseout": {"state": {"target": ["12", "13", "12", "0", "23", "24", "25", "24", "25", "30", "32", "22", "21"], "time": [1304, 1505, 1620, 1737, 3790, 4140, 4889, 5423, 5738, 5871, 6806, 8274, 18535]}, "edge": {"target": [], "time": []}}}, "displayed_time": "16.63", "trialTime": 21824, "trial_type": "mouselab-mdp", "trial_index": 38, "time_elapsed": 1495002, "internal_node_id": "0.0-6.0-1.0-29.0"}}, {"uniqueid": "w99129593:a11043327", "current_trial": 39, "dateTime": 1693566202507, "trialdata": {"revealed_states": [], "clicked_states": ["32", "27", "20", "21"], "num_clicks_accrued": [0, 0, 0, 0, 0, 0, 0, 0, 0, 0, 0, 0, 0], "stateRewards": ["", 1, 2, -3, -6, 50, -7, 7, -7, -80, 21, -1, 2, 2, 4, -1, 33, 84, 1, 14, -53, 81, 6, -2, -2, -3, -9, -87, -38, -59, -5, -74, -3, -71], "withholdReward": false, "trial_id": "mdp_trial_31", "block": "test", "trialIndex": 32, "score": 97.4, "costs": -5.6, "simulationMode": [null, null, null, null, null], "rewards": [2, 2, 4, 14, 81], "path": ["0", "0", "12", "13", "14", "19", "21"], "rt": [11438, 6, 94, 38, 505], "actions": ["right", "right", "right", "down", "down"], "actionTimes": [13438, 13950, 14586, 15260, 16316], "queries": {"click": {"state": {"target": ["32", "27", "20", "21"], "time": [3299, 5661, 8432, 10698]}, "edge": {"target": [], "time": []}}, "mouseover": {"state": {"target": ["23", "30", "32", "31", "25", "26", "27", "3", "6", "15", "14", "20", "21", "19", "14", "15", "16"], "time": [2034, 2799, 3116, 3772, 4287, 4388, 4951, 6256, 6938, 7139, 7223, 8217, 9329, 11455, 11531, 11570, 11844]}, "edge": {"target": [], "time": []}}, "mouseout": {"state": {"target": ["0", "23", "30", "32", "31", "25", "26", "27", "3", "6", "15", "14", "20", "20", "21", "19", "14", "15"], "time": [2028, 2695, 2933, 3430, 4106, 4358, 4471, 6107, 6353, 7022, 7171, 7699, 8547, 8924, 10800, 11521, 11563, 11659]}, "edge": {"target": [], "time": []}}}, "displayed_time": "16.87", "trialTime": 21833, "trial_type": "mouselab-mdp", "trial_index": 39, "time_elapsed": 1517998, "internal_node_id": "0.0-6.0-1.0-30.0"}}, {"uniqueid": "w99129593:a11043327", "current_trial": 40, "dateTime": 1693566227200, "trialdata": {"revealed_states": [], "clicked_states": ["27", "7", "10", "32", "21"], "num_clicks_accrued": [0, 0, 0, 0, 0, 0, 0, 0, 0, 0, 0, 0, 0], "stateRewards": ["", 1, 4, -4, 14, 35, 51, 19, -13, 54, 78, -74, -2, -1, -3, 13, -11, -42, -73, -15, -24, -3, -69, 2, -1, 5, 16, -27, 73, 58, 9, -60, 5, -60], "withholdReward": false, "trial_id": "mdp_trial_32", "block": "test", "trialIndex": 33, "score": 59, "costs": -7, "simulationMode": [null, null, null, null, null], "rewards": [1, 4, -4, -13, 78], "path": ["0", "0", "1", "2", "3", "8", "10"], "rt": [14849, 165, 56, 212, 1021], "actions": ["up", "up", "up", "left", "down"], "actionTimes": [17493, 18166, 18723, 19464, 21012], "queries": {"click": {"state": {"target": ["27", "7", "10", "32", "21"], "time": [4950, 6683, 9066, 11829, 15310]}, "edge": {"target": [], "time": []}}, "mouseover": {"state": {"target": ["10", "8", "8", "26", "27", "28", "14", "17", "15", "7", "2", "10", "1", "1", "24", "30", "32", "22", "21", "21", "13"], "time": [3561, 3612, 3944, 4279, 4428, 5352, 5766, 5932, 6115, 6300, 7249, 7615, 9769, 10273, 11011, 11444, 11645, 14628, 14677, 15078, 16201]}, "edge": {"target": [], "time": []}}, "mouseout": {"state": {"target": ["16", "10", "8", "8", "26", "27", "28", "14", "17", "15", "7", "2", "10", "1", "1", "24", "30", "32", "22", "21", "21", "13"], "time": [759, 3582, 3695, 3964, 4361, 5318, 5418, 5819, 6082, 6199, 7133, 7417, 9601, 9867, 10303, 11094, 11528, 12294, 14648, 14778, 15416, 16317]}, "edge": {"target": [], "time": []}}}, "displayed_time": "21.52", "trialTime": 23521, "trial_type": "mouselab-mdp", "trial_index": 40, "time_elapsed": 1542691, "internal_node_id": "0.0-6.0-1.0-31.0"}}, {"uniqueid": "w99129593:a11043327", "current_trial": 41, "dateTime": 1693566247116, "trialdata": {"revealed_states": [], "clicked_states": ["32"], "num_clicks_accrued": [0, 0, 0, 0, 0, 0, 0, 0, 0, 0, 0, 0, 0], "stateRewards": ["", 1, -4, -6, -1, -21, 17, -72, 10, 77, 67, -46, -1, 4, -2, 14, -66, -49, -45, -15, -52, 23, -67, 2, -2, -2, 15, -3, 45, -64, 5, -44, 83, 61], "withholdReward": false, "trial_id": "mdp_trial_33", "block": "test", "trialIndex": 34, "score": 84.6, "costs": -1.4, "simulationMode": [null, null, null, null, null], "rewards": [2, -2, -2, 5, 83], "path": ["0", "0", "23", "24", "25", "30", "32"], "rt": [4689, 8, 121, 83, 26], "actions": ["left", "left", "left", "down", "down"], "actionTimes": [6904, 7421, 8100, 8696, 9268], "queries": {"click": {"state": {"target": ["32"], "time": [3956]}, "edge": {"target": [], "time": []}}, "mouseover": {"state": {"target": ["25", "30", "32", "30", "28", "8", "9"], "time": [3201, 3351, 3584, 4358, 4508, 4647, 5344]}, "edge": {"target": [], "time": []}}, "mouseout": {"state": {"target": ["12", "25", "30", "32", "30", "28", "8", "9"], "time": [1150, 3301, 3372, 4120, 4393, 4540, 4707, 14134]}, "edge": {"target": [], "time": []}}}, "displayed_time": "16.22", "trialTime": 18779, "trial_type": "mouselab-mdp", "trial_index": 41, "time_elapsed": 1562607, "internal_node_id": "0.0-6.0-1.0-32.0"}}, {"uniqueid": "w99129593:a11043327", "current_trial": 42, "dateTime": 1693566273863, "trialdata": {"revealed_states": [], "clicked_states": ["32", "9", "6", "7"], "num_clicks_accrued": [0, 0, 0, 0, 0, 0, 0, 0, 0, 0, 0, 0, 0], "stateRewards": ["", -2, -4, 2, 10, -17, 18, 73, 11, -32, 23, -13, -2, -4, 7, 12, -25, 66, -23, 15, 40, -76, -9, 1, 2, -7, -5, -20, 24, 3, -5, 16, -73, 70], "withholdReward": false, "trial_id": "mdp_trial_34", "block": "test", "trialIndex": 35, "score": 73.4, "costs": -5.6, "simulationMode": [null, null, null, null, null], "rewards": [-2, -4, 2, 10, 73], "path": ["0", "0", "1", "2", "3", "4", "7"], "rt": [11523, 507, 148, 166, 112], "actions": ["up", "up", "up", "right", "down"], "actionTimes": [15373, 16391, 17052, 17725, 18339], "queries": {"click": {"state": {"target": ["32", "9", "6", "7"], "time": [5496, 7781, 9966, 12279]}, "edge": {"target": [], "time": []}}, "mouseover": {"state": {"target": ["31", "30", "32", "10", "8", "9", "5", "5", "6", "6", "7", "13", "19", "19", "20"], "time": [4553, 4596, 4986, 6058, 6575, 6643, 8293, 8640, 9090, 9619, 10501, 12906, 13203, 13380, 13575]}, "edge": {"target": [], "time": []}}, "mouseout": {"state": {"target": ["17", "15", "18", "0", "31", "30", "32", "10", "8", "9", "5", "5", "6", "6", "7", "13", "19", "19", "20"], "time": [2102, 2302, 2702, 4504, 4576, 4686, 5839, 6123, 6608, 8172, 8441, 8958, 9208, 10465, 12798, 12951, 13260, 13473, 23554]}, "edge": {"target": [], "time": []}}}, "displayed_time": "18.88", "trialTime": 25529, "trial_type": "mouselab-mdp", "trial_index": 42, "time_elapsed": 1589354, "internal_node_id": "0.0-6.0-1.0-33.0"}}, {"uniqueid": "w99129593:a11043327", "current_trial": 43, "dateTime": 1693566305530, "trialdata": {"revealed_states": [], "clicked_states": ["9", "21", "20", "33", "27", "29", "16", "17"], "num_clicks_accrued": [0, 0, 0, 0, 0, 0, 0, 0, 0, 0, 0, 0, 0], "stateRewards": ["", 2, -2, 7, -11, -76, -65, -23, 16, -58, 30, 81, 1, 2, 7, 14, 9, 55, -2, 6, 11, -15, 31, -1, -1, -3, 2, 15, 2, 46, 15, 18, 45, -34], "withholdReward": false, "trial_id": "mdp_trial_35", "block": "test", "trialIndex": 36, "score": 67.8, "costs": -11.200000000000001, "simulationMode": [null, null, null, null, null], "rewards": [1, 2, 7, 14, 55], "path": ["0", "0", "12", "13", "14", "15", "17"], "rt": [21000, 320, 151, 236, 8], "actions": ["right", "right", "right", "up", "right"], "actionTimes": [23507, 24331, 25039, 25773, 26280], "queries": {"click": {"state": {"target": ["9", "21", "20", "33", "27", "29", "16", "17"], "time": [4035, 6329, 8491, 10637, 13222, 15478, 18124, 20670]}, "edge": {"target": [], "time": []}}, "mouseover": {"state": {"target": ["8", "9", "2", "13", "21", "20", "19", "23", "33", "27", "29", "26", "28", "18", "15", "16", "18", "15", "17", "15"], "time": [3499, 3748, 4685, 4830, 5604, 7337, 8983, 9094, 9852, 13065, 14603, 15943, 15985, 16161, 16641, 17089, 19286, 20030, 20478, 22132]}, "edge": {"target": [], "time": []}}, "mouseout": {"state": {"target": ["14", "13", "12", "0", "8", "9", "2", "13", "21", "20", "19", "23", "33", "27", "29", "26", "28", "18", "15", "16", "18", "15", "17", "15"], "time": [880, 1313, 1414, 1734, 3582, 4471, 4823, 5205, 6482, 8972, 9018, 9489, 10754, 13877, 15584, 15978, 16022, 16554, 16886, 18584, 19897, 20319, 21979, 29948]}, "edge": {"target": [], "time": []}}}, "displayed_time": "26.82", "trialTime": 30576, "trial_type": "mouselab-mdp", "trial_index": 43, "time_elapsed": 1621022, "internal_node_id": "0.0-6.0-1.0-34.0"}}, {"uniqueid": "w99129593:a11043327", "current_trial": 44, "dateTime": 1693566329690, "trialdata": {"revealed_states": [], "clicked_states": ["32", "29", "9", "7", "22"], "num_clicks_accrued": [0, 0, 0, 0, 0, 0, 0, 0, 0, 0, 0, 0, 0], "stateRewards": ["", -1, -3, -5, -14, -13, -47, 79, 8, -60, -64, 41, -1, 2, 3, 13, -46, 61, -79, -11, -64, -65, 23, 1, -2, 6, -14, 46, 32, 21, 7, 75, -66, 15], "withholdReward": false, "trial_id": "mdp_trial_36", "block": "test", "trialIndex": 37, "score": 49, "costs": -7, "simulationMode": [null, null, null, null, null], "rewards": [-1, -3, -5, -14, 79], "path": ["0", "0", "1", "2", "3", "4", "7"], "rt": [13317, 221, 121, 44, 49], "actions": ["up", "up", "up", "right", "down"], "actionTimes": [16162, 16893, 17526, 18100, 18687], "queries": {"click": {"state": {"target": ["32", "29", "9", "7", "22"], "time": [4359, 6477, 8697, 10884, 13973]}, "edge": {"target": [], "time": []}}, "mouseover": {"state": {"target": ["23", "30", "32", "33", "29", "26", "10", "8", "9", "6", "7", "12", "13", "19", "22"], "time": [3452, 3797, 4131, 5242, 5757, 7094, 7202, 7535, 8149, 9286, 9687, 12086, 12424, 12864, 13631]}, "edge": {"target": [], "time": []}}, "mouseout": {"state": {"target": ["14", "13", "12", "0", "23", "30", "32", "33", "29", "26", "10", "8", "9", "6", "7", "12", "13", "19", "22"], "time": [1247, 1696, 1781, 3447, 3481, 3897, 4471, 5276, 7087, 7128, 7238, 7653, 9065, 9402, 11493, 12168, 12519, 12980, 14538]}, "edge": {"target": [], "time": []}}}, "displayed_time": "19.25", "trialTime": 22970, "trial_type": "mouselab-mdp", "trial_index": 44, "time_elapsed": 1645181, "internal_node_id": "0.0-6.0-1.0-35.0"}}, {"uniqueid": "w99129593:a11043327", "current_trial": 45, "dateTime": 1693566358976, "trialdata": {"revealed_states": [], "clicked_states": ["21", "17", "7", "33", "27", "10", "32"], "num_clicks_accrued": [0, 0, 0, 0, 0, 0, 0, 0, 0, 0, 0, 0, 0], "stateRewards": ["", -2, 2, -5, 1, 42, -63, -58, -6, 2, 16, 81, -2, 4, 7, -10, 33, 3, -33, -2, -52, -84, -27, 2, -3, -3, 15, -74, -14, -5, -5, -84, 79, -31], "withholdReward": false, "trial_id": "mdp_trial_37", "block": "test", "trialIndex": 38, "score": 60.2, "costs": -9.8, "simulationMode": [null, null, null, null, null], "rewards": [2, -3, -3, -5, 79], "path": ["0", "0", "23", "24", "25", "30", "32"], "rt": [19257, 39, 432, 66, 8], "actions": ["left", "left", "left", "down", "down"], "actionTimes": [21198, 21747, 22739, 23311, 23882], "queries": {"click": {"state": {"target": ["21", "17", "7", "33", "27", "10", "32"], "time": [3216, 5451, 7827, 10746, 13686, 16317, 19089]}, "edge": {"target": [], "time": []}}, "mouseover": {"state": {"target": ["12", "19", "21", "17", "15", "7", "1", "28", "25", "33", "25", "26", "29", "27", "26", "25", "28", "10", "24", "31", "32", "30"], "time": [2600, 2766, 2933, 4060, 6006, 7601, 9733, 9900, 10066, 10499, 11607, 12121, 13149, 13499, 14401, 14622, 15450, 15598, 18433, 18582, 18815, 19911]}, "edge": {"target": [], "time": []}}, "mouseout": {"state": {"target": ["20", "19", "22", "0", "12", "19", "21", "17", "15", "7", "7", "1", "28", "25", "33", "25", "26", "29", "27", "26", "25", "28", "10", "24", "31", "32", "30", "23", "0"], "time": [565, 598, 648, 1148, 2620, 2799, 3626, 5972, 6106, 7935, 8573, 9833, 9925, 10100, 11380, 11938, 12949, 13332, 14306, 14521, 15401, 15500, 16888, 18515, 18632, 19837, 19972, 25799, 25827]}, "edge": {"target": [], "time": []}}}, "displayed_time": "24.42", "trialTime": 28160, "trial_type": "mouselab-mdp", "trial_index": 45, "time_elapsed": 1674467, "internal_node_id": "0.0-6.0-1.0-36.0"}}, {"uniqueid": "w99129593:a11043327", "current_trial": 46, "dateTime": 1693566382924, "trialdata": {"revealed_states": [], "clicked_states": ["32", "27"], "num_clicks_accrued": [0, 0, 0, 0, 0, 0, 0, 0, 0, 0, 0, 0, 0], "stateRewards": ["", 2, 3, 8, 11, 25, -80, 6, -4, -56, 84, -23, -2, -4, -3, 4, -51, -9, -61, -15, -64, 67, -35, 1, -1, -7, -6, 83, 59, -15, 12, -79, 56, 41], "withholdReward": false, "trial_id": "mdp_trial_38", "block": "test", "trialIndex": 39, "score": 67.2, "costs": -2.8, "simulationMode": [null, null, null, null, null], "rewards": [1, -1, -7, -6, 83], "path": ["0", "0", "23", "24", "25", "26", "27"], "rt": [7436, 519, 419, 88, 66], "actions": ["left", "left", "left", "up", "up"], "actionTimes": [11087, 12131, 13080, 13712, 14323], "queries": {"click": {"state": {"target": ["32", "27"], "time": [4923, 7901]}, "edge": {"target": [], "time": []}}, "mouseover": {"state": {"target": ["0", "30", "32", "30", "30", "33", "29", "27", "10", "7", "4", "4"], "time": [4191, 4300, 4669, 5383, 6156, 6322, 7367, 7633, 8304, 8873, 8919, 10017]}, "edge": {"target": [], "time": []}}, "mouseout": {"state": {"target": ["0", "0", "30", "32", "30", "30", "33", "29", "27", "10", "7", "4", "4"], "time": [2900, 4268, 4416, 5317, 5447, 6204, 7300, 7416, 8003, 8408, 8911, 9682, 10066]}, "edge": {"target": [], "time": []}}}, "displayed_time": "17.65", "trialTime": 22643, "trial_type": "mouselab-mdp", "trial_index": 46, "time_elapsed": 1698415, "internal_node_id": "0.0-6.0-1.0-37.0"}}, {"uniqueid": "w99129593:a11043327", "current_trial": 47, "dateTime": 1693566403461, "trialdata": {"revealed_states": [], "clicked_states": ["27"], "num_clicks_accrued": [0, 0, 0, 0, 0, 0, 0, 0, 0, 0, 0, 0, 0], "stateRewards": ["", 1, -2, 4, 7, -43, -83, -60, -5, -86, -80, 83, -1, -2, 6, 11, -15, 21, 13, 9, 29, -49, 11, -1, 4, -6, -11, 87, 40, 63, -8, -39, -11, 62], "withholdReward": false, "trial_id": "mdp_trial_39", "block": "test", "trialIndex": 40, "score": 71.6, "costs": -1.4, "simulationMode": [null, null, null, null, null], "rewards": [-1, 4, -6, -11, 87], "path": ["0", "0", "23", "24", "25", "26", "27"], "rt": [5996, 11, 83, 157, 74], "actions": ["left", "left", "left", "up", "up"], "actionTimes": [8920, 9446, 10085, 10774, 11391], "queries": {"click": {"state": {"target": ["27"], "time": [5276]}, "edge": {"target": [], "time": []}}, "mouseover": {"state": {"target": ["23", "24", "26", "27", "12", "13", "14", "20"], "time": [3994, 4081, 4260, 4960, 6050, 6484, 6556, 7229]}, "edge": {"target": [], "time": []}}, "mouseout": {"state": {"target": ["6", "6", "0", "23", "24", "26", "27", "12", "13", "14"], "time": [476, 776, 3961, 4060, 4143, 4361, 5868, 6087, 6549, 6600]}, "edge": {"target": [], "time": []}}}, "displayed_time": "16.93", "trialTime": 18858, "trial_type": "mouselab-mdp", "trial_index": 47, "time_elapsed": 1718953, "internal_node_id": "0.0-6.0-1.0-38.0"}}, {"uniqueid": "w99129593:a11043327", "current_trial": 48, "dateTime": 1693566426621, "trialdata": {"revealed_states": [], "clicked_states": ["32", "9", "27", "29", "20"], "num_clicks_accrued": [0, 0, 0, 0, 0, 0, 0, 0, 0, 0, 0, 0, 0], "stateRewards": ["", 2, -3, -5, 5, 11, -9, -33, 6, 67, 6, -30, -1, -2, -6, 13, 55, 13, 72, -14, 75, 21, -66, -2, -4, 6, 15, -1, -35, 60, 2, 51, -73, 12], "withholdReward": false, "trial_id": "mdp_trial_40", "block": "test", "trialIndex": 41, "score": 45, "costs": -7, "simulationMode": [null, null, null, null, null], "rewards": [-1, -2, -6, -14, 75], "path": ["0", "0", "12", "13", "14", "19", "20"], "rt": [13296, 75, 154, 83, 60], "actions": ["right", "right", "right", "down", "right"], "actionTimes": [15539, 16194, 16872, 17481, 18094], "queries": {"click": {"state": {"target": ["32", "9", "27", "29", "20"], "time": [3653, 5832, 7898, 10079, 12673]}, "edge": {"target": [], "time": []}}, "mouseover": {"state": {"target": ["0", "31", "32", "24", "10", "8", "9", "11", "27", "29", "23", "0", "20", "15", "17"], "time": [3041, 3224, 3486, 4139, 4686, 4769, 4998, 6375, 6523, 8931, 10461, 10511, 11148, 13626, 14013]}, "edge": {"target": [], "time": []}}, "mouseout": {"state": {"target": ["20", "19", "12", "0", "0", "31", "32", "24", "10", "8", "9", "11", "27", "29", "23", "0", "20", "15", "17"], "time": [940, 1007, 1240, 2909, 3075, 3320, 4005, 4178, 4730, 4803, 5964, 6444, 8532, 10387, 10504, 10545, 13282, 13687, 19924]}, "edge": {"target": [], "time": []}}}, "displayed_time": "18.64", "trialTime": 21750, "trial_type": "mouselab-mdp", "trial_index": 48, "time_elapsed": 1742112, "internal_node_id": "0.0-6.0-1.0-39.0"}}, {"uniqueid": "w99129593:a11043327", "current_trial": 49, "dateTime": 1693566521972, "trialdata": {"rt": 95338, "response": {"Q0": "$-16 to 16", "Q1": "$-16 to $16", "Q2": "$-88 to $88", "Q3": "It was less costly to inspect further nodes.", "Q4": "Very motivated"}, "question_order": [0, 1, 2, 3, 4], "trial_id": "final_quiz_control", "trial_type": "survey-multi-choice", "trial_index": 49, "time_elapsed": 1837463, "internal_node_id": "0.0-6.0-2.0"}}, {"uniqueid": "w99129593:a11043327", "current_trial": 50, "dateTime": 1693566803480, "trialdata": {"rt": 281484, "response": {"Q0": "The strategy I used was mainly clicking on the nodes towards the end and the one that had the highest number was the route I took to get to the final node with that number", "Q1": "Yes, at first I was clicking at random and saw that I was loosing quite a lot so I then started to only click the last nodes which I noticed had the highest range of numbers hence allowing me to improve my scores.", "Q2": "It was not really difficult because the moment I realized that the numbers closer to the spider were lower compared to the ones on the final step it make picking nodes to reveal so much easier "}, "trial_id": "self_report_control", "trial_type": "survey-text", "trial_index": 50, "time_elapsed": 2118971, "internal_node_id": "0.0-6.0-3.0"}}, {"uniqueid": "w99129593:a11043327", "current_trial": 51, "dateTime": 1693566839226, "trialdata": {"rt": 35735, "response": {"gender": "male", "age": "53", "colorblind": "0", "effort": "0"}, "trial_type": "survey-html-form", "trial_index": 51, "time_elapsed": 2154718, "internal_node_id": "0.0-6.0-4.0"}}, {"uniqueid": "w99129593:a11043327", "current_trial": 52, "dateTime": 1693566926371, "trialdata": {"rt": 87125, "response": {"Q0": "No nothing was confusing", "Q1": "No I have not participated in Web of Cash before.", "Q2": "None"}, "trial_type": "survey-text", "trial_index": 52, "time_elapsed": 2241863, "internal_node_id": "0.0-6.0-5.0"}}, {"uniqueid": "w99129593:a11043327", "current_trial": 53, "dateTime": 1693567030259, "trialdata": {"rt": 103875, "stimulus": "<h1>Completion Code Instructions (1/2)</h1>\n<br><br><br><br>\nYou have reached the end of the experiment! The completion code consists of two parts: (1) a code with 2 characters (2) a code with 6 characters. On this page, you will receive the second part of the code. The first part of the completion code will be on the next page.\n<br><br>\nThe second part of your completion code is: <b>EWEK22</b>\n<br><br>\nPlease note this down. Then, press 'Finish HIT' in order to find the first part of your completion code. Once the data has been saved, you will receive this code either in this window or in the original browser window where you started the experiment.\n", "response": 0, "trial_type": "html-button-response", "trial_index": 53, "time_elapsed": 2345751, "internal_node_id": "0.0-6.0-6.0"}}, {"uniqueid": "w99129593:a11043327", "current_trial": 54, "dateTime": 1693567031265, "trialdata": {"success": true, "trial_type": "fullscreen", "trial_index": 54, "time_elapsed": 2346757, "internal_node_id": "0.0-7.0"}}], "questiondata": {"params": {"CODE": "C6DMOQA6", "MIN_TIME": 14, "inspectCost": 1, "startTime": "Fri Sep 01 2023 12:37:59 GMT+0200 (South Africa Standard Time)", "bonusRate": 0.002, "variance": "1_2_4_8_44", "branching": "31123"}}, "eventdata": [{"eventtype": "initialized", "value": null, "timestamp": 1693564678930, "interval": 0}, {"eventtype": "window_resize", "value": [1032, 600], "timestamp": 1693564678931, "interval": 1}, {"eventtype": "window_resize", "value": [1032, 600], "timestamp": 1693564679494, "interval": 563}, {"eventtype": "window_resize", "value": [1280, 720], "timestamp": 1693564690665, "interval": 11171}, {"eventtype": "window_resize", "value": [1032, 600], "timestamp": 1693567030777, "interval": 2340112}], "useragent": "Mozilla/5.0 (Windows NT 10.0; Win64; x64) AppleWebKit/537.36 (KHTML, like Gecko) Chrome/116.0.0.0 Safari/537.36", "mode": "live", "id": "w99129593:a11043327", "status": "user data saved", "Beginhit": "2023-09-01 10:37:51.35358", "Beginexp": "2023-09-01 10:38:11.659834", "Endhit": "2023-09-01 11:17:13.031196", "psiturkStatus": 3, "browser": "<redacted>", "platform": "windows", "language": "en-US"}