{"condition": 1, "counterbalance": 0, "assignmentId": "a65280518", "workerId": "w26227067", "hitId": "h52572451", "currenttrial": 56, "bonus": 0, "data": [{"uniqueid": "w26227067:a65280518", "current_trial": 0, "dateTime": 1691142061124, "trialdata": {"success": true, "trial_type": "fullscreen", "trial_index": 0, "time_elapsed": 10807, "internal_node_id": "0.0-0.0"}}, {"uniqueid": "w26227067:a65280518", "current_trial": 1, "dateTime": 1691142130352, "trialdata": {"view_history": [{"page_index": 0, "viewing_time": 69208}], "rt": 69212, "trial_id": "exp_instructions_misaligned", "trial_type": "instructions", "trial_index": 1, "time_elapsed": 80036, "internal_node_id": "0.0-1.0"}}, {"uniqueid": "w26227067:a65280518", "current_trial": 2, "dateTime": 1691142140355, "trialdata": {"success": true, "trial_type": "fullscreen", "trial_index": 2, "time_elapsed": 90038, "internal_node_id": "0.0-2.0-0.0"}}, {"uniqueid": "w26227067:a65280518", "current_trial": 3, "dateTime": 1691142480683, "trialdata": {"view_history": [{"page_index": 0, "viewing_time": 147759}, {"page_index": 1, "viewing_time": 107955}, {"page_index": 2, "viewing_time": 27779}, {"page_index": 3, "viewing_time": 56822}], "rt": 340316, "trial_id": "mouselab_instructions_1_misaligned", "trial_type": "instructions", "trial_index": 3, "time_elapsed": 430367, "internal_node_id": "0.0-2.0-1.0"}}, {"uniqueid": "w26227067:a65280518", "current_trial": 4, "dateTime": 1691142533844, "trialdata": {"revealed_states": [], "clicked_states": ["12"], "num_clicks_accrued": [0, 0, 0, 0, 0, 0, 0, 0, 0, 0, 0, 0, 0], "stateRewards": ["", -10, 10, 10, -10, 10, -10, -10, -10, -10, 10, 10, -10, 10, -10, 10, -10, 10, -10, -10, 10, -10, 10, -10, 10, -10, 10, 10, 10, -10, -10, -10, -10, -10], "withholdReward": false, "trial_id": "practice_1", "block": "test", "trialIndex": 0, "score": -7, "costs": -0.5, "simulationMode": [null, null, null, null, null], "rewards": [-10, 10, -10, -10, 10], "path": ["0", "0", "12", "13", "14", "19", "22"], "rt": [9865, 1807, 2290, 332, 720], "actions": ["right", "right", "right", "down", "left"], "actionTimes": [35937, 38278, 41149, 42005, 43255], "queries": {"click": {"state": {"target": ["12"], "time": [31514]}, "edge": {"target": [], "time": []}}, "mouseover": {"state": {"target": ["23", "1", "12", "13"], "time": [29237, 29969, 31119, 32652]}, "edge": {"target": [], "time": []}}, "mouseout": {"state": {"target": ["0", "23", "1", "12", "13"], "time": [29155, 29903, 30852, 31640, 49219]}, "edge": {"target": [], "time": []}}}, "displayed_time": "43.77", "trialTime": 51472, "trial_type": "mouselab-mdp", "trial_index": 4, "time_elapsed": 483527, "internal_node_id": "0.0-2.0-2.0-0.0"}}, {"uniqueid": "w26227067:a65280518", "current_trial": 5, "dateTime": 1691142558048, "trialdata": {"revealed_states": [], "clicked_states": [], "num_clicks_accrued": [0, 0, 0, 0, 0, 0, 0, 0, 0, 0, 0, 0, 0], "stateRewards": ["", 10, 10, -10, -10, 10, 10, 10, 10, 10, -10, 10, -10, -10, 10, -10, 10, -10, -10, -10, 10, 10, 10, 10, 10, 10, 10, 10, -10, -10, 10, -10, -10, 10], "withholdReward": false, "trial_id": "practice_2", "block": "test", "trialIndex": 1, "score": 13.5, "costs": 0, "simulationMode": [null, null, null, null, null], "rewards": [10, 10, -10, -10, 10], "path": ["0", "0", "1", "2", "3", "4", "5"], "rt": [1822, 1210, 5824, 323, 254], "actions": ["up", "up", "up", "right", "up"], "actionTimes": [6002, 7716, 14048, 14885, 15652], "queries": {"click": {"state": {"target": [], "time": []}, "edge": {"target": [], "time": []}}, "mouseover": {"state": {"target": [], "time": []}, "edge": {"target": [], "time": []}}, "mouseout": {"state": {"target": ["14", "13", "24", "0", "8", "10", "3", "4", "6"], "time": [1832, 1863, 2234, 8602, 10284, 10820, 21932, 22018, 22117]}, "edge": {"target": [], "time": []}}}, "displayed_time": "16.17", "trialTime": 23248, "trial_type": "mouselab-mdp", "trial_index": 5, "time_elapsed": 507731, "internal_node_id": "0.0-2.0-2.0-1.0"}}, {"uniqueid": "w26227067:a65280518", "current_trial": 6, "dateTime": 1691142624768, "trialdata": {"view_history": [{"page_index": 0, "viewing_time": 38083}, {"page_index": 1, "viewing_time": 15152}, {"page_index": 0, "viewing_time": 11446}, {"page_index": 1, "viewing_time": 2030}], "rt": 66713, "trial_id": "mouselab_instructions_2_misaligned", "trial_type": "instructions", "trial_index": 6, "time_elapsed": 574452, "internal_node_id": "0.0-2.0-3.0"}}, {"uniqueid": "w26227067:a65280518", "current_trial": 7, "dateTime": 1691142667018, "trialdata": {"rt": 42224, "response": {"Q0": "The cost for clicking on nodes may vary between nodes.", "Q1": "The better I perform the higher my bonus will be.", "Q2": "No, the amount of cash at each node of the web may be different each time.", "Q3": "To get the highest total score.", "Q4": "Only before moving the spider.", "Q5": "3 seconds"}, "question_order": [0, 1, 2, 3, 4, 5], "correct": {"Q0": "The cost for clicking on nodes may vary between nodes.", "Q1": "The better I perform the higher my bonus will be.", "Q2": "No, the amount of cash at each node of the web may be different each time.", "Q3": "To get the highest total score.", "Q4": "Only before moving the spider.", "Q5": "3 seconds"}, "trial_id": "mouselab_quiz_misaligned", "trial_type": "survey-multi-choice", "trial_index": 7, "time_elapsed": 616701, "internal_node_id": "0.0-2.0-4.0"}}, {"uniqueid": "w26227067:a65280518", "current_trial": 8, "dateTime": 1691142685148, "trialdata": {"rt": 18113, "stimulus": "\n<h1> Get ready to start the game! </h1>\n\nThank you for reading the instructions. Get ready start with the 40 rounds of this game.\n<br><br>\nIf you need to take a break, feel free to take one after the end of a round, before continuing to the next one.\n<br><br>\nRemember, the more money the spider gets, the bigger your bonus will be!\n<br><br>\n<div style='text-align: center;'>Press <code>space</code> to begin.</div>\n\n<br><br>\n(If, at any point, the <code>space</code> key does not take you to the next page, click once on the text and try again.)", "response": " ", "trial_id": "mdp_ready", "trial_type": "html-keyboard-response", "trial_index": 8, "time_elapsed": 634832, "internal_node_id": "0.0-4.0-0.0"}}, {"uniqueid": "w26227067:a65280518", "current_trial": 9, "dateTime": 1691142712326, "trialdata": {"revealed_states": [], "clicked_states": ["23", "24"], "num_clicks_accrued": [0, 0, 0, 0, 0, 0, 0, 0, 0, 0, 0, 0, 0], "stateRewards": ["", 1, 1, -3, 7, 49, 78, 26, -5, 26, 48, -43, -1, -3, 2, -5, 4, -1, -60, 10, -35, 51, 81, -2, 1, -7, -5, -39, -86, -54, 4, -3, 74, 77], "withholdReward": false, "trial_id": "mdp_trial_1", "block": "test", "trialIndex": 2, "score": 41.9, "costs": -0.09999999999999998, "simulationMode": [null, null, null, null, null], "rewards": [1, 1, -3, -5, 48], "path": ["0", "0", "1", "2", "3", "8", "10"], "rt": [9628, 613, 1035, 421, 1233], "actions": ["up", "up", "up", "left", "down"], "actionTimes": [16314, 17437, 18992, 19980, 21729], "queries": {"click": {"state": {"target": ["23", "24"], "time": [8507, 10533]}, "edge": {"target": [], "time": []}}, "mouseover": {"state": {"target": ["0", "23", "24", "25", "24", "24", "31", "31", "30", "31"], "time": [7291, 8054, 9080, 9365, 9615, 10153, 11256, 12585, 12836, 13285]}, "edge": {"target": [], "time": []}}, "mouseout": {"state": {"target": ["2", "1", "0", "0", "0", "23", "24", "25", "24", "24", "31", "31", "30", "31"], "time": [1018, 1317, 3952, 5017, 7386, 8537, 9235, 9575, 9718, 11081, 11414, 12717, 13119, 13504]}, "edge": {"target": [], "time": []}}}, "displayed_time": "22.24", "trialTime": 26070, "trial_type": "mouselab-mdp", "trial_index": 9, "time_elapsed": 662010, "internal_node_id": "0.0-4.0-1.0-0.0"}}, {"uniqueid": "w26227067:a65280518", "current_trial": 10, "dateTime": 1691142731765, "trialdata": {"revealed_states": [], "clicked_states": [], "num_clicks_accrued": [0, 0, 0, 0, 0, 0, 0, 0, 0, 0, 0, 0, 0], "stateRewards": ["", -2, 2, -1, -6, 22, 6, 6, -5, 70, -42, 65, 1, 3, 5, -6, -67, -9, 3, 14, 7, -62, -13, -2, 4, 1, 16, 42, -21, -52, -8, 32, 53, 81], "withholdReward": false, "trial_id": "mdp_trial_2", "block": "test", "trialIndex": 3, "score": -2, "costs": 0, "simulationMode": [null, null, null, null, null], "rewards": [-2, 4, 1, 16, -21], "path": ["0", "0", "23", "24", "25", "26", "28"], "rt": [2337, 212, 166, 112, 154], "actions": ["left", "left", "left", "up", "right"], "actionTimes": [4419, 5155, 5868, 6500, 7193], "queries": {"click": {"state": {"target": [], "time": []}, "edge": {"target": [], "time": []}}, "mouseover": {"state": {"target": [], "time": []}, "edge": {"target": [], "time": []}}, "mouseout": {"state": {"target": ["0", "22", "19", "20", "14", "13"], "time": [14004, 14070, 14095, 14138, 16873, 16935]}, "edge": {"target": [], "time": []}}}, "displayed_time": "16.08", "trialTime": 18456, "trial_type": "mouselab-mdp", "trial_index": 10, "time_elapsed": 681447, "internal_node_id": "0.0-4.0-1.0-1.0"}}, {"uniqueid": "w26227067:a65280518", "current_trial": 11, "dateTime": 1691142756124, "trialdata": {"revealed_states": [], "clicked_states": ["12", "14", "19", "15"], "num_clicks_accrued": [0, 0, 0, 0, 0, 0, 0, 0, 0, 0, 0, 0, 0], "stateRewards": ["", -2, 2, 2, -6, 9, 37, 50, -13, -7, -18, -75, -2, -4, 4, 7, 23, -57, -66, -7, -81, -48, -76, 1, 1, -8, 1, 51, -2, 70, 14, 59, 71, -37], "withholdReward": false, "trial_id": "mdp_trial_3", "block": "test", "trialIndex": 4, "score": -55.8, "costs": -3.8, "simulationMode": [null, null, null, null, null], "rewards": [-2, -4, 4, 7, -57], "path": ["0", "0", "12", "13", "14", "15", "17"], "rt": [9679, 317, 225, 258, 402], "actions": ["right", "right", "right", "up", "right"], "actionTimes": [11869, 12713, 13490, 14269, 15180], "queries": {"click": {"state": {"target": ["12", "14", "19", "15"], "time": [3834, 6449, 8078, 9658]}, "edge": {"target": [], "time": []}}, "mouseover": {"state": {"target": ["12", "13", "13", "14", "19", "15"], "time": [3115, 4619, 5567, 5682, 7349, 8949]}, "edge": {"target": [], "time": []}}, "mouseout": {"state": {"target": ["1", "12", "12", "13", "13", "14", "19", "19", "15", "15"], "time": [633, 3953, 4576, 5430, 5599, 7133, 8217, 8578, 9766, 10104]}, "edge": {"target": [], "time": []}}}, "displayed_time": "16.19", "trialTime": 23100, "trial_type": "mouselab-mdp", "trial_index": 11, "time_elapsed": 705807, "internal_node_id": "0.0-4.0-1.0-2.0"}}, {"uniqueid": "w26227067:a65280518", "current_trial": 12, "dateTime": 1691142775948, "trialdata": {"revealed_states": [], "clicked_states": [], "num_clicks_accrued": [0, 0, 0, 0, 0, 0, 0, 0, 0, 0, 0, 0, 0], "stateRewards": ["", -1, 1, -6, -1, 80, 23, 2, -11, 73, -81, 59, 1, 3, 5, -1, -26, 28, -3, 16, -59, -13, -50, -2, -2, 2, 15, -50, 86, 17, -4, 37, 35, 44], "withholdReward": false, "trial_id": "mdp_trial_4", "block": "test", "trialIndex": 5, "score": -34, "costs": 0, "simulationMode": [null, null, null, null, null], "rewards": [1, 3, 5, 16, -59], "path": ["0", "0", "12", "13", "14", "19", "20"], "rt": [1798, 213, 268, 220, 584], "actions": ["right", "right", "right", "down", "right"], "actionTimes": [4560, 5360, 6159, 6896, 7992], "queries": {"click": {"state": {"target": [], "time": []}, "edge": {"target": [], "time": []}}, "mouseover": {"state": {"target": [], "time": []}, "edge": {"target": [], "time": []}}, "mouseout": {"state": {"target": ["12", "0", "16", "17"], "time": [1080, 11169, 11206, 13100]}, "edge": {"target": [], "time": []}}}, "displayed_time": "16.77", "trialTime": 18204, "trial_type": "mouselab-mdp", "trial_index": 12, "time_elapsed": 725631, "internal_node_id": "0.0-4.0-1.0-3.0"}}, {"uniqueid": "w26227067:a65280518", "current_trial": 13, "dateTime": 1691142797079, "trialdata": {"revealed_states": [], "clicked_states": ["1"], "num_clicks_accrued": [0, 0, 0, 0, 0, 0, 0, 0, 0, 0, 0, 0, 0], "stateRewards": ["", 1, 4, 5, -5, 58, -80, 75, 6, 25, -39, 46, 2, -2, 4, 2, 59, 31, -22, -12, -61, 15, 72, 1, -2, -7, 8, 77, 76, -23, -7, 71, -15, -3], "withholdReward": false, "trial_id": "mdp_trial_5", "block": "test", "trialIndex": 6, "score": 80.25, "costs": 0.25, "simulationMode": [null, null, null, null, null], "rewards": [1, 4, 5, -5, 75], "path": ["0", "0", "1", "2", "3", "4", "7"], "rt": [3350, 1093, 1114, 299, 638], "actions": ["up", "up", "up", "right", "down"], "actionTimes": [6400, 8014, 9683, 10527, 11698], "queries": {"click": {"state": {"target": ["1"], "time": [4441]}, "edge": {"target": [], "time": []}}, "mouseover": {"state": {"target": ["1"], "time": [3925]}, "edge": {"target": [], "time": []}}, "mouseout": {"state": {"target": ["15", "12", "0", "31", "23", "1", "18", "15", "17"], "time": [902, 927, 955, 1009, 1209, 14558, 14607, 14630, 14657]}, "edge": {"target": [], "time": []}}}, "displayed_time": "17.05", "trialTime": 19595, "trial_type": "mouselab-mdp", "trial_index": 13, "time_elapsed": 746761, "internal_node_id": "0.0-4.0-1.0-4.0"}}, {"uniqueid": "w26227067:a65280518", "current_trial": 14, "dateTime": 1691142821003, "trialdata": {"revealed_states": [], "clicked_states": [], "num_clicks_accrued": [0, 0, 0, 0, 0, 0, 0, 0, 0, 0, 0, 0, 0], "stateRewards": ["", -1, 3, 2, 9, 41, 4, -46, -12, -54, -87, -25, 2, 3, -1, 11, -77, 12, -33, -9, -32, 35, 72, 1, 3, -7, 4, 37, 65, -73, 6, 77, -43, 8], "withholdReward": false, "trial_id": "mdp_trial_6", "block": "test", "trialIndex": 7, "score": 11, "costs": 0, "simulationMode": [null, null, null, null, null], "rewards": [1, 3, -7, 6, 8], "path": ["0", "0", "23", "24", "25", "30", "33"], "rt": [5808, 1060, 840, 715, 906], "actions": ["left", "left", "left", "down", "left"], "actionTimes": [9538, 11127, 12495, 13710, 15117], "queries": {"click": {"state": {"target": [], "time": []}, "edge": {"target": [], "time": []}}, "mouseover": {"state": {"target": ["23"], "time": [8004]}, "edge": {"target": [], "time": []}}, "mouseout": {"state": {"target": ["14", "13", "0", "23", "0", "18"], "time": [2154, 2175, 2339, 16458, 16488, 16523]}, "edge": {"target": [], "time": []}}}, "displayed_time": "17.73", "trialTime": 22668, "trial_type": "mouselab-mdp", "trial_index": 14, "time_elapsed": 770685, "internal_node_id": "0.0-4.0-1.0-5.0"}}, {"uniqueid": "w26227067:a65280518", "current_trial": 15, "dateTime": 1691142848426, "trialdata": {"revealed_states": [], "clicked_states": [], "num_clicks_accrued": [0, 0, 0, 0, 0, 0, 0, 0, 0, 0, 0, 0, 0], "stateRewards": ["", -2, 2, 5, -14, -56, 64, 84, -5, 52, 39, 85, -2, 1, 7, 8, 21, 29, -78, -9, -10, -69, 10, -2, -1, -7, 15, 72, 20, 41, -2, 52, 80, 22], "withholdReward": false, "trial_id": "mdp_trial_7", "block": "test", "trialIndex": 8, "score": 39, "costs": 0, "simulationMode": [null, null, null, null, null], "rewards": [-2, 2, 5, -5, 39], "path": ["0", "0", "1", "2", "3", "8", "10"], "rt": [4803, 406, 464, 469, 622], "actions": ["up", "up", "up", "left", "down"], "actionTimes": [14302, 15263, 16267, 17270, 18402], "queries": {"click": {"state": {"target": [], "time": []}, "edge": {"target": [], "time": []}}, "mouseover": {"state": {"target": ["1", "12", "1", "2", "1", "18"], "time": [10881, 11475, 11868, 11930, 13426, 13767]}, "edge": {"target": [], "time": []}}, "mouseout": {"state": {"target": ["4", "1", "12", "1", "2", "1"], "time": [5474, 11029, 11797, 11901, 13264, 13684]}, "edge": {"target": [], "time": []}}}, "displayed_time": "23.50", "trialTime": 25195, "trial_type": "mouselab-mdp", "trial_index": 15, "time_elapsed": 798108, "internal_node_id": "0.0-4.0-1.0-6.0"}}, {"uniqueid": "w26227067:a65280518", "current_trial": 16, "dateTime": 1691142875383, "trialdata": {"revealed_states": [], "clicked_states": ["12"], "num_clicks_accrued": [0, 0, 0, 0, 0, 0, 0, 0, 0, 0, 0, 0, 0], "stateRewards": ["", 1, -3, -2, 14, 49, -40, -39, 2, 26, -61, 73, 1, -4, -8, 12, 79, 29, -65, -13, 55, -26, 27, -1, 3, 3, 9, -17, -60, -18, -8, 35, -88, 69], "withholdReward": false, "trial_id": "mdp_trial_8", "block": "test", "trialIndex": 9, "score": 80.25, "costs": 0.25, "simulationMode": [null, null, null, null, null], "rewards": [1, -4, -8, 12, 79], "path": ["0", "0", "12", "13", "14", "15", "16"], "rt": [2478, 448, 221, 88, 360], "actions": ["right", "right", "right", "up", "up"], "actionTimes": [7622, 8570, 9339, 9971, 10960], "queries": {"click": {"state": {"target": ["12"], "time": [6824]}, "edge": {"target": [], "time": []}}, "mouseover": {"state": {"target": ["0", "13", "12"], "time": [6068, 6328, 6445]}, "edge": {"target": [], "time": []}}, "mouseout": {"state": {"target": ["18", "23", "23", "0", "0", "13"], "time": [3289, 3521, 3692, 5963, 6097, 6364]}, "edge": {"target": [], "time": []}}}, "displayed_time": "19.15", "trialTime": 25274, "trial_type": "mouselab-mdp", "trial_index": 16, "time_elapsed": 825066, "internal_node_id": "0.0-4.0-1.0-7.0"}}, {"uniqueid": "w26227067:a65280518", "current_trial": 17, "dateTime": 1691142896950, "trialdata": {"revealed_states": [], "clicked_states": ["23"], "num_clicks_accrued": [0, 0, 0, 0, 0, 0, 0, 0, 0, 0, 0, 0, 0], "stateRewards": ["", -2, 3, -1, -9, 44, 48, -37, -3, 71, -39, 87, -1, 3, -4, 4, -21, 59, -15, -8, -1, 28, -38, 2, 4, 4, 8, -85, -72, -63, 14, 58, 63, -46], "withholdReward": false, "trial_id": "mdp_trial_9", "block": "test", "trialIndex": 10, "score": -21.75, "costs": 0.25, "simulationMode": [null, null, null, null, null], "rewards": [2, 4, 4, 14, -46], "path": ["0", "0", "23", "24", "25", "30", "33"], "rt": [2845, 244, 454, 146, 1317], "actions": ["left", "left", "left", "down", "left"], "actionTimes": [7483, 8231, 9235, 9903, 11750], "queries": {"click": {"state": {"target": ["23"], "time": [6334]}, "edge": {"target": [], "time": []}}, "mouseover": {"state": {"target": ["0", "23", "23", "22"], "time": [5200, 5267, 5849, 6975]}, "edge": {"target": [], "time": []}}, "mouseout": {"state": {"target": ["12", "0", "23", "23", "22"], "time": [3394, 5229, 5429, 6888, 14814]}, "edge": {"target": [], "time": []}}}, "displayed_time": "18.64", "trialTime": 20162, "trial_type": "mouselab-mdp", "trial_index": 17, "time_elapsed": 846633, "internal_node_id": "0.0-4.0-1.0-8.0"}}, {"uniqueid": "w26227067:a65280518", "current_trial": 18, "dateTime": 1691142921343, "trialdata": {"revealed_states": [], "clicked_states": ["4"], "num_clicks_accrued": [0, 0, 0, 0, 0, 0, 0, 0, 0, 0, 0, 0, 0], "stateRewards": ["", 2, -3, 5, 11, -79, 54, 11, -9, -78, 33, 22, -2, -1, 2, 14, 43, 34, 1, 10, 49, -65, 39, -1, 1, -1, 3, -16, -2, 11, 2, 12, 48, -65], "withholdReward": false, "trial_id": "mdp_trial_10", "block": "test", "trialIndex": 11, "score": 67.45, "costs": -1.55, "simulationMode": [null, null, null, null, null], "rewards": [2, -3, 5, 11, 54], "path": ["0", "0", "1", "2", "3", "4", "6"], "rt": [2509, 789, 74, 95, 1043], "actions": ["up", "up", "up", "right", "right"], "actionTimes": [5926, 7238, 7860, 8509, 10104], "queries": {"click": {"state": {"target": ["4"], "time": [4933]}, "edge": {"target": [], "time": []}}, "mouseover": {"state": {"target": ["7", "4"], "time": [4265, 4581]}, "edge": {"target": [], "time": []}}, "mouseout": {"state": {"target": ["16", "7", "4", "6"], "time": [1213, 4288, 5068, 7149]}, "edge": {"target": [], "time": []}}}, "displayed_time": "17.43", "trialTime": 21792, "trial_type": "mouselab-mdp", "trial_index": 18, "time_elapsed": 871026, "internal_node_id": "0.0-4.0-1.0-9.0"}}, {"uniqueid": "w26227067:a65280518", "current_trial": 19, "dateTime": 1691142946190, "trialdata": {"revealed_states": [], "clicked_states": [], "num_clicks_accrued": [0, 0, 0, 0, 0, 0, 0, 0, 0, 0, 0, 0, 0], "stateRewards": ["", 2, 4, 7, -6, -76, -81, 2, 5, -66, -3, 36, -2, -4, 6, -2, -69, 4, -49, -6, 67, 38, -67, 2, 1, 1, 6, -68, -21, 52, -16, -16, 6, -70], "withholdReward": false, "trial_id": "mdp_trial_11", "block": "test", "trialIndex": 12, "score": -48, "costs": 0, "simulationMode": [null, null, null, null, null], "rewards": [2, 4, 7, 5, -66], "path": ["0", "0", "1", "2", "3", "8", "9"], "rt": [3559, 896, 963, 440, 1328], "actions": ["up", "up", "up", "left", "up"], "actionTimes": [8621, 10066, 11538, 12512, 14382], "queries": {"click": {"state": {"target": [], "time": []}, "edge": {"target": [], "time": []}}, "mouseover": {"state": {"target": ["12"], "time": [6084]}, "edge": {"target": [], "time": []}}, "mouseout": {"state": {"target": ["18", "12"], "time": [3065, 6118]}, "edge": {"target": [], "time": []}}}, "displayed_time": "19.06", "trialTime": 22707, "trial_type": "mouselab-mdp", "trial_index": 19, "time_elapsed": 895872, "internal_node_id": "0.0-4.0-1.0-10.0"}}, {"uniqueid": "w26227067:a65280518", "current_trial": 20, "dateTime": 1691142971127, "trialdata": {"revealed_states": [], "clicked_states": ["19", "15", "26", "30"], "num_clicks_accrued": [0, 0, 0, 0, 0, 0, 0, 0, 0, 0, 0, 0, 0], "stateRewards": ["", -2, 3, -5, -7, 66, 43, -60, -4, -70, -75, 4, -1, 2, 2, -13, 54, 11, -40, -1, 77, 32, 15, -2, 3, -8, -9, -35, 83, -27, 6, -74, -34, 44], "withholdReward": false, "trial_id": "mdp_trial_12", "block": "test", "trialIndex": 13, "score": -81.2, "costs": -6.2, "simulationMode": [null, null, null, null, null], "rewards": [-2, 3, -8, 6, -74], "path": ["0", "0", "23", "24", "25", "30", "31"], "rt": [6024, 499, 284, 137, 896], "actions": ["left", "left", "left", "down", "right"], "actionTimes": [8945, 9986, 10795, 11462, 12899], "queries": {"click": {"state": {"target": ["19", "15", "26", "30"], "time": [4477, 6018, 6993, 7837]}, "edge": {"target": [], "time": []}}, "mouseover": {"state": {"target": ["12", "14", "19", "13", "16", "15", "18", "26", "25", "30"], "time": [3698, 3749, 3999, 5092, 5523, 5716, 6380, 6528, 7340, 7480]}, "edge": {"target": [], "time": []}}, "mouseout": {"state": {"target": ["14", "13", "12", "12", "14", "19", "19", "13", "16", "15", "18", "26", "25", "30"], "time": [1211, 1231, 1253, 3721, 3781, 4867, 5078, 5136, 5586, 6368, 6435, 7288, 7436, 8279]}, "edge": {"target": [], "time": []}}}, "displayed_time": "16.92", "trialTime": 23343, "trial_type": "mouselab-mdp", "trial_index": 20, "time_elapsed": 920809, "internal_node_id": "0.0-4.0-1.0-11.0"}}, {"uniqueid": "w26227067:a65280518", "current_trial": 21, "dateTime": 1691142997305, "trialdata": {"revealed_states": [], "clicked_states": ["8", "4"], "num_clicks_accrued": [0, 0, 0, 0, 0, 0, 0, 0, 0, 0, 0, 0, 0], "stateRewards": ["", -2, 4, -5, -12, 85, -24, -18, -15, -78, -22, 26, -1, -1, 2, 14, -45, 52, -23, 7, -33, 24, -6, -2, -4, 5, -7, -16, 36, -39, 5, 71, -87, -23], "withholdReward": false, "trial_id": "mdp_trial_13", "block": "test", "trialIndex": 14, "score": -2.0999999999999996, "costs": -3.1, "simulationMode": [null, null, null, null, null], "rewards": [-1, -1, 2, 7, -6], "path": ["0", "0", "12", "13", "14", "19", "22"], "rt": [4685, 295, 303, 593, 913], "actions": ["right", "right", "right", "down", "left"], "actionTimes": [7453, 8264, 9117, 10254, 11701], "queries": {"click": {"state": {"target": ["8", "4"], "time": [3955, 5539]}, "edge": {"target": [], "time": []}}, "mouseover": {"state": {"target": ["8", "3", "4", "18"], "time": [3540, 4304, 4719, 5981]}, "edge": {"target": [], "time": []}}, "mouseout": {"state": {"target": ["12", "7", "3", "2", "1", "0", "8", "3", "4"], "time": [919, 968, 1067, 1118, 1185, 2835, 4245, 4624, 5918]}, "edge": {"target": [], "time": []}}}, "displayed_time": "16.77", "trialTime": 24561, "trial_type": "mouselab-mdp", "trial_index": 21, "time_elapsed": 946987, "internal_node_id": "0.0-4.0-1.0-12.0"}}, {"uniqueid": "w26227067:a65280518", "current_trial": 22, "dateTime": 1691143024680, "trialdata": {"revealed_states": [], "clicked_states": [], "num_clicks_accrued": [0, 0, 0, 0, 0, 0, 0, 0, 0, 0, 0, 0, 0], "stateRewards": ["", -1, 1, 6, -6, 70, 66, 67, -16, -75, -35, 37, -1, 4, 4, -6, 47, -9, 63, 15, 21, -63, 13, 1, 3, -6, 10, 79, -29, 18, -15, 9, -67, -19], "withholdReward": false, "trial_id": "mdp_trial_14", "block": "test", "trialIndex": 15, "score": -8, "costs": 0, "simulationMode": [null, null, null, null, null], "rewards": [-1, 4, 4, -6, -9], "path": ["0", "0", "12", "13", "14", "15", "17"], "rt": [3753, 1698, 510, 173, 134], "actions": ["right", "right", "right", "up", "right"], "actionTimes": [9131, 11339, 12352, 13117, 13781], "queries": {"click": {"state": {"target": [], "time": []}, "edge": {"target": [], "time": []}}, "mouseover": {"state": {"target": [], "time": []}, "edge": {"target": [], "time": []}}, "mouseout": {"state": {"target": ["18", "1"], "time": [3587, 3831]}, "edge": {"target": [], "time": []}}}, "displayed_time": "19.38", "trialTime": 24967, "trial_type": "mouselab-mdp", "trial_index": 22, "time_elapsed": 974362, "internal_node_id": "0.0-4.0-1.0-13.0"}}, {"uniqueid": "w26227067:a65280518", "current_trial": 23, "dateTime": 1691143062000, "trialdata": {"revealed_states": [], "clicked_states": [], "num_clicks_accrued": [0, 0, 0, 0, 0, 0, 0, 0, 0, 0, 0, 0, 0], "stateRewards": ["", -1, 2, -7, -12, -62, 12, -13, 5, 77, -71, 83, 1, -4, 7, 15, -42, -87, -4, 5, -25, 44, 88, -1, 4, -5, -8, 14, 51, 8, -5, 83, -24, -19], "withholdReward": false, "trial_id": "mdp_trial_15", "block": "test", "trialIndex": 16, "score": 82, "costs": 0, "simulationMode": [null, null, null, null, null], "rewards": [-1, 2, -7, 5, 83], "path": ["0", "0", "1", "2", "3", "8", "11"], "rt": [4021, 208, 436, 196, 357], "actions": ["up", "up", "up", "left", "left"], "actionTimes": [19646, 20393, 21398, 22162, 23024], "queries": {"click": {"state": {"target": [], "time": []}, "edge": {"target": [], "time": []}}, "mouseover": {"state": {"target": [], "time": []}, "edge": {"target": [], "time": []}}, "mouseout": {"state": {"target": ["0", "0", "12", "22"], "time": [10175, 11941, 11974, 13771]}, "edge": {"target": [], "time": []}}}, "displayed_time": "29.63", "trialTime": 36066, "trial_type": "mouselab-mdp", "trial_index": 23, "time_elapsed": 1011683, "internal_node_id": "0.0-4.0-1.0-14.0"}}, {"uniqueid": "w26227067:a65280518", "current_trial": 24, "dateTime": 1691143095797, "trialdata": {"revealed_states": [], "clicked_states": [], "num_clicks_accrued": [0, 0, 0, 0, 0, 0, 0, 0, 0, 0, 0, 0, 0], "stateRewards": ["", 1, -1, 1, -14, -10, 67, -28, -11, 72, 40, -65, -1, 1, 1, -2, 8, -55, 34, -10, 61, 33, -15, 2, -4, 7, 4, -75, 63, -21, -16, 61, 19, 21], "withholdReward": false, "trial_id": "mdp_trial_16", "block": "test", "trialIndex": 17, "score": -41, "costs": 0, "simulationMode": [null, null, null, null, null], "rewards": [1, -1, 1, -14, -28], "path": ["0", "0", "1", "2", "3", "4", "7"], "rt": [1490, 212, 126, 438, 525], "actions": ["up", "up", "up", "right", "down"], "actionTimes": [12514, 13234, 13905, 14868, 15897], "queries": {"click": {"state": {"target": [], "time": []}, "edge": {"target": [], "time": []}}, "mouseover": {"state": {"target": [], "time": []}, "edge": {"target": [], "time": []}}, "mouseout": {"state": {"target": ["0", "15"], "time": [4196, 4248]}, "edge": {"target": [], "time": []}}}, "displayed_time": "25.02", "trialTime": 32103, "trial_type": "mouselab-mdp", "trial_index": 24, "time_elapsed": 1045480, "internal_node_id": "0.0-4.0-1.0-15.0"}}, {"uniqueid": "w26227067:a65280518", "current_trial": 25, "dateTime": 1691143130492, "trialdata": {"revealed_states": [], "clicked_states": [], "num_clicks_accrued": [0, 0, 0, 0, 0, 0, 0, 0, 0, 0, 0, 0, 0], "stateRewards": ["", 1, 2, 7, 13, 88, -71, 27, 3, 60, 5, -53, -2, 2, -6, -1, -30, 79, 47, -4, -14, 46, 68, 1, 1, 8, 10, -14, 86, 48, -11, -67, -44, 5], "withholdReward": false, "trial_id": "mdp_trial_17", "block": "test", "trialIndex": 18, "score": 4, "costs": 0, "simulationMode": [null, null, null, null, null], "rewards": [1, 1, 8, -11, 5], "path": ["0", "0", "23", "24", "25", "30", "33"], "rt": [1663, 168, 640, 1232, 462], "actions": ["left", "left", "left", "down", "left"], "actionTimes": [13007, 13692, 14871, 16642, 17631], "queries": {"click": {"state": {"target": [], "time": []}, "edge": {"target": [], "time": []}}, "mouseover": {"state": {"target": [], "time": []}, "edge": {"target": [], "time": []}}, "mouseout": {"state": {"target": ["0", "12"], "time": [5404, 5656]}, "edge": {"target": [], "time": []}}}, "displayed_time": "25.34", "trialTime": 32027, "trial_type": "mouselab-mdp", "trial_index": 25, "time_elapsed": 1080175, "internal_node_id": "0.0-4.0-1.0-16.0"}}, {"uniqueid": "w26227067:a65280518", "current_trial": 26, "dateTime": 1691143159266, "trialdata": {"revealed_states": [], "clicked_states": [], "num_clicks_accrued": [0, 0, 0, 0, 0, 0, 0, 0, 0, 0, 0, 0, 0], "stateRewards": ["", 1, -4, -6, 11, -20, 8, -30, 1, -38, 88, 42, 2, 3, 5, -12, -8, -74, 30, -8, 67, -19, 42, 2, -1, 4, 13, 50, -68, 2, -8, -15, 87, -46], "withholdReward": false, "trial_id": "mdp_trial_18", "block": "test", "trialIndex": 19, "score": -50, "costs": 0, "simulationMode": [null, null, null, null, null], "rewards": [2, -1, 4, 13, -68], "path": ["0", "0", "23", "24", "25", "26", "28"], "rt": [6610, 90, 93, 295, 2031], "actions": ["left", "left", "left", "up", "right"], "actionTimes": [17219, 17847, 18513, 19328, 21890], "queries": {"click": {"state": {"target": [], "time": []}, "edge": {"target": [], "time": []}}, "mouseover": {"state": {"target": ["28", "26", "26", "28"], "time": [13223, 13279, 13663, 14595]}, "edge": {"target": [], "time": []}}, "mouseout": {"state": {"target": ["0", "0", "28", "26", "26", "28"], "time": [8924, 13090, 13247, 13308, 14457, 16407]}, "edge": {"target": [], "time": []}}}, "displayed_time": "24.61", "trialTime": 27070, "trial_type": "mouselab-mdp", "trial_index": 26, "time_elapsed": 1108949, "internal_node_id": "0.0-4.0-1.0-17.0"}}, {"uniqueid": "w26227067:a65280518", "current_trial": 27, "dateTime": 1691143180515, "trialdata": {"revealed_states": [], "clicked_states": [], "num_clicks_accrued": [0, 0, 0, 0, 0, 0, 0, 0, 0, 0, 0, 0, 0], "stateRewards": ["", 1, -1, 8, -3, 38, 85, -20, -4, 8, 23, 73, 2, -4, 6, -13, 44, 7, -28, -11, -77, 45, -69, 1, -1, -7, -11, 75, -51, -87, 7, 36, -53, -26], "withholdReward": false, "trial_id": "mdp_trial_19", "block": "test", "trialIndex": 20, "score": 27, "costs": 0, "simulationMode": [null, null, null, null, null], "rewards": [1, -1, 8, -4, 23], "path": ["0", "0", "1", "2", "3", "8", "10"], "rt": [4532, 232, 508, 1187, 275], "actions": ["up", "up", "up", "left", "down"], "actionTimes": [7243, 7990, 9061, 10762, 11597], "queries": {"click": {"state": {"target": [], "time": []}, "edge": {"target": [], "time": []}}, "mouseover": {"state": {"target": ["0", "12"], "time": [6637, 6712]}, "edge": {"target": [], "time": []}}, "mouseout": {"state": {"target": ["19", "12", "0", "12"], "time": [999, 1093, 6675, 6749]}, "edge": {"target": [], "time": []}}}, "displayed_time": "16.71", "trialTime": 19424, "trial_type": "mouselab-mdp", "trial_index": 27, "time_elapsed": 1130198, "internal_node_id": "0.0-4.0-1.0-18.0"}}, {"uniqueid": "w26227067:a65280518", "current_trial": 28, "dateTime": 1691143212824, "trialdata": {"revealed_states": [], "clicked_states": [], "num_clicks_accrued": [0, 0, 0, 0, 0, 0, 0, 0, 0, 0, 0, 0, 0], "stateRewards": ["", 1, -3, -4, -11, -56, 61, -47, -16, -28, -9, 69, -2, -3, -4, -8, 40, -86, 59, -4, 80, 27, 54, -1, 3, -1, 8, 67, 23, 50, 6, 83, -43, -29], "withholdReward": false, "trial_id": "mdp_trial_20", "block": "test", "trialIndex": 21, "score": 67, "costs": 0, "simulationMode": [null, null, null, null, null], "rewards": [-2, -3, -4, -4, 80], "path": ["0", "0", "12", "13", "14", "19", "20"], "rt": [2462, 546, 280, 100, 66], "actions": ["right", "right", "right", "down", "right"], "actionTimes": [11721, 12803, 13629, 14301, 14938], "queries": {"click": {"state": {"target": [], "time": []}, "edge": {"target": [], "time": []}}, "mouseover": {"state": {"target": [], "time": []}, "edge": {"target": [], "time": []}}, "mouseout": {"state": {"target": ["13", "12"], "time": [7585, 7852]}, "edge": {"target": [], "time": []}}}, "displayed_time": "23.26", "trialTime": 30578, "trial_type": "mouselab-mdp", "trial_index": 28, "time_elapsed": 1162506, "internal_node_id": "0.0-4.0-1.0-19.0"}}, {"uniqueid": "w26227067:a65280518", "current_trial": 29, "dateTime": 1691143242828, "trialdata": {"revealed_states": [], "clicked_states": ["18"], "num_clicks_accrued": [0, 0, 0, 0, 0, 0, 0, 0, 0, 0, 0, 0, 0], "stateRewards": ["", 2, 3, -1, 6, 44, -4, -59, -14, -3, 64, 16, 1, -3, 3, 6, 3, 49, 19, 3, -49, -14, -86, 1, 2, -3, -8, -33, 14, 32, -13, -77, -47, -67], "withholdReward": false, "trial_id": "mdp_trial_21", "block": "test", "trialIndex": 22, "score": 23.85, "costs": -2.15, "simulationMode": [null, null, null, null, null], "rewards": [1, -3, 3, 6, 19], "path": ["0", "0", "12", "13", "14", "15", "18"], "rt": [5778, 353, 174, 134, 149], "actions": ["right", "right", "right", "up", "left"], "actionTimes": [14617, 15493, 16234, 16898, 17609], "queries": {"click": {"state": {"target": ["18"], "time": [9995]}, "edge": {"target": [], "time": []}}, "mouseover": {"state": {"target": ["15", "18", "15", "17"], "time": [9446, 9580, 10566, 10673]}, "edge": {"target": [], "time": []}}, "mouseout": {"state": {"target": ["0", "0", "0", "12", "13", "14", "14", "13", "12", "0", "15", "18", "15", "17", "17"], "time": [1147, 1301, 2977, 3109, 3194, 3219, 6496, 6534, 6577, 8863, 9478, 10552, 10662, 13880, 28161]}, "edge": {"target": [], "time": []}}}, "displayed_time": "22.84", "trialTime": 28342, "trial_type": "mouselab-mdp", "trial_index": 29, "time_elapsed": 1192511, "internal_node_id": "0.0-4.0-1.0-20.0"}}, {"uniqueid": "w26227067:a65280518", "current_trial": 30, "dateTime": 1691143280435, "trialdata": {"revealed_states": [], "clicked_states": [], "num_clicks_accrued": [0, 0, 0, 0, 0, 0, 0, 0, 0, 0, 0, 0, 0], "stateRewards": ["", 1, 2, -5, 14, 54, -14, -25, 16, -5, -87, 78, -1, 1, 3, -3, 52, 53, 53, -10, 73, -69, -48, 2, 3, 1, 8, -62, -7, 85, 7, 82, 52, -28], "withholdReward": false, "trial_id": "mdp_trial_22", "block": "test", "trialIndex": 23, "score": 92, "costs": 0, "simulationMode": [null, null, null, null, null], "rewards": [1, 2, -5, 16, 78], "path": ["0", "0", "1", "2", "3", "8", "11"], "rt": [13145, 1221, 216, 1305, 1248], "actions": ["up", "up", "up", "left", "left"], "actionTimes": [19790, 21560, 22301, 24156, 25950], "queries": {"click": {"state": {"target": [], "time": []}, "edge": {"target": [], "time": []}}, "mouseover": {"state": {"target": ["1", "8", "9"], "time": [8575, 8820, 9212]}, "edge": {"target": [], "time": []}}, "mouseout": {"state": {"target": ["15", "13", "12", "1", "8", "9"], "time": [4941, 5078, 5156, 8686, 9175, 18873]}, "edge": {"target": [], "time": []}}}, "displayed_time": "26.48", "trialTime": 35794, "trial_type": "mouselab-mdp", "trial_index": 30, "time_elapsed": 1230118, "internal_node_id": "0.0-4.0-1.0-21.0"}}, {"uniqueid": "w26227067:a65280518", "current_trial": 31, "dateTime": 1691143308364, "trialdata": {"revealed_states": [], "clicked_states": ["32"], "num_clicks_accrued": [0, 0, 0, 0, 0, 0, 0, 0, 0, 0, 0, 0, 0], "stateRewards": ["", 1, 1, 1, -3, -7, -1, -41, -10, 20, -72, -63, 1, -4, -2, 2, -66, 30, -84, -2, 49, 23, 71, -1, -4, 4, -12, 67, 5, 18, -16, 88, 56, -5], "withholdReward": false, "trial_id": "mdp_trial_23", "block": "test", "trialIndex": 24, "score": 36.85, "costs": -2.15, "simulationMode": [null, null, null, null, null, null], "rewards": [-1, -4, 4, -16, 56], "path": ["0", "0", "23", "24", "25", "30", "32"], "rt": [3957, 1661, 320, 808, 328, 381], "actions": ["left", "left", "left", "left", "down", "down"], "actionTimes": [8977, 10650, 11499, 12855, 13706, 14665], "queries": {"click": {"state": {"target": ["32"], "time": [6427]}, "edge": {"target": [], "time": []}}, "mouseover": {"state": {"target": ["32"], "time": [5947]}, "edge": {"target": [], "time": []}}, "mouseout": {"state": {"target": ["24", "23", "0", "32", "22"], "time": [2971, 3072, 5823, 6820, 22176]}, "edge": {"target": [], "time": []}}}, "displayed_time": "19.02", "trialTime": 22426, "trial_type": "mouselab-mdp", "trial_index": 31, "time_elapsed": 1258047, "internal_node_id": "0.0-4.0-1.0-22.0"}}, {"uniqueid": "w26227067:a65280518", "current_trial": 32, "dateTime": 1691143336075, "trialdata": {"revealed_states": [], "clicked_states": [], "num_clicks_accrued": [0, 0, 0, 0, 0, 0, 0, 0, 0, 0, 0, 0, 0], "stateRewards": ["", 1, -1, 8, 4, 76, -33, -17, -3, -1, -54, -74, -2, 2, -5, 13, -51, 63, 83, 1, 84, 29, -36, 2, -1, 7, -12, -10, -44, -43, -14, 8, -69, 19], "withholdReward": false, "trial_id": "mdp_trial_24", "block": "test", "trialIndex": 25, "score": -47, "costs": 0, "simulationMode": [null, null, null, null, null], "rewards": [2, -1, 7, -12, -43], "path": ["0", "0", "23", "24", "25", "26", "29"], "rt": [4086, 16, 88, 71, 981], "actions": ["left", "left", "left", "up", "left"], "actionTimes": [14114, 14704, 15331, 15972, 17506], "queries": {"click": {"state": {"target": [], "time": []}, "edge": {"target": [], "time": []}}, "mouseover": {"state": {"target": ["28"], "time": [12882]}, "edge": {"target": [], "time": []}}, "mouseout": {"state": {"target": ["13", "12"], "time": [6776, 7019]}, "edge": {"target": [], "time": []}}}, "displayed_time": "24.03", "trialTime": 25927, "trial_type": "mouselab-mdp", "trial_index": 32, "time_elapsed": 1285758, "internal_node_id": "0.0-4.0-1.0-23.0"}}, {"uniqueid": "w26227067:a65280518", "current_trial": 33, "dateTime": 1691143359882, "trialdata": {"revealed_states": [], "clicked_states": ["7"], "num_clicks_accrued": [0, 0, 0, 0, 0, 0, 0, 0, 0, 0, 0, 0, 0], "stateRewards": ["", -1, -3, -6, 14, 41, 18, 63, -14, 80, 21, 17, -2, -4, -2, -5, 13, 70, 8, -4, -64, -10, -20, 2, -1, 4, -1, -17, -55, 42, -7, 47, 54, 15], "withholdReward": false, "trial_id": "mdp_trial_25", "block": "test", "trialIndex": 26, "score": 64.85, "costs": -2.15, "simulationMode": [null, null, null, null, null, null], "rewards": [-1, -3, -6, 14, 63], "path": ["0", "0", "1", "2", "3", "4", "7"], "rt": [4482, 1496, 215, 738, 157, 298], "actions": ["up", "up", "up", "up", "right", "down"], "actionTimes": [7091, 8600, 9337, 10586, 11277, 12110], "queries": {"click": {"state": {"target": ["7"], "time": [4384]}, "edge": {"target": [], "time": []}}, "mouseover": {"state": {"target": ["3", "7", "16"], "time": [3385, 3849, 4858]}, "edge": {"target": [], "time": []}}, "mouseout": {"state": {"target": ["28", "0", "3", "7"], "time": [1004, 3203, 3553, 4538]}, "edge": {"target": [], "time": []}}}, "displayed_time": "16.61", "trialTime": 21807, "trial_type": "mouselab-mdp", "trial_index": 33, "time_elapsed": 1309565, "internal_node_id": "0.0-4.0-1.0-24.0"}}, {"uniqueid": "w26227067:a65280518", "current_trial": 34, "dateTime": 1691143392235, "trialdata": {"revealed_states": [], "clicked_states": [], "num_clicks_accrued": [0, 0, 0, 0, 0, 0, 0, 0, 0, 0, 0, 0, 0], "stateRewards": ["", -2, 2, 8, -6, -25, 3, 87, 2, -62, -2, 74, -2, -1, 2, -1, 79, 49, -37, -14, 5, 67, -9, -1, 2, -2, 5, 15, 38, 32, -14, -38, -38, 30], "withholdReward": false, "trial_id": "mdp_trial_26", "block": "test", "trialIndex": 27, "score": 77, "costs": 0, "simulationMode": [null, null, null, null, null], "rewards": [-2, -1, 2, -1, 79], "path": ["0", "0", "12", "13", "14", "15", "16"], "rt": [5992, 50, 224, 8, 660], "actions": ["right", "right", "right", "up", "up"], "actionTimes": [12254, 12818, 13594, 14149, 15371], "queries": {"click": {"state": {"target": [], "time": []}, "edge": {"target": [], "time": []}}, "mouseover": {"state": {"target": ["25", "29", "28"], "time": [8183, 8831, 10750]}, "edge": {"target": [], "time": []}}, "mouseout": {"state": {"target": ["16", "18", "1", "0", "25", "29", "28"], "time": [4114, 4227, 4498, 8148, 8212, 10726, 10781]}, "edge": {"target": [], "time": []}}}, "displayed_time": "20.26", "trialTime": 30508, "trial_type": "mouselab-mdp", "trial_index": 34, "time_elapsed": 1341918, "internal_node_id": "0.0-4.0-1.0-25.0"}}, {"uniqueid": "w26227067:a65280518", "current_trial": 35, "dateTime": 1691143414878, "trialdata": {"revealed_states": [], "clicked_states": [], "num_clicks_accrued": [0, 0, 0, 0, 0, 0, 0, 0, 0, 0, 0, 0, 0], "stateRewards": ["", -2, -4, -6, 12, -58, -70, -80, 2, 16, -88, -62, 1, 2, -5, 11, 77, -35, -44, -5, 18, -83, 87, 1, -3, -5, 13, -44, -21, -86, 10, -52, 8, 29], "withholdReward": false, "trial_id": "mdp_trial_27", "block": "test", "trialIndex": 28, "score": -98, "costs": 0, "simulationMode": [null, null, null, null, null], "rewards": [-2, -4, -6, 2, -88], "path": ["0", "0", "1", "2", "3", "8", "10"], "rt": [5760, 183, 230, 267, 583], "actions": ["up", "up", "up", "left", "down"], "actionTimes": [9349, 10053, 10812, 11620, 12733], "queries": {"click": {"state": {"target": [], "time": []}, "edge": {"target": [], "time": []}}, "mouseover": {"state": {"target": ["10", "4", "3", "8", "10", "18"], "time": [5371, 5753, 5979, 6088, 7302, 8838]}, "edge": {"target": [], "time": []}}, "mouseout": {"state": {"target": ["10", "4", "3", "8", "10", "18"], "time": [5486, 5954, 6020, 6518, 8789, 8872]}, "edge": {"target": [], "time": []}}}, "displayed_time": "17.59", "trialTime": 20707, "trial_type": "mouselab-mdp", "trial_index": 35, "time_elapsed": 1364561, "internal_node_id": "0.0-4.0-1.0-26.0"}}, {"uniqueid": "w26227067:a65280518", "current_trial": 36, "dateTime": 1691143435228, "trialdata": {"revealed_states": [], "clicked_states": ["10"], "num_clicks_accrued": [0, 0, 0, 0, 0, 0, 0, 0, 0, 0, 0, 0, 0], "stateRewards": ["", -1, 4, -8, 12, 14, 69, -8, 5, -72, -14, 56, -1, -1, -1, 9, 67, 19, 11, -9, -88, -58, 3, 2, -4, -8, 4, 62, 77, -74, 5, -31, 65, 88], "withholdReward": false, "trial_id": "mdp_trial_28", "block": "test", "trialIndex": 29, "score": -72.15, "costs": -2.15, "simulationMode": [null, null, null, null, null, null], "rewards": [-1, -1, -1, -9, -58], "path": ["0", "0", "12", "13", "14", "19", "21"], "rt": [3558, 3706, 971, 195, 105, 134], "actions": ["up", "right", "right", "right", "down", "down"], "actionTimes": [7192, 10911, 12402, 13219, 13858, 14524], "queries": {"click": {"state": {"target": ["10"], "time": [5272]}, "edge": {"target": [], "time": []}}, "mouseover": {"state": {"target": ["10"], "time": [4856]}, "edge": {"target": [], "time": []}}, "mouseout": {"state": {"target": ["18"], "time": [553]}, "edge": {"target": [], "time": []}}}, "displayed_time": "17.64", "trialTime": 18410, "trial_type": "mouselab-mdp", "trial_index": 36, "time_elapsed": 1384911, "internal_node_id": "0.0-4.0-1.0-27.0"}}, {"uniqueid": "w26227067:a65280518", "current_trial": 37, "dateTime": 1691143459058, "trialdata": {"revealed_states": [], "clicked_states": [], "num_clicks_accrued": [0, 0, 0, 0, 0, 0, 0, 0, 0, 0, 0, 0, 0], "stateRewards": ["", 1, 1, -5, 8, -6, 45, 16, -6, -7, -22, -38, -1, -4, 8, -11, -16, 21, -45, -15, -59, -32, 42, -1, 3, 6, 11, -7, 34, -27, -8, 85, 43, -9], "withholdReward": false, "trial_id": "mdp_trial_29", "block": "test", "trialIndex": 30, "score": -9, "costs": 0, "simulationMode": [null, null, null, null, null], "rewards": [-1, 3, 6, -8, -9], "path": ["0", "0", "23", "24", "25", "30", "33"], "rt": [7722, 9, 264, 180, 265], "actions": ["left", "left", "left", "down", "left"], "actionTimes": [13072, 13616, 14415, 15168, 16020], "queries": {"click": {"state": {"target": [], "time": []}, "edge": {"target": [], "time": []}}, "mouseover": {"state": {"target": ["23", "33", "30", "31"], "time": [10989, 11502, 11600, 11668]}, "edge": {"target": [], "time": []}}, "mouseout": {"state": {"target": ["10", "23", "33", "30", "31"], "time": [1965, 11029, 11530, 11642, 11697]}, "edge": {"target": [], "time": []}}}, "displayed_time": "19.35", "trialTime": 21137, "trial_type": "mouselab-mdp", "trial_index": 37, "time_elapsed": 1408741, "internal_node_id": "0.0-4.0-1.0-28.0"}}, {"uniqueid": "w26227067:a65280518", "current_trial": 38, "dateTime": 1691143483196, "trialdata": {"revealed_states": [], "clicked_states": [], "num_clicks_accrued": [0, 0, 0, 0, 0, 0, 0, 0, 0, 0, 0, 0, 0], "stateRewards": ["", 2, -1, 4, -9, -43, 7, 54, -13, 38, -40, -83, -1, 2, -8, -10, 34, -33, 11, -14, -79, 65, 26, 1, 2, 4, 10, 21, 1, 86, 4, -53, 28, -29], "withholdReward": false, "trial_id": "mdp_trial_30", "block": "test", "trialIndex": 31, "score": 3, "costs": 0, "simulationMode": [null, null, null, null, null], "rewards": [2, -1, 4, -9, 7], "path": ["0", "0", "1", "2", "3", "4", "6"], "rt": [1222, 32, 938, 101, 126], "actions": ["up", "up", "up", "right", "right"], "actionTimes": [4791, 5373, 6867, 7509, 8150], "queries": {"click": {"state": {"target": [], "time": []}, "edge": {"target": [], "time": []}}, "mouseover": {"state": {"target": [], "time": []}, "edge": {"target": [], "time": []}}, "mouseout": {"state": {"target": ["12", "0", "0", "12", "18", "16"], "time": [1027, 1328, 17446, 17482, 17537, 19364]}, "edge": {"target": [], "time": []}}}, "displayed_time": "17.57", "trialTime": 20455, "trial_type": "mouselab-mdp", "trial_index": 38, "time_elapsed": 1432879, "internal_node_id": "0.0-4.0-1.0-29.0"}}, {"uniqueid": "w26227067:a65280518", "current_trial": 39, "dateTime": 1691143506990, "trialdata": {"revealed_states": [], "clicked_states": [], "num_clicks_accrued": [0, 0, 0, 0, 0, 0, 0, 0, 0, 0, 0, 0, 0], "stateRewards": ["", -1, -4, -1, -5, -28, -23, -15, -15, -38, 59, -87, 2, 2, -5, 9, -55, -39, -71, -6, 85, -85, -11, -1, -2, 5, -10, 1, 25, 41, -4, 69, -35, 86], "withholdReward": false, "trial_id": "mdp_trial_31", "block": "test", "trialIndex": 32, "score": -7, "costs": 0, "simulationMode": [null, null, null, null, null], "rewards": [-1, -2, 5, -10, 1], "path": ["0", "0", "23", "24", "25", "26", "27"], "rt": [3884, 204, 167, 2140, 396], "actions": ["left", "left", "left", "up", "up"], "actionTimes": [6636, 7375, 8097, 10806, 11732], "queries": {"click": {"state": {"target": [], "time": []}, "edge": {"target": [], "time": []}}, "mouseover": {"state": {"target": [], "time": []}, "edge": {"target": [], "time": []}}, "mouseout": {"state": {"target": [], "time": []}, "edge": {"target": [], "time": []}}}, "displayed_time": "16.75", "trialTime": 19488, "trial_type": "mouselab-mdp", "trial_index": 39, "time_elapsed": 1456674, "internal_node_id": "0.0-4.0-1.0-30.0"}}, {"uniqueid": "w26227067:a65280518", "current_trial": 40, "dateTime": 1691143544317, "trialdata": {"revealed_states": [], "clicked_states": [], "num_clicks_accrued": [0, 0, 0, 0, 0, 0, 0, 0, 0, 0, 0, 0, 0], "stateRewards": ["", 2, -4, 7, 3, 23, -42, 4, 7, -81, -33, 7, -2, -4, 5, -1, 50, -57, -14, -13, -14, 44, 55, -2, -2, 5, -2, 33, 1, 57, -13, -7, 58, 87], "withholdReward": false, "trial_id": "mdp_trial_32", "block": "test", "trialIndex": 33, "score": 19, "costs": 0, "simulationMode": [null, null, null, null, null], "rewards": [2, -4, 7, 7, 7], "path": ["0", "0", "1", "2", "3", "8", "11"], "rt": [6207, 191, 276, 357, 811], "actions": ["up", "up", "up", "left", "left"], "actionTimes": [18441, 19206, 20006, 20909, 22256], "queries": {"click": {"state": {"target": [], "time": []}, "edge": {"target": [], "time": []}}, "mouseover": {"state": {"target": [], "time": []}, "edge": {"target": [], "time": []}}, "mouseout": {"state": {"target": ["0"], "time": [3334]}, "edge": {"target": [], "time": []}}}, "displayed_time": "26.23", "trialTime": 35418, "trial_type": "mouselab-mdp", "trial_index": 40, "time_elapsed": 1494000, "internal_node_id": "0.0-4.0-1.0-31.0"}}, {"uniqueid": "w26227067:a65280518", "current_trial": 41, "dateTime": 1691143584494, "trialdata": {"revealed_states": [], "clicked_states": ["17"], "num_clicks_accrued": [0, 0, 0, 0, 0, 0, 0, 0, 0, 0, 0, 0, 0], "stateRewards": ["", -2, -3, 1, -14, 48, -49, 67, -1, -35, -48, 3, -2, 1, -4, -5, 86, -84, 39, 1, 48, 41, -42, -1, -4, 2, -7, 18, -86, 17, 7, -9, 57, -69], "withholdReward": false, "trial_id": "mdp_trial_33", "block": "test", "trialIndex": 34, "score": 26.85, "costs": -2.15, "simulationMode": [null, null, null, null, null, null], "rewards": [-2, 1, -4, -5, 39], "path": ["0", "0", "12", "13", "14", "15", "18"], "rt": [4277, 2037, 264, 440, 424, 1163], "actions": ["right", "right", "right", "right", "up", "left"], "actionTimes": [22359, 24409, 25214, 26192, 27162, 28876], "queries": {"click": {"state": {"target": ["17"], "time": [19665]}, "edge": {"target": [], "time": []}}, "mouseover": {"state": {"target": ["0", "12", "14", "15", "17"], "time": [18543, 18622, 18710, 19037, 19362]}, "edge": {"target": [], "time": []}}, "mouseout": {"state": {"target": ["0", "0", "0", "0", "12", "14", "15", "17"], "time": [6510, 15612, 16090, 18592, 18654, 18891, 19230, 20667]}, "edge": {"target": [], "time": []}}}, "displayed_time": "32.08", "trialTime": 36705, "trial_type": "mouselab-mdp", "trial_index": 41, "time_elapsed": 1534177, "internal_node_id": "0.0-4.0-1.0-32.0"}}, {"uniqueid": "w26227067:a65280518", "current_trial": 42, "dateTime": 1691143610239, "trialdata": {"revealed_states": [], "clicked_states": [], "num_clicks_accrued": [0, 0, 0, 0, 0, 0, 0, 0, 0, 0, 0, 0, 0], "stateRewards": ["", -1, 3, -7, 16, -32, -74, -48, 2, 10, 15, -30, 1, 1, -2, 10, 12, -83, 67, 13, -66, 47, 65, -2, 4, 2, -14, -8, -57, 24, 9, 65, 12, 46], "withholdReward": false, "trial_id": "mdp_trial_34", "block": "test", "trialIndex": 35, "score": 59, "costs": 0, "simulationMode": [null, null, null, null, null], "rewards": [-2, 4, 2, 9, 46], "path": ["0", "0", "23", "24", "25", "30", "33"], "rt": [8092, 779, 326, 1815, 354], "actions": ["left", "left", "left", "down", "left"], "actionTimes": [14175, 15525, 16376, 18819, 19698], "queries": {"click": {"state": {"target": [], "time": []}, "edge": {"target": [], "time": []}}, "mouseover": {"state": {"target": ["5", "5", "9", "28", "25", "33"], "time": [9083, 9433, 9796, 11663, 11747, 11963]}, "edge": {"target": [], "time": []}}, "mouseout": {"state": {"target": ["20", "19", "22", "12", "0", "5", "5", "9", "28", "25"], "time": [3663, 3693, 4279, 4362, 8994, 9276, 9645, 11565, 11698, 11782]}, "edge": {"target": [], "time": []}}}, "displayed_time": "20.23", "trialTime": 23639, "trial_type": "mouselab-mdp", "trial_index": 42, "time_elapsed": 1559922, "internal_node_id": "0.0-4.0-1.0-33.0"}}, {"uniqueid": "w26227067:a65280518", "current_trial": 43, "dateTime": 1691143636101, "trialdata": {"revealed_states": [], "clicked_states": [], "num_clicks_accrued": [0, 0, 0, 0, 0, 0, 0, 0, 0, 0, 0, 0, 0], "stateRewards": ["", 1, 2, 8, -2, 23, -69, -18, -16, 54, -21, 71, -1, -4, 7, 11, 43, -6, 88, 6, -55, 72, 43, 1, -3, -2, -1, 68, -31, -54, 4, -8, 25, -2], "withholdReward": false, "trial_id": "mdp_trial_35", "block": "test", "trialIndex": 36, "score": 32, "costs": 0, "simulationMode": [null, null, null, null, null], "rewards": [1, 2, 8, -2, 23], "path": ["0", "0", "1", "2", "3", "4", "5"], "rt": [4267, 360, 279, 459, 1131], "actions": ["up", "up", "up", "right", "up"], "actionTimes": [9487, 10369, 11170, 12141, 13809], "queries": {"click": {"state": {"target": [], "time": []}, "edge": {"target": [], "time": []}}, "mouseover": {"state": {"target": [], "time": []}, "edge": {"target": [], "time": []}}, "mouseout": {"state": {"target": ["33", "30", "31", "0"], "time": [3164, 3198, 3221, 7218]}, "edge": {"target": [], "time": []}}}, "displayed_time": "19.22", "trialTime": 23387, "trial_type": "mouselab-mdp", "trial_index": 43, "time_elapsed": 1585783, "internal_node_id": "0.0-4.0-1.0-34.0"}}, {"uniqueid": "w26227067:a65280518", "current_trial": 44, "dateTime": 1691143658396, "trialdata": {"revealed_states": [], "clicked_states": [], "num_clicks_accrued": [0, 0, 0, 0, 0, 0, 0, 0, 0, 0, 0, 0, 0], "stateRewards": ["", -2, -4, -2, 10, -8, -15, -47, 7, -84, 53, 5, -1, 2, -7, 3, 83, 31, 47, -1, 30, -8, 69, 2, -4, -1, 8, -7, 12, -8, -8, -13, 30, -84], "withholdReward": false, "trial_id": "mdp_trial_36", "block": "test", "trialIndex": 37, "score": -15, "costs": 0, "simulationMode": [null, null, null, null, null], "rewards": [-1, 2, -7, -1, -8], "path": ["0", "0", "12", "13", "14", "19", "21"], "rt": [4725, 140, 191, 225, 1062], "actions": ["right", "right", "right", "down", "down"], "actionTimes": [8288, 8970, 9733, 10535, 12122], "queries": {"click": {"state": {"target": [], "time": []}, "edge": {"target": [], "time": []}}, "mouseover": {"state": {"target": [], "time": []}, "edge": {"target": [], "time": []}}, "mouseout": {"state": {"target": ["12", "0", "0"], "time": [1230, 1312, 5464]}, "edge": {"target": [], "time": []}}}, "displayed_time": "17.57", "trialTime": 19364, "trial_type": "mouselab-mdp", "trial_index": 44, "time_elapsed": 1608077, "internal_node_id": "0.0-4.0-1.0-35.0"}}, {"uniqueid": "w26227067:a65280518", "current_trial": 45, "dateTime": 1691143680620, "trialdata": {"revealed_states": [], "clicked_states": [], "num_clicks_accrued": [0, 0, 0, 0, 0, 0, 0, 0, 0, 0, 0, 0, 0], "stateRewards": ["", -2, -3, -3, 9, 79, 67, 22, -15, -56, 27, -85, -2, 4, -4, -15, -20, -32, 60, 15, 71, 57, 17, 1, 2, -8, 15, -37, -81, 82, 15, 21, -3, 2], "withholdReward": false, "trial_id": "mdp_trial_37", "block": "test", "trialIndex": 38, "score": 31, "costs": 0, "simulationMode": [null, null, null, null, null], "rewards": [1, 2, -8, 15, 21], "path": ["0", "0", "23", "24", "25", "30", "31"], "rt": [1168, 105, 87, 1389, 375], "actions": ["left", "left", "left", "down", "right"], "actionTimes": [5711, 6371, 7032, 8988, 9897], "queries": {"click": {"state": {"target": [], "time": []}, "edge": {"target": [], "time": []}}, "mouseover": {"state": {"target": [], "time": []}, "edge": {"target": [], "time": []}}, "mouseout": {"state": {"target": [], "time": []}, "edge": {"target": [], "time": []}}}, "displayed_time": "18.55", "trialTime": 20111, "trial_type": "mouselab-mdp", "trial_index": 45, "time_elapsed": 1630303, "internal_node_id": "0.0-4.0-1.0-36.0"}}, {"uniqueid": "w26227067:a65280518", "current_trial": 46, "dateTime": 1691143716545, "trialdata": {"revealed_states": [], "clicked_states": [], "num_clicks_accrued": [0, 0, 0, 0, 0, 0, 0, 0, 0, 0, 0, 0, 0], "stateRewards": ["", 2, -1, 1, 10, -52, 86, -22, -2, -14, -63, 38, 1, 3, 7, -8, 11, -32, -27, 9, -71, 40, -87, -2, -1, 5, -7, 12, 31, -57, 13, 86, -58, 29], "withholdReward": false, "trial_id": "mdp_trial_38", "block": "test", "trialIndex": 39, "score": -14, "costs": 0, "simulationMode": [null, null, null, null, null], "rewards": [2, -1, 1, -2, -14], "path": ["0", "0", "1", "2", "3", "8", "9"], "rt": [15113, 555, 267, 21, 229], "actions": ["up", "up", "up", "left", "up"], "actionTimes": [28388, 29461, 30269, 30870, 31629], "queries": {"click": {"state": {"target": [], "time": []}, "edge": {"target": [], "time": []}}, "mouseover": {"state": {"target": [], "time": []}, "edge": {"target": [], "time": []}}, "mouseout": {"state": {"target": ["0"], "time": [8265]}, "edge": {"target": [], "time": []}}}, "displayed_time": "32.17", "trialTime": 33869, "trial_type": "mouselab-mdp", "trial_index": 46, "time_elapsed": 1666228, "internal_node_id": "0.0-4.0-1.0-37.0"}}, {"uniqueid": "w26227067:a65280518", "current_trial": 47, "dateTime": 1691143746669, "trialdata": {"revealed_states": [], "clicked_states": [], "num_clicks_accrued": [0, 0, 0, 0, 0, 0, 0, 0, 0, 0, 0, 0, 0], "stateRewards": ["", -2, -3, 4, 1, 33, -53, 15, 9, -12, 61, -6, -2, 4, 6, -11, 47, -43, -7, -11, 46, 23, -28, -1, -1, 3, -10, 11, 76, -76, 10, 18, -38, 87], "withholdReward": false, "trial_id": "mdp_trial_39", "block": "test", "trialIndex": 40, "score": 29, "costs": 0, "simulationMode": [null, null, null, null, null], "rewards": [-1, -1, 3, 10, 18], "path": ["0", "0", "23", "24", "25", "30", "31"], "rt": [2215, 55, 12, 171, 189], "actions": ["left", "left", "left", "down", "right"], "actionTimes": [6439, 7028, 7649, 8363, 9092], "queries": {"click": {"state": {"target": [], "time": []}, "edge": {"target": [], "time": []}}, "mouseover": {"state": {"target": [], "time": []}, "edge": {"target": [], "time": []}}, "mouseout": {"state": {"target": ["0"], "time": [1706]}, "edge": {"target": [], "time": []}}}, "displayed_time": "18.23", "trialTime": 27271, "trial_type": "mouselab-mdp", "trial_index": 47, "time_elapsed": 1696351, "internal_node_id": "0.0-4.0-1.0-38.0"}}, {"uniqueid": "w26227067:a65280518", "current_trial": 48, "dateTime": 1691143769497, "trialdata": {"revealed_states": [], "clicked_states": [], "num_clicks_accrued": [0, 0, 0, 0, 0, 0, 0, 0, 0, 0, 0, 0, 0], "stateRewards": ["", -2, 3, -1, 2, -72, 63, 20, -1, 62, -66, 39, -2, 3, -6, 14, 22, 47, 1, 8, -49, -1, -41, 2, 2, -6, -16, -64, -60, -34, 16, 54, 22, -7], "withholdReward": false, "trial_id": "mdp_trial_40", "block": "test", "trialIndex": 41, "score": -70, "costs": 0, "simulationMode": [null, null, null, null, null], "rewards": [-2, 3, -1, 2, -72], "path": ["0", "0", "1", "2", "3", "4", "5"], "rt": [2178, 138, 21, 228, 521], "actions": ["up", "up", "up", "right", "up"], "actionTimes": [7222, 7917, 8654, 9560, 10651], "queries": {"click": {"state": {"target": [], "time": []}, "edge": {"target": [], "time": []}}, "mouseover": {"state": {"target": [], "time": []}, "edge": {"target": [], "time": []}}, "mouseout": {"state": {"target": ["0"], "time": [2764]}, "edge": {"target": [], "time": []}}}, "displayed_time": "19.05", "trialTime": 20888, "trial_type": "mouselab-mdp", "trial_index": 48, "time_elapsed": 1719180, "internal_node_id": "0.0-4.0-1.0-39.0"}}, {"uniqueid": "w26227067:a65280518", "current_trial": 49, "dateTime": 1691143855729, "trialdata": {"rt": 85663, "response": {"Q0": "$-88 to $88", "Q1": "$-32 to $32", "Q2": "$-88 to $88", "Q3": "The cost for clicking on nodes varied between nodes.", "Q4": "Very motivated"}, "question_order": [0, 1, 2, 3, 4], "trial_id": "final_quiz_control", "trial_type": "survey-multi-choice", "trial_index": 49, "time_elapsed": 1805412, "internal_node_id": "0.0-4.0-2.0"}}, {"uniqueid": "w26227067:a65280518", "current_trial": 50, "dateTime": 1691144018109, "trialdata": {"rt": 161044, "response": {"Q0": "The strategy I used was to trust my gut feeling. I did not have a specific way of making decisions.", "Q1": "More or less. I started clicking on nodes at beginning less, so that I could accumulate more.", "Q2": "It was not difficult. I just stopped overthinking my choices and trusted my instinct."}, "trial_id": "self_report_control", "trial_type": "survey-text", "trial_index": 50, "time_elapsed": 1967793, "internal_node_id": "0.0-4.0-3.0"}}, {"uniqueid": "w26227067:a65280518", "current_trial": 51, "dateTime": 1691144096475, "trialdata": {"rt": 78351, "response": {"Q0": "Agree", "Q1": "Disagree", "Q2": "Agree", "Q3": "Agree", "Q4": "Disagree", "Q5": "Agree", "Q6": "Disagree"}, "question_order": [0, 1, 2, 3, 4, 5, 6], "trial_id": "self_report_2", "trial_type": "survey-multi-choice", "trial_index": 51, "time_elapsed": 2046159, "internal_node_id": "0.0-4.0-4.0"}}, {"uniqueid": "w26227067:a65280518", "current_trial": 52, "dateTime": 1691144145157, "trialdata": {"rt": 48609, "response": {"gender": "female", "age": "20", "colorblind": "0", "effort": "1"}, "trial_type": "survey-html-form", "trial_index": 52, "time_elapsed": 2094841, "internal_node_id": "0.0-4.0-5.0"}}, {"uniqueid": "w26227067:a65280518", "current_trial": 53, "dateTime": 1691144185014, "trialdata": {"rt": 39845, "response": {"Q0": "No", "Q1": "No", "Q2": "No"}, "trial_type": "survey-text", "trial_index": 53, "time_elapsed": 2134698, "internal_node_id": "0.0-4.0-6.0"}}, {"uniqueid": "w26227067:a65280518", "current_trial": 54, "dateTime": 1691144201885, "trialdata": {"rt": 16806, "stimulus": "Press 'Finish HIT' in order to reach the completion code. Once the data has been saved, you will receive the code either in this window or in the original browser window where you started the experiment.\n", "response": 0, "trial_type": "html-button-response", "trial_index": 54, "time_elapsed": 2151568, "internal_node_id": "0.0-5.0"}}, {"uniqueid": "w26227067:a65280518", "current_trial": 55, "dateTime": 1691144203023, "trialdata": {"success": true, "trial_type": "fullscreen", "trial_index": 55, "time_elapsed": 2152707, "internal_node_id": "0.0-6.0"}}], "questiondata": {"params": {"CODE": "C6DMOQA6", "MIN_TIME": 14, "inspectCost": 1, "startTime": "Fri Aug 04 2023 11:40:47 GMT+0200 (South Africa Standard Time)", "bonusRate": 0.002, "variance": "1_2_4_8_44", "branching": "31123"}, "final_score": 318.25}, "eventdata": [{"eventtype": "initialized", "value": null, "timestamp": 1691142047030, "interval": 0}, {"eventtype": "window_resize", "value": [1024, 658], "timestamp": 1691142047030, "interval": 0}, {"eventtype": "window_resize", "value": [1024, 658], "timestamp": 1691142047620, "interval": 590}, {"eventtype": "window_resize", "value": [1366, 768], "timestamp": 1691142061155, "interval": 13535}], "useragent": "Mozilla/5.0 (Windows NT 10.0; Win64; x64) AppleWebKit/537.36 (KHTML, like Gecko) Chrome/115.0.0.0 Safari/537.36 Edg/115.0.1901.188", "mode": "live", "id": "w26227067:a65280518", "status": "user data saved", "Beginhit": "2023-08-04 09:40:44.951522", "Beginexp": "2023-08-04 09:41:03.766083", "Endhit": "2023-08-04 10:16:51.259145", "psiturkStatus": 3, "browser": "<redacted>", "platform": "windows", "language": "en-US"}