{"condition": 1, "counterbalance": 0, "assignmentId": "a43043188", "workerId": "w72770649", "hitId": "h68066640", "currenttrial": 56, "bonus": 0, "data": [{"uniqueid": "w72770649:a43043188", "current_trial": 0, "dateTime": 1693388946953, "trialdata": {"success": true, "trial_type": "fullscreen", "trial_index": 0, "time_elapsed": 5148, "internal_node_id": "0.0-0.0"}}, {"uniqueid": "w72770649:a43043188", "current_trial": 1, "dateTime": 1693388964357, "trialdata": {"view_history": [{"page_index": 0, "viewing_time": 17398}], "rt": 17398, "trial_id": "exp_instructions_misaligned", "trial_type": "instructions", "trial_index": 1, "time_elapsed": 22552, "internal_node_id": "0.0-1.0"}}, {"uniqueid": "w72770649:a43043188", "current_trial": 2, "dateTime": 1693389257325, "trialdata": {"view_history": [{"page_index": 0, "viewing_time": 76231}, {"page_index": 1, "viewing_time": 99510}, {"page_index": 2, "viewing_time": 23095}, {"page_index": 3, "viewing_time": 94130}], "rt": 292966, "trial_id": "mouselab_instructions_1_misaligned", "trial_type": "instructions", "trial_index": 2, "time_elapsed": 315520, "internal_node_id": "0.0-2.0-1.0"}}, {"uniqueid": "w72770649:a43043188", "current_trial": 3, "dateTime": 1693389282343, "trialdata": {"revealed_states": [], "clicked_states": [], "num_clicks_accrued": [0, 0, 0, 0, 0, 0, 0, 0, 0, 0, 0, 0, 0], "stateRewards": ["", 10, 10, 10, -10, -10, -10, 10, -10, -10, 10, -10, -10, 10, 10, 10, -10, -10, 10, -10, 10, -10, 10, 10, 10, 10, -10, -10, 10, 10, -10, 10, -10, 10], "withholdReward": false, "trial_id": "practice_1", "block": "test", "trialIndex": 0, "score": -6.5, "costs": 0, "simulationMode": [null, null, null, null, null], "rewards": [-10, 10, 10, -10, -10], "path": ["0", "0", "12", "13", "14", "19", "21"], "rt": [1168, 812, 328, 404, 34], "actions": ["right", "right", "right", "down", "down"], "actionTimes": [5455, 6785, 7635, 8560, 9105], "queries": {"click": {"state": {"target": [], "time": []}, "edge": {"target": [], "time": []}}, "mouseover": {"state": {"target": [], "time": []}, "edge": {"target": [], "time": []}}, "mouseout": {"state": {"target": ["0", "21"], "time": [14558, 16113]}, "edge": {"target": [], "time": []}}}, "displayed_time": "9.62", "trialTime": 23587, "trial_type": "mouselab-mdp", "trial_index": 3, "time_elapsed": 340538, "internal_node_id": "0.0-2.0-2.0-0.0"}}, {"uniqueid": "w72770649:a43043188", "current_trial": 4, "dateTime": 1693389300293, "trialdata": {"revealed_states": [], "clicked_states": ["1"], "num_clicks_accrued": [0, 0, 0, 0, 0, 0, 0, 0, 0, 0, 0, 0, 0], "stateRewards": ["", 10, 10, 10, -10, 10, 10, 10, -10, 10, -10, -10, -10, -10, 10, -10, -10, -10, 10, -10, -10, 10, -10, -10, -10, -10, -10, 10, -10, -10, -10, -10, 10, 10], "withholdReward": false, "trial_id": "practice_2", "block": "test", "trialIndex": 1, "score": 33, "costs": -0.5, "simulationMode": [null, null, null, null, null], "rewards": [10, 10, 10, -10, 10], "path": ["0", "0", "1", "2", "3", "4", "5"], "rt": [3736, 671, 295, 64, 789], "actions": ["up", "up", "up", "right", "up"], "actionTimes": [6648, 7838, 8643, 9211, 10519], "queries": {"click": {"state": {"target": ["1"], "time": [4267]}, "edge": {"target": [], "time": []}}, "mouseover": {"state": {"target": ["1", "23"], "time": [3587, 5333]}, "edge": {"target": [], "time": []}}, "mouseout": {"state": {"target": ["17", "1", "0", "1", "23"], "time": [1722, 1859, 3429, 4903, 17257]}, "edge": {"target": [], "time": []}}}, "displayed_time": "11.03", "trialTime": 17656, "trial_type": "mouselab-mdp", "trial_index": 4, "time_elapsed": 358487, "internal_node_id": "0.0-2.0-2.0-1.0"}}, {"uniqueid": "w72770649:a43043188", "current_trial": 5, "dateTime": 1693389360853, "trialdata": {"view_history": [{"page_index": 0, "viewing_time": 51403}, {"page_index": 1, "viewing_time": 9153}], "rt": 60557, "trial_id": "mouselab_instructions_2_misaligned", "trial_type": "instructions", "trial_index": 5, "time_elapsed": 419048, "internal_node_id": "0.0-2.0-3.0"}}, {"uniqueid": "w72770649:a43043188", "current_trial": 6, "dateTime": 1693389403946, "trialdata": {"rt": 43087, "response": {"Q0": "The cost for clicking on nodes may vary between nodes.", "Q1": "The better I perform the higher my bonus will be.", "Q2": "No, the amount of cash at each node of the web may be different each time.", "Q3": "To get the highest total score.", "Q4": "Only before moving the spider.", "Q5": "3 seconds"}, "question_order": [0, 1, 2, 3, 4, 5], "correct": {"Q0": "The cost for clicking on nodes may vary between nodes.", "Q1": "The better I perform the higher my bonus will be.", "Q2": "No, the amount of cash at each node of the web may be different each time.", "Q3": "To get the highest total score.", "Q4": "Only before moving the spider.", "Q5": "3 seconds"}, "trial_id": "mouselab_quiz_misaligned", "trial_type": "survey-multi-choice", "trial_index": 6, "time_elapsed": 462141, "internal_node_id": "0.0-2.0-4.0"}}, {"uniqueid": "w72770649:a43043188", "current_trial": 7, "dateTime": 1693389414667, "trialdata": {"rt": 10713, "response": {"Q0": "No"}, "question_order": [0], "trial_id": "repeat_check", "trial_type": "survey-multi-choice", "trial_index": 7, "time_elapsed": 472862, "internal_node_id": "0.0-4.0-0.0"}}, {"uniqueid": "w72770649:a43043188", "current_trial": 8, "dateTime": 1693389426378, "trialdata": {"rt": 11705, "stimulus": "\n<h1> Get ready to start the game! </h1>\n\nThank you for reading the instructions. Get ready start with the 40 rounds of this game.\n<br><br>\nIf you need to take a break, feel free to take one after the end of a round, before continuing to the next one.\n<br><br>\nRemember, the more money the spider gets, the bigger your bonus will be!\n<br><br>\n<div style='text-align: center;'>Press <code>space</code> to begin.</div>\n\n<br><br>\n(If, at any point, the <code>space</code> key does not take you to the next page, click once on the text and try again.)", "response": " ", "trial_id": "mdp_ready", "trial_type": "html-keyboard-response", "trial_index": 8, "time_elapsed": 484573, "internal_node_id": "0.0-6.0-0.0"}}, {"uniqueid": "w72770649:a43043188", "current_trial": 9, "dateTime": 1693389446535, "trialdata": {"revealed_states": [], "clicked_states": ["25"], "num_clicks_accrued": [0, 0, 0, 0, 0, 0, 0, 0, 0, 0, 0, 0, 0], "stateRewards": ["", -2, 4, -3, -13, 63, -36, 62, 11, 78, 34, -51, 2, -2, 8, -6, -40, -18, 31, 9, 64, 39, 79, 1, 4, -4, 15, -12, 76, 73, -10, -77, 86, -4], "withholdReward": false, "trial_id": "mdp_trial_1", "block": "test", "trialIndex": 2, "score": 55.05, "costs": -0.95, "simulationMode": [null, null, null, null, null], "rewards": [2, -2, 8, 9, 39], "path": ["0", "0", "12", "13", "14", "19", "21"], "rt": [3197, 134, 117, 31, 554], "actions": ["right", "right", "right", "down", "down"], "actionTimes": [6154, 6799, 7429, 7977, 9066], "queries": {"click": {"state": {"target": ["25"], "time": [4783]}, "edge": {"target": [], "time": []}}, "mouseover": {"state": {"target": ["28", "25"], "time": [3650, 4332]}, "edge": {"target": [], "time": []}}, "mouseout": {"state": {"target": ["13", "12", "23", "0", "28", "25", "24", "12", "13", "14"], "time": [1606, 1700, 2033, 3383, 3916, 11483, 11510, 11625, 11643, 11710]}, "edge": {"target": [], "time": []}}}, "displayed_time": "16.96", "trialTime": 19806, "trial_type": "mouselab-mdp", "trial_index": 9, "time_elapsed": 504729, "internal_node_id": "0.0-6.0-1.0-0.0"}}, {"uniqueid": "w72770649:a43043188", "current_trial": 10, "dateTime": 1693389466151, "trialdata": {"revealed_states": [], "clicked_states": ["2"], "num_clicks_accrued": [0, 0, 0, 0, 0, 0, 0, 0, 0, 0, 0, 0, 0], "stateRewards": ["", 2, 4, -5, 7, 81, 35, 6, 11, 14, -72, 42, -1, 2, 3, -7, -77, -44, -40, -15, -85, 51, -32, -2, -1, -5, 7, -74, 47, 52, 16, -49, 48, -46], "withholdReward": false, "trial_id": "mdp_trial_2", "block": "test", "trialIndex": 3, "score": 53.65, "costs": -0.35, "simulationMode": [null, null, null, null, null], "rewards": [2, 4, -5, 11, 42], "path": ["0", "0", "1", "2", "3", "8", "11"], "rt": [3432, 643, 435, 352, 471], "actions": ["up", "up", "up", "left", "left"], "actionTimes": [5409, 6561, 7502, 8368, 9352], "queries": {"click": {"state": {"target": ["2"], "time": [3182]}, "edge": {"target": [], "time": []}}, "mouseover": {"state": {"target": ["1", "2", "13", "13"], "time": [2421, 2719, 4467, 4767]}, "edge": {"target": [], "time": []}}, "mouseout": {"state": {"target": ["13", "12", "0", "1", "2", "13", "13"], "time": [954, 1020, 1539, 2453, 4268, 4517, 12231]}, "edge": {"target": [], "time": []}}}, "displayed_time": "15.99", "trialTime": 19329, "trial_type": "mouselab-mdp", "trial_index": 10, "time_elapsed": 524346, "internal_node_id": "0.0-6.0-1.0-1.0"}}, {"uniqueid": "w72770649:a43043188", "current_trial": 11, "dateTime": 1693389489048, "trialdata": {"revealed_states": [], "clicked_states": ["20"], "num_clicks_accrued": [0, 0, 0, 0, 0, 0, 0, 0, 0, 0, 0, 0, 0], "stateRewards": ["", -2, 1, -7, 9, 8, 25, 61, -7, -17, 69, -81, 1, 4, -4, -11, 16, 67, 44, 3, 6, -45, -54, -2, 3, 6, -11, -15, 32, -47, 3, -39, -6, -88], "withholdReward": false, "trial_id": "mdp_trial_3", "block": "test", "trialIndex": 4, "score": 7.85, "costs": -2.15, "simulationMode": [null, null, null, null, null, null], "rewards": [1, 4, -4, 3, 6], "path": ["0", "0", "12", "13", "14", "19", "20"], "rt": [4733, 1602, 174, 123, 2, 752], "actions": ["right", "right", "right", "right", "down", "right"], "actionTimes": [7522, 9127, 9820, 10452, 10962, 12246], "queries": {"click": {"state": {"target": ["20"], "time": [4919]}, "edge": {"target": [], "time": []}}, "mouseover": {"state": {"target": ["12", "20", "20"], "time": [3134, 3205, 3669]}, "edge": {"target": [], "time": []}}, "mouseout": {"state": {"target": ["20", "19", "22", "12", "0", "12", "20"], "time": [1319, 1437, 1557, 1867, 3117, 3150, 3217]}, "edge": {"target": [], "time": []}}}, "displayed_time": "16.79", "trialTime": 22610, "trial_type": "mouselab-mdp", "trial_index": 11, "time_elapsed": 547243, "internal_node_id": "0.0-6.0-1.0-2.0"}}, {"uniqueid": "w72770649:a43043188", "current_trial": 12, "dateTime": 1693389511098, "trialdata": {"revealed_states": [], "clicked_states": [], "num_clicks_accrued": [0, 0, 0, 0, 0, 0, 0, 0, 0, 0, 0, 0, 0], "stateRewards": ["", 1, -1, 4, 5, -32, 18, 20, 6, -88, -74, 9, -2, 1, -2, -14, 34, -77, -38, -1, 80, -36, 73, 2, 3, -8, 10, -48, -73, -71, -11, -22, 20, 54], "withholdReward": false, "trial_id": "mdp_trial_4", "block": "test", "trialIndex": 5, "score": 6, "costs": 0, "simulationMode": [null, null, null, null, null], "rewards": [2, 3, -8, -11, 20], "path": ["0", "0", "23", "24", "25", "30", "32"], "rt": [1352, 143, 162, 31, 11], "actions": ["left", "left", "left", "down", "down"], "actionTimes": [4350, 5000, 5668, 6218, 6764], "queries": {"click": {"state": {"target": [], "time": []}, "edge": {"target": [], "time": []}}, "mouseover": {"state": {"target": [], "time": []}, "edge": {"target": [], "time": []}}, "mouseout": {"state": {"target": ["20", "14", "13", "12", "0", "12", "12"], "time": [1785, 1826, 1976, 2023, 19991, 20090, 20506]}, "edge": {"target": [], "time": []}}}, "displayed_time": "17.01", "trialTime": 21705, "trial_type": "mouselab-mdp", "trial_index": 12, "time_elapsed": 569293, "internal_node_id": "0.0-6.0-1.0-3.0"}}, {"uniqueid": "w72770649:a43043188", "current_trial": 13, "dateTime": 1693389537511, "trialdata": {"revealed_states": [], "clicked_states": [], "num_clicks_accrued": [0, 0, 0, 0, 0, 0, 0, 0, 0, 0, 0, 0, 0], "stateRewards": ["", -1, -3, -6, -2, -7, 80, -45, -3, -38, -72, 76, 2, 1, 7, 4, -62, 14, -74, 14, -87, -21, -88, -2, 1, -7, -10, 66, 56, -76, 10, -29, -72, -70], "withholdReward": false, "trial_id": "mdp_trial_5", "block": "test", "trialIndex": 6, "score": -57, "costs": 0, "simulationMode": [null, null, null, null, null], "rewards": [-1, -3, -6, -2, -45], "path": ["0", "0", "1", "2", "3", "4", "7"], "rt": [424, 558, 133, 26, 65], "actions": ["up", "up", "up", "right", "down"], "actionTimes": [2613, 3679, 4318, 4861, 5433], "queries": {"click": {"state": {"target": [], "time": []}, "edge": {"target": [], "time": []}}, "mouseover": {"state": {"target": [], "time": []}, "edge": {"target": [], "time": []}}, "mouseout": {"state": {"target": ["0", "0", "12", "13"], "time": [1652, 14628, 14740, 16856]}, "edge": {"target": [], "time": []}}}, "displayed_time": "16.19", "trialTime": 25985, "trial_type": "mouselab-mdp", "trial_index": 13, "time_elapsed": 595705, "internal_node_id": "0.0-6.0-1.0-4.0"}}, {"uniqueid": "w72770649:a43043188", "current_trial": 14, "dateTime": 1693389558067, "trialdata": {"revealed_states": [], "clicked_states": ["14"], "num_clicks_accrued": [0, 0, 0, 0, 0, 0, 0, 0, 0, 0, 0, 0, 0], "stateRewards": ["", -1, -2, 8, -6, -79, -6, 87, 9, -5, -66, -38, 2, 2, 5, -6, -82, 74, 85, -8, 67, -30, -15, 1, -2, -2, -2, 87, 64, 49, 7, 2, -38, -9], "withholdReward": false, "trial_id": "mdp_trial_6", "block": "test", "trialIndex": 7, "score": -79.95, "costs": -0.95, "simulationMode": [null, null, null, null, null], "rewards": [2, 2, 5, -6, -82], "path": ["0", "0", "12", "13", "14", "15", "16"], "rt": [3578, 478, 302, 175, 53], "actions": ["right", "right", "right", "up", "up"], "actionTimes": [5364, 6354, 7176, 7865, 8425], "queries": {"click": {"state": {"target": ["14"], "time": [3475]}, "edge": {"target": [], "time": []}}, "mouseover": {"state": {"target": ["12", "14"], "time": [2376, 3025]}, "edge": {"target": [], "time": []}}, "mouseout": {"state": {"target": ["0", "12"], "time": [2344, 2610]}, "edge": {"target": [], "time": []}}}, "displayed_time": "15.80", "trialTime": 20207, "trial_type": "mouselab-mdp", "trial_index": 14, "time_elapsed": 616262, "internal_node_id": "0.0-6.0-1.0-5.0"}}, {"uniqueid": "w72770649:a43043188", "current_trial": 15, "dateTime": 1693389576381, "trialdata": {"revealed_states": [], "clicked_states": [], "num_clicks_accrued": [0, 0, 0, 0, 0, 0, 0, 0, 0, 0, 0, 0, 0], "stateRewards": ["", 1, -1, 1, -14, -10, 67, -28, -11, 72, 40, -65, -1, 1, 1, -2, 8, -55, 34, -10, 61, 33, -15, 2, -4, 7, 4, -75, 63, -21, -16, 61, 19, 21], "withholdReward": false, "trial_id": "mdp_trial_7", "block": "test", "trialIndex": 8, "score": 8, "costs": 0, "simulationMode": [null, null, null, null, null], "rewards": [2, -4, 7, -16, 19], "path": ["0", "0", "23", "24", "25", "30", "32"], "rt": [797, 490, 267, 70, 103], "actions": ["left", "left", "left", "down", "down"], "actionTimes": [3663, 4662, 5438, 6023, 6638], "queries": {"click": {"state": {"target": [], "time": []}, "edge": {"target": [], "time": []}}, "mouseover": {"state": {"target": [], "time": []}, "edge": {"target": [], "time": []}}, "mouseout": {"state": {"target": ["14"], "time": [879]}, "edge": {"target": [], "time": []}}}, "displayed_time": "16.87", "trialTime": 17885, "trial_type": "mouselab-mdp", "trial_index": 15, "time_elapsed": 634575, "internal_node_id": "0.0-6.0-1.0-6.0"}}, {"uniqueid": "w72770649:a43043188", "current_trial": 16, "dateTime": 1693389599539, "trialdata": {"revealed_states": [], "clicked_states": [], "num_clicks_accrued": [0, 0, 0, 0, 0, 0, 0, 0, 0, 0, 0, 0, 0], "stateRewards": ["", -1, 1, -1, 2, 19, 85, -18, 2, -3, -26, 36, 2, 4, 7, -9, -18, 70, 72, -5, 35, -20, -28, 1, -2, -4, -3, -59, -11, -63, -2, -72, 59, -69], "withholdReward": false, "trial_id": "mdp_trial_8", "block": "test", "trialIndex": 9, "score": -67, "costs": 0, "simulationMode": [null, null, null, null, null], "rewards": [1, -2, -4, -3, -59], "path": ["0", "0", "23", "24", "25", "26", "27"], "rt": [768, 94, 56, 669, 635], "actions": ["left", "left", "left", "up", "up"], "actionTimes": [2893, 3496, 4057, 5251, 6401], "queries": {"click": {"state": {"target": [], "time": []}, "edge": {"target": [], "time": []}}, "mouseover": {"state": {"target": [], "time": []}, "edge": {"target": [], "time": []}}, "mouseout": {"state": {"target": ["0", "18"], "time": [8679, 9513]}, "edge": {"target": [], "time": []}}}, "displayed_time": "21.13", "trialTime": 22775, "trial_type": "mouselab-mdp", "trial_index": 16, "time_elapsed": 657733, "internal_node_id": "0.0-6.0-1.0-7.0"}}, {"uniqueid": "w72770649:a43043188", "current_trial": 17, "dateTime": 1693389618928, "trialdata": {"revealed_states": [], "clicked_states": [], "num_clicks_accrued": [0, 0, 0, 0, 0, 0, 0, 0, 0, 0, 0, 0, 0], "stateRewards": ["", -2, -1, -2, -15, 87, 57, 29, -10, 77, -80, -7, 1, -3, 6, 14, -11, 87, -59, 4, -71, 16, -11, 2, 2, -7, 2, -47, 61, 50, 14, -20, 17, 81], "withholdReward": false, "trial_id": "mdp_trial_9", "block": "test", "trialIndex": 10, "score": 49, "costs": 0, "simulationMode": [null, null, null, null, null], "rewards": [2, 2, -7, 2, 50], "path": ["0", "0", "23", "24", "25", "26", "29"], "rt": [1741, 487, 199, 185, 41], "actions": ["left", "left", "left", "up", "left"], "actionTimes": [5442, 6436, 7145, 7847, 8402], "queries": {"click": {"state": {"target": [], "time": []}, "edge": {"target": [], "time": []}}, "mouseover": {"state": {"target": [], "time": []}, "edge": {"target": [], "time": []}}, "mouseout": {"state": {"target": ["15"], "time": [2547]}, "edge": {"target": [], "time": []}}}, "displayed_time": "17.70", "trialTime": 18983, "trial_type": "mouselab-mdp", "trial_index": 17, "time_elapsed": 677123, "internal_node_id": "0.0-6.0-1.0-8.0"}}, {"uniqueid": "w72770649:a43043188", "current_trial": 18, "dateTime": 1693389638386, "trialdata": {"revealed_states": [], "clicked_states": [], "num_clicks_accrued": [0, 0, 0, 0, 0, 0, 0, 0, 0, 0, 0, 0, 0], "stateRewards": ["", -1, 3, -4, -14, 78, 67, 2, 13, -32, 28, 39, -2, 1, -4, -4, -4, -42, -86, 11, 64, -29, -32, -1, -4, 2, -7, 5, 68, -61, 2, -21, 85, 50], "withholdReward": false, "trial_id": "mdp_trial_10", "block": "test", "trialIndex": 11, "score": -71, "costs": 0, "simulationMode": [null, null, null, null, null], "rewards": [-1, -4, 2, -7, -61], "path": ["0", "0", "23", "24", "25", "26", "29"], "rt": [977, 594, 334, 748, 4], "actions": ["left", "left", "left", "up", "left"], "actionTimes": [4132, 5248, 6085, 7349, 7870], "queries": {"click": {"state": {"target": [], "time": []}, "edge": {"target": [], "time": []}}, "mouseover": {"state": {"target": [], "time": []}, "edge": {"target": [], "time": []}}, "mouseout": {"state": {"target": ["1", "0", "12", "13", "14"], "time": [2252, 9082, 9097, 9128, 9196]}, "edge": {"target": [], "time": []}}}, "displayed_time": "17.16", "trialTime": 19063, "trial_type": "mouselab-mdp", "trial_index": 18, "time_elapsed": 696580, "internal_node_id": "0.0-6.0-1.0-9.0"}}, {"uniqueid": "w72770649:a43043188", "current_trial": 19, "dateTime": 1693389659631, "trialdata": {"revealed_states": [], "clicked_states": [], "num_clicks_accrued": [0, 0, 0, 0, 0, 0, 0, 0, 0, 0, 0, 0, 0], "stateRewards": ["", -2, -1, -4, -15, -14, -67, 32, -3, -59, 63, 31, 2, -1, -7, -15, 71, -66, -27, -3, -54, -39, 72, 2, 1, 1, -13, 77, -40, 35, -9, 35, 75, 57], "withholdReward": false, "trial_id": "mdp_trial_11", "block": "test", "trialIndex": 12, "score": 21, "costs": 0, "simulationMode": [null, null, null, null, null], "rewards": [-2, -1, -4, -3, 31], "path": ["0", "0", "1", "2", "3", "8", "11"], "rt": [1248, 655, 180, 153, 107], "actions": ["up", "up", "up", "left", "left"], "actionTimes": [6292, 7464, 8155, 8826, 9447], "queries": {"click": {"state": {"target": [], "time": []}, "edge": {"target": [], "time": []}}, "mouseover": {"state": {"target": [], "time": []}, "edge": {"target": [], "time": []}}, "mouseout": {"state": {"target": ["14", "13", "12", "0", "18", "15", "17"], "time": [3761, 3859, 3914, 13674, 13748, 13782, 13820]}, "edge": {"target": [], "time": []}}}, "displayed_time": "19.04", "trialTime": 20836, "trial_type": "mouselab-mdp", "trial_index": 19, "time_elapsed": 717825, "internal_node_id": "0.0-6.0-1.0-10.0"}}, {"uniqueid": "w72770649:a43043188", "current_trial": 20, "dateTime": 1693389680331, "trialdata": {"revealed_states": [], "clicked_states": [], "num_clicks_accrued": [0, 0, 0, 0, 0, 0, 0, 0, 0, 0, 0, 0, 0], "stateRewards": ["", -1, 1, 8, -3, -24, 11, -65, -6, -77, 48, 44, -2, 1, -2, -7, -55, -35, 33, 8, -28, 19, -53, -1, -1, -5, -5, -70, 10, 44, 8, -58, -70, 51], "withholdReward": false, "trial_id": "mdp_trial_12", "block": "test", "trialIndex": 13, "score": -75, "costs": 0, "simulationMode": [null, null, null, null, null], "rewards": [-1, 1, 8, -6, -77], "path": ["0", "0", "1", "2", "3", "8", "9"], "rt": [960, 3, 431, 901, 688], "actions": ["up", "up", "up", "left", "up"], "actionTimes": [4398, 4906, 5866, 7284, 8489], "queries": {"click": {"state": {"target": [], "time": []}, "edge": {"target": [], "time": []}}, "mouseover": {"state": {"target": [], "time": []}, "edge": {"target": [], "time": []}}, "mouseout": {"state": {"target": ["14", "13", "12"], "time": [2002, 2318, 2452]}, "edge": {"target": [], "time": []}}}, "displayed_time": "17.45", "trialTime": 20233, "trial_type": "mouselab-mdp", "trial_index": 20, "time_elapsed": 738526, "internal_node_id": "0.0-6.0-1.0-11.0"}}, {"uniqueid": "w72770649:a43043188", "current_trial": 21, "dateTime": 1693389703426, "trialdata": {"revealed_states": [], "clicked_states": [], "num_clicks_accrued": [0, 0, 0, 0, 0, 0, 0, 0, 0, 0, 0, 0, 0], "stateRewards": ["", 2, -3, -5, 5, 11, -9, -33, 6, 67, 6, -30, -1, -2, -6, 13, 55, 13, 72, -14, 75, 21, -66, -2, -4, 6, 15, -1, -35, 60, 2, 51, -73, 12], "withholdReward": false, "trial_id": "mdp_trial_13", "block": "test", "trialIndex": 14, "score": 6, "costs": 0, "simulationMode": [null, null, null, null, null], "rewards": [2, -3, -5, 6, 6], "path": ["0", "0", "1", "2", "3", "8", "10"], "rt": [1167, 352, 447, 8609, 482], "actions": ["up", "up", "up", "left", "down"], "actionTimes": [3919, 4787, 5748, 14876, 15874], "queries": {"click": {"state": {"target": [], "time": []}, "edge": {"target": [], "time": []}}, "mouseover": {"state": {"target": [], "time": []}, "edge": {"target": [], "time": []}}, "mouseout": {"state": {"target": ["0", "0", "1", "10", "8", "10", "10", "3"], "time": [7047, 7379, 7396, 7514, 9544, 9612, 12742, 13907]}, "edge": {"target": [], "time": []}}}, "displayed_time": "16.77", "trialTime": 22682, "trial_type": "mouselab-mdp", "trial_index": 21, "time_elapsed": 761621, "internal_node_id": "0.0-6.0-1.0-12.0"}}, {"uniqueid": "w72770649:a43043188", "current_trial": 22, "dateTime": 1693389720850, "trialdata": {"revealed_states": [], "clicked_states": [], "num_clicks_accrued": [0, 0, 0, 0, 0, 0, 0, 0, 0, 0, 0, 0, 0], "stateRewards": ["", 1, -3, -6, -5, 47, 80, -29, 11, -71, 10, -29, -2, 3, -6, 12, 2, -78, -6, 8, 34, -16, -5, -1, 3, 3, -13, 84, -36, -62, -3, -27, 66, 15], "withholdReward": false, "trial_id": "mdp_trial_14", "block": "test", "trialIndex": 15, "score": -26, "costs": 0, "simulationMode": [null, null, null, null, null], "rewards": [1, -3, -6, 11, -29], "path": ["0", "0", "1", "2", "3", "8", "11"], "rt": [573, 519, 127, 54, 809], "actions": ["up", "up", "up", "left", "left"], "actionTimes": [2044, 3086, 3727, 4303, 5640], "queries": {"click": {"state": {"target": [], "time": []}, "edge": {"target": [], "time": []}}, "mouseover": {"state": {"target": [], "time": []}, "edge": {"target": [], "time": []}}, "mouseout": {"state": {"target": ["8", "2", "1"], "time": [299, 433, 515]}, "edge": {"target": [], "time": []}}}, "displayed_time": "15.47", "trialTime": 16958, "trial_type": "mouselab-mdp", "trial_index": 22, "time_elapsed": 779044, "internal_node_id": "0.0-6.0-1.0-13.0"}}, {"uniqueid": "w72770649:a43043188", "current_trial": 23, "dateTime": 1693389739839, "trialdata": {"revealed_states": [], "clicked_states": [], "num_clicks_accrued": [0, 0, 0, 0, 0, 0, 0, 0, 0, 0, 0, 0, 0], "stateRewards": ["", 2, 3, 8, 14, 69, -27, 17, 2, -71, -65, -10, 2, -3, 7, 8, 65, -10, 65, -12, 73, -12, 13, -2, -2, 6, 10, -79, -69, -18, 10, -85, 67, 74], "withholdReward": false, "trial_id": "mdp_trial_15", "block": "test", "trialIndex": 16, "score": 96, "costs": 0, "simulationMode": [null, null, null, null, null], "rewards": [2, 3, 8, 14, 69], "path": ["0", "0", "1", "2", "3", "4", "5"], "rt": [552, 648, 157, 348, 35], "actions": ["up", "up", "up", "right", "up"], "actionTimes": [2096, 3253, 3929, 4787, 5338], "queries": {"click": {"state": {"target": [], "time": []}, "edge": {"target": [], "time": []}}, "mouseover": {"state": {"target": [], "time": []}, "edge": {"target": [], "time": []}}, "mouseout": {"state": {"target": [], "time": []}, "edge": {"target": [], "time": []}}}, "displayed_time": "15.55", "trialTime": 18506, "trial_type": "mouselab-mdp", "trial_index": 23, "time_elapsed": 798033, "internal_node_id": "0.0-6.0-1.0-14.0"}}, {"uniqueid": "w72770649:a43043188", "current_trial": 24, "dateTime": 1693389758839, "trialdata": {"revealed_states": [], "clicked_states": [], "num_clicks_accrued": [0, 0, 0, 0, 0, 0, 0, 0, 0, 0, 0, 0, 0], "stateRewards": ["", -2, -1, -5, 10, -36, -70, 68, -9, 86, 71, -10, 2, -4, 7, -7, 66, 44, -66, -13, -69, 43, 15, -2, 2, 6, -13, 62, 57, 50, -10, -69, 42, -72], "withholdReward": false, "trial_id": "mdp_trial_16", "block": "test", "trialIndex": 17, "score": 35, "costs": 0, "simulationMode": [null, null, null, null, null], "rewards": [2, -4, 7, -13, 43], "path": ["0", "0", "12", "13", "14", "19", "21"], "rt": [657, 649, 123, 61, 611], "actions": ["right", "right", "right", "down", "down"], "actionTimes": [2848, 4012, 4653, 5224, 6357], "queries": {"click": {"state": {"target": [], "time": []}, "edge": {"target": [], "time": []}}, "mouseover": {"state": {"target": [], "time": []}, "edge": {"target": [], "time": []}}, "mouseout": {"state": {"target": ["0"], "time": [15405]}, "edge": {"target": [], "time": []}}}, "displayed_time": "16.20", "trialTime": 18517, "trial_type": "mouselab-mdp", "trial_index": 24, "time_elapsed": 817034, "internal_node_id": "0.0-6.0-1.0-15.0"}}, {"uniqueid": "w72770649:a43043188", "current_trial": 25, "dateTime": 1693389781421, "trialdata": {"revealed_states": [], "clicked_states": [], "num_clicks_accrued": [0, 0, 0, 0, 0, 0, 0, 0, 0, 0, 0, 0, 0], "stateRewards": ["", -2, 4, 3, 5, -61, 4, 30, 1, -47, 83, 10, 1, 4, 7, -14, 19, -74, -83, 6, -2, -2, -65, -1, -2, 4, -11, 12, -1, -68, 11, -38, -28, 66], "withholdReward": false, "trial_id": "mdp_trial_17", "block": "test", "trialIndex": 18, "score": 14, "costs": 0, "simulationMode": [null, null, null, null, null], "rewards": [-2, 4, 3, 5, 4], "path": ["0", "0", "1", "2", "3", "4", "6"], "rt": [1023, 537, 260, 84, 77], "actions": ["up", "up", "up", "right", "right"], "actionTimes": [4004, 5061, 5832, 6424, 7016], "queries": {"click": {"state": {"target": [], "time": []}, "edge": {"target": [], "time": []}}, "mouseover": {"state": {"target": [], "time": []}, "edge": {"target": [], "time": []}}, "mouseout": {"state": {"target": ["0", "0"], "time": [18549, 18918]}, "edge": {"target": [], "time": []}}}, "displayed_time": "16.99", "trialTime": 22046, "trial_type": "mouselab-mdp", "trial_index": 25, "time_elapsed": 839615, "internal_node_id": "0.0-6.0-1.0-16.0"}}, {"uniqueid": "w72770649:a43043188", "current_trial": 26, "dateTime": 1693389798232, "trialdata": {"revealed_states": [], "clicked_states": [], "num_clicks_accrued": [0, 0, 0, 0, 0, 0, 0, 0, 0, 0, 0, 0, 0], "stateRewards": ["", 2, -1, 3, -12, -83, 6, -33, 9, 28, 24, -50, -2, -1, -2, -5, -87, 37, 82, 12, 80, -5, 10, -2, -3, -6, 9, 22, -1, 16, 9, 77, -62, 58], "withholdReward": false, "trial_id": "mdp_trial_18", "block": "test", "trialIndex": 19, "score": 87, "costs": 0, "simulationMode": [null, null, null, null, null], "rewards": [-2, -1, -2, 12, 80], "path": ["0", "0", "12", "13", "14", "19", "20"], "rt": [1484, 74, 368, 580, 12], "actions": ["right", "right", "right", "down", "right"], "actionTimes": [2697, 3289, 4166, 5261, 5791], "queries": {"click": {"state": {"target": [], "time": []}, "edge": {"target": [], "time": []}}, "mouseover": {"state": {"target": [], "time": []}, "edge": {"target": [], "time": []}}, "mouseout": {"state": {"target": ["0", "21"], "time": [10505, 11254]}, "edge": {"target": [], "time": []}}}, "displayed_time": "15.22", "trialTime": 16298, "trial_type": "mouselab-mdp", "trial_index": 26, "time_elapsed": 856427, "internal_node_id": "0.0-6.0-1.0-17.0"}}, {"uniqueid": "w72770649:a43043188", "current_trial": 27, "dateTime": 1693389821052, "trialdata": {"revealed_states": [], "clicked_states": [], "num_clicks_accrued": [0, 0, 0, 0, 0, 0, 0, 0, 0, 0, 0, 0, 0], "stateRewards": ["", 1, 1, -2, 7, -31, -6, 76, 1, -36, -16, -53, 2, 1, 7, 13, -47, -10, 47, -7, 72, 46, -56, -2, -2, -2, 11, -80, 44, 38, 16, 67, 85, -78], "withholdReward": false, "trial_id": "mdp_trial_19", "block": "test", "trialIndex": 20, "score": -68, "costs": 0, "simulationMode": [null, null, null, null, null], "rewards": [-2, -2, -2, 16, -78], "path": ["0", "0", "23", "24", "25", "30", "33"], "rt": [756, 384, 146, 10, 327], "actions": ["left", "left", "left", "down", "left"], "actionTimes": [4438, 5332, 5992, 6522, 7373], "queries": {"click": {"state": {"target": [], "time": []}, "edge": {"target": [], "time": []}}, "mouseover": {"state": {"target": [], "time": []}, "edge": {"target": [], "time": []}}, "mouseout": {"state": {"target": ["20", "14", "13", "12", "0", "0", "0"], "time": [1880, 1933, 1980, 2048, 2585, 3096, 20815]}, "edge": {"target": [], "time": []}}}, "displayed_time": "17.69", "trialTime": 22236, "trial_type": "mouselab-mdp", "trial_index": 27, "time_elapsed": 879246, "internal_node_id": "0.0-6.0-1.0-18.0"}}, {"uniqueid": "w72770649:a43043188", "current_trial": 28, "dateTime": 1693389842837, "trialdata": {"revealed_states": [], "clicked_states": [], "num_clicks_accrued": [0, 0, 0, 0, 0, 0, 0, 0, 0, 0, 0, 0, 0], "stateRewards": ["", -2, 2, -5, -6, 10, -66, -58, -10, -11, -63, -70, -1, -4, -5, 7, 66, -64, -43, -3, 45, -37, 4, -2, -2, -6, -4, -30, 33, 43, 15, -32, -65, -59], "withholdReward": false, "trial_id": "mdp_trial_20", "block": "test", "trialIndex": 21, "score": 32, "costs": 0, "simulationMode": [null, null, null, null, null], "rewards": [-1, -4, -5, -3, 45], "path": ["0", "0", "12", "13", "14", "19", "20"], "rt": [1438, 472, 196, 529, 34], "actions": ["right", "right", "right", "down", "right"], "actionTimes": [3683, 4677, 5384, 6433, 6970], "queries": {"click": {"state": {"target": [], "time": []}, "edge": {"target": [], "time": []}}, "mouseover": {"state": {"target": [], "time": []}, "edge": {"target": [], "time": []}}, "mouseout": {"state": {"target": ["1"], "time": [1389]}, "edge": {"target": [], "time": []}}}, "displayed_time": "16.26", "trialTime": 21234, "trial_type": "mouselab-mdp", "trial_index": 28, "time_elapsed": 901031, "internal_node_id": "0.0-6.0-1.0-19.0"}}, {"uniqueid": "w72770649:a43043188", "current_trial": 29, "dateTime": 1693389877483, "trialdata": {"revealed_states": [], "clicked_states": [], "num_clicks_accrued": [0, 0, 0, 0, 0, 0, 0, 0, 0, 0, 0, 0, 0], "stateRewards": ["", 2, 1, -3, 7, 46, 11, -36, 16, 71, 5, 1, 2, -2, -8, -3, -4, 6, 55, 7, 68, -54, 2, 1, 1, 6, -6, 42, -4, -84, -11, -65, 63, 25], "withholdReward": false, "trial_id": "mdp_trial_21", "block": "test", "trialIndex": 22, "score": 53, "costs": 0, "simulationMode": [null, null, null, null, null], "rewards": [2, 1, -3, 7, 46], "path": ["0", "0", "1", "2", "3", "4", "5"], "rt": [2378, 296, 57, 130, 1204], "actions": ["up", "up", "up", "right", "up"], "actionTimes": [4607, 5419, 5997, 6634, 8359], "queries": {"click": {"state": {"target": [], "time": []}, "edge": {"target": [], "time": []}}, "mouseover": {"state": {"target": [], "time": []}, "edge": {"target": [], "time": []}}, "mouseout": {"state": {"target": [], "time": []}, "edge": {"target": [], "time": []}}}, "displayed_time": "16.23", "trialTime": 34137, "trial_type": "mouselab-mdp", "trial_index": 29, "time_elapsed": 935677, "internal_node_id": "0.0-6.0-1.0-20.0"}}, {"uniqueid": "w72770649:a43043188", "current_trial": 30, "dateTime": 1693389895195, "trialdata": {"revealed_states": [], "clicked_states": [], "num_clicks_accrued": [0, 0, 0, 0, 0, 0, 0, 0, 0, 0, 0, 0, 0], "stateRewards": ["", 1, -2, -3, 14, -42, -87, -37, -11, -50, 33, -44, -2, 4, -7, 13, 48, -75, -66, 12, 23, -2, 82, 1, -4, 3, 12, 51, -15, -26, -11, -52, -29, 82], "withholdReward": false, "trial_id": "mdp_trial_22", "block": "test", "trialIndex": 23, "score": -59, "costs": 0, "simulationMode": [null, null, null, null, null], "rewards": [1, -2, -3, -11, -44], "path": ["0", "0", "1", "2", "3", "8", "11"], "rt": [2009, 369, 65, 293, 675], "actions": ["up", "up", "up", "left", "left"], "actionTimes": [4009, 4917, 5494, 6299, 7487], "queries": {"click": {"state": {"target": [], "time": []}, "edge": {"target": [], "time": []}}, "mouseover": {"state": {"target": [], "time": []}, "edge": {"target": [], "time": []}}, "mouseout": {"state": {"target": ["0", "12", "15", "18", "0", "12", "13", "14"], "time": [675, 697, 898, 930, 9009, 9073, 9158, 9256]}, "edge": {"target": [], "time": []}}}, "displayed_time": "16.01", "trialTime": 17223, "trial_type": "mouselab-mdp", "trial_index": 30, "time_elapsed": 953389, "internal_node_id": "0.0-6.0-1.0-21.0"}}, {"uniqueid": "w72770649:a43043188", "current_trial": 31, "dateTime": 1693389913145, "trialdata": {"revealed_states": [], "clicked_states": [], "num_clicks_accrued": [0, 0, 0, 0, 0, 0, 0, 0, 0, 0, 0, 0, 0], "stateRewards": ["", -1, 2, 5, -6, 13, -64, -47, 8, -79, -80, -33, 1, 2, -2, -16, 56, -71, -10, 3, 29, 44, 85, -1, 4, 5, 4, -36, -56, 19, 8, 52, -13, -2], "withholdReward": false, "trial_id": "mdp_trial_23", "block": "test", "trialIndex": 24, "score": -64, "costs": 0, "simulationMode": [null, null, null, null, null], "rewards": [-1, 2, 5, -6, -64], "path": ["0", "0", "1", "2", "3", "4", "6"], "rt": [698, 335, 83, 86, 817], "actions": ["up", "up", "up", "right", "right"], "actionTimes": [2808, 3662, 4260, 4862, 6193], "queries": {"click": {"state": {"target": [], "time": []}, "edge": {"target": [], "time": []}}, "mouseover": {"state": {"target": [], "time": []}, "edge": {"target": [], "time": []}}, "mouseout": {"state": {"target": ["22", "12"], "time": [891, 927]}, "edge": {"target": [], "time": []}}}, "displayed_time": "16.12", "trialTime": 17388, "trial_type": "mouselab-mdp", "trial_index": 31, "time_elapsed": 971340, "internal_node_id": "0.0-6.0-1.0-22.0"}}, {"uniqueid": "w72770649:a43043188", "current_trial": 32, "dateTime": 1693389931730, "trialdata": {"revealed_states": [], "clicked_states": [], "num_clicks_accrued": [0, 0, 0, 0, 0, 0, 0, 0, 0, 0, 0, 0, 0], "stateRewards": ["", 2, -4, -8, -15, 71, -43, -41, 7, -17, 20, 67, -1, -1, -4, 6, 37, -24, -47, 9, 34, 57, 45, 1, 2, -4, -5, -23, 88, -5, 13, -40, 43, 44], "withholdReward": false, "trial_id": "mdp_trial_24", "block": "test", "trialIndex": 25, "score": 60, "costs": 0, "simulationMode": [null, null, null, null, null], "rewards": [-1, -1, -4, 9, 57], "path": ["0", "0", "12", "13", "14", "19", "21"], "rt": [1596, 493, 223, 378, 1290], "actions": ["right", "right", "right", "down", "down"], "actionTimes": [3958, 4964, 5695, 6580, 8392], "queries": {"click": {"state": {"target": [], "time": []}, "edge": {"target": [], "time": []}}, "mouseover": {"state": {"target": [], "time": []}, "edge": {"target": [], "time": []}}, "mouseout": {"state": {"target": ["0", "0", "12"], "time": [2037, 10147, 10179]}, "edge": {"target": [], "time": []}}}, "displayed_time": "16.38", "trialTime": 18100, "trial_type": "mouselab-mdp", "trial_index": 32, "time_elapsed": 989924, "internal_node_id": "0.0-6.0-1.0-23.0"}}, {"uniqueid": "w72770649:a43043188", "current_trial": 33, "dateTime": 1693389950751, "trialdata": {"revealed_states": [], "clicked_states": [], "num_clicks_accrued": [0, 0, 0, 0, 0, 0, 0, 0, 0, 0, 0, 0, 0], "stateRewards": ["", 1, 2, -3, -5, 66, -50, -47, -5, 1, 28, -27, 1, 1, -1, -6, 37, -25, 56, 1, -82, -66, -40, -1, -4, -7, 15, -61, -23, 26, 10, 14, -56, 29], "withholdReward": false, "trial_id": "mdp_trial_25", "block": "test", "trialIndex": 26, "score": -38, "costs": 0, "simulationMode": [null, null, null, null, null], "rewards": [1, 1, -1, 1, -40], "path": ["0", "0", "12", "13", "14", "19", "22"], "rt": [1133, 73, 73, 285, 104], "actions": ["right", "right", "right", "down", "left"], "actionTimes": [4392, 4973, 5556, 6351, 6969], "queries": {"click": {"state": {"target": [], "time": []}, "edge": {"target": [], "time": []}}, "mouseover": {"state": {"target": [], "time": []}, "edge": {"target": [], "time": []}}, "mouseout": {"state": {"target": ["22", "0", "0", "12", "13", "14"], "time": [1951, 2000, 9050, 9177, 9327, 9477]}, "edge": {"target": [], "time": []}}}, "displayed_time": "17.27", "trialTime": 18520, "trial_type": "mouselab-mdp", "trial_index": 33, "time_elapsed": 1008945, "internal_node_id": "0.0-6.0-1.0-24.0"}}, {"uniqueid": "w72770649:a43043188", "current_trial": 34, "dateTime": 1693389981222, "trialdata": {"revealed_states": [], "clicked_states": [], "num_clicks_accrued": [0, 0, 0, 0, 0, 0, 0, 0, 0, 0, 0, 0, 0], "stateRewards": ["", -1, -3, 4, -10, -5, 79, -87, -2, 53, 29, -20, -2, -1, -5, 10, 27, 86, 46, -16, -29, 40, 3, 2, 4, -1, -6, 37, 79, -29, 7, 86, -62, 29], "withholdReward": false, "trial_id": "mdp_trial_26", "block": "test", "trialIndex": 27, "score": 78, "costs": 0, "simulationMode": [null, null, null, null, null], "rewards": [2, 4, -1, -6, 79], "path": ["0", "0", "23", "24", "25", "26", "28"], "rt": [926, 584, 303, 71, 45], "actions": ["left", "left", "left", "up", "right"], "actionTimes": [4472, 5565, 6382, 6965, 7521], "queries": {"click": {"state": {"target": [], "time": []}, "edge": {"target": [], "time": []}}, "mouseover": {"state": {"target": [], "time": []}, "edge": {"target": [], "time": []}}, "mouseout": {"state": {"target": ["13", "12"], "time": [2478, 2612]}, "edge": {"target": [], "time": []}}}, "displayed_time": "17.55", "trialTime": 29877, "trial_type": "mouselab-mdp", "trial_index": 34, "time_elapsed": 1039417, "internal_node_id": "0.0-6.0-1.0-25.0"}}, {"uniqueid": "w72770649:a43043188", "current_trial": 35, "dateTime": 1693390000382, "trialdata": {"revealed_states": [], "clicked_states": [], "num_clicks_accrued": [0, 0, 0, 0, 0, 0, 0, 0, 0, 0, 0, 0, 0], "stateRewards": ["", 1, 1, -3, 2, 22, -25, -11, -5, 50, 49, 3, 1, -1, 8, 14, -85, -30, 57, -6, -39, -16, 59, -2, -1, 5, 5, 59, -16, 8, 4, 67, 56, -9], "withholdReward": false, "trial_id": "mdp_trial_27", "block": "test", "trialIndex": 28, "score": -3, "costs": 0, "simulationMode": [null, null, null, null, null], "rewards": [1, 1, -3, -5, 3], "path": ["0", "0", "1", "2", "3", "8", "11"], "rt": [568, 228, 551, 373, 31], "actions": ["up", "up", "up", "left", "left"], "actionTimes": [2576, 3327, 4434, 5318, 5861], "queries": {"click": {"state": {"target": [], "time": []}, "edge": {"target": [], "time": []}}, "mouseover": {"state": {"target": [], "time": []}, "edge": {"target": [], "time": []}}, "mouseout": {"state": {"target": ["1", "0"], "time": [1113, 16283]}, "edge": {"target": [], "time": []}}}, "displayed_time": "16.01", "trialTime": 18599, "trial_type": "mouselab-mdp", "trial_index": 35, "time_elapsed": 1058577, "internal_node_id": "0.0-6.0-1.0-26.0"}}, {"uniqueid": "w72770649:a43043188", "current_trial": 36, "dateTime": 1693390019265, "trialdata": {"revealed_states": [], "clicked_states": ["23"], "num_clicks_accrued": [0, 0, 0, 0, 0, 0, 0, 0, 0, 0, 0, 0, 0], "stateRewards": ["", 2, 3, -2, -8, -8, -41, 74, 15, -23, -80, 1, 1, 3, 3, -15, -63, -78, 67, 13, 75, -41, 86, 2, -2, 6, -3, -8, -49, 50, -6, 83, 74, 80], "withholdReward": false, "trial_id": "mdp_trial_28", "block": "test", "trialIndex": 29, "score": -45.75, "costs": 0.25, "simulationMode": [null, null, null, null, null], "rewards": [2, 3, -2, -8, -41], "path": ["0", "0", "1", "2", "3", "4", "6"], "rt": [4246, 259, 79, 5, 514], "actions": ["up", "up", "up", "right", "right"], "actionTimes": [7644, 8425, 9011, 9535, 10582], "queries": {"click": {"state": {"target": ["23"], "time": [4922]}, "edge": {"target": [], "time": []}}, "mouseover": {"state": {"target": ["23"], "time": [4322]}, "edge": {"target": [], "time": []}}, "mouseout": {"state": {"target": ["0", "23"], "time": [4234, 6065]}, "edge": {"target": [], "time": []}}}, "displayed_time": "17.41", "trialTime": 18224, "trial_type": "mouselab-mdp", "trial_index": 36, "time_elapsed": 1077459, "internal_node_id": "0.0-6.0-1.0-27.0"}}, {"uniqueid": "w72770649:a43043188", "current_trial": 37, "dateTime": 1693390040476, "trialdata": {"revealed_states": [], "clicked_states": [], "num_clicks_accrued": [0, 0, 0, 0, 0, 0, 0, 0, 0, 0, 0, 0, 0], "stateRewards": ["", -1, 1, 6, -6, 70, 66, 67, -16, -75, -35, 37, -1, 4, 4, -6, 47, -9, 63, 15, 21, -63, 13, 1, 3, -6, 10, 79, -29, 18, -15, 9, -67, -19], "withholdReward": false, "trial_id": "mdp_trial_29", "block": "test", "trialIndex": 30, "score": -8, "costs": 0, "simulationMode": [null, null, null, null, null], "rewards": [1, 3, -6, -15, 9], "path": ["0", "0", "23", "24", "25", "30", "31"], "rt": [2203, 358, 186, 89, 31], "actions": ["left", "left", "left", "down", "right"], "actionTimes": [8159, 9024, 9718, 10320, 10862], "queries": {"click": {"state": {"target": [], "time": []}, "edge": {"target": [], "time": []}}, "mouseover": {"state": {"target": [], "time": []}, "edge": {"target": [], "time": []}}, "mouseout": {"state": {"target": ["0"], "time": [5223]}, "edge": {"target": [], "time": []}}}, "displayed_time": "19.96", "trialTime": 20651, "trial_type": "mouselab-mdp", "trial_index": 37, "time_elapsed": 1098670, "internal_node_id": "0.0-6.0-1.0-28.0"}}, {"uniqueid": "w72770649:a43043188", "current_trial": 38, "dateTime": 1693390058983, "trialdata": {"revealed_states": [], "clicked_states": [], "num_clicks_accrued": [0, 0, 0, 0, 0, 0, 0, 0, 0, 0, 0, 0, 0], "stateRewards": ["", -1, -4, -6, -15, 21, -67, -63, 9, 51, 69, -14, -1, 3, 8, -8, 39, 72, 63, 15, 19, 47, 15, 1, 4, 5, 16, -18, 34, 35, -14, -80, 40, 1], "withholdReward": false, "trial_id": "mdp_trial_30", "block": "test", "trialIndex": 31, "score": 40, "costs": 0, "simulationMode": [null, null, null, null, null], "rewards": [-1, 3, 8, 15, 15], "path": ["0", "0", "12", "13", "14", "19", "22"], "rt": [1689, 396, 86, 73, 93], "actions": ["right", "right", "right", "down", "left"], "actionTimes": [4506, 5421, 6059, 6646, 7250], "queries": {"click": {"state": {"target": [], "time": []}, "edge": {"target": [], "time": []}}, "mouseover": {"state": {"target": [], "time": []}, "edge": {"target": [], "time": []}}, "mouseout": {"state": {"target": ["1"], "time": [1842]}, "edge": {"target": [], "time": []}}}, "displayed_time": "16.82", "trialTime": 17901, "trial_type": "mouselab-mdp", "trial_index": 38, "time_elapsed": 1117178, "internal_node_id": "0.0-6.0-1.0-29.0"}}, {"uniqueid": "w72770649:a43043188", "current_trial": 39, "dateTime": 1693390076352, "trialdata": {"revealed_states": [], "clicked_states": [], "num_clicks_accrued": [0, 0, 0, 0, 0, 0, 0, 0, 0, 0, 0, 0, 0], "stateRewards": ["", -2, 2, 5, -14, -56, 64, 84, -5, 52, 39, 85, -2, 1, 7, 8, 21, 29, -78, -9, -10, -69, 10, -2, -1, -7, 15, 72, 20, 41, -2, 52, 80, 22], "withholdReward": false, "trial_id": "mdp_trial_31", "block": "test", "trialIndex": 32, "score": 85, "costs": 0, "simulationMode": [null, null, null, null, null], "rewards": [-2, 2, 5, -5, 85], "path": ["0", "0", "1", "2", "3", "8", "11"], "rt": [582, 436, 133, 509, 25], "actions": ["up", "up", "up", "left", "left"], "actionTimes": [2071, 3022, 3687, 4711, 5260], "queries": {"click": {"state": {"target": [], "time": []}, "edge": {"target": [], "time": []}}, "mouseover": {"state": {"target": [], "time": []}, "edge": {"target": [], "time": []}}, "mouseout": {"state": {"target": [], "time": []}, "edge": {"target": [], "time": []}}}, "displayed_time": "15.50", "trialTime": 16814, "trial_type": "mouselab-mdp", "trial_index": 39, "time_elapsed": 1134547, "internal_node_id": "0.0-6.0-1.0-30.0"}}, {"uniqueid": "w72770649:a43043188", "current_trial": 40, "dateTime": 1693390093618, "trialdata": {"revealed_states": [], "clicked_states": [], "num_clicks_accrued": [0, 0, 0, 0, 0, 0, 0, 0, 0, 0, 0, 0, 0], "stateRewards": ["", -1, 4, 3, 12, -27, 34, -33, 3, -63, 1, 6, 2, 2, -6, -11, -77, -85, 68, -6, 51, 81, -60, -2, -2, 1, 15, 20, 15, 68, -10, -14, 6, -4], "withholdReward": false, "trial_id": "mdp_trial_32", "block": "test", "trialIndex": 33, "score": -9, "costs": 0, "simulationMode": [null, null, null, null, null], "rewards": [-1, 4, 3, 12, -27], "path": ["0", "0", "1", "2", "3", "4", "5"], "rt": [943, 5, 21, 40, 103], "actions": ["up", "up", "up", "right", "up"], "actionTimes": [2611, 3133, 3682, 4252, 4880], "queries": {"click": {"state": {"target": [], "time": []}, "edge": {"target": [], "time": []}}, "mouseover": {"state": {"target": [], "time": []}, "edge": {"target": [], "time": []}}, "mouseout": {"state": {"target": [], "time": []}, "edge": {"target": [], "time": []}}}, "displayed_time": "15.67", "trialTime": 16621, "trial_type": "mouselab-mdp", "trial_index": 40, "time_elapsed": 1151812, "internal_node_id": "0.0-6.0-1.0-31.0"}}, {"uniqueid": "w72770649:a43043188", "current_trial": 41, "dateTime": 1693390112625, "trialdata": {"revealed_states": [], "clicked_states": [], "num_clicks_accrued": [0, 0, 0, 0, 0, 0, 0, 0, 0, 0, 0, 0, 0], "stateRewards": ["", -2, 2, -2, -7, -50, -62, -45, 7, 36, -24, -72, -1, -1, 8, -1, -67, 20, -52, 2, 35, -50, 80, -1, 1, 6, -6, -70, 6, 88, 8, -47, 74, -19], "withholdReward": false, "trial_id": "mdp_trial_33", "block": "test", "trialIndex": 34, "score": 88, "costs": 0, "simulationMode": [null, null, null, null, null], "rewards": [-1, -1, 8, 2, 80], "path": ["0", "0", "12", "13", "14", "19", "22"], "rt": [718, 359, 191, 807, 45], "actions": ["right", "right", "right", "down", "left"], "actionTimes": [2770, 3658, 4389, 5738, 6309], "queries": {"click": {"state": {"target": [], "time": []}, "edge": {"target": [], "time": []}}, "mouseover": {"state": {"target": [], "time": []}, "edge": {"target": [], "time": []}}, "mouseout": {"state": {"target": [], "time": []}, "edge": {"target": [], "time": []}}}, "displayed_time": "16.06", "trialTime": 18417, "trial_type": "mouselab-mdp", "trial_index": 41, "time_elapsed": 1170820, "internal_node_id": "0.0-6.0-1.0-32.0"}}, {"uniqueid": "w72770649:a43043188", "current_trial": 42, "dateTime": 1693390132420, "trialdata": {"revealed_states": [], "clicked_states": [], "num_clicks_accrued": [0, 0, 0, 0, 0, 0, 0, 0, 0, 0, 0, 0, 0], "stateRewards": ["", -2, -3, 8, 14, -73, 73, 84, -12, -2, -50, -17, 2, 1, -2, -9, -44, -27, -33, 16, -63, -47, -66, -2, 1, 4, -5, -33, -11, 50, 9, 38, -79, 31], "withholdReward": false, "trial_id": "mdp_trial_34", "block": "test", "trialIndex": 35, "score": -26, "costs": 0, "simulationMode": [null, null, null, null, null], "rewards": [-2, -3, 8, -12, -17], "path": ["0", "0", "1", "2", "3", "8", "11"], "rt": [883, 531, 178, 577, 136], "actions": ["up", "up", "up", "left", "left"], "actionTimes": [5073, 6145, 6845, 7977, 8647], "queries": {"click": {"state": {"target": [], "time": []}, "edge": {"target": [], "time": []}}, "mouseover": {"state": {"target": [], "time": []}, "edge": {"target": [], "time": []}}, "mouseout": {"state": {"target": [], "time": []}, "edge": {"target": [], "time": []}}}, "displayed_time": "18.20", "trialTime": 19232, "trial_type": "mouselab-mdp", "trial_index": 42, "time_elapsed": 1190615, "internal_node_id": "0.0-6.0-1.0-33.0"}}, {"uniqueid": "w72770649:a43043188", "current_trial": 43, "dateTime": 1693390150788, "trialdata": {"revealed_states": [], "clicked_states": [], "num_clicks_accrued": [0, 0, 0, 0, 0, 0, 0, 0, 0, 0, 0, 0, 0], "stateRewards": ["", 1, -2, -2, 10, -31, -77, 35, 9, -47, 8, 48, -2, 1, -4, -3, -26, -50, 43, -11, 76, -38, 17, 1, -1, 6, 10, 15, -9, 12, -8, 85, 11, -55], "withholdReward": false, "trial_id": "mdp_trial_35", "block": "test", "trialIndex": 36, "score": 1, "costs": 0, "simulationMode": [null, null, null, null, null], "rewards": [-2, 1, -4, -11, 17], "path": ["0", "0", "12", "13", "14", "19", "22"], "rt": [1442, 9, 273, 710, 93], "actions": ["right", "right", "right", "down", "left"], "actionTimes": [3670, 4207, 5068, 6289, 6905], "queries": {"click": {"state": {"target": [], "time": []}, "edge": {"target": [], "time": []}}, "mouseover": {"state": {"target": [], "time": []}, "edge": {"target": [], "time": []}}, "mouseout": {"state": {"target": [], "time": []}, "edge": {"target": [], "time": []}}}, "displayed_time": "16.25", "trialTime": 17705, "trial_type": "mouselab-mdp", "trial_index": 43, "time_elapsed": 1208983, "internal_node_id": "0.0-6.0-1.0-34.0"}}, {"uniqueid": "w72770649:a43043188", "current_trial": 44, "dateTime": 1693390167974, "trialdata": {"revealed_states": [], "clicked_states": [], "num_clicks_accrued": [0, 0, 0, 0, 0, 0, 0, 0, 0, 0, 0, 0, 0], "stateRewards": ["", -2, -3, -6, -7, 9, 16, 65, 5, -41, 20, -25, -1, -4, 1, -11, -49, -4, 71, 1, 39, -62, 52, -2, -3, 7, -9, -28, -70, 84, 8, 24, -58, 82], "withholdReward": false, "trial_id": "mdp_trial_36", "block": "test", "trialIndex": 37, "score": 34, "costs": 0, "simulationMode": [null, null, null, null, null], "rewards": [-2, -3, 7, 8, 24], "path": ["0", "0", "23", "24", "25", "30", "31"], "rt": [834, 444, 392, 626, 1038], "actions": ["left", "left", "left", "down", "right"], "actionTimes": [2730, 3720, 4667, 5800, 7361], "queries": {"click": {"state": {"target": [], "time": []}, "edge": {"target": [], "time": []}}, "mouseover": {"state": {"target": [], "time": []}, "edge": {"target": [], "time": []}}, "mouseout": {"state": {"target": [], "time": []}, "edge": {"target": [], "time": []}}}, "displayed_time": "15.91", "trialTime": 16553, "trial_type": "mouselab-mdp", "trial_index": 44, "time_elapsed": 1226168, "internal_node_id": "0.0-6.0-1.0-35.0"}}, {"uniqueid": "w72770649:a43043188", "current_trial": 45, "dateTime": 1693390185987, "trialdata": {"revealed_states": [], "clicked_states": [], "num_clicks_accrued": [0, 0, 0, 0, 0, 0, 0, 0, 0, 0, 0, 0, 0], "stateRewards": ["", -2, 3, 3, -14, 62, 36, 49, 16, 11, 17, -84, 2, -1, 6, 2, -82, -73, 49, -6, -87, 48, 50, -1, -2, -1, -16, -11, 37, -44, 4, 55, 73, -10], "withholdReward": false, "trial_id": "mdp_trial_37", "block": "test", "trialIndex": 38, "score": 51, "costs": 0, "simulationMode": [null, null, null, null, null], "rewards": [2, -1, 6, -6, 50], "path": ["0", "0", "12", "13", "14", "19", "22"], "rt": [2680, 105, 212, 82, 1939], "actions": ["right", "right", "right", "down", "left"], "actionTimes": [4862, 5499, 6255, 6856, 9363], "queries": {"click": {"state": {"target": [], "time": []}, "edge": {"target": [], "time": []}}, "mouseover": {"state": {"target": [], "time": []}, "edge": {"target": [], "time": []}}, "mouseout": {"state": {"target": ["0", "13"], "time": [11006, 11065]}, "edge": {"target": [], "time": []}}}, "displayed_time": "16.19", "trialTime": 17419, "trial_type": "mouselab-mdp", "trial_index": 45, "time_elapsed": 1244182, "internal_node_id": "0.0-6.0-1.0-36.0"}}, {"uniqueid": "w72770649:a43043188", "current_trial": 46, "dateTime": 1693390207842, "trialdata": {"revealed_states": [], "clicked_states": [], "num_clicks_accrued": [0, 0, 0, 0, 0, 0, 0, 0, 0, 0, 0, 0, 0], "stateRewards": ["", 1, -2, -8, -13, 4, 34, -84, -4, -49, 88, -70, -1, 3, -4, 10, -77, 13, -34, 15, -21, -16, 27, 1, -2, 8, -8, -6, 38, -26, 6, -15, 66, -3], "withholdReward": false, "trial_id": "mdp_trial_38", "block": "test", "trialIndex": 39, "score": -83, "costs": 0, "simulationMode": [null, null, null, null, null], "rewards": [1, -2, -8, -4, -70], "path": ["0", "0", "1", "2", "3", "8", "11"], "rt": [1052, 452, 190, 26, 1111], "actions": ["up", "up", "up", "left", "left"], "actionTimes": [6943, 7923, 8628, 9195, 10863], "queries": {"click": {"state": {"target": [], "time": []}, "edge": {"target": [], "time": []}}, "mouseover": {"state": {"target": [], "time": []}, "edge": {"target": [], "time": []}}, "mouseout": {"state": {"target": ["31"], "time": [4269]}, "edge": {"target": [], "time": []}}}, "displayed_time": "19.89", "trialTime": 21085, "trial_type": "mouselab-mdp", "trial_index": 46, "time_elapsed": 1266036, "internal_node_id": "0.0-6.0-1.0-37.0"}}, {"uniqueid": "w72770649:a43043188", "current_trial": 47, "dateTime": 1693390225838, "trialdata": {"revealed_states": [], "clicked_states": [], "num_clicks_accrued": [0, 0, 0, 0, 0, 0, 0, 0, 0, 0, 0, 0, 0], "stateRewards": ["", 1, -4, -6, 11, -20, 8, -30, 1, -38, 88, 42, 2, 3, 5, -12, -8, -74, 30, -8, 67, -19, 42, 2, -1, 4, 13, 50, -68, 2, -8, -15, 87, -46], "withholdReward": false, "trial_id": "mdp_trial_39", "block": "test", "trialIndex": 40, "score": 44, "costs": 0, "simulationMode": [null, null, null, null, null], "rewards": [2, 3, 5, -8, 42], "path": ["0", "0", "12", "13", "14", "19", "22"], "rt": [958, 79, 19, 15, 85], "actions": ["right", "right", "right", "down", "left"], "actionTimes": [3444, 4032, 4588, 5150, 5802], "queries": {"click": {"state": {"target": [], "time": []}, "edge": {"target": [], "time": []}}, "mouseover": {"state": {"target": [], "time": []}, "edge": {"target": [], "time": []}}, "mouseout": {"state": {"target": [], "time": []}, "edge": {"target": [], "time": []}}}, "displayed_time": "16.49", "trialTime": 17299, "trial_type": "mouselab-mdp", "trial_index": 47, "time_elapsed": 1284032, "internal_node_id": "0.0-6.0-1.0-38.0"}}, {"uniqueid": "w72770649:a43043188", "current_trial": 48, "dateTime": 1693390245855, "trialdata": {"revealed_states": [], "clicked_states": [], "num_clicks_accrued": [0, 0, 0, 0, 0, 0, 0, 0, 0, 0, 0, 0, 0], "stateRewards": ["", 2, -3, 5, 11, -79, 54, 11, -9, -78, 33, 22, -2, -1, 2, 14, 43, 34, 1, 10, 49, -65, 39, -1, 1, -1, 3, -16, -2, 11, 2, 12, 48, -65], "withholdReward": false, "trial_id": "mdp_trial_40", "block": "test", "trialIndex": 41, "score": 48, "costs": 0, "simulationMode": [null, null, null, null, null], "rewards": [-2, -1, 2, 10, 39], "path": ["0", "0", "12", "13", "14", "19", "22"], "rt": [1399, 110, 38, 695, 86], "actions": ["right", "right", "right", "down", "left"], "actionTimes": [4357, 5007, 5565, 6790, 7430], "queries": {"click": {"state": {"target": [], "time": []}, "edge": {"target": [], "time": []}}, "mouseover": {"state": {"target": [], "time": []}, "edge": {"target": [], "time": []}}, "mouseout": {"state": {"target": [], "time": []}, "edge": {"target": [], "time": []}}}, "displayed_time": "16.97", "trialTime": 19311, "trial_type": "mouselab-mdp", "trial_index": 48, "time_elapsed": 1304049, "internal_node_id": "0.0-6.0-1.0-39.0"}}, {"uniqueid": "w72770649:a43043188", "current_trial": 49, "dateTime": 1693390317083, "trialdata": {"rt": 71208, "response": {"Q0": "$-2 to $2", "Q1": "$-16 to $16", "Q2": "$-88 to $88", "Q3": "The cost for clicking on nodes varied between nodes.", "Q4": "Slightly motivated"}, "question_order": [0, 1, 2, 3, 4], "trial_id": "final_quiz_control", "trial_type": "survey-multi-choice", "trial_index": 49, "time_elapsed": 1375277, "internal_node_id": "0.0-6.0-2.0"}}, {"uniqueid": "w72770649:a43043188", "current_trial": 50, "dateTime": 1693390428558, "trialdata": {"rt": 111437, "response": {"Q0": "Rely on luck and if the score was higher using a certain path, stick to that path.", "Q1": "Just stick to the path the gives you a good score.", "Q2": "It wasn;t difficult but I was stubborn to click on the nodes to check their value as it could cost me."}, "trial_id": "self_report_control", "trial_type": "survey-text", "trial_index": 50, "time_elapsed": 1486753, "internal_node_id": "0.0-6.0-3.0"}}, {"uniqueid": "w72770649:a43043188", "current_trial": 51, "dateTime": 1693390494362, "trialdata": {"rt": 65797, "response": {"Q0": "Agree", "Q1": "Disagree", "Q2": "Strongly agree", "Q3": "Agree", "Q4": "Strongly disagree", "Q5": "Agree", "Q6": "Strongly disagree"}, "question_order": [0, 1, 2, 3, 4, 5, 6], "trial_id": "self_report_2", "trial_type": "survey-multi-choice", "trial_index": 51, "time_elapsed": 1552556, "internal_node_id": "0.0-6.0-4.0"}}, {"uniqueid": "w72770649:a43043188", "current_trial": 52, "dateTime": 1693390535243, "trialdata": {"rt": 40854, "response": {"gender": "female", "age": "24", "colorblind": "0", "effort": "1"}, "trial_type": "survey-html-form", "trial_index": 52, "time_elapsed": 1593438, "internal_node_id": "0.0-6.0-5.0"}}, {"uniqueid": "w72770649:a43043188", "current_trial": 53, "dateTime": 1693390679572, "trialdata": {"rt": 144319, "response": {"Q0": "The nodes part. Can't blame the game because it was explained throughly but initially it confused me so I opeted no to use the option to reveal the value of the nodes.", "Q1": "No, still don't believe I have.", "Q2": ""}, "trial_type": "survey-text", "trial_index": 53, "time_elapsed": 1737767, "internal_node_id": "0.0-6.0-6.0"}}, {"uniqueid": "w72770649:a43043188", "current_trial": 54, "dateTime": 1693390729726, "trialdata": {"rt": 50139, "stimulus": "<h1>Completion Code Instructions (1/2)</h1>\n<br><br><br><br>\nYou have reached the end of the experiment! The completion code consists of two parts: (1) a code with 2 characters (2) a code with 6 characters. On this page, you will receive the second part of the code. The first part of the completion code will be on the next page.\n<br><br>\nThe second part of your completion code is: <b>EWEK22</b>\n<br><br>\nPlease note this down. Then, press 'Finish HIT' in order to find the first part of your completion code. Once the data has been saved, you will receive this code either in this window or in the original browser window where you started the experiment.\n", "response": 0, "trial_type": "html-button-response", "trial_index": 54, "time_elapsed": 1787921, "internal_node_id": "0.0-6.0-7.0"}}, {"uniqueid": "w72770649:a43043188", "current_trial": 55, "dateTime": 1693390730738, "trialdata": {"success": true, "trial_type": "fullscreen", "trial_index": 55, "time_elapsed": 1788933, "internal_node_id": "0.0-7.0"}}], "questiondata": {"params": {"CODE": "C6DMOQA6", "MIN_TIME": 14, "inspectCost": 1, "startTime": "Wed Aug 30 2023 11:48:59 GMT+0200 (South Africa Standard Time)", "bonusRate": 0.002, "variance": "1_2_4_8_44", "branching": "31123"}}, "eventdata": [{"eventtype": "initialized", "value": null, "timestamp": 1693388938589, "interval": 0}, {"eventtype": "window_resize", "value": [1024, 646], "timestamp": 1693388938589, "interval": 0}, {"eventtype": "window_resize", "value": [1024, 646], "timestamp": 1693388939094, "interval": 505}, {"eventtype": "window_resize", "value": [1366, 768], "timestamp": 1693388946181, "interval": 7087}, {"eventtype": "window_resize", "value": [1024, 646], "timestamp": 1693389585622, "interval": 639441}, {"eventtype": "focus", "value": "off", "timestamp": 1693389587762, "interval": 2140}, {"eventtype": "focus", "value": "on", "timestamp": 1693389593773, "interval": 6011}, {"eventtype": "window_resize", "value": [1366, 662], "timestamp": 1693389595988, "interval": 2215}, {"eventtype": "focus", "value": "off", "timestamp": 1693390181452, "interval": 585464}, {"eventtype": "focus", "value": "on", "timestamp": 1693390182308, "interval": 856}], "useragent": "Mozilla/5.0 (Windows NT 10.0; Win64; x64) AppleWebKit/537.36 (KHTML, like Gecko) Chrome/116.0.0.0 Safari/537.36", "mode": "live", "id": "w72770649:a43043188", "status": "user data saved", "Beginhit": "2023-08-30 09:48:55.188669", "Beginexp": "2023-08-30 09:49:07.774849", "Endhit": "2023-08-30 10:18:51.991811", "psiturkStatus": 3, "browser": "<redacted>", "platform": "windows", "language": "en-US"}