{"condition": 1, "counterbalance": 0, "assignmentId": "a14512010", "workerId": "w41178685", "hitId": "h43070558", "currenttrial": 28, "bonus": 0, "data": [{"uniqueid": "w41178685:a14512010", "current_trial": 0, "dateTime": 1693390043345, "trialdata": {"success": true, "trial_type": "fullscreen", "trial_index": 0, "time_elapsed": 2403, "internal_node_id": "0.0-0.0"}}, {"uniqueid": "w41178685:a14512010", "current_trial": 1, "dateTime": 1693390072189, "trialdata": {"view_history": [{"page_index": 0, "viewing_time": 28839}], "rt": 28840, "trial_id": "exp_instructions_misaligned", "trial_type": "instructions", "trial_index": 1, "time_elapsed": 31247, "internal_node_id": "0.0-1.0"}}, {"uniqueid": "w41178685:a14512010", "current_trial": 2, "dateTime": 1693390933151, "trialdata": {"view_history": [{"page_index": 0, "viewing_time": 632684}, {"page_index": 1, "viewing_time": 100725}, {"page_index": 2, "viewing_time": 67494}, {"page_index": 3, "viewing_time": 60030}], "rt": 860935, "trial_id": "mouselab_instructions_1_misaligned", "trial_type": "instructions", "trial_index": 2, "time_elapsed": 892209, "internal_node_id": "0.0-2.0-1.0"}}, {"uniqueid": "w41178685:a14512010", "current_trial": 3, "dateTime": 1693391037531, "trialdata": {"revealed_states": [], "clicked_states": ["2", "3", "1", "28", "18", "15", "10", "8", "9"], "num_clicks_accrued": [0, 0, 0, 0, 0, 0, 0, 0, 0, 0, 0, 0, 0], "stateRewards": ["", -10, -10, 10, 10, -10, 10, 10, 10, 10, 10, 10, 10, -10, 10, 10, 10, 10, -10, 10, 10, 10, 10, -10, 10, 10, -10, -10, 10, 10, -10, -10, 10, -10], "withholdReward": false, "trial_id": "practice_1", "block": "test", "trialIndex": 0, "score": 9, "costs": -4.5, "simulationMode": [null, null, null, null, null], "rewards": [10, -10, 10, 10, -10], "path": ["0", "0", "12", "13", "14", "15", "18"], "rt": [81134, 2222, 123, 4073, 482], "actions": ["right", "right", "right", "up", "left"], "actionTimes": [83863, 86597, 87229, 91813, 92805], "queries": {"click": {"state": {"target": ["2", "3", "1", "28", "18", "15", "10", "8", "9"], "time": [5102, 9818, 15241, 17041, 23505, 24665, 30401, 31768, 34241]}, "edge": {"target": [], "time": []}}, "mouseover": {"state": {"target": ["1", "2", "7", "4", "3", "4", "7", "22", "2", "1", "28", "26", "12", "1", "18", "18", "18", "18", "15", "14", "13", "2", "10", "8", "9", "1", "12", "2", "2", "2", "1", "2", "7", "18", "14", "19"], "time": [4318, 4702, 8985, 9235, 9635, 10602, 11901, 12684, 14534, 15034, 16884, 17735, 21101, 21634, 22534, 22789, 23100, 23417, 24335, 25118, 29566, 29917, 30200, 31034, 34017, 34917, 41866, 41950, 42050, 42216, 43216, 44783, 45533, 45683, 46816, 46933]}, "edge": {"target": [], "time": []}}, "mouseout": {"state": {"target": ["22", "0", "1", "2", "2", "7", "4", "3", "4", "7", "22", "2", "1", "1", "28", "28", "26", "28", "12", "1", "18", "18", "18", "18", "18", "15", "14", "13", "2", "10", "8", "9", "8", "1", "12", "2", "2", "2", "1", "2", "7", "18", "14", "19", "14", "20", "21"], "time": [785, 2285, 4402, 5586, 6318, 9185, 9601, 10351, 11868, 11918, 12801, 15001, 16301, 16773, 17141, 17701, 18734, 18851, 21217, 21749, 22667, 22884, 23134, 23735, 24318, 25051, 25317, 29684, 29966, 30817, 33749, 34784, 34834, 34984, 41883, 41967, 42083, 43183, 44733, 44866, 45634, 46199, 46899, 46983, 89270, 89636, 90603]}, "edge": {"target": [], "time": []}}}, "displayed_time": "93.32", "trialTime": 103477, "trial_type": "mouselab-mdp", "trial_index": 3, "time_elapsed": 996588, "internal_node_id": "0.0-2.0-2.0-0.0"}}, {"uniqueid": "w41178685:a14512010", "current_trial": 4, "dateTime": 1693391096342, "trialdata": {"revealed_states": [], "clicked_states": ["1", "3", "5", "9", "6", "2", "10", "23", "25", "12", "13", "14"], "num_clicks_accrued": [0, 0, 0, 0, 0, 0, 0, 0, 0, 0, 0, 0, 0], "stateRewards": ["", 10, 10, -10, 10, -10, 10, 10, -10, 10, -10, 10, 10, -10, -10, 10, 10, -10, -10, -10, -10, -10, -10, -10, 10, 10, 10, -10, -10, -10, 10, 10, 10, -10], "withholdReward": false, "trial_id": "practice_2", "block": "test", "trialIndex": 1, "score": -32.5, "costs": -6, "simulationMode": [null, null, null, null, null, null], "rewards": [10, -10, -10, -10, -10], "path": ["0", "0", "12", "13", "14", "19", "21"], "rt": [3454, 40283, 47, 296, 2056, 345], "actions": ["up", "right", "right", "right", "down", "down"], "actionTimes": [5270, 45561, 46120, 46952, 49528, 50384], "queries": {"click": {"state": {"target": ["1", "3", "5", "9", "6", "2", "10", "23", "25", "12", "13", "14"], "time": [3028, 4412, 9220, 11068, 16571, 18348, 19420, 20652, 22148, 28139, 29899, 31131]}, "edge": {"target": [], "time": []}}, "mouseover": {"state": {"target": ["0", "0", "1", "2", "1", "2", "3", "2", "3", "5", "4", "3", "8", "9", "8", "11", "8", "10", "4", "5", "6", "7", "7", "2", "2", "10", "23", "24", "25", "24", "2", "2", "2", "2", "1", "12", "13", "14", "18", "7", "12", "1", "2", "3", "0", "0", "12", "12", "13"], "time": [1888, 2450, 2500, 2550, 2867, 3567, 4250, 8466, 8650, 8883, 9800, 10400, 10450, 10916, 11450, 11716, 12649, 12983, 15199, 15349, 16299, 17183, 17872, 18082, 18233, 19300, 20183, 21050, 21965, 22450, 23233, 25466, 27049, 27383, 27549, 27949, 28716, 30966, 38469, 38520, 38752, 39137, 39669, 40553, 41170, 41553, 41653, 41953, 44091]}, "edge": {"target": [], "time": []}}, "mouseout": {"state": {"target": ["0", "0", "0", "1", "2", "1", "2", "3", "2", "3", "5", "4", "3", "8", "9", "9", "8", "11", "8", "10", "4", "5", "6", "7", "7", "2", "2", "10", "23", "24", "25", "24", "10", "2", "2", "2", "2", "1", "12", "13", "14", "18", "7", "12", "1", "2", "3", "0", "0", "12", "12"], "time": [1566, 2017, 2467, 2517, 2817, 3500, 4133, 8416, 8616, 8683, 9600, 10383, 10416, 10856, 11154, 11350, 11683, 12466, 12849, 14799, 15282, 15899, 16717, 17783, 17982, 18116, 19217, 19916, 20727, 21799, 22416, 22500, 23000, 24166, 26116, 27116, 27516, 27583, 28666, 30366, 32066, 38487, 38537, 38970, 39620, 39833, 40970, 41220, 41619, 41686, 43486]}, "edge": {"target": [], "time": []}}}, "displayed_time": "50.91", "trialTime": 58552, "trial_type": "mouselab-mdp", "trial_index": 4, "time_elapsed": 1055399, "internal_node_id": "0.0-2.0-2.0-1.0"}}, {"uniqueid": "w41178685:a14512010", "current_trial": 5, "dateTime": 1693391125403, "trialdata": {"view_history": [{"page_index": 0, "viewing_time": 8595}, {"page_index": 1, "viewing_time": 2880}, {"page_index": 0, "viewing_time": 14480}, {"page_index": 1, "viewing_time": 3104}], "rt": 29058, "trial_id": "mouselab_instructions_2_misaligned", "trial_type": "instructions", "trial_index": 5, "time_elapsed": 1084461, "internal_node_id": "0.0-2.0-3.0"}}, {"uniqueid": "w41178685:a14512010", "current_trial": 6, "dateTime": 1693391537101, "trialdata": {"rt": 411649, "response": {"Q0": "The cost for clicking on nodes may vary between nodes.", "Q1": "The better I perform the higher my bonus will be.", "Q2": "No, the amount of cash at each node of the web may be different each time.", "Q3": "To get the highest total score.", "Q4": "Any time during the round.", "Q5": "3 seconds"}, "question_order": [0, 1, 2, 3, 4, 5], "correct": {"Q0": "The cost for clicking on nodes may vary between nodes.", "Q1": "The better I perform the higher my bonus will be.", "Q2": "No, the amount of cash at each node of the web may be different each time.", "Q3": "To get the highest total score.", "Q4": "Only before moving the spider.", "Q5": "3 seconds"}, "trial_id": "mouselab_quiz_misaligned", "trial_type": "survey-multi-choice", "trial_index": 6, "time_elapsed": 1496159, "internal_node_id": "0.0-2.0-4.0"}}, {"uniqueid": "w41178685:a14512010", "current_trial": 7, "dateTime": 1693391559809, "trialdata": {"success": true, "trial_type": "fullscreen", "trial_index": 7, "time_elapsed": 1518867, "internal_node_id": "0.0-2.1-0.1-0.1"}}, {"uniqueid": "w41178685:a14512010", "current_trial": 8, "dateTime": 1693391613966, "trialdata": {"view_history": [{"page_index": 0, "viewing_time": 14321}, {"page_index": 1, "viewing_time": 18359}, {"page_index": 2, "viewing_time": 9232}, {"page_index": 3, "viewing_time": 12240}], "rt": 54152, "trial_id": "mouselab_instructions_1_misaligned", "trial_type": "instructions", "trial_index": 8, "time_elapsed": 1573024, "internal_node_id": "0.0-2.1-1.1"}}, {"uniqueid": "w41178685:a14512010", "current_trial": 9, "dateTime": 1693391652290, "trialdata": {"revealed_states": [], "clicked_states": ["1", "3", "2", "18", "15", "17"], "num_clicks_accrued": [0, 0, 0, 0, 0, 0, 0, 0, 0, 0, 0, 0, 0], "stateRewards": ["", -10, -10, 10, 10, -10, 10, 10, 10, 10, 10, 10, 10, -10, 10, 10, 10, 10, -10, 10, 10, 10, 10, -10, 10, 10, -10, -10, 10, 10, -10, -10, 10, -10], "withholdReward": false, "trial_id": "practice_1", "block": "test", "trialIndex": 2, "score": 10.5, "costs": -3, "simulationMode": [null, null, null, null, null], "rewards": [-10, -10, 10, 10, 10], "path": ["0", "0", "1", "2", "3", "4", "6"], "rt": [21267, 283, 412, 6631, 393], "actions": ["up", "up", "up", "right", "right"], "actionTimes": [23011, 23802, 24730, 31881, 32793], "queries": {"click": {"state": {"target": ["1", "3", "2", "18", "15", "17"], "time": [7179, 8377, 12081, 14433, 15545, 16906]}, "edge": {"target": [], "time": []}}, "mouseover": {"state": {"target": ["0", "1", "2", "3", "2", "4", "7", "18", "2", "2", "1", "18", "18", "15", "15", "17", "13", "12", "1", "2", "3", "2", "1", "0", "0", "1", "2"], "time": [6883, 6982, 7416, 7999, 9082, 10565, 10666, 11315, 11581, 11916, 12816, 13765, 14199, 14799, 15415, 15765, 18648, 18732, 19132, 20098, 20832, 21248, 21282, 21315, 21498, 21815, 22133]}, "edge": {"target": [], "time": []}}, "mouseout": {"state": {"target": ["0", "0", "1", "2", "3", "3", "2", "3", "4", "7", "18", "2", "3", "2", "1", "2", "2", "18", "18", "15", "15", "17", "13", "12", "1", "2", "3", "2", "1", "0", "0", "1", "2"], "time": [2482, 6898, 7271, 7883, 8471, 8999, 9981, 10198, 10598, 10699, 11498, 11648, 11866, 12533, 13299, 13381, 13664, 13782, 14749, 15132, 15637, 18282, 18698, 18815, 19998, 20282, 21215, 21265, 21298, 21332, 21548, 21865, 22398]}, "edge": {"target": [], "time": []}}}, "displayed_time": "33.30", "trialTime": 38054, "trial_type": "mouselab-mdp", "trial_index": 9, "time_elapsed": 1611348, "internal_node_id": "0.0-2.1-2.1-0.1"}}, {"uniqueid": "w41178685:a14512010", "current_trial": 10, "dateTime": 1693391671250, "trialdata": {"revealed_states": [], "clicked_states": ["1"], "num_clicks_accrued": [0, 0, 0, 0, 0, 0, 0, 0, 0, 0, 0, 0, 0], "stateRewards": ["", 10, 10, -10, 10, -10, 10, 10, -10, 10, -10, 10, 10, -10, -10, 10, 10, -10, -10, -10, -10, -10, -10, -10, 10, 10, 10, -10, -10, -10, 10, 10, 10, -10], "withholdReward": false, "trial_id": "practice_2", "block": "test", "trialIndex": 3, "score": 33, "costs": -0.5, "simulationMode": [null, null, null, null, null], "rewards": [10, 10, -10, 10, 10], "path": ["0", "0", "1", "2", "3", "4", "6"], "rt": [2746, 503, 143, 5732, 57], "actions": ["up", "up", "up", "right", "right"], "actionTimes": [5197, 6220, 6876, 13132, 13708], "queries": {"click": {"state": {"target": ["1"], "time": [3821]}, "edge": {"target": [], "time": []}}, "mouseover": {"state": {"target": ["1"], "time": [3264]}, "edge": {"target": [], "time": []}}, "mouseout": {"state": {"target": ["1", "0", "1", "1", "0", "1", "2", "3", "4", "4", "7", "12"], "time": [1213, 1580, 3895, 10597, 10913, 10947, 11113, 11180, 12413, 16776, 16863, 17030]}, "edge": {"target": [], "time": []}}}, "displayed_time": "14.22", "trialTime": 18692, "trial_type": "mouselab-mdp", "trial_index": 10, "time_elapsed": 1630307, "internal_node_id": "0.0-2.1-2.1-1.1"}}, {"uniqueid": "w41178685:a14512010", "current_trial": 11, "dateTime": 1693391685480, "trialdata": {"view_history": [{"page_index": 0, "viewing_time": 12363}, {"page_index": 1, "viewing_time": 1864}], "rt": 14227, "trial_id": "mouselab_instructions_2_misaligned", "trial_type": "instructions", "trial_index": 11, "time_elapsed": 1644538, "internal_node_id": "0.0-2.1-3.1"}}, {"uniqueid": "w41178685:a14512010", "current_trial": 12, "dateTime": 1693392227651, "trialdata": {"rt": 542136, "response": {"Q0": "The cost for clicking on nodes may vary between nodes.", "Q1": "The better I perform the higher my bonus will be.", "Q2": "No, the structure of the web will be different each time.", "Q3": "To get the highest total score.", "Q4": "Only before moving the spider.", "Q5": "3 seconds"}, "question_order": [0, 1, 2, 3, 4, 5], "correct": {"Q0": "The cost for clicking on nodes may vary between nodes.", "Q1": "The better I perform the higher my bonus will be.", "Q2": "No, the amount of cash at each node of the web may be different each time.", "Q3": "To get the highest total score.", "Q4": "Only before moving the spider.", "Q5": "3 seconds"}, "trial_id": "mouselab_quiz_misaligned", "trial_type": "survey-multi-choice", "trial_index": 12, "time_elapsed": 2186709, "internal_node_id": "0.0-2.1-4.1"}}, {"uniqueid": "w41178685:a14512010", "current_trial": 13, "dateTime": 1693392278935, "trialdata": {"success": true, "trial_type": "fullscreen", "trial_index": 13, "time_elapsed": 2237993, "internal_node_id": "0.0-2.2-0.2-0.2"}}, {"uniqueid": "w41178685:a14512010", "current_trial": 14, "dateTime": 1693392513261, "trialdata": {"view_history": [{"page_index": 0, "viewing_time": 136218}, {"page_index": 1, "viewing_time": 13272}, {"page_index": 2, "viewing_time": 3800}, {"page_index": 3, "viewing_time": 81022}], "rt": 234312, "trial_id": "mouselab_instructions_1_misaligned", "trial_type": "instructions", "trial_index": 14, "time_elapsed": 2472319, "internal_node_id": "0.0-2.2-1.2"}}, {"uniqueid": "w41178685:a14512010", "current_trial": 15, "dateTime": 1693392574311, "trialdata": {"revealed_states": [], "clicked_states": ["1", "3", "13", "12", "14", "19", "21", "20", "23", "24", "25", "2"], "num_clicks_accrued": [0, 0, 0, 0, 0, 0, 0, 0, 0, 0, 0, 0, 0], "stateRewards": ["", -10, -10, 10, 10, -10, 10, 10, 10, 10, 10, 10, 10, -10, 10, 10, 10, 10, -10, 10, 10, 10, 10, -10, 10, 10, -10, -10, 10, 10, -10, -10, 10, -10], "withholdReward": false, "trial_id": "practice_1", "block": "test", "trialIndex": 4, "score": -12.5, "costs": -6, "simulationMode": [null, null, null, null, null], "rewards": [-10, 10, 10, -10, -10], "path": ["0", "0", "23", "24", "25", "26", "27"], "rt": [45962, 49, 97, 5624, 27], "actions": ["left", "left", "left", "up", "up"], "actionTimes": [46932, 47499, 48131, 54275, 54811], "queries": {"click": {"state": {"target": ["1", "3", "13", "12", "14", "19", "21", "20", "23", "24", "25", "2"], "time": [2425, 4816, 8056, 9865, 11171, 13683, 14899, 16339, 21923, 23027, 25171, 34011]}, "edge": {"target": [], "time": []}}, "mouseover": {"state": {"target": ["1", "2", "1", "2", "2", "3", "2", "2", "2", "2", "13", "14", "12", "14", "19", "21", "20", "19", "22", "12", "12", "0", "23", "24", "25", "25", "26", "1", "23", "0", "12", "13", "12", "13", "12", "0", "12", "12", "0", "1", "1", "2", "3", "3", "1", "12", "13", "25", "25", "24", "23", "0"], "time": [1646, 1869, 2096, 2964, 4246, 4613, 5430, 6029, 6363, 6896, 7413, 8330, 9746, 10949, 13482, 14083, 16166, 17865, 17899, 19647, 20516, 21616, 21816, 22399, 23349, 25049, 25965, 27191, 28882, 28915, 28935, 28982, 29548, 29982, 30898, 31365, 31731, 32498, 32798, 33115, 33315, 33798, 34465, 35481, 38114, 39064, 40881, 42782, 43364, 44547, 44998, 45865]}, "edge": {"target": [], "time": []}}, "mouseout": {"state": {"target": ["0", "1", "2", "1", "2", "2", "3", "2", "1", "1", "2", "2", "2", "13", "14", "13", "12", "13", "14", "19", "21", "20", "20", "19", "22", "12", "12", "0", "23", "24", "25", "25", "25", "26", "1", "23", "0", "12", "13", "12", "13", "12", "0", "12", "12", "0", "1", "1", "2", "3", "3", "2", "2", "2", "1", "12", "13", "25", "25", "24", "23", "0"], "time": [979, 1714, 2063, 2746, 4230, 4296, 5363, 5496, 5780, 5996, 6096, 6429, 7196, 8247, 9296, 9579, 10166, 10900, 11766, 13966, 15733, 16407, 17149, 17883, 17916, 20166, 21599, 21665, 22366, 23300, 24765, 25263, 25815, 26865, 28248, 28898, 28932, 28965, 29415, 29919, 30838, 31265, 31665, 32265, 32615, 32848, 33148, 33731, 34104, 34981, 36631, 36981, 37714, 38064, 38398, 40097, 41048, 42847, 44198, 44980, 45330, 45927]}, "edge": {"target": [], "time": []}}}, "displayed_time": "55.33", "trialTime": 60787, "trial_type": "mouselab-mdp", "trial_index": 15, "time_elapsed": 2533369, "internal_node_id": "0.0-2.2-2.2-0.2"}}, {"uniqueid": "w41178685:a14512010", "current_trial": 16, "dateTime": 1693392644817, "trialdata": {"revealed_states": [], "clicked_states": ["1", "3", "12", "14", "23", "25", "30", "32", "2", "24", "26", "27", "8", "11", "9", "13", "19"], "num_clicks_accrued": [0, 0, 0, 0, 0, 0, 0, 0, 0, 0, 0, 0, 0], "stateRewards": ["", 10, 10, -10, 10, -10, 10, 10, -10, 10, -10, 10, 10, -10, -10, 10, 10, -10, -10, -10, -10, -10, -10, -10, 10, 10, 10, -10, -10, -10, 10, 10, 10, -10], "withholdReward": false, "trial_id": "practice_2", "block": "test", "trialIndex": 5, "score": 25, "costs": -8.5, "simulationMode": [null, null, null, null, null], "rewards": [-10, 10, 10, 10, 10], "path": ["0", "0", "23", "24", "25", "30", "32"], "rt": [59286, 100, 132, 186, 54], "actions": ["left", "left", "left", "down", "down"], "actionTimes": [62158, 62781, 63429, 64133, 64701], "queries": {"click": {"state": {"target": ["1", "3", "12", "14", "23", "25", "30", "32", "2", "24", "26", "27", "8", "11", "9", "13", "19"], "time": [3777, 5089, 8592, 10093, 14998, 16350, 17493, 18573, 24613, 28365, 35205, 36333, 40421, 41440, 42549, 46789, 48172]}, "edge": {"target": [], "time": []}}, "mouseover": {"state": {"target": ["0", "1", "1", "2", "3", "2", "12", "0", "12", "13", "14", "19", "22", "23", "23", "13", "23", "0", "23", "24", "25", "30", "32", "31", "0", "1", "2", "1", "2", "3", "3", "23", "23", "24", "25", "30", "32", "30", "25", "23", "0", "23", "24", "26", "27", "28", "0", "1", "2", "3", "8", "11", "9", "3", "2", "12", "12", "13", "14", "19", "21", "12", "0", "1", "2", "3", "3", "2", "23", "24", "25", "30", "32", "32", "32"], "time": [3016, 3299, 3632, 4017, 4900, 7065, 7150, 7982, 8500, 8963, 9930, 11296, 11362, 11563, 11796, 12396, 12896, 14263, 14879, 15329, 16014, 16813, 17946, 21012, 21129, 21713, 22245, 24113, 24462, 25029, 26641, 27195, 27481, 28145, 28813, 30045, 30128, 31245, 31379, 32395, 32445, 33145, 33711, 35078, 35829, 38045, 38444, 38662, 39095, 39577, 40228, 40895, 42312, 43128, 43195, 45104, 45905, 46428, 47228, 48111, 48844, 49428, 49661, 50528, 51144, 51744, 52281, 52361, 52844, 53377, 53977, 58032, 59144, 59272, 61110]}, "edge": {"target": [], "time": []}}, "mouseout": {"state": {"target": ["0", "1", "0", "0", "0", "1", "1", "2", "3", "2", "12", "0", "12", "13", "14", "19", "22", "23", "23", "13", "12", "23", "0", "23", "24", "25", "30", "32", "31", "0", "1", "2", "1", "2", "3", "3", "2", "23", "23", "24", "25", "30", "32", "30", "25", "24", "23", "0", "23", "24", "26", "27", "28", "0", "1", "2", "3", "8", "11", "9", "3", "2", "12", "12", "13", "14", "19", "19", "21", "12", "0", "1", "2", "3", "3", "2", "23", "24", "25", "30", "32", "32", "32"], "time": [2031, 2331, 2365, 2581, 3249, 3349, 3966, 4832, 7015, 7099, 7782, 8465, 8916, 9913, 10930, 11330, 11412, 11612, 11845, 12446, 12513, 13246, 14802, 15296, 15996, 16796, 17896, 20946, 21046, 21396, 22169, 23195, 24409, 24962, 25112, 26928, 27062, 27345, 28112, 28779, 29545, 30095, 30945, 31311, 31478, 32384, 32411, 33111, 33678, 33729, 35350, 38029, 38062, 38495, 39062, 39128, 40195, 40504, 42078, 43045, 43145, 43228, 45145, 46395, 47195, 47811, 48246, 48811, 49244, 49561, 50461, 51078, 51649, 51928, 52344, 52377, 53344, 53944, 54594, 59095, 59178, 59394, 68112]}, "edge": {"target": [], "time": []}}}, "displayed_time": "65.23", "trialTime": 70211, "trial_type": "mouselab-mdp", "trial_index": 16, "time_elapsed": 2603874, "internal_node_id": "0.0-2.2-2.2-1.2"}}, {"uniqueid": "w41178685:a14512010", "current_trial": 17, "dateTime": 1693392664095, "trialdata": {"view_history": [{"page_index": 0, "viewing_time": 17835}, {"page_index": 1, "viewing_time": 1440}], "rt": 19275, "trial_id": "mouselab_instructions_2_misaligned", "trial_type": "instructions", "trial_index": 17, "time_elapsed": 2623153, "internal_node_id": "0.0-2.2-3.2"}}, {"uniqueid": "w41178685:a14512010", "current_trial": 18, "dateTime": 1693392956764, "trialdata": {"rt": 292678, "response": {"Q0": "The cost for clicking on nodes may vary between nodes.", "Q1": "The better I perform the higher my bonus will be.", "Q2": "No, the structure of the web will be different each time.", "Q3": "To get the highest total score.", "Q4": "Only before moving the spider.", "Q5": "3 seconds"}, "question_order": [0, 1, 2, 3, 4, 5], "correct": {"Q0": "The cost for clicking on nodes may vary between nodes.", "Q1": "The better I perform the higher my bonus will be.", "Q2": "No, the amount of cash at each node of the web may be different each time.", "Q3": "To get the highest total score.", "Q4": "Only before moving the spider.", "Q5": "3 seconds"}, "trial_id": "mouselab_quiz_misaligned", "trial_type": "survey-multi-choice", "trial_index": 18, "time_elapsed": 2915822, "internal_node_id": "0.0-2.2-4.2"}}, {"uniqueid": "w41178685:a14512010", "current_trial": 19, "dateTime": 1693392962029, "trialdata": {"success": true, "trial_type": "fullscreen", "trial_index": 19, "time_elapsed": 2921086, "internal_node_id": "0.0-2.3-0.3-0.3"}}, {"uniqueid": "w41178685:a14512010", "current_trial": 20, "dateTime": 1693393245818, "trialdata": {"view_history": [{"page_index": 0, "viewing_time": 168432}, {"page_index": 1, "viewing_time": 101935}, {"page_index": 2, "viewing_time": 2655}, {"page_index": 1, "viewing_time": 2409}, {"page_index": 2, "viewing_time": 4399}, {"page_index": 3, "viewing_time": 3968}], "rt": 283797, "trial_id": "mouselab_instructions_1_misaligned", "trial_type": "instructions", "trial_index": 20, "time_elapsed": 3204876, "internal_node_id": "0.0-2.3-1.3"}}, {"uniqueid": "w41178685:a14512010", "current_trial": 21, "dateTime": 1693393305287, "trialdata": {"revealed_states": [], "clicked_states": ["9", "5", "17", "29", "24", "25", "21", "20", "32", "11", "16", "22", "18", "6", "27"], "num_clicks_accrued": [0, 0, 0, 0, 0, 0, 0, 0, 0, 0, 0, 0, 0], "stateRewards": ["", -10, -10, 10, 10, -10, 10, 10, 10, 10, 10, 10, 10, -10, 10, 10, 10, 10, -10, 10, 10, 10, 10, -10, 10, 10, -10, -10, 10, 10, -10, -10, 10, -10], "withholdReward": false, "trial_id": "practice_1", "block": "test", "trialIndex": 6, "score": 26, "costs": -7.5, "simulationMode": [null, null, null, null, null], "rewards": [10, -10, 10, 10, 10], "path": ["0", "0", "12", "13", "14", "19", "21"], "rt": [46290, 101, 30, 5286, 15], "actions": ["right", "right", "right", "down", "down"], "actionTimes": [48007, 48622, 49166, 54990, 55518], "queries": {"click": {"state": {"target": ["9", "5", "17", "29", "24", "25", "21", "20", "32", "11", "16", "22", "18", "6", "27"], "time": [3241, 5816, 7889, 9744, 12176, 13352, 14776, 16496, 17538, 22889, 24893, 28597, 30494, 31557, 33101]}, "edge": {"target": [], "time": []}}, "mouseover": {"state": {"target": ["1", "2", "3", "9", "8", "5", "16", "15", "17", "17", "14", "13", "12", "29", "26", "28", "23", "24", "25", "23", "0", "22", "21", "21", "19", "20", "19", "22", "31", "30", "32", "28", "9", "5", "4", "10", "11", "9", "8", "11", "8", "3", "4", "6", "16", "28", "26", "26", "28", "1", "18", "17", "17", "20", "19", "22", "13", "12", "18", "18", "4", "4", "6", "4", "3", "8", "11", "27", "29", "29", "26", "24", "30", "32", "20", "20", "19", "22", "32", "21", "13"], "time": [2188, 2421, 2954, 3071, 3939, 4871, 6722, 6904, 7137, 7589, 8822, 8872, 8905, 9217, 10538, 10905, 11489, 11821, 12605, 13621, 13640, 13760, 13971, 14238, 16104, 16404, 16921, 16954, 17054, 17154, 17438, 18021, 18154, 20221, 21071, 21171, 21304, 21804, 22337, 22787, 23187, 23237, 23271, 23570, 24768, 25735, 25768, 26202, 26237, 26268, 26318, 26585, 27235, 27722, 28218, 28473, 29018, 29485, 29985, 30268, 30919, 31185, 31506, 31869, 31888, 31904, 32234, 32968, 34834, 35301, 37017, 37151, 37301, 37652, 38934, 39217, 40050, 40517, 41567, 43601, 47551]}, "edge": {"target": [], "time": []}}, "mouseout": {"state": {"target": ["0", "1", "2", "3", "9", "8", "5", "16", "15", "17", "17", "17", "17", "14", "13", "12", "29", "26", "28", "23", "24", "25", "23", "0", "22", "21", "21", "19", "20", "19", "22", "31", "30", "32", "28", "9", "5", "4", "10", "11", "9", "8", "11", "8", "3", "4", "6", "16", "28", "26", "26", "28", "1", "18", "17", "17", "20", "19", "22", "13", "12", "18", "18", "4", "4", "6", "4", "3", "8", "11", "27", "29", "29", "26", "24", "30", "32", "20", "20", "19", "22", "32", "21", "13", "18"], "time": [2117, 2304, 2938, 2988, 3889, 4338, 6405, 6805, 6922, 7171, 8138, 8605, 8755, 8855, 8888, 8922, 9812, 10887, 10955, 11572, 12555, 13538, 13638, 13671, 13805, 13990, 15871, 16338, 16888, 16938, 16971, 17104, 17171, 17556, 18038, 19654, 21021, 21104, 21204, 21354, 22321, 22387, 23155, 23220, 23254, 23304, 24435, 25352, 25752, 25802, 26235, 26252, 26285, 26335, 26635, 27301, 28201, 28251, 28951, 29385, 29851, 30035, 30562, 31019, 31451, 31567, 31885, 31901, 31918, 32668, 33651, 35251, 37001, 37034, 37201, 37434, 38067, 38951, 39967, 40434, 41235, 43150, 44284, 47584, 50067]}, "edge": {"target": [], "time": []}}}, "displayed_time": "56.05", "trialTime": 59174, "trial_type": "mouselab-mdp", "trial_index": 21, "time_elapsed": 3264345, "internal_node_id": "0.0-2.3-2.3-0.3"}}, {"uniqueid": "w41178685:a14512010", "current_trial": 22, "dateTime": 1693393389194, "trialdata": {"revealed_states": [], "clicked_states": ["9", "17", "33", "20", "21", "11", "6", "10", "4", "30", "27", "5", "16", "3", "8", "29", "32", "18", "12", "1"], "num_clicks_accrued": [0, 0, 0, 0, 0, 0, 0, 0, 0, 0, 0, 0, 0], "stateRewards": ["", 10, 10, -10, 10, -10, 10, 10, -10, 10, -10, 10, 10, -10, -10, 10, 10, -10, -10, -10, -10, -10, -10, -10, 10, 10, 10, -10, -10, -10, 10, 10, 10, -10], "withholdReward": false, "trial_id": "practice_2", "block": "test", "trialIndex": 7, "score": -36.5, "costs": -10, "simulationMode": [null, null, null, null, null], "rewards": [10, -10, -10, -10, -10], "path": ["0", "0", "12", "13", "14", "19", "21"], "rt": [70394, 26, 340, 5874, 91], "actions": ["right", "right", "right", "down", "down"], "actionTimes": [72637, 73180, 74028, 80412, 81012], "queries": {"click": {"state": {"target": ["9", "17", "33", "20", "21", "11", "6", "10", "4", "30", "27", "5", "16", "3", "8", "29", "32", "18", "12", "1"], "time": [3386, 5096, 6857, 8520, 9808, 11591, 12768, 16002, 18552, 23409, 24733, 27060, 28740, 34437, 35541, 40093, 43276, 48788, 57844, 59132]}, "edge": {"target": [], "time": []}}, "mouseover": {"state": {"target": ["1", "2", "3", "9", "5", "18", "15", "17", "15", "25", "30", "33", "30", "31", "20", "19", "21", "19", "6", "5", "9", "11", "8", "3", "4", "6", "4", "3", "8", "10", "11", "8", "3", "4", "4", "7", "15", "17", "20", "19", "22", "24", "25", "33", "30", "32", "25", "26", "27", "27", "11", "9", "5", "6", "16", "17", "20", "19", "21", "22", "22", "15", "16", "5", "3", "8", "4", "4", "6", "4", "27", "26", "29", "26", "26", "25", "33", "32", "25", "26", "27", "27", "26", "25", "30", "12", "13", "15", "15", "18", "4", "5", "5", "16", "6", "18", "15", "17", "20", "19", "13", "12", "1", "2", "3", "9", "9", "11", "8", "3", "6", "16", "17", "15", "18", "1", "29", "33", "30", "31"], "time": [2724, 2757, 2790, 3190, 4073, 4507, 4640, 4957, 5858, 6207, 6340, 6708, 7242, 7274, 8224, 9007, 9113, 10057, 10141, 10357, 11123, 11473, 11957, 11977, 12007, 12324, 13690, 13724, 13780, 15823, 16524, 17723, 17773, 17907, 18507, 19223, 19623, 20140, 21173, 21773, 21793, 21873, 21940, 22623, 23340, 23475, 24187, 24255, 24321, 24586, 25606, 26087, 26887, 28470, 28604, 29320, 30170, 31204, 31487, 32289, 32787, 32888, 32937, 33337, 34237, 35103, 36003, 36437, 37220, 38170, 38503, 39786, 39953, 41004, 41304, 41469, 41769, 43021, 43769, 43904, 43986, 45452, 45537, 45556, 45587, 47286, 47419, 47669, 48402, 48636, 49620, 50186, 52519, 53369, 54553, 55336, 55403, 55469, 56503, 57386, 57436, 57703, 58669, 59687, 60469, 62085, 62952, 64835, 65102, 65253, 66785, 67652, 68752, 68802, 68852, 68902, 69168, 70785, 71185, 71251]}, "edge": {"target": [], "time": []}}, "mouseout": {"state": {"target": ["14", "13", "12", "1", "2", "3", "9", "5", "18", "15", "17", "15", "25", "30", "33", "30", "31", "20", "19", "21", "19", "6", "5", "9", "11", "8", "3", "4", "6", "4", "3", "8", "11", "10", "11", "8", "3", "4", "4", "7", "15", "17", "20", "19", "22", "24", "25", "33", "30", "32", "30", "25", "26", "27", "27", "11", "9", "5", "5", "6", "16", "16", "17", "20", "19", "21", "22", "22", "15", "16", "5", "3", "3", "8", "3", "4", "4", "6", "4", "3", "8", "27", "26", "29", "29", "26", "26", "25", "33", "32", "25", "26", "27", "27", "26", "25", "30", "32", "32", "12", "13", "15", "15", "18", "4", "5", "5", "16", "6", "18", "15", "17", "20", "19", "13", "12", "1", "2", "3", "9", "9", "11", "8", "3", "6", "16", "17", "15", "18", "1", "29", "33", "30", "31", "23", "0", "13", "13", "0"], "time": [1706, 1789, 1923, 2740, 2774, 3007, 3757, 4441, 4540, 4673, 5824, 5891, 6273, 6524, 7209, 7257, 7291, 8976, 9024, 10007, 10074, 10157, 11057, 11223, 11940, 11974, 11990, 12290, 13657, 13707, 13740, 13874, 15223, 16158, 17690, 17757, 17807, 18057, 18990, 19373, 19640, 20790, 21756, 21790, 21806, 21890, 22040, 23306, 23420, 24121, 24171, 24221, 24287, 24404, 25137, 26020, 26120, 27123, 27587, 28537, 28792, 29254, 30020, 31170, 31304, 32020, 32404, 32803, 32903, 32953, 34220, 34496, 35071, 35953, 35987, 36020, 37186, 38153, 38203, 38270, 38303, 39736, 39880, 40127, 40970, 41036, 41436, 41519, 42669, 43344, 43819, 43970, 44037, 45519, 45553, 45569, 45603, 45769, 46936, 47369, 47519, 47736, 48569, 49253, 50152, 50235, 52553, 54336, 55218, 55353, 55436, 56336, 57369, 57403, 57669, 58236, 59519, 60452, 60519, 62136, 63935, 65069, 65235, 65285, 66868, 67702, 68768, 68835, 68868, 68935, 70202, 71168, 71218, 71285, 75784, 75802, 76102, 77236, 82985]}, "edge": {"target": [], "time": []}}}, "displayed_time": "81.52", "trialTime": 83588, "trial_type": "mouselab-mdp", "trial_index": 22, "time_elapsed": 3348252, "internal_node_id": "0.0-2.3-2.3-1.3"}}, {"uniqueid": "w41178685:a14512010", "current_trial": 23, "dateTime": 1693393437238, "trialdata": {"view_history": [{"page_index": 0, "viewing_time": 43906}, {"page_index": 1, "viewing_time": 4136}], "rt": 48043, "trial_id": "mouselab_instructions_2_misaligned", "trial_type": "instructions", "trial_index": 23, "time_elapsed": 3396296, "internal_node_id": "0.0-2.3-3.3"}}, {"uniqueid": "w41178685:a14512010", "current_trial": 24, "dateTime": 1693393519915, "trialdata": {"rt": 82667, "response": {"Q0": "The cost for clicking on nodes may vary between nodes.", "Q1": "The better I perform the higher my bonus will be.", "Q2": "No, the structure of the web will be different each time.", "Q3": "To get the highest total score.", "Q4": "Any time during the round.", "Q5": "3 seconds"}, "question_order": [0, 1, 2, 3, 4, 5], "correct": {"Q0": "The cost for clicking on nodes may vary between nodes.", "Q1": "The better I perform the higher my bonus will be.", "Q2": "No, the amount of cash at each node of the web may be different each time.", "Q3": "To get the highest total score.", "Q4": "Only before moving the spider.", "Q5": "3 seconds"}, "trial_id": "mouselab_quiz_misaligned", "trial_type": "survey-multi-choice", "trial_index": 24, "time_elapsed": 3478973, "internal_node_id": "0.0-2.3-4.3"}}, {"uniqueid": "w41178685:a14512010", "current_trial": 25, "dateTime": 1693393549341, "trialdata": {"rt": 29350, "response": {"Q0": "", "Q1": "29", "Q2": "female", "Q3": "no", "Q4": ""}, "trial_id": "finish_fail", "trial_type": "survey-text", "trial_index": 25, "time_elapsed": 3508399, "internal_node_id": "0.0-3.0-0.0"}}, {"uniqueid": "w41178685:a14512010", "current_trial": 26, "dateTime": 1693393571389, "trialdata": {"rt": 22040, "stimulus": "<h1>Completion Code Instructions (1/2)</h1>\n<br><br><br><br>\nYou have reached the end of the experiment! The completion code consists of two parts: (1) a code with 2 characters (2) a code with 6 characters. On this page, you will receive the second part of the code. The first part of the completion code will be on the next page.\n<br><br>\nThe second part of your completion code is: <b>AYIWIP</b>\n<br><br>\nPlease note this down. Then, press 'Finish HIT' in order to find the first part of your completion code. Once the data has been saved, you will receive this code either in this window or in the original browser window where you started the experiment.\n", "response": 0, "trial_type": "html-button-response", "trial_index": 26, "time_elapsed": 3530447, "internal_node_id": "0.0-3.0-1.0"}}, {"uniqueid": "w41178685:a14512010", "current_trial": 27, "dateTime": 1693393572502, "trialdata": {"success": true, "trial_type": "fullscreen", "trial_index": 27, "time_elapsed": 3531560, "internal_node_id": "0.0-7.0"}}], "questiondata": {"params": {"CODE": "C6DMOQA6", "MIN_TIME": 14, "inspectCost": 1, "startTime": "Wed Aug 30 2023 12:07:19 GMT+0200 (South Africa Standard Time)", "bonusRate": 0.002, "variance": "1_2_4_8_44", "branching": "31123"}, "final_score": 0}, "eventdata": [{"eventtype": "initialized", "value": null, "timestamp": 1693390039163, "interval": 0}, {"eventtype": "window_resize", "value": [1024, 767], "timestamp": 1693390039163, "interval": 0}, {"eventtype": "window_resize", "value": [1024, 767], "timestamp": 1693390039586, "interval": 423}, {"eventtype": "window_resize", "value": [1600, 900], "timestamp": 1693390042753, "interval": 3167}, {"eventtype": "focus", "value": "off", "timestamp": 1693390764695, "interval": 721942}, {"eventtype": "window_resize", "value": [1600, 899], "timestamp": 1693390764907, "interval": 212}, {"eventtype": "focus", "value": "on", "timestamp": 1693390803753, "interval": 38846}, {"eventtype": "window_resize", "value": [1600, 900], "timestamp": 1693390803969, "interval": 216}, {"eventtype": "focus", "value": "off", "timestamp": 1693391550144, "interval": 746175}, {"eventtype": "focus", "value": "on", "timestamp": 1693391550144, "interval": 0}, {"eventtype": "window_resize", "value": [1600, 818], "timestamp": 1693391550590, "interval": 446}, {"eventtype": "window_resize", "value": [1600, 818], "timestamp": 1693391550831, "interval": 241}, {"eventtype": "focus", "value": "off", "timestamp": 1693391552956, "interval": 2125}, {"eventtype": "focus", "value": "on", "timestamp": 1693391555821, "interval": 2865}, {"eventtype": "window_resize", "value": [1600, 900], "timestamp": 1693391559051, "interval": 3230}, {"eventtype": "focus", "value": "off", "timestamp": 1693392276579, "interval": 717528}, {"eventtype": "focus", "value": "on", "timestamp": 1693392276579, "interval": 0}, {"eventtype": "window_resize", "value": [1600, 818], "timestamp": 1693392276791, "interval": 212}, {"eventtype": "window_resize", "value": [1600, 900], "timestamp": 1693392278135, "interval": 1344}, {"eventtype": "focus", "value": "off", "timestamp": 1693392959439, "interval": 681304}, {"eventtype": "focus", "value": "on", "timestamp": 1693392959439, "interval": 0}, {"eventtype": "window_resize", "value": [1600, 818], "timestamp": 1693392959644, "interval": 205}, {"eventtype": "window_resize", "value": [1600, 900], "timestamp": 1693392961236, "interval": 1592}, {"eventtype": "window_resize", "value": [1600, 818], "timestamp": 1693393571710, "interval": 610474}], "useragent": "Mozilla/5.0 (Windows NT 10.0; Win64; x64) AppleWebKit/537.36 (KHTML, like Gecko) Chrome/109.0.0.0 Safari/537.36", "mode": "live", "id": "w41178685:a14512010", "status": "user data saved", "Beginhit": "2023-08-30 10:07:16.940259", "Beginexp": "2023-08-30 10:07:24.091696", "Endhit": "2023-08-30 11:06:14.203584", "psiturkStatus": 3, "browser": "<redacted>", "platform": "windows", "language": "en-US", "excludeReason": "quizfail"}