{"condition": 1, "counterbalance": 0, "assignmentId": "a21013302", "workerId": "w50403724", "hitId": "h19332985", "currenttrial": 56, "bonus": 0, "data": [{"uniqueid": "w50403724:a21013302", "current_trial": 0, "dateTime": 1691142672145, "trialdata": {"success": true, "trial_type": "fullscreen", "trial_index": 0, "time_elapsed": 6455, "internal_node_id": "0.0-0.0"}}, {"uniqueid": "w50403724:a21013302", "current_trial": 1, "dateTime": 1691142700082, "trialdata": {"view_history": [{"page_index": 0, "viewing_time": 27922}], "rt": 27925, "trial_id": "exp_instructions_misaligned", "trial_type": "instructions", "trial_index": 1, "time_elapsed": 34393, "internal_node_id": "0.0-1.0"}}, {"uniqueid": "w50403724:a21013302", "current_trial": 2, "dateTime": 1691142706575, "trialdata": {"success": true, "trial_type": "fullscreen", "trial_index": 2, "time_elapsed": 40886, "internal_node_id": "0.0-2.0-0.0"}}, {"uniqueid": "w50403724:a21013302", "current_trial": 3, "dateTime": 1691143104781, "trialdata": {"view_history": [{"page_index": 0, "viewing_time": 155381}, {"page_index": 1, "viewing_time": 152883}, {"page_index": 2, "viewing_time": 41149}, {"page_index": 3, "viewing_time": 48777}], "rt": 398190, "trial_id": "mouselab_instructions_1_misaligned", "trial_type": "instructions", "trial_index": 3, "time_elapsed": 439092, "internal_node_id": "0.0-2.0-1.0"}}, {"uniqueid": "w50403724:a21013302", "current_trial": 4, "dateTime": 1691143133969, "trialdata": {"revealed_states": [], "clicked_states": ["23"], "num_clicks_accrued": [0, 0, 0, 0, 0, 0, 0, 0, 0, 0, 0, 0, 0], "stateRewards": ["", -10, 10, 10, -10, 10, 10, 10, 10, 10, 10, -10, -10, -10, -10, 10, 10, 10, 10, 10, -10, 10, -10, -10, -10, -10, 10, 10, 10, -10, 10, 10, -10, -10], "withholdReward": false, "trial_id": "practice_1", "block": "test", "trialIndex": 0, "score": 33, "costs": -0.5, "simulationMode": [null, null, null, null, null], "rewards": [-10, 10, 10, 10, 10], "path": ["0", "0", "1", "2", "3", "8", "9"], "rt": [7173, 299, 3827, 691, 209], "actions": ["up", "up", "up", "left", "up"], "actionTimes": [12113, 12918, 17292, 18539, 19291], "queries": {"click": {"state": {"target": ["23"], "time": [9647]}, "edge": {"target": [], "time": []}}, "mouseover": {"state": {"target": ["1", "23", "24", "1"], "time": [7553, 9139, 10118, 11416]}, "edge": {"target": [], "time": []}}, "mouseout": {"state": {"target": ["7", "3", "12", "0", "23", "24", "25", "30", "31", "0", "1", "23", "24", "1", "0"], "time": [null, null, 2312, 2858, 3141, 3174, 3248, 3324, 3375, 7206, 8904, 10021, 11223, 21315, 21344]}, "edge": {"target": [], "time": []}}}, "displayed_time": "19.81", "trialTime": 26024, "trial_type": "mouselab-mdp", "trial_index": 4, "time_elapsed": 468279, "internal_node_id": "0.0-2.0-2.0-0.0"}}, {"uniqueid": "w50403724:a21013302", "current_trial": 5, "dateTime": 1691143150231, "trialdata": {"revealed_states": [], "clicked_states": ["12"], "num_clicks_accrued": [0, 0, 0, 0, 0, 0, 0, 0, 0, 0, 0, 0, 0], "stateRewards": ["", -10, -10, 10, -10, 10, 10, -10, -10, 10, 10, 10, 10, 10, 10, -10, -10, -10, -10, 10, -10, -10, 10, -10, 10, 10, 10, -10, 10, -10, -10, 10, 10, 10], "withholdReward": false, "trial_id": "practice_2", "block": "test", "trialIndex": 1, "score": 33, "costs": -0.5, "simulationMode": [null, null, null, null, null], "rewards": [10, 10, 10, 10, -10], "path": ["0", "0", "12", "13", "14", "19", "21"], "rt": [4350, 143, 404, 219, 702], "actions": ["right", "right", "right", "down", "down"], "actionTimes": [8172, 8833, 9775, 10509, 11723], "queries": {"click": {"state": {"target": ["12"], "time": [5057]}, "edge": {"target": [], "time": []}}, "mouseover": {"state": {"target": ["12", "13", "0", "23"], "time": [4674, 5427, 6438, 6704]}, "edge": {"target": [], "time": []}}, "mouseout": {"state": {"target": ["0", "12", "13", "12", "0", "23", "25", "33"], "time": [4589, 5391, 6381, 6422, 6520, 13843, 13900, 14180]}, "edge": {"target": [], "time": []}}}, "displayed_time": "12.26", "trialTime": 15379, "trial_type": "mouselab-mdp", "trial_index": 5, "time_elapsed": 484542, "internal_node_id": "0.0-2.0-2.0-1.0"}}, {"uniqueid": "w50403724:a21013302", "current_trial": 6, "dateTime": 1691143214884, "trialdata": {"view_history": [{"page_index": 0, "viewing_time": 49713}, {"page_index": 1, "viewing_time": 14933}], "rt": 64648, "trial_id": "mouselab_instructions_2_misaligned", "trial_type": "instructions", "trial_index": 6, "time_elapsed": 549195, "internal_node_id": "0.0-2.0-3.0"}}, {"uniqueid": "w50403724:a21013302", "current_trial": 7, "dateTime": 1691143322287, "trialdata": {"rt": 107374, "response": {"Q0": "The cost for clicking on nodes may vary between nodes.", "Q1": "The better I perform the higher my bonus will be.", "Q2": "No, the amount of cash at each node of the web may be different each time.", "Q3": "To get the highest total score.", "Q4": "Only before moving the spider.", "Q5": "3 seconds"}, "question_order": [0, 1, 2, 3, 4, 5], "correct": {"Q0": "The cost for clicking on nodes may vary between nodes.", "Q1": "The better I perform the higher my bonus will be.", "Q2": "No, the amount of cash at each node of the web may be different each time.", "Q3": "To get the highest total score.", "Q4": "Only before moving the spider.", "Q5": "3 seconds"}, "trial_id": "mouselab_quiz_misaligned", "trial_type": "survey-multi-choice", "trial_index": 7, "time_elapsed": 656598, "internal_node_id": "0.0-2.0-4.0"}}, {"uniqueid": "w50403724:a21013302", "current_trial": 8, "dateTime": 1691143357449, "trialdata": {"rt": 35136, "stimulus": "\n<h1> Get ready to start the game! </h1>\n\nThank you for reading the instructions. Get ready start with the 40 rounds of this game.\n<br><br>\nIf you need to take a break, feel free to take one after the end of a round, before continuing to the next one.\n<br><br>\nRemember, the more money the spider gets, the bigger your bonus will be!\n<br><br>\n<div style='text-align: center;'>Press <code>space</code> to begin.</div>\n\n<br><br>\n(If, at any point, the <code>space</code> key does not take you to the next page, click once on the text and try again.)", "response": " ", "trial_id": "mdp_ready", "trial_type": "html-keyboard-response", "trial_index": 8, "time_elapsed": 691760, "internal_node_id": "0.0-4.0-0.0"}}, {"uniqueid": "w50403724:a21013302", "current_trial": 9, "dateTime": 1691143383260, "trialdata": {"revealed_states": [], "clicked_states": ["1", "2", "3"], "num_clicks_accrued": [0, 0, 0, 0, 0, 0, 0, 0, 0, 0, 0, 0, 0], "stateRewards": ["", -1, 4, 3, 12, -27, 34, -33, 3, -63, 1, 6, 2, 2, -6, -11, -77, -85, 68, -6, 51, 81, -60, -2, -2, 1, 15, 20, 15, 68, -10, -14, 6, -4], "withholdReward": false, "trial_id": "mdp_trial_1", "block": "test", "trialIndex": 2, "score": 71.95, "costs": -1.0499999999999998, "simulationMode": [null, null, null, null, null], "rewards": [2, 2, -6, -6, 81], "path": ["0", "0", "12", "13", "14", "19", "21"], "rt": [7325, 184, 12, 54, 3], "actions": ["right", "right", "right", "down", "down"], "actionTimes": [12621, 13315, 13875, 14435, 15132], "queries": {"click": {"state": {"target": ["1", "2", "3"], "time": [7580, 8860, 9932]}, "edge": {"target": [], "time": []}}, "mouseover": {"state": {"target": ["1", "2", "3", "12"], "time": [7179, 8060, 9465, 11698]}, "edge": {"target": [], "time": []}}, "mouseout": {"state": {"target": ["3", "2", "1", "1", "0", "1", "2", "3", "12", "0", "23", "24", "30"], "time": [259, 283, 3215, 4204, 6846, 7869, 9344, 10430, 17368, 20968, 20992, 21035, 21166]}, "edge": {"target": [], "time": []}}}, "displayed_time": "19.32", "trialTime": 23245, "trial_type": "mouselab-mdp", "trial_index": 9, "time_elapsed": 717570, "internal_node_id": "0.0-4.0-1.0-0.0"}}, {"uniqueid": "w50403724:a21013302", "current_trial": 10, "dateTime": 1691143406219, "trialdata": {"revealed_states": [], "clicked_states": ["23", "24", "25"], "num_clicks_accrued": [0, 0, 0, 0, 0, 0, 0, 0, 0, 0, 0, 0, 0], "stateRewards": ["", -2, 2, -5, 1, 42, -63, -58, -6, 2, 16, 81, -2, 4, 7, -10, 33, 3, -33, -2, -52, -84, -27, 2, -3, -3, 15, -74, -14, -5, -5, -84, 79, -31], "withholdReward": false, "trial_id": "mdp_trial_2", "block": "test", "trialIndex": 3, "score": 0.9500000000000002, "costs": -1.0499999999999998, "simulationMode": [null, null, null, null, null], "rewards": [-2, 4, 7, -10, 3], "path": ["0", "0", "12", "13", "14", "15", "17"], "rt": [4233, 179, 130, 3095, 223], "actions": ["right", "right", "right", "up", "right"], "actionTimes": [7454, 8149, 8821, 12436, 13191], "queries": {"click": {"state": {"target": ["23", "24", "25"], "time": [4252, 5117, 6157]}, "edge": {"target": [], "time": []}}, "mouseover": {"state": {"target": ["23", "23", "24", "25"], "time": [3802, 4051, 4897, 5802]}, "edge": {"target": [], "time": []}}, "mouseout": {"state": {"target": ["23", "13", "22", "0", "23", "23", "24", "25", "30", "0", "14", "15", "17", "14", "13", "12", "24", "25"], "time": [103, 337, 556, 3783, 3932, 4705, 5772, 19088, 19120, 19613, 20038, 20077, 20307, 20489, 20533, 20560, 20712, 20837]}, "edge": {"target": [], "time": []}}}, "displayed_time": "17.22", "trialTime": 21879, "trial_type": "mouselab-mdp", "trial_index": 10, "time_elapsed": 740529, "internal_node_id": "0.0-4.0-1.0-1.0"}}, {"uniqueid": "w50403724:a21013302", "current_trial": 11, "dateTime": 1691143429629, "trialdata": {"revealed_states": [], "clicked_states": [], "num_clicks_accrued": [0, 0, 0, 0, 0, 0, 0, 0, 0, 0, 0, 0, 0], "stateRewards": ["", -1, -4, -3, 1, -45, -67, -24, 14, 32, 22, 22, -1, 1, -5, -7, 72, 84, -79, -5, 19, -40, -2, -1, -2, 8, -3, 84, -25, -28, 11, 64, -66, 77], "withholdReward": false, "trial_id": "mdp_trial_3", "block": "test", "trialIndex": 4, "score": 38, "costs": 0, "simulationMode": [null, null, null, null, null], "rewards": [-1, -4, -3, 14, 32], "path": ["0", "0", "1", "2", "3", "8", "9"], "rt": [738, 72, 123, 31, 793], "actions": ["up", "up", "up", "left", "up"], "actionTimes": [5077, 5663, 6330, 6887, 8199], "queries": {"click": {"state": {"target": [], "time": []}, "edge": {"target": [], "time": []}}, "mouseover": {"state": {"target": [], "time": []}, "edge": {"target": [], "time": []}}, "mouseout": {"state": {"target": ["0", "18", "14", "19"], "time": [20143, 20205, 20272, 20311]}, "edge": {"target": [], "time": []}}}, "displayed_time": "18.35", "trialTime": 22307, "trial_type": "mouselab-mdp", "trial_index": 11, "time_elapsed": 763936, "internal_node_id": "0.0-4.0-1.0-2.0"}}, {"uniqueid": "w50403724:a21013302", "current_trial": 12, "dateTime": 1691143454017, "trialdata": {"revealed_states": [], "clicked_states": [], "num_clicks_accrued": [0, 0, 0, 0, 0, 0, 0, 0, 0, 0, 0, 0, 0], "stateRewards": ["", -2, 4, -5, -12, 85, -24, -18, -15, -78, -22, 26, -1, -1, 2, 14, -45, 52, -23, 7, -33, 24, -6, -2, -4, 5, -7, -16, 36, -39, 5, 71, -87, -23], "withholdReward": false, "trial_id": "mdp_trial_4", "block": "test", "trialIndex": 5, "score": -39, "costs": 0, "simulationMode": [null, null, null, null, null], "rewards": [-2, 4, -5, -12, -24], "path": ["0", "0", "1", "2", "3", "4", "6"], "rt": [1143, 610, 2941, 872, 71], "actions": ["up", "up", "up", "right", "right"], "actionTimes": [6628, 7758, 11227, 12646, 13241], "queries": {"click": {"state": {"target": [], "time": []}, "edge": {"target": [], "time": []}}, "mouseover": {"state": {"target": [], "time": []}, "edge": {"target": [], "time": []}}, "mouseout": {"state": {"target": ["0", "1", "0"], "time": [3888, 4221, 22623]}, "edge": {"target": [], "time": []}}}, "displayed_time": "19.49", "trialTime": 23072, "trial_type": "mouselab-mdp", "trial_index": 12, "time_elapsed": 788327, "internal_node_id": "0.0-4.0-1.0-3.0"}}, {"uniqueid": "w50403724:a21013302", "current_trial": 13, "dateTime": 1691143478160, "trialdata": {"revealed_states": [], "clicked_states": ["12", "13", "14"], "num_clicks_accrued": [0, 0, 0, 0, 0, 0, 0, 0, 0, 0, 0, 0, 0], "stateRewards": ["", 1, 2, 2, -15, -84, 28, -26, 13, 31, 86, 30, -2, 1, -1, -8, 66, -40, -1, -10, -32, 57, -17, 1, 2, -2, 9, -23, 77, 85, 12, -32, -62, -35], "withholdReward": false, "trial_id": "mdp_trial_5", "block": "test", "trialIndex": 6, "score": -14.05, "costs": -1.0499999999999998, "simulationMode": [null, null, null, null, null], "rewards": [1, 2, -2, 9, -23], "path": ["0", "0", "23", "24", "25", "26", "27"], "rt": [5761, 237, 1528, 1749, 365], "actions": ["left", "left", "left", "up", "up"], "actionTimes": [9851, 10630, 12657, 14923, 15807], "queries": {"click": {"state": {"target": ["12", "13", "14"], "time": [5045, 5818, 7342]}, "edge": {"target": [], "time": []}}, "mouseover": {"state": {"target": ["0", "12", "13", "14"], "time": [4582, 4644, 5511, 7072]}, "edge": {"target": [], "time": []}}, "mouseout": {"state": {"target": ["0", "0", "12", "13"], "time": [3263, 4615, 5476, 6482]}, "edge": {"target": [], "time": []}}}, "displayed_time": "18.09", "trialTime": 22976, "trial_type": "mouselab-mdp", "trial_index": 13, "time_elapsed": 812469, "internal_node_id": "0.0-4.0-1.0-4.0"}}, {"uniqueid": "w50403724:a21013302", "current_trial": 14, "dateTime": 1691143499386, "trialdata": {"revealed_states": [], "clicked_states": [], "num_clicks_accrued": [0, 0, 0, 0, 0, 0, 0, 0, 0, 0, 0, 0, 0], "stateRewards": ["", 2, -1, 5, 6, 10, 86, 55, 10, -45, 63, -71, 1, -2, 5, -8, -50, -72, 36, 15, 61, 12, 33, -1, -4, 6, 5, 79, -56, -21, -16, -87, 60, -81], "withholdReward": false, "trial_id": "mdp_trial_6", "block": "test", "trialIndex": 7, "score": -29, "costs": 0, "simulationMode": [null, null, null, null, null], "rewards": [2, -1, 5, 10, -45], "path": ["0", "0", "1", "2", "3", "8", "9"], "rt": [533, 63, 126, 46, 261], "actions": ["up", "up", "up", "left", "up"], "actionTimes": [5040, 5652, 6310, 6888, 7693], "queries": {"click": {"state": {"target": [], "time": []}, "edge": {"target": [], "time": []}}, "mouseover": {"state": {"target": [], "time": []}, "edge": {"target": [], "time": []}}, "mouseout": {"state": {"target": ["14", "0"], "time": [2606, 2960]}, "edge": {"target": [], "time": []}}}, "displayed_time": "18.51", "trialTime": 20238, "trial_type": "mouselab-mdp", "trial_index": 14, "time_elapsed": 833696, "internal_node_id": "0.0-4.0-1.0-5.0"}}, {"uniqueid": "w50403724:a21013302", "current_trial": 15, "dateTime": 1691143519314, "trialdata": {"revealed_states": [], "clicked_states": [], "num_clicks_accrued": [0, 0, 0, 0, 0, 0, 0, 0, 0, 0, 0, 0, 0], "stateRewards": ["", 2, 3, -6, -5, -3, 55, 40, 11, 61, 11, 51, 2, -4, -6, 9, -25, 29, -15, -6, 7, -77, -2, -2, -4, 1, 14, -43, -1, 56, -12, -54, 41, -74], "withholdReward": false, "trial_id": "mdp_trial_7", "block": "test", "trialIndex": 8, "score": -16, "costs": 0, "simulationMode": [null, null, null, null, null], "rewards": [2, -4, -6, -6, -2], "path": ["0", "0", "12", "13", "14", "19", "22"], "rt": [797, 823, 367, 208, 487], "actions": ["right", "right", "right", "down", "left"], "actionTimes": [2137, 3475, 4367, 5093, 6103], "queries": {"click": {"state": {"target": [], "time": []}, "edge": {"target": [], "time": []}}, "mouseover": {"state": {"target": [], "time": []}, "edge": {"target": [], "time": []}}, "mouseout": {"state": {"target": [], "time": []}, "edge": {"target": [], "time": []}}}, "displayed_time": "15.34", "trialTime": 18589, "trial_type": "mouselab-mdp", "trial_index": 15, "time_elapsed": 853624, "internal_node_id": "0.0-4.0-1.0-6.0"}}, {"uniqueid": "w50403724:a21013302", "current_trial": 16, "dateTime": 1691143542290, "trialdata": {"revealed_states": [], "clicked_states": [], "num_clicks_accrued": [0, 0, 0, 0, 0, 0, 0, 0, 0, 0, 0, 0, 0], "stateRewards": ["", -2, 1, -7, 9, 8, 25, 61, -7, -17, 69, -81, 1, 4, -4, -11, 16, 67, 44, 3, 6, -45, -54, -2, 3, 6, -11, -15, 32, -47, 3, -39, -6, -88], "withholdReward": false, "trial_id": "mdp_trial_8", "block": "test", "trialIndex": 9, "score": 9, "costs": 0, "simulationMode": [null, null, null, null, null], "rewards": [-2, 1, -7, 9, 8], "path": ["0", "0", "1", "2", "3", "4", "5"], "rt": [1461, 168, 227, 173, 187], "actions": ["up", "up", "up", "right", "up"], "actionTimes": [5587, 6309, 7060, 7792, 8529], "queries": {"click": {"state": {"target": [], "time": []}, "edge": {"target": [], "time": []}}, "mouseover": {"state": {"target": [], "time": []}, "edge": {"target": [], "time": []}}, "mouseout": {"state": {"target": [], "time": []}, "edge": {"target": [], "time": []}}}, "displayed_time": "18.13", "trialTime": 21475, "trial_type": "mouselab-mdp", "trial_index": 16, "time_elapsed": 876600, "internal_node_id": "0.0-4.0-1.0-7.0"}}, {"uniqueid": "w50403724:a21013302", "current_trial": 17, "dateTime": 1691143563352, "trialdata": {"revealed_states": [], "clicked_states": [], "num_clicks_accrued": [0, 0, 0, 0, 0, 0, 0, 0, 0, 0, 0, 0, 0], "stateRewards": ["", 2, -3, -8, 14, -7, -51, 73, 2, 36, 36, -43, -1, 3, -4, 1, 6, 87, -65, 15, 61, -42, -83, -1, 3, -2, -7, 30, -48, 35, 13, 26, 60, 78], "withholdReward": false, "trial_id": "mdp_trial_9", "block": "test", "trialIndex": 10, "score": -2, "costs": 0, "simulationMode": [null, null, null, null, null], "rewards": [2, -3, -8, 14, -7], "path": ["0", "0", "1", "2", "3", "4", "5"], "rt": [430, 176, 198, 37, 5], "actions": ["up", "up", "up", "right", "up"], "actionTimes": [2481, 3180, 3902, 4454, 5018], "queries": {"click": {"state": {"target": [], "time": []}, "edge": {"target": [], "time": []}}, "mouseover": {"state": {"target": [], "time": []}, "edge": {"target": [], "time": []}}, "mouseout": {"state": {"target": [], "time": []}, "edge": {"target": [], "time": []}}}, "displayed_time": "16.06", "trialTime": 19941, "trial_type": "mouselab-mdp", "trial_index": 17, "time_elapsed": 897662, "internal_node_id": "0.0-4.0-1.0-8.0"}}, {"uniqueid": "w50403724:a21013302", "current_trial": 18, "dateTime": 1691143584524, "trialdata": {"revealed_states": [], "clicked_states": [], "num_clicks_accrued": [0, 0, 0, 0, 0, 0, 0, 0, 0, 0, 0, 0, 0], "stateRewards": ["", 2, -1, -3, 16, -3, -16, -62, -1, 13, -26, 43, -1, 4, 3, -9, -54, -37, -3, -12, -71, -68, -57, 1, -3, 2, -9, 2, -2, -9, -11, 84, -52, 55], "withholdReward": false, "trial_id": "mdp_trial_10", "block": "test", "trialIndex": 11, "score": 40, "costs": 0, "simulationMode": [null, null, null, null, null], "rewards": [2, -1, -3, -1, 43], "path": ["0", "0", "1", "2", "3", "8", "11"], "rt": [343, 54, 165, 791, 58], "actions": ["up", "up", "up", "left", "left"], "actionTimes": [3556, 4195, 4896, 6242, 6835], "queries": {"click": {"state": {"target": [], "time": []}, "edge": {"target": [], "time": []}}, "mouseover": {"state": {"target": [], "time": []}, "edge": {"target": [], "time": []}}, "mouseout": {"state": {"target": ["0", "0"], "time": [18738, 19342]}, "edge": {"target": [], "time": []}}}, "displayed_time": "17.22", "trialTime": 19850, "trial_type": "mouselab-mdp", "trial_index": 18, "time_elapsed": 918833, "internal_node_id": "0.0-4.0-1.0-9.0"}}, {"uniqueid": "w50403724:a21013302", "current_trial": 19, "dateTime": 1691143607763, "trialdata": {"revealed_states": [], "clicked_states": [], "num_clicks_accrued": [0, 0, 0, 0, 0, 0, 0, 0, 0, 0, 0, 0, 0], "stateRewards": ["", -2, -3, 1, -7, 39, -67, 16, 5, -20, 73, 66, -1, 4, 5, -3, 23, -68, -87, -8, 3, -3, 17, 1, -4, -2, -13, -32, 34, 61, -5, -11, -18, 12], "withholdReward": false, "trial_id": "mdp_trial_11", "block": "test", "trialIndex": 12, "score": -28, "costs": 0, "simulationMode": [null, null, null, null, null], "rewards": [1, -4, -2, -5, -18], "path": ["0", "0", "23", "24", "25", "30", "32"], "rt": [1627, 170, 386, 116, 123], "actions": ["left", "left", "left", "down", "down"], "actionTimes": [5126, 5805, 6712, 7340, 7979], "queries": {"click": {"state": {"target": [], "time": []}, "edge": {"target": [], "time": []}}, "mouseover": {"state": {"target": [], "time": []}, "edge": {"target": [], "time": []}}, "mouseout": {"state": {"target": ["2", "3", "0", "0", "5", "2", "1"], "time": [43, 74, 928, 20752, 20808, 20908, 21073]}, "edge": {"target": [], "time": []}}}, "displayed_time": "17.51", "trialTime": 21723, "trial_type": "mouselab-mdp", "trial_index": 19, "time_elapsed": 942072, "internal_node_id": "0.0-4.0-1.0-10.0"}}, {"uniqueid": "w50403724:a21013302", "current_trial": 20, "dateTime": 1691143629751, "trialdata": {"revealed_states": [], "clicked_states": [], "num_clicks_accrued": [0, 0, 0, 0, 0, 0, 0, 0, 0, 0, 0, 0, 0], "stateRewards": ["", 1, -3, -6, -5, 47, 80, -29, 11, -71, 10, -29, -2, 3, -6, 12, 2, -78, -6, 8, 34, -16, -5, -1, 3, 3, -13, 84, -36, -62, -3, -27, 66, 15], "withholdReward": false, "trial_id": "mdp_trial_12", "block": "test", "trialIndex": 13, "score": 34, "costs": 0, "simulationMode": [null, null, null, null, null], "rewards": [1, -3, -6, -5, 47], "path": ["0", "0", "1", "2", "3", "4", "5"], "rt": [1182, 289, 220, 52, 266], "actions": ["up", "up", "up", "right", "up"], "actionTimes": [5692, 6502, 7350, 7931, 8728], "queries": {"click": {"state": {"target": [], "time": []}, "edge": {"target": [], "time": []}}, "mouseover": {"state": {"target": [], "time": []}, "edge": {"target": [], "time": []}}, "mouseout": {"state": {"target": [], "time": []}, "edge": {"target": [], "time": []}}}, "displayed_time": "18.51", "trialTime": 20655, "trial_type": "mouselab-mdp", "trial_index": 20, "time_elapsed": 964061, "internal_node_id": "0.0-4.0-1.0-11.0"}}, {"uniqueid": "w50403724:a21013302", "current_trial": 21, "dateTime": 1691143651147, "trialdata": {"revealed_states": [], "clicked_states": [], "num_clicks_accrued": [0, 0, 0, 0, 0, 0, 0, 0, 0, 0, 0, 0, 0], "stateRewards": ["", -2, 3, -1, -9, 44, 48, -37, -3, 71, -39, 87, -1, 3, -4, 4, -21, 59, -15, -8, -1, 28, -38, 2, 4, 4, 8, -85, -72, -63, 14, 58, 63, -46], "withholdReward": false, "trial_id": "mdp_trial_13", "block": "test", "trialIndex": 14, "score": 61, "costs": 0, "simulationMode": [null, null, null, null, null], "rewards": [-1, 3, -4, 4, 59], "path": ["0", "0", "12", "13", "14", "15", "17"], "rt": [926, 277, 120, 171, 24], "actions": ["right", "right", "right", "up", "right"], "actionTimes": [3689, 4485, 5122, 5858, 6418], "queries": {"click": {"state": {"target": [], "time": []}, "edge": {"target": [], "time": []}}, "mouseover": {"state": {"target": [], "time": []}, "edge": {"target": [], "time": []}}, "mouseout": {"state": {"target": ["0", "23", "30"], "time": [18402, 18454, 18738]}, "edge": {"target": [], "time": []}}}, "displayed_time": "16.77", "trialTime": 19976, "trial_type": "mouselab-mdp", "trial_index": 21, "time_elapsed": 985456, "internal_node_id": "0.0-4.0-1.0-12.0"}}, {"uniqueid": "w50403724:a21013302", "current_trial": 22, "dateTime": 1691143673323, "trialdata": {"revealed_states": [], "clicked_states": [], "num_clicks_accrued": [0, 0, 0, 0, 0, 0, 0, 0, 0, 0, 0, 0, 0], "stateRewards": ["", 2, 3, 6, -5, -74, -53, 17, -12, 46, 44, 18, -2, 4, 1, -8, 22, -23, -49, 9, -45, 55, 81, 1, -1, -7, -16, -83, -71, -45, 2, 51, 82, 61], "withholdReward": false, "trial_id": "mdp_trial_14", "block": "test", "trialIndex": 15, "score": 23, "costs": 0, "simulationMode": [null, null, null, null, null], "rewards": [2, 3, 6, -5, 17], "path": ["0", "0", "1", "2", "3", "4", "7"], "rt": [427, 4, 239, 888, 552], "actions": ["up", "up", "up", "right", "down"], "actionTimes": [5627, 6263, 7036, 8790, 9867], "queries": {"click": {"state": {"target": [], "time": []}, "edge": {"target": [], "time": []}}, "mouseover": {"state": {"target": [], "time": []}, "edge": {"target": [], "time": []}}, "mouseout": {"state": {"target": [], "time": []}, "edge": {"target": [], "time": []}}}, "displayed_time": "19.20", "trialTime": 20953, "trial_type": "mouselab-mdp", "trial_index": 22, "time_elapsed": 1007632, "internal_node_id": "0.0-4.0-1.0-13.0"}}, {"uniqueid": "w50403724:a21013302", "current_trial": 23, "dateTime": 1691143692193, "trialdata": {"revealed_states": [], "clicked_states": [], "num_clicks_accrued": [0, 0, 0, 0, 0, 0, 0, 0, 0, 0, 0, 0, 0], "stateRewards": ["", 2, 1, -3, 7, 46, 11, -36, 16, 71, 5, 1, 2, -2, -8, -3, -4, 6, 55, 7, 68, -54, 2, 1, 1, 6, -6, 42, -4, -84, -11, -65, 63, 25], "withholdReward": false, "trial_id": "mdp_trial_15", "block": "test", "trialIndex": 16, "score": 21, "costs": 0, "simulationMode": [null, null, null, null, null], "rewards": [2, 1, -3, 16, 5], "path": ["0", "0", "1", "2", "3", "8", "10"], "rt": [580, 179, 363, 26, 248], "actions": ["up", "up", "up", "left", "down"], "actionTimes": [2461, 3159, 4041, 4524, 5294], "queries": {"click": {"state": {"target": [], "time": []}, "edge": {"target": [], "time": []}}, "mouseover": {"state": {"target": [], "time": []}, "edge": {"target": [], "time": []}}, "mouseout": {"state": {"target": [], "time": []}, "edge": {"target": [], "time": []}}}, "displayed_time": "15.89", "trialTime": 17537, "trial_type": "mouselab-mdp", "trial_index": 23, "time_elapsed": 1026502, "internal_node_id": "0.0-4.0-1.0-14.0"}}, {"uniqueid": "w50403724:a21013302", "current_trial": 24, "dateTime": 1691143711118, "trialdata": {"revealed_states": [], "clicked_states": [], "num_clicks_accrued": [0, 0, 0, 0, 0, 0, 0, 0, 0, 0, 0, 0, 0], "stateRewards": ["", 1, -2, 4, 7, -43, -83, -60, -5, -86, -80, 83, -1, -2, 6, 11, -15, 21, 13, 9, 29, -49, 11, -1, 4, -6, -11, 87, 40, 63, -8, -39, -11, 62], "withholdReward": false, "trial_id": "mdp_trial_16", "block": "test", "trialIndex": 17, "score": 81, "costs": 0, "simulationMode": [null, null, null, null, null], "rewards": [1, -2, 4, -5, 83], "path": ["0", "0", "1", "2", "3", "8", "11"], "rt": [1232, 780, 97, 878, 514], "actions": ["up", "up", "up", "left", "left"], "actionTimes": [3190, 4479, 5095, 6500, 7566], "queries": {"click": {"state": {"target": [], "time": []}, "edge": {"target": [], "time": []}}, "mouseover": {"state": {"target": [], "time": []}, "edge": {"target": [], "time": []}}, "mouseout": {"state": {"target": [], "time": []}, "edge": {"target": [], "time": []}}}, "displayed_time": "15.96", "trialTime": 17857, "trial_type": "mouselab-mdp", "trial_index": 24, "time_elapsed": 1045429, "internal_node_id": "0.0-4.0-1.0-15.0"}}, {"uniqueid": "w50403724:a21013302", "current_trial": 25, "dateTime": 1691143731338, "trialdata": {"revealed_states": [], "clicked_states": [], "num_clicks_accrued": [0, 0, 0, 0, 0, 0, 0, 0, 0, 0, 0, 0, 0], "stateRewards": ["", 1, 1, -6, -2, 7, 77, 3, 16, -16, 66, 31, -1, 3, -8, -6, 33, -50, -48, 7, -60, -66, 36, 2, -3, 3, -7, -12, -61, -79, -4, 8, 74, -70], "withholdReward": false, "trial_id": "mdp_trial_17", "block": "test", "trialIndex": 18, "score": -60, "costs": 0, "simulationMode": [null, null, null, null, null], "rewards": [-1, 3, -8, -6, -48], "path": ["0", "0", "12", "13", "14", "15", "18"], "rt": [1985, 16, 81, 149, 141], "actions": ["right", "right", "right", "up", "left"], "actionTimes": [4893, 5426, 6036, 6687, 7347], "queries": {"click": {"state": {"target": [], "time": []}, "edge": {"target": [], "time": []}}, "mouseover": {"state": {"target": [], "time": []}, "edge": {"target": [], "time": []}}, "mouseout": {"state": {"target": [], "time": []}, "edge": {"target": [], "time": []}}}, "displayed_time": "16.96", "trialTime": 18835, "trial_type": "mouselab-mdp", "trial_index": 25, "time_elapsed": 1065648, "internal_node_id": "0.0-4.0-1.0-16.0"}}, {"uniqueid": "w50403724:a21013302", "current_trial": 26, "dateTime": 1691143750821, "trialdata": {"revealed_states": [], "clicked_states": [], "num_clicks_accrued": [0, 0, 0, 0, 0, 0, 0, 0, 0, 0, 0, 0, 0], "stateRewards": ["", -1, -2, 4, 9, 10, -75, 39, 16, -43, 88, -19, -1, 1, 2, 4, -31, 10, 73, 12, 41, -64, -81, -2, 2, -6, 1, -81, -1, -26, 3, -59, -3, -20], "withholdReward": false, "trial_id": "mdp_trial_18", "block": "test", "trialIndex": 19, "score": 79, "costs": 0, "simulationMode": [null, null, null, null, null], "rewards": [-1, 1, 2, 4, 73], "path": ["0", "0", "12", "13", "14", "15", "18"], "rt": [1174, 66, 250, 289, 176], "actions": ["right", "right", "right", "up", "left"], "actionTimes": [3662, 4238, 5005, 5834, 6580], "queries": {"click": {"state": {"target": [], "time": []}, "edge": {"target": [], "time": []}}, "mouseover": {"state": {"target": [], "time": []}, "edge": {"target": [], "time": []}}, "mouseout": {"state": {"target": [], "time": []}, "edge": {"target": [], "time": []}}}, "displayed_time": "16.50", "trialTime": 18333, "trial_type": "mouselab-mdp", "trial_index": 26, "time_elapsed": 1085130, "internal_node_id": "0.0-4.0-1.0-17.0"}}, {"uniqueid": "w50403724:a21013302", "current_trial": 27, "dateTime": 1691143770213, "trialdata": {"revealed_states": [], "clicked_states": [], "num_clicks_accrued": [0, 0, 0, 0, 0, 0, 0, 0, 0, 0, 0, 0, 0], "stateRewards": ["", 1, 1, -5, 10, -31, 73, 14, -8, -23, 63, -70, -1, 2, 8, 7, 25, -59, 27, -10, -40, -71, -15, -2, 3, -8, -5, -19, 77, -34, 7, 67, 63, 19], "withholdReward": false, "trial_id": "mdp_trial_19", "block": "test", "trialIndex": 20, "score": 19, "costs": 0, "simulationMode": [null, null, null, null, null], "rewards": [-2, 3, -8, 7, 19], "path": ["0", "0", "23", "24", "25", "30", "33"], "rt": [1206, 157, 90, 728, 274], "actions": ["left", "left", "left", "down", "left"], "actionTimes": [3113, 3786, 4405, 5663, 6554], "queries": {"click": {"state": {"target": [], "time": []}, "edge": {"target": [], "time": []}}, "mouseover": {"state": {"target": [], "time": []}, "edge": {"target": [], "time": []}}, "mouseout": {"state": {"target": [], "time": []}, "edge": {"target": [], "time": []}}}, "displayed_time": "15.91", "trialTime": 18220, "trial_type": "mouselab-mdp", "trial_index": 27, "time_elapsed": 1104523, "internal_node_id": "0.0-4.0-1.0-18.0"}}, {"uniqueid": "w50403724:a21013302", "current_trial": 28, "dateTime": 1691143789856, "trialdata": {"revealed_states": [], "clicked_states": [], "num_clicks_accrued": [0, 0, 0, 0, 0, 0, 0, 0, 0, 0, 0, 0, 0], "stateRewards": ["", -1, 1, 8, -8, -49, 62, -78, 16, 28, -81, 78, -2, -3, -1, -4, 67, 49, -2, -13, -16, -39, 83, 1, -4, 4, -5, -20, 7, 84, 7, -32, -59, 19], "withholdReward": false, "trial_id": "mdp_trial_20", "block": "test", "trialIndex": 21, "score": -78, "costs": 0, "simulationMode": [null, null, null, null, null], "rewards": [-1, 1, 8, -8, -78], "path": ["0", "0", "1", "2", "3", "4", "7"], "rt": [1245, 418, 177, 16, 516], "actions": ["up", "up", "up", "right", "down"], "actionTimes": [2905, 3837, 4513, 5054, 6102], "queries": {"click": {"state": {"target": [], "time": []}, "edge": {"target": [], "time": []}}, "mouseover": {"state": {"target": [], "time": []}, "edge": {"target": [], "time": []}}, "mouseout": {"state": {"target": [], "time": []}, "edge": {"target": [], "time": []}}}, "displayed_time": "15.66", "trialTime": 18202, "trial_type": "mouselab-mdp", "trial_index": 28, "time_elapsed": 1124165, "internal_node_id": "0.0-4.0-1.0-19.0"}}, {"uniqueid": "w50403724:a21013302", "current_trial": 29, "dateTime": 1691143809661, "trialdata": {"revealed_states": [], "clicked_states": [], "num_clicks_accrued": [0, 0, 0, 0, 0, 0, 0, 0, 0, 0, 0, 0, 0], "stateRewards": ["", -2, 2, 2, -6, 9, 37, 50, -13, -7, -18, -75, -2, -4, 4, 7, 23, -57, -66, -7, -81, -48, -76, 1, 1, -8, 1, 51, -2, 70, 14, 59, 71, -37], "withholdReward": false, "trial_id": "mdp_trial_21", "block": "test", "trialIndex": 22, "score": -7, "costs": 0, "simulationMode": [null, null, null, null, null], "rewards": [1, 1, -8, 1, -2], "path": ["0", "0", "23", "24", "25", "26", "28"], "rt": [1818, 709, 205, 665, 509], "actions": ["left", "left", "left", "up", "right"], "actionTimes": [3865, 5141, 5887, 7067, 8092], "queries": {"click": {"state": {"target": [], "time": []}, "edge": {"target": [], "time": []}}, "mouseover": {"state": {"target": ["1"], "time": [3015]}, "edge": {"target": [], "time": []}}, "mouseout": {"state": {"target": ["1", "2", "2", "0", "1"], "time": [348, 482, 566, 2628, 3059]}, "edge": {"target": [], "time": []}}}, "displayed_time": "16.05", "trialTime": 18513, "trial_type": "mouselab-mdp", "trial_index": 29, "time_elapsed": 1143972, "internal_node_id": "0.0-4.0-1.0-20.0"}}, {"uniqueid": "w50403724:a21013302", "current_trial": 30, "dateTime": 1691143829519, "trialdata": {"revealed_states": [], "clicked_states": [], "num_clicks_accrued": [0, 0, 0, 0, 0, 0, 0, 0, 0, 0, 0, 0, 0], "stateRewards": ["", 1, 1, -3, 7, 49, 78, 26, -5, 26, 48, -43, -1, -3, 2, -5, 4, -1, -60, 10, -35, 51, 81, -2, 1, -7, -5, -39, -86, -54, 4, -3, 74, 77], "withholdReward": false, "trial_id": "mdp_trial_22", "block": "test", "trialIndex": 23, "score": 70, "costs": 0, "simulationMode": [null, null, null, null, null], "rewards": [-2, 1, -7, 4, 74], "path": ["0", "0", "23", "24", "25", "30", "32"], "rt": [1542, 134, 589, 567, 141], "actions": ["left", "left", "left", "down", "down"], "actionTimes": [3775, 4417, 5523, 6605, 7270], "queries": {"click": {"state": {"target": [], "time": []}, "edge": {"target": [], "time": []}}, "mouseover": {"state": {"target": [], "time": []}, "edge": {"target": [], "time": []}}, "mouseout": {"state": {"target": [], "time": []}, "edge": {"target": [], "time": []}}}, "displayed_time": "16.23", "trialTime": 18450, "trial_type": "mouselab-mdp", "trial_index": 30, "time_elapsed": 1163829, "internal_node_id": "0.0-4.0-1.0-21.0"}}, {"uniqueid": "w50403724:a21013302", "current_trial": 31, "dateTime": 1691143852353, "trialdata": {"revealed_states": [], "clicked_states": [], "num_clicks_accrued": [0, 0, 0, 0, 0, 0, 0, 0, 0, 0, 0, 0, 0], "stateRewards": ["", -1, 3, 8, 10, -86, 61, -36, 10, 17, -60, 24, -1, -3, 3, 11, 50, 60, 33, -3, -20, 58, -6, 1, -4, -4, 13, -70, -71, 43, 14, 52, 82, -11], "withholdReward": false, "trial_id": "mdp_trial_23", "block": "test", "trialIndex": 24, "score": -4, "costs": 0, "simulationMode": [null, null, null, null, null], "rewards": [1, -4, -4, 14, -11], "path": ["0", "0", "23", "24", "25", "30", "33"], "rt": [4104, 146, 186, 119, 162], "actions": ["left", "left", "left", "down", "left"], "actionTimes": [5973, 6635, 7344, 7989, 8665], "queries": {"click": {"state": {"target": [], "time": []}, "edge": {"target": [], "time": []}}, "mouseover": {"state": {"target": [], "time": []}, "edge": {"target": [], "time": []}}, "mouseout": {"state": {"target": [], "time": []}, "edge": {"target": [], "time": []}}}, "displayed_time": "15.87", "trialTime": 21558, "trial_type": "mouselab-mdp", "trial_index": 31, "time_elapsed": 1186663, "internal_node_id": "0.0-4.0-1.0-22.0"}}, {"uniqueid": "w50403724:a21013302", "current_trial": 32, "dateTime": 1691143870872, "trialdata": {"revealed_states": [], "clicked_states": [], "num_clicks_accrued": [0, 0, 0, 0, 0, 0, 0, 0, 0, 0, 0, 0, 0], "stateRewards": ["", -1, -3, 4, -10, -5, 79, -87, -2, 53, 29, -20, -2, -1, -5, 10, 27, 86, 46, -16, -29, 40, 3, 2, 4, -1, -6, 37, 79, -29, 7, 86, -62, 29], "withholdReward": false, "trial_id": "mdp_trial_24", "block": "test", "trialIndex": 25, "score": -15, "costs": 0, "simulationMode": [null, null, null, null, null], "rewards": [-1, -3, 4, -10, -5], "path": ["0", "0", "1", "2", "3", "4", "5"], "rt": [945, 65, 7, 123, 3627], "actions": ["up", "up", "up", "right", "up"], "actionTimes": [2750, 3359, 3912, 4605, 8970], "queries": {"click": {"state": {"target": [], "time": []}, "edge": {"target": [], "time": []}}, "mouseover": {"state": {"target": [], "time": []}, "edge": {"target": [], "time": []}}, "mouseout": {"state": {"target": [], "time": []}, "edge": {"target": [], "time": []}}}, "displayed_time": "15.81", "trialTime": 16781, "trial_type": "mouselab-mdp", "trial_index": 32, "time_elapsed": 1205157, "internal_node_id": "0.0-4.0-1.0-23.0"}}, {"uniqueid": "w50403724:a21013302", "current_trial": 33, "dateTime": 1691143890968, "trialdata": {"revealed_states": [], "clicked_states": [], "num_clicks_accrued": [0, 0, 0, 0, 0, 0, 0, 0, 0, 0, 0, 0, 0], "stateRewards": ["", 2, -1, 5, 8, 75, -35, -77, 1, -9, -81, -58, 1, 2, -7, 5, 77, -16, 19, 16, -10, -18, 40, -2, 3, 7, -5, 64, 1, -62, 10, 27, 10, 65], "withholdReward": false, "trial_id": "mdp_trial_25", "block": "test", "trialIndex": 26, "score": 2, "costs": 0, "simulationMode": [null, null, null, null, null], "rewards": [1, 2, -7, 16, -10], "path": ["0", "0", "12", "13", "14", "19", "20"], "rt": [760, 247, 49, 1020, 586], "actions": ["right", "right", "right", "down", "right"], "actionTimes": [2176, 2938, 3515, 5077, 6189], "queries": {"click": {"state": {"target": [], "time": []}, "edge": {"target": [], "time": []}}, "mouseover": {"state": {"target": [], "time": []}, "edge": {"target": [], "time": []}}, "mouseout": {"state": {"target": [], "time": []}, "edge": {"target": [], "time": []}}}, "displayed_time": "15.43", "trialTime": 17595, "trial_type": "mouselab-mdp", "trial_index": 33, "time_elapsed": 1225277, "internal_node_id": "0.0-4.0-1.0-24.0"}}, {"uniqueid": "w50403724:a21013302", "current_trial": 34, "dateTime": 1691143910051, "trialdata": {"revealed_states": [], "clicked_states": [], "num_clicks_accrued": [0, 0, 0, 0, 0, 0, 0, 0, 0, 0, 0, 0, 0], "stateRewards": ["", 2, -1, -1, 7, 11, -40, -22, -2, 69, 37, 8, -2, 4, -8, -12, -2, -72, -3, -12, 17, 63, 12, 1, 3, -7, 6, 25, 61, 61, -9, 28, -17, 27], "withholdReward": false, "trial_id": "mdp_trial_26", "block": "test", "trialIndex": 27, "score": -21, "costs": 0, "simulationMode": [null, null, null, null, null], "rewards": [-2, 4, -8, -12, -3], "path": ["0", "0", "12", "13", "14", "15", "18"], "rt": [2577, 207, 182, 217, 439], "actions": ["right", "right", "right", "up", "left"], "actionTimes": [4174, 4897, 5588, 6319, 7288], "queries": {"click": {"state": {"target": [], "time": []}, "edge": {"target": [], "time": []}}, "mouseover": {"state": {"target": [], "time": []}, "edge": {"target": [], "time": []}}, "mouseout": {"state": {"target": [], "time": []}, "edge": {"target": [], "time": []}}}, "displayed_time": "15.61", "trialTime": 17663, "trial_type": "mouselab-mdp", "trial_index": 34, "time_elapsed": 1244361, "internal_node_id": "0.0-4.0-1.0-25.0"}}, {"uniqueid": "w50403724:a21013302", "current_trial": 35, "dateTime": 1691143930631, "trialdata": {"revealed_states": [], "clicked_states": [], "num_clicks_accrued": [0, 0, 0, 0, 0, 0, 0, 0, 0, 0, 0, 0, 0], "stateRewards": ["", 2, -1, -2, -5, -47, -57, -33, -11, 31, -18, -72, -2, 1, -4, -8, -46, -53, -50, 15, -85, -9, 39, -2, -2, 1, 14, -1, -8, 53, -12, -41, -74, 62], "withholdReward": false, "trial_id": "mdp_trial_27", "block": "test", "trialIndex": 28, "score": -53, "costs": 0, "simulationMode": [null, null, null, null, null], "rewards": [2, -1, -2, -5, -47], "path": ["0", "0", "1", "2", "3", "4", "5"], "rt": [1096, 76, 204, 88, 179], "actions": ["up", "up", "up", "right", "up"], "actionTimes": [2957, 3550, 4306, 4897, 5608], "queries": {"click": {"state": {"target": [], "time": []}, "edge": {"target": [], "time": []}}, "mouseover": {"state": {"target": [], "time": []}, "edge": {"target": [], "time": []}}, "mouseout": {"state": {"target": ["0"], "time": [17186]}, "edge": {"target": [], "time": []}}}, "displayed_time": "15.87", "trialTime": 19225, "trial_type": "mouselab-mdp", "trial_index": 35, "time_elapsed": 1264938, "internal_node_id": "0.0-4.0-1.0-26.0"}}, {"uniqueid": "w50403724:a21013302", "current_trial": 36, "dateTime": 1691143951079, "trialdata": {"revealed_states": [], "clicked_states": [], "num_clicks_accrued": [0, 0, 0, 0, 0, 0, 0, 0, 0, 0, 0, 0, 0], "stateRewards": ["", 2, -3, -4, -1, 25, -16, 16, 10, -71, -20, -55, 1, 3, -4, -9, 1, 32, 11, -6, 32, -50, -41, -1, 4, 4, -8, 7, -81, 70, 2, -52, 45, -10], "withholdReward": false, "trial_id": "mdp_trial_28", "block": "test", "trialIndex": 29, "score": 19, "costs": 0, "simulationMode": [null, null, null, null, null], "rewards": [2, -3, -4, -1, 25], "path": ["0", "0", "1", "2", "3", "4", "5"], "rt": [727, 445, 374, 50, 451], "actions": ["up", "up", "up", "right", "up"], "actionTimes": [3440, 4405, 5301, 5875, 6853], "queries": {"click": {"state": {"target": [], "time": []}, "edge": {"target": [], "time": []}}, "mouseover": {"state": {"target": [], "time": []}, "edge": {"target": [], "time": []}}, "mouseout": {"state": {"target": ["0"], "time": [18091]}, "edge": {"target": [], "time": []}}}, "displayed_time": "16.72", "trialTime": 19077, "trial_type": "mouselab-mdp", "trial_index": 36, "time_elapsed": 1285385, "internal_node_id": "0.0-4.0-1.0-27.0"}}, {"uniqueid": "w50403724:a21013302", "current_trial": 37, "dateTime": 1691143971845, "trialdata": {"revealed_states": [], "clicked_states": [], "num_clicks_accrued": [0, 0, 0, 0, 0, 0, 0, 0, 0, 0, 0, 0, 0], "stateRewards": ["", -2, 3, -1, 2, -72, 63, 20, -1, 62, -66, 39, -2, 3, -6, 14, 22, 47, 1, 8, -49, -1, -41, 2, 2, -6, -16, -64, -60, -34, 16, 54, 22, -7], "withholdReward": false, "trial_id": "mdp_trial_29", "block": "test", "trialIndex": 30, "score": -70, "costs": 0, "simulationMode": [null, null, null, null, null], "rewards": [-2, 3, -1, 2, -72], "path": ["0", "0", "1", "2", "3", "4", "5"], "rt": [1417, 107, 1759, 629, 89], "actions": ["up", "up", "up", "right", "up"], "actionTimes": [5323, 5951, 8566, 9775, 10378], "queries": {"click": {"state": {"target": [], "time": []}, "edge": {"target": [], "time": []}}, "mouseover": {"state": {"target": [], "time": []}, "edge": {"target": [], "time": []}}, "mouseout": {"state": {"target": ["0"], "time": [19157]}, "edge": {"target": [], "time": []}}}, "displayed_time": "17.93", "trialTime": 19365, "trial_type": "mouselab-mdp", "trial_index": 37, "time_elapsed": 1306154, "internal_node_id": "0.0-4.0-1.0-28.0"}}, {"uniqueid": "w50403724:a21013302", "current_trial": 38, "dateTime": 1691143992106, "trialdata": {"revealed_states": [], "clicked_states": [], "num_clicks_accrued": [0, 0, 0, 0, 0, 0, 0, 0, 0, 0, 0, 0, 0], "stateRewards": ["", 2, -3, -5, 5, 11, -9, -33, 6, 67, 6, -30, -1, -2, -6, 13, 55, 13, 72, -14, 75, 21, -66, -2, -4, 6, 15, -1, -35, 60, 2, 51, -73, 12], "withholdReward": false, "trial_id": "mdp_trial_30", "block": "test", "trialIndex": 31, "score": 10, "costs": 0, "simulationMode": [null, null, null, null, null], "rewards": [2, -3, -5, 5, 11], "path": ["0", "0", "1", "2", "3", "4", "5"], "rt": [235, 176, 178, 164, 639], "actions": ["up", "up", "up", "right", "up"], "actionTimes": [2491, 3193, 3885, 4548, 5724], "queries": {"click": {"state": {"target": [], "time": []}, "edge": {"target": [], "time": []}}, "mouseover": {"state": {"target": [], "time": []}, "edge": {"target": [], "time": []}}, "mouseout": {"state": {"target": ["0", "0"], "time": [411, 17729]}, "edge": {"target": [], "time": []}}}, "displayed_time": "16.26", "trialTime": 18555, "trial_type": "mouselab-mdp", "trial_index": 38, "time_elapsed": 1326416, "internal_node_id": "0.0-4.0-1.0-29.0"}}, {"uniqueid": "w50403724:a21013302", "current_trial": 39, "dateTime": 1691144012198, "trialdata": {"revealed_states": [], "clicked_states": [], "num_clicks_accrued": [0, 0, 0, 0, 0, 0, 0, 0, 0, 0, 0, 0, 0], "stateRewards": ["", -2, -4, -2, 10, -8, -15, -47, 7, -84, 53, 5, -1, 2, -7, 3, 83, 31, 47, -1, 30, -8, 69, 2, -4, -1, 8, -7, 12, -8, -8, -13, 30, -84], "withholdReward": false, "trial_id": "mdp_trial_31", "block": "test", "trialIndex": 32, "score": 52, "costs": 0, "simulationMode": [null, null, null, null, null], "rewards": [-2, -4, -2, 7, 53], "path": ["0", "0", "1", "2", "3", "8", "10"], "rt": [183, 7, 350, 8, 28], "actions": ["up", "up", "up", "left", "down"], "actionTimes": [2288, 2817, 3735, 4250, 4813], "queries": {"click": {"state": {"target": [], "time": []}, "edge": {"target": [], "time": []}}, "mouseover": {"state": {"target": [], "time": []}, "edge": {"target": [], "time": []}}, "mouseout": {"state": {"target": ["0"], "time": [17789]}, "edge": {"target": [], "time": []}}}, "displayed_time": "16.11", "trialTime": 18456, "trial_type": "mouselab-mdp", "trial_index": 39, "time_elapsed": 1346507, "internal_node_id": "0.0-4.0-1.0-30.0"}}, {"uniqueid": "w50403724:a21013302", "current_trial": 40, "dateTime": 1691144032056, "trialdata": {"revealed_states": [], "clicked_states": [], "num_clicks_accrued": [0, 0, 0, 0, 0, 0, 0, 0, 0, 0, 0, 0, 0], "stateRewards": ["", 2, 4, -6, -13, -75, -81, 30, 7, 5, 59, -65, -1, -1, 7, 14, -38, 36, -41, 1, -54, -5, 64, 2, -1, 5, 6, -19, 79, 11, 16, -33, -50, 58], "withholdReward": false, "trial_id": "mdp_trial_32", "block": "test", "trialIndex": 33, "score": 70, "costs": 0, "simulationMode": [null, null, null, null, null], "rewards": [-1, -1, 7, 1, 64], "path": ["0", "0", "12", "13", "14", "19", "22"], "rt": [1119, 136, 32, 112, 169], "actions": ["right", "right", "right", "down", "left"], "actionTimes": [3320, 3974, 4530, 5183, 5875], "queries": {"click": {"state": {"target": [], "time": []}, "edge": {"target": [], "time": []}}, "mouseover": {"state": {"target": [], "time": []}, "edge": {"target": [], "time": []}}, "mouseout": {"state": {"target": ["0"], "time": [1207]}, "edge": {"target": [], "time": []}}}, "displayed_time": "16.21", "trialTime": 18369, "trial_type": "mouselab-mdp", "trial_index": 40, "time_elapsed": 1366367, "internal_node_id": "0.0-4.0-1.0-31.0"}}, {"uniqueid": "w50403724:a21013302", "current_trial": 41, "dateTime": 1691144052364, "trialdata": {"revealed_states": [], "clicked_states": [], "num_clicks_accrued": [0, 0, 0, 0, 0, 0, 0, 0, 0, 0, 0, 0, 0], "stateRewards": ["", -1, 1, -6, -1, 80, 23, 2, -11, 73, -81, 59, 1, 3, 5, -1, -26, 28, -3, 16, -59, -13, -50, -2, -2, 2, 15, -50, 86, 17, -4, 37, 35, 44], "withholdReward": false, "trial_id": "mdp_trial_33", "block": "test", "trialIndex": 34, "score": -34, "costs": 0, "simulationMode": [null, null, null, null, null], "rewards": [1, 3, 5, 16, -59], "path": ["0", "0", "12", "13", "14", "19", "20"], "rt": [1250, 406, 220, 566, 86], "actions": ["right", "right", "right", "down", "right"], "actionTimes": [3318, 4266, 5003, 6090, 6702], "queries": {"click": {"state": {"target": [], "time": []}, "edge": {"target": [], "time": []}}, "mouseover": {"state": {"target": [], "time": []}, "edge": {"target": [], "time": []}}, "mouseout": {"state": {"target": ["23", "0", "0", "33", "24", "23", "0"], "time": [236, 698, 17023, 17616, 17666, 17700, 17752]}, "edge": {"target": [], "time": []}}}, "displayed_time": "16.07", "trialTime": 18705, "trial_type": "mouselab-mdp", "trial_index": 41, "time_elapsed": 1386674, "internal_node_id": "0.0-4.0-1.0-32.0"}}, {"uniqueid": "w50403724:a21013302", "current_trial": 42, "dateTime": 1691144073355, "trialdata": {"revealed_states": [], "clicked_states": [], "num_clicks_accrued": [0, 0, 0, 0, 0, 0, 0, 0, 0, 0, 0, 0, 0], "stateRewards": ["", -2, -1, 3, -3, 71, -58, -21, 7, -10, -75, -37, 2, 4, -1, -12, -79, -29, -48, 3, -41, -10, -30, -1, -2, 1, -15, 13, 66, 22, -1, -42, -86, -55], "withholdReward": false, "trial_id": "mdp_trial_34", "block": "test", "trialIndex": 35, "score": -2, "costs": 0, "simulationMode": [null, null, null, null, null], "rewards": [2, 4, -1, 3, -10], "path": ["0", "0", "12", "13", "14", "19", "21"], "rt": [822, 200, 78, 108, 325], "actions": ["right", "right", "right", "down", "down"], "actionTimes": [3115, 3841, 4446, 5081, 5936], "queries": {"click": {"state": {"target": [], "time": []}, "edge": {"target": [], "time": []}}, "mouseover": {"state": {"target": [], "time": []}, "edge": {"target": [], "time": []}}, "mouseout": {"state": {"target": [], "time": []}, "edge": {"target": [], "time": []}}}, "displayed_time": "16.30", "trialTime": 18085, "trial_type": "mouselab-mdp", "trial_index": 42, "time_elapsed": 1407664, "internal_node_id": "0.0-4.0-1.0-33.0"}}, {"uniqueid": "w50403724:a21013302", "current_trial": 43, "dateTime": 1691144094165, "trialdata": {"revealed_states": [], "clicked_states": [], "num_clicks_accrued": [0, 0, 0, 0, 0, 0, 0, 0, 0, 0, 0, 0, 0], "stateRewards": ["", -2, 2, -4, -4, -59, 88, 62, -3, 69, -15, -34, 1, -2, -5, 7, -54, -20, 78, -16, -74, -53, -21, 2, -4, 2, 13, -8, -44, 26, 9, 72, 4, 17], "withholdReward": false, "trial_id": "mdp_trial_35", "block": "test", "trialIndex": 36, "score": -67, "costs": 0, "simulationMode": [null, null, null, null, null], "rewards": [-2, 2, -4, -4, -59], "path": ["0", "0", "1", "2", "3", "4", "5"], "rt": [582, 114, 90, 367, 227], "actions": ["up", "up", "up", "right", "up"], "actionTimes": [2752, 3365, 3972, 4851, 5605], "queries": {"click": {"state": {"target": [], "time": []}, "edge": {"target": [], "time": []}}, "mouseover": {"state": {"target": [], "time": []}, "edge": {"target": [], "time": []}}, "mouseout": {"state": {"target": ["0", "31", "32", "12", "7", "12", "1"], "time": [17567, 17666, 17704, 17918, 18017, 18382, 18930]}, "edge": {"target": [], "time": []}}}, "displayed_time": "16.18", "trialTime": 19428, "trial_type": "mouselab-mdp", "trial_index": 43, "time_elapsed": 1428475, "internal_node_id": "0.0-4.0-1.0-34.0"}}, {"uniqueid": "w50403724:a21013302", "current_trial": 44, "dateTime": 1691144116843, "trialdata": {"revealed_states": [], "clicked_states": [], "num_clicks_accrued": [0, 0, 0, 0, 0, 0, 0, 0, 0, 0, 0, 0, 0], "stateRewards": ["", 1, 2, -3, -5, 66, -50, -47, -5, 1, 28, -27, 1, 1, -1, -6, 37, -25, 56, 1, -82, -66, -40, -1, -4, -7, 15, -61, -23, 26, 10, 14, -56, 29], "withholdReward": false, "trial_id": "mdp_trial_36", "block": "test", "trialIndex": 37, "score": -4, "costs": 0, "simulationMode": [null, null, null, null, null], "rewards": [1, 2, -3, -5, 1], "path": ["0", "0", "1", "2", "3", "8", "9"], "rt": [12392, 12, 668, 421, 71], "actions": ["up", "up", "up", "left", "up"], "actionTimes": [14836, 15367, 16623, 17562, 18169], "queries": {"click": {"state": {"target": [], "time": []}, "edge": {"target": [], "time": []}}, "mouseover": {"state": {"target": [], "time": []}, "edge": {"target": [], "time": []}}, "mouseout": {"state": {"target": [], "time": []}, "edge": {"target": [], "time": []}}}, "displayed_time": "18.71", "trialTime": 20273, "trial_type": "mouselab-mdp", "trial_index": 44, "time_elapsed": 1451153, "internal_node_id": "0.0-4.0-1.0-35.0"}}, {"uniqueid": "w50403724:a21013302", "current_trial": 45, "dateTime": 1691144141006, "trialdata": {"revealed_states": [], "clicked_states": ["23", "24", "25", "26", "27"], "num_clicks_accrued": [0, 0, 0, 0, 0, 0, 0, 0, 0, 0, 0, 0, 0], "stateRewards": ["", 1, 1, 4, 11, 83, -66, 18, -16, -23, 5, 25, 1, -3, 1, -12, 18, 24, -86, -11, -64, 36, 40, 2, 1, -6, 13, 55, 29, 72, -2, 81, -72, -41], "withholdReward": false, "trial_id": "mdp_trial_37", "block": "test", "trialIndex": 38, "score": 95.25, "costs": -4.75, "simulationMode": [null, null, null, null, null, null], "rewards": [1, 1, 4, 11, 83], "path": ["0", "0", "1", "2", "3", "4", "5"], "rt": [8285, 2912, 178, 497, 260, 24], "actions": ["left", "up", "up", "up", "right", "up"], "actionTimes": [11335, 14253, 14981, 16030, 16873, 17432], "queries": {"click": {"state": {"target": ["23", "24", "25", "26", "27"], "time": [4151, 5134, 6697, 8712, 9674]}, "edge": {"target": [], "time": []}}, "mouseover": {"state": {"target": ["12", "23", "24", "25", "26", "27"], "time": [3094, 3744, 4678, 6355, 8345, 9266]}, "edge": {"target": [], "time": []}}, "mouseout": {"state": {"target": ["4", "12", "0", "12", "23", "24", "25", "26", "27"], "time": [247, 699, 3088, 3296, 4486, 6331, 8294, 9228, 9887]}, "edge": {"target": [], "time": []}}}, "displayed_time": "18.00", "trialTime": 21194, "trial_type": "mouselab-mdp", "trial_index": 45, "time_elapsed": 1475316, "internal_node_id": "0.0-4.0-1.0-36.0"}}, {"uniqueid": "w50403724:a21013302", "current_trial": 46, "dateTime": 1691144165271, "trialdata": {"revealed_states": [], "clicked_states": [], "num_clicks_accrued": [0, 0, 0, 0, 0, 0, 0, 0, 0, 0, 0, 0, 0], "stateRewards": ["", -2, -3, -5, 8, 27, 11, 43, -6, -24, -87, 69, -2, 1, 1, 9, 19, 48, -37, 9, -14, 45, 62, 1, 2, 1, 16, -81, -41, 22, 4, -6, -63, 47], "withholdReward": false, "trial_id": "mdp_trial_38", "block": "test", "trialIndex": 39, "score": 57, "costs": 0, "simulationMode": [null, null, null, null, null], "rewards": [-2, 1, 1, 9, 48], "path": ["0", "0", "12", "13", "14", "15", "17"], "rt": [921, 148, 52, 894, 22], "actions": ["right", "right", "right", "up", "right"], "actionTimes": [5477, 6140, 6716, 8199, 8755], "queries": {"click": {"state": {"target": [], "time": []}, "edge": {"target": [], "time": []}}, "mouseover": {"state": {"target": [], "time": []}, "edge": {"target": [], "time": []}}, "mouseout": {"state": {"target": ["16", "15", "23", "0", "31"], "time": [1207, 1606, 1774, 19442, 19527]}, "edge": {"target": [], "time": []}}}, "displayed_time": "18.56", "trialTime": 20041, "trial_type": "mouselab-mdp", "trial_index": 46, "time_elapsed": 1499581, "internal_node_id": "0.0-4.0-1.0-37.0"}}, {"uniqueid": "w50403724:a21013302", "current_trial": 47, "dateTime": 1691144187982, "trialdata": {"revealed_states": [], "clicked_states": ["12", "13", "15"], "num_clicks_accrued": [0, 0, 0, 0, 0, 0, 0, 0, 0, 0, 0, 0, 0], "stateRewards": ["", -1, 2, -6, 6, 43, 78, 78, -2, 55, -29, -17, -2, -4, 1, -15, 13, 7, -79, 8, -28, -68, 36, -1, -3, 3, -16, 84, -18, 87, 10, 32, 13, -81], "withholdReward": false, "trial_id": "mdp_trial_39", "block": "test", "trialIndex": 40, "score": 39.35, "costs": -1.65, "simulationMode": [null, null, null, null, null], "rewards": [-1, -3, 3, 10, 32], "path": ["0", "0", "23", "24", "25", "30", "31"], "rt": [9546, 1022, 849, 251, 325], "actions": ["left", "left", "left", "down", "right"], "actionTimes": [12199, 13748, 15111, 15881, 16721], "queries": {"click": {"state": {"target": ["12", "13", "15"], "time": [4391, 5697, 6852]}, "edge": {"target": [], "time": []}}, "mouseover": {"state": {"target": ["12", "22", "13", "12", "13", "15", "12", "1"], "time": [2835, 3420, 3719, 4009, 4743, 6440, 8112, 8434]}, "edge": {"target": [], "time": []}}, "mouseout": {"state": {"target": ["32", "32", "0", "0", "12", "22", "13", "12", "13", "15", "13", "12", "1"], "time": [769, 1126, 1352, 2801, 2951, 3692, 3986, 4718, 5919, 7998, 8100, 8150, 10688]}, "edge": {"target": [], "time": []}}}, "displayed_time": "17.24", "trialTime": 21182, "trial_type": "mouselab-mdp", "trial_index": 47, "time_elapsed": 1522291, "internal_node_id": "0.0-4.0-1.0-38.0"}}, {"uniqueid": "w50403724:a21013302", "current_trial": 48, "dateTime": 1691144208532, "trialdata": {"revealed_states": [], "clicked_states": ["1", "2", "3"], "num_clicks_accrued": [0, 0, 0, 0, 0, 0, 0, 0, 0, 0, 0, 0, 0], "stateRewards": ["", -1, -4, -1, -11, 43, 69, 39, 4, 17, -20, -82, -2, -1, 4, 8, -79, 24, -79, 11, 36, 64, 41, 2, 4, -1, 11, -79, -47, 75, -3, 63, -36, -19], "withholdReward": false, "trial_id": "mdp_trial_40", "block": "test", "trialIndex": 41, "score": 74.95, "costs": -1.0499999999999998, "simulationMode": [null, null, null, null, null], "rewards": [-2, -1, 4, 11, 64], "path": ["0", "0", "12", "13", "14", "19", "21"], "rt": [6707, 207, 170, 272, 299], "actions": ["right", "right", "right", "down", "down"], "actionTimes": [9327, 10061, 10770, 11570, 12405], "queries": {"click": {"state": {"target": ["1", "2", "3"], "time": [4560, 6158, 7919]}, "edge": {"target": [], "time": []}}, "mouseover": {"state": {"target": ["1", "2", "3", "3", "7", "18", "14", "14", "13"], "time": [3387, 5796, 6674, 7562, 8272, 8303, 8358, 8597, 8702]}, "edge": {"target": [], "time": []}}, "mouseout": {"state": {"target": ["0", "0", "1", "2", "3", "3", "7", "18", "14", "14", "13"], "time": [1535, 3321, 5081, 6627, 6996, 8265, 8298, 8330, 8442, 8647, 18090]}, "edge": {"target": [], "time": []}}}, "displayed_time": "16.63", "trialTime": 18351, "trial_type": "mouselab-mdp", "trial_index": 48, "time_elapsed": 1542841, "internal_node_id": "0.0-4.0-1.0-39.0"}}, {"uniqueid": "w50403724:a21013302", "current_trial": 49, "dateTime": 1691144313765, "trialdata": {"rt": 105167, "response": {"Q0": "$-2 to $2", "Q1": "$-4 to $4", "Q2": "$-32 to $32", "Q3": "The cost was always $1.4.", "Q4": "Very motivated"}, "question_order": [0, 1, 2, 3, 4], "trial_id": "final_quiz_control", "trial_type": "survey-multi-choice", "trial_index": 49, "time_elapsed": 1648075, "internal_node_id": "0.0-4.0-2.0"}}, {"uniqueid": "w50403724:a21013302", "current_trial": 50, "dateTime": 1691144455416, "trialdata": {"rt": 141566, "response": {"Q0": "I tried using the assessor at first then tried guessing but essentially I ended up repeating the same path and it worked a few times ", "Q1": "Yes, I would repeat the path at least twice, if I lost money the 2nd time I would get a reward", "Q2": "Not that difficult"}, "trial_id": "self_report_control", "trial_type": "survey-text", "trial_index": 50, "time_elapsed": 1789726, "internal_node_id": "0.0-4.0-3.0"}}, {"uniqueid": "w50403724:a21013302", "current_trial": 51, "dateTime": 1691144554771, "trialdata": {"rt": 99318, "response": {"Q0": "Agree", "Q1": "Disagree", "Q2": "Agree", "Q3": "Disagree", "Q4": "Neither disagree nor agree", "Q5": "Strongly agree", "Q6": "Disagree"}, "question_order": [0, 1, 2, 3, 4, 5, 6], "trial_id": "self_report_2", "trial_type": "survey-multi-choice", "trial_index": 51, "time_elapsed": 1889082, "internal_node_id": "0.0-4.0-4.0"}}, {"uniqueid": "w50403724:a21013302", "current_trial": 52, "dateTime": 1691144579659, "trialdata": {"rt": 24855, "response": {"gender": "female", "age": "33", "colorblind": "0", "effort": "0"}, "trial_type": "survey-html-form", "trial_index": 52, "time_elapsed": 1913969, "internal_node_id": "0.0-4.0-5.0"}}, {"uniqueid": "w50403724:a21013302", "current_trial": 53, "dateTime": 1691144606161, "trialdata": {"rt": 26470, "response": {"Q0": "No", "Q1": "No", "Q2": "None"}, "trial_type": "survey-text", "trial_index": 53, "time_elapsed": 1940472, "internal_node_id": "0.0-4.0-6.0"}}, {"uniqueid": "w50403724:a21013302", "current_trial": 54, "dateTime": 1691144609168, "trialdata": {"rt": 2995, "stimulus": "Press 'Finish HIT' in order to reach the completion code. Once the data has been saved, you will receive the code either in this window or in the original browser window where you started the experiment.\n", "response": 0, "trial_type": "html-button-response", "trial_index": 54, "time_elapsed": 1943479, "internal_node_id": "0.0-5.0"}}, {"uniqueid": "w50403724:a21013302", "current_trial": 55, "dateTime": 1691144610179, "trialdata": {"success": true, "trial_type": "fullscreen", "trial_index": 55, "time_elapsed": 1944490, "internal_node_id": "0.0-6.0"}}], "questiondata": {"params": {"CODE": "C6DMOQA6", "MIN_TIME": 14, "inspectCost": 1, "startTime": "Fri Aug 04 2023 11:50:59 GMT+0200 (South Africa Standard Time)", "bonusRate": 0.002, "variance": "1_2_4_8_44", "branching": "31123"}, "final_score": 424.4}, "eventdata": [{"eventtype": "initialized", "interval": 0, "timestamp": 1691142517296, "value": null}, {"eventtype": "window_resize", "interval": 0, "timestamp": 1691142517296, "value": [1028, 744]}, {"eventtype": "window_resize", "interval": 1574, "timestamp": 1691142518870, "value": [1028, 744]}, {"eventtype": "window_resize", "value": [1028, 744], "timestamp": 1691142656540, "interval": 137670}, {"eventtype": "window_resize", "value": [1536, 864], "timestamp": 1691142671498, "interval": 14958}, {"eventtype": "window_resize", "value": [1028, 744], "timestamp": 1691144609749, "interval": 1938251}], "useragent": "Mozilla/5.0 (Windows NT 10.0; Win64; x64) AppleWebKit/537.36 (KHTML, like Gecko) Chrome/115.0.0.0 Safari/537.36", "mode": "live", "id": "w50403724:a21013302", "status": "user data saved", "Beginhit": "2023-08-04 09:42:42.585861", "Beginexp": "2023-08-04 09:51:09.749262", "Endhit": "2023-08-04 10:23:31.740195", "psiturkStatus": 3, "browser": "<redacted>", "platform": "windows", "language": "en-ZA"}