{"condition": 1, "counterbalance": 0, "assignmentId": "a83609650", "workerId": "w63037649", "hitId": "h60075189", "currenttrial": 13, "bonus": 0, "data": [{"uniqueid": "w63037649:a83609650", "current_trial": 0, "dateTime": 1691142221537, "trialdata": {"success": true, "trial_type": "fullscreen", "trial_index": 0, "time_elapsed": 9077, "internal_node_id": "0.0-0.0"}}, {"uniqueid": "w63037649:a83609650", "current_trial": 1, "dateTime": 1691142600732, "trialdata": {"view_history": [{"page_index": 0, "viewing_time": 379179}], "rt": 379180, "trial_id": "exp_instructions_misaligned", "trial_type": "instructions", "trial_index": 1, "time_elapsed": 388272, "internal_node_id": "0.0-1.0"}}, {"uniqueid": "w63037649:a83609650", "current_trial": 2, "dateTime": 1691142603534, "trialdata": {"success": true, "trial_type": "fullscreen", "trial_index": 2, "time_elapsed": 391075, "internal_node_id": "0.0-2.0-0.0"}}, {"uniqueid": "w63037649:a83609650", "current_trial": 3, "dateTime": 1691144556849, "trialdata": {"view_history": [{"page_index": 0, "viewing_time": 1290882}, {"page_index": 1, "viewing_time": 556629}, {"page_index": 2, "viewing_time": 17412}, {"page_index": 3, "viewing_time": 88390}], "rt": 1953313, "trial_id": "mouselab_instructions_1_misaligned", "trial_type": "instructions", "trial_index": 3, "time_elapsed": 2344390, "internal_node_id": "0.0-2.0-1.0"}}, {"uniqueid": "w63037649:a83609650", "current_trial": 4, "dateTime": 1691144589857, "trialdata": {"revealed_states": [], "clicked_states": [], "num_clicks_accrued": [0, 0, 0, 0, 0, 0, 0, 0, 0, 0, 0, 0, 0], "stateRewards": ["", -10, 10, -10, 10, 10, 10, -10, -10, 10, 10, -10, 10, -10, -10, 10, 10, 10, -10, -10, -10, 10, -10, 10, 10, -10, 10, -10, -10, 10, 10, -10, -10, -10], "withholdReward": false, "trial_id": "practice_1", "block": "test", "trialIndex": 0, "score": 13.5, "costs": 0, "simulationMode": [null, null, null, null, null], "rewards": [-10, 10, -10, 10, 10], "path": ["0", "0", "1", "2", "3", "4", "5"], "rt": [2422, 1307, 3296, 2029, 466], "actions": ["up", "up", "up", "right", "up"], "actionTimes": [12806, 14634, 18422, 20955, 21927], "queries": {"click": {"state": {"target": [], "time": []}, "edge": {"target": [], "time": []}}, "mouseover": {"state": {"target": ["12", "13", "14"], "time": [11174, 11359, 11410]}, "edge": {"target": [], "time": []}}, "mouseout": {"state": {"target": ["22", "14", "14", "22", "0", "12", "13", "14"], "time": [null, null, 6645, 6890, 11124, 11325, 11393, 11441]}, "edge": {"target": [], "time": []}}}, "displayed_time": "22.44", "trialTime": 31904, "trial_type": "mouselab-mdp", "trial_index": 4, "time_elapsed": 2377397, "internal_node_id": "0.0-2.0-2.0-0.0"}}, {"uniqueid": "w63037649:a83609650", "current_trial": 5, "dateTime": 1691144620951, "trialdata": {"revealed_states": [], "clicked_states": [], "num_clicks_accrued": [0, 0, 0, 0, 0, 0, 0, 0, 0, 0, 0, 0, 0], "stateRewards": ["", 10, 10, 10, -10, -10, 10, -10, 10, -10, 10, -10, -10, 10, -10, -10, 10, -10, -10, -10, 10, -10, 10, 10, -10, -10, -10, 10, -10, 10, -10, -10, 10, 10], "withholdReward": false, "trial_id": "practice_2", "block": "test", "trialIndex": 1, "score": -6.5, "costs": 0, "simulationMode": [null, null, null, null, null], "rewards": [10, -10, -10, -10, 10], "path": ["0", "0", "23", "24", "25", "26", "27"], "rt": [3667, 616, 644, 898, 690], "actions": ["left", "left", "left", "up", "up"], "actionTimes": [7961, 9085, 10230, 11632, 12826], "queries": {"click": {"state": {"target": [], "time": []}, "edge": {"target": [], "time": []}}, "mouseover": {"state": {"target": ["12", "13"], "time": [4415, 4434]}, "edge": {"target": [], "time": []}}, "mouseout": {"state": {"target": ["14", "13", "12", "13", "14", "19"], "time": [3336, 3353, 4432, 4449, 29370, 29437]}, "edge": {"target": [], "time": []}}}, "displayed_time": "13.32", "trialTime": 30874, "trial_type": "mouselab-mdp", "trial_index": 5, "time_elapsed": 2408491, "internal_node_id": "0.0-2.0-2.0-1.0"}}, {"uniqueid": "w63037649:a83609650", "current_trial": 6, "dateTime": 1691144934908, "trialdata": {"view_history": [{"page_index": 0, "viewing_time": 311151}, {"page_index": 1, "viewing_time": 2798}], "rt": 313949, "trial_id": "mouselab_instructions_2_misaligned", "trial_type": "instructions", "trial_index": 6, "time_elapsed": 2722449, "internal_node_id": "0.0-2.0-3.0"}}, {"uniqueid": "w63037649:a83609650", "current_trial": 7, "dateTime": 1691145061781, "trialdata": {"rt": 126869, "response": {"Q0": "The cost for clicking on nodes may vary between nodes.", "Q1": "I will receive a $1 bonus if I perform well, otherwise I will receive no bonus.", "Q2": "No, the amount of cash at each node of the web may be different each time.", "Q3": "To finish the game in the shortest amount of time.", "Q4": "Only before moving the spider.", "Q5": "3 seconds"}, "question_order": [0, 1, 2, 3, 4, 5], "correct": {"Q0": "The cost for clicking on nodes may vary between nodes.", "Q1": "The better I perform the higher my bonus will be.", "Q2": "No, the amount of cash at each node of the web may be different each time.", "Q3": "To get the highest total score.", "Q4": "Only before moving the spider.", "Q5": "3 seconds"}, "trial_id": "mouselab_quiz_misaligned", "trial_type": "survey-multi-choice", "trial_index": 7, "time_elapsed": 2849322, "internal_node_id": "0.0-2.0-4.0"}}, {"uniqueid": "w63037649:a83609650", "current_trial": 8, "dateTime": 1691145078822, "trialdata": {"success": true, "trial_type": "fullscreen", "trial_index": 8, "time_elapsed": 2866363, "internal_node_id": "0.0-2.1-0.1"}}, {"uniqueid": "w63037649:a83609650", "current_trial": 9, "dateTime": 1691145157177, "trialdata": {"view_history": [{"page_index": 0, "viewing_time": 52516}, {"page_index": 1, "viewing_time": 17918}, {"page_index": 2, "viewing_time": 3160}, {"page_index": 3, "viewing_time": 4758}], "rt": 78352, "trial_id": "mouselab_instructions_1_misaligned", "trial_type": "instructions", "trial_index": 9, "time_elapsed": 2944718, "internal_node_id": "0.0-2.1-1.1"}}, {"uniqueid": "w63037649:a83609650", "current_trial": 10, "dateTime": 1691145172902, "trialdata": {"revealed_states": [], "clicked_states": [], "num_clicks_accrued": [0, 0, 0, 0, 0, 0, 0, 0, 0, 0, 0, 0, 0], "stateRewards": ["", -10, 10, -10, 10, 10, 10, -10, -10, 10, 10, -10, 10, -10, -10, 10, 10, 10, -10, -10, -10, 10, -10, 10, 10, -10, 10, -10, -10, 10, 10, -10, -10, -10], "withholdReward": false, "trial_id": "practice_1", "block": "test", "trialIndex": 2, "score": -6.5, "costs": 0, "simulationMode": [null, null, null, null, null], "rewards": [-10, 10, -10, -10, 10], "path": ["0", "0", "1", "2", "3", "8", "9"], "rt": [956, 663, 789, 1905, 939], "actions": ["up", "up", "up", "left", "up"], "actionTimes": [4688, 5849, 7142, 9542, 10976], "queries": {"click": {"state": {"target": [], "time": []}, "edge": {"target": [], "time": []}}, "mouseover": {"state": {"target": [], "time": []}, "edge": {"target": [], "time": []}}, "mouseout": {"state": {"target": [], "time": []}, "edge": {"target": [], "time": []}}}, "displayed_time": "11.47", "trialTime": 15507, "trial_type": "mouselab-mdp", "trial_index": 10, "time_elapsed": 2960441, "internal_node_id": "0.0-2.1-2.1-0.1"}}, {"uniqueid": "w63037649:a83609650", "current_trial": 11, "dateTime": 1691145184506, "trialdata": {"revealed_states": [], "clicked_states": [], "num_clicks_accrued": [0, 0, 0, 0, 0, 0, 0, 0, 0, 0, 0, 0, 0], "stateRewards": ["", 10, 10, 10, -10, -10, 10, -10, 10, -10, 10, -10, -10, 10, -10, -10, 10, -10, -10, -10, 10, -10, 10, 10, -10, -10, -10, 10, -10, 10, -10, -10, 10, 10], "withholdReward": false, "trial_id": "practice_2", "block": "test", "trialIndex": 3, "score": 13.5, "costs": 0, "simulationMode": [null, null, null, null, null], "rewards": [10, 10, 10, -10, -10], "path": ["0", "0", "1", "2", "3", "4", "5"], "rt": [1454, 205, 336, 61, 33], "actions": ["up", "up", "up", "right", "up"], "actionTimes": [5549, 6269, 7115, 7691, 8244], "queries": {"click": {"state": {"target": [], "time": []}, "edge": {"target": [], "time": []}}, "mouseover": {"state": {"target": [], "time": []}, "edge": {"target": [], "time": []}}, "mouseout": {"state": {"target": [], "time": []}, "edge": {"target": [], "time": []}}}, "displayed_time": "8.76", "trialTime": 11355, "trial_type": "mouselab-mdp", "trial_index": 11, "time_elapsed": 2972046, "internal_node_id": "0.0-2.1-2.1-1.1"}}, {"uniqueid": "w63037649:a83609650", "current_trial": 12, "dateTime": 1691145227076, "trialdata": {"view_history": [{"page_index": 0, "viewing_time": 41051}, {"page_index": 1, "viewing_time": 1516}], "rt": 42567, "trial_id": "mouselab_instructions_2_misaligned", "trial_type": "instructions", "trial_index": 12, "time_elapsed": 3014617, "internal_node_id": "0.0-2.1-3.1"}}], "questiondata": {"params": {"CODE": "C6DMOQA6", "MIN_TIME": 14, "inspectCost": 1, "startTime": "Fri Aug 04 2023 11:43:25 GMT+0200 (South Africa Standard Time)", "bonusRate": 0.002, "variance": "1_2_4_8_44", "branching": "31123"}}, "eventdata": [{"eventtype": "initialized", "value": null, "timestamp": 1691142205056, "interval": 0}, {"eventtype": "window_resize", "value": [1536, 806], "timestamp": 1691142205056, "interval": 0}, {"eventtype": "window_resize", "value": [1536, 806], "timestamp": 1691142205673, "interval": 617}, {"eventtype": "focus", "value": "on", "timestamp": 1691142220387, "interval": 14714}, {"eventtype": "window_resize", "value": [1536, 864], "timestamp": 1691142220777, "interval": 390}, {"eventtype": "focus", "value": "off", "timestamp": 1691142605768, "interval": 384991}, {"eventtype": "focus", "value": "on", "timestamp": 1691143762596, "interval": 1156828}, {"eventtype": "focus", "value": "off", "timestamp": 1691144142658, "interval": 380062}, {"eventtype": "focus", "value": "on", "timestamp": 1691144145306, "interval": 2648}, {"eventtype": "focus", "value": "off", "timestamp": 1691145075660, "interval": 930354}, {"eventtype": "focus", "value": "on", "timestamp": 1691145075660, "interval": 0}, {"eventtype": "window_resize", "value": [1536, 806], "timestamp": 1691145075866, "interval": 206}, {"eventtype": "window_resize", "value": [1536, 864], "timestamp": 1691145078040, "interval": 2174}, {"eventtype": "window_resize", "value": [1536, 806], "timestamp": 1691145277477, "interval": 199437}], "useragent": "Mozilla/5.0 (Windows NT 10.0; Win64; x64) AppleWebKit/537.36 (KHTML, like Gecko) Chrome/115.0.0.0 Safari/537.36", "mode": "live", "id": "w63037649:a83609650", "status": "user data saved", "Beginhit": "2023-08-04 09:42:09.132514", "Beginexp": "2023-08-04 09:43:17.22198", "Endhit": null, "psiturkStatus": 6, "browser": "<redacted>", "platform": "windows", "language": "en-US", "excludeReason": "quizfail"}