{"condition": 0, "counterbalance": 0, "assignmentId": "a36930198", "workerId": "w78972940", "hitId": "h83591308", "currenttrial": 62, "bonus": 0, "data": [{"uniqueid": "w78972940:a36930198", "current_trial": 0, "dateTime": 1691486299841, "trialdata": {"success": true, "trial_type": "fullscreen", "trial_index": 0, "time_elapsed": 6126, "internal_node_id": "0.0-0.0"}}, {"uniqueid": "w78972940:a36930198", "current_trial": 1, "dateTime": 1691486448035, "trialdata": {"view_history": [{"page_index": 0, "viewing_time": 148189}], "rt": 148190, "trial_id": "exp_instructions_misaligned", "trial_type": "instructions", "trial_index": 1, "time_elapsed": 154320, "internal_node_id": "0.0-1.0"}}, {"uniqueid": "w78972940:a36930198", "current_trial": 2, "dateTime": 1691486452616, "trialdata": {"success": true, "trial_type": "fullscreen", "trial_index": 2, "time_elapsed": 158901, "internal_node_id": "0.0-2.0-0.0"}}, {"uniqueid": "w78972940:a36930198", "current_trial": 3, "dateTime": 1691486784820, "trialdata": {"view_history": [{"page_index": 0, "viewing_time": 111979}, {"page_index": 1, "viewing_time": 114675}, {"page_index": 2, "viewing_time": 59652}, {"page_index": 3, "viewing_time": 45896}], "rt": 332202, "trial_id": "mouselab_instructions_1_misaligned", "trial_type": "instructions", "trial_index": 3, "time_elapsed": 491105, "internal_node_id": "0.0-2.0-1.0"}}, {"uniqueid": "w78972940:a36930198", "current_trial": 4, "dateTime": 1691486815595, "trialdata": {"revealed_states": [], "clicked_states": [], "num_clicks_accrued": [0, 0, 0, 0, 0, 0, 0, 0, 0, 0, 0, 0, 0], "stateRewards": ["", -10, -10, -10, -10, -10, 10, -10, 10, 10, -10, -10, -10, -10, -10, 10, 10, -10, 10, 10, -10, -10, 10, -10, -10, 10, -10, -10, 10, -10, -10, -10, 10, 10], "withholdReward": false, "trial_id": "practice_1", "block": "test", "trialIndex": 0, "score": -26.5, "costs": 0, "simulationMode": [null, null, null, null, null], "rewards": [-10, -10, -10, 10, -10], "path": ["0", "0", "12", "13", "14", "19", "21"], "rt": [3854, 798, 3409, 518, 1058], "actions": ["right", "right", "right", "down", "down"], "actionTimes": [12581, 13892, 17817, 18842, 20416], "queries": {"click": {"state": {"target": [], "time": []}, "edge": {"target": [], "time": []}}, "mouseover": {"state": {"target": [], "time": []}, "edge": {"target": [], "time": []}}, "mouseout": {"state": {"target": ["0", "12", "0"], "time": [6742, 7789, 27806]}, "edge": {"target": [], "time": []}}}, "displayed_time": "20.92", "trialTime": 29737, "trial_type": "mouselab-mdp", "trial_index": 4, "time_elapsed": 521879, "internal_node_id": "0.0-2.0-2.0-0.0"}}, {"uniqueid": "w78972940:a36930198", "current_trial": 5, "dateTime": 1691486831693, "trialdata": {"revealed_states": [], "clicked_states": [], "num_clicks_accrued": [0, 0, 0, 0, 0, 0, 0, 0, 0, 0, 0, 0, 0], "stateRewards": ["", -10, -10, -10, 10, 10, 10, -10, 10, 10, -10, 10, -10, 10, -10, 10, -10, -10, -10, -10, 10, 10, -10, 10, -10, 10, 10, -10, 10, 10, 10, -10, -10, -10], "withholdReward": false, "trial_id": "practice_2", "block": "test", "trialIndex": 1, "score": -6.5, "costs": 0, "simulationMode": [null, null, null, null, null], "rewards": [-10, -10, -10, 10, 10], "path": ["0", "0", "1", "2", "3", "8", "9"], "rt": [1947, 754, 968, 629, 252], "actions": ["up", "up", "up", "left", "up"], "actionTimes": [6781, 8055, 9534, 10679, 11454], "queries": {"click": {"state": {"target": [], "time": []}, "edge": {"target": [], "time": []}}, "mouseover": {"state": {"target": [], "time": []}, "edge": {"target": [], "time": []}}, "mouseout": {"state": {"target": ["22", "0"], "time": [3698, 14964]}, "edge": {"target": [], "time": []}}}, "displayed_time": "11.97", "trialTime": 15697, "trial_type": "mouselab-mdp", "trial_index": 5, "time_elapsed": 537978, "internal_node_id": "0.0-2.0-2.0-1.0"}}, {"uniqueid": "w78972940:a36930198", "current_trial": 6, "dateTime": 1691486898378, "trialdata": {"view_history": [{"page_index": 0, "viewing_time": 52476}, {"page_index": 1, "viewing_time": 14206}], "rt": 66683, "trial_id": "mouselab_instructions_2_misaligned", "trial_type": "instructions", "trial_index": 6, "time_elapsed": 604663, "internal_node_id": "0.0-2.0-3.0"}}, {"uniqueid": "w78972940:a36930198", "current_trial": 7, "dateTime": 1691486978563, "trialdata": {"rt": 80180, "response": {"Q0": "The cost for clicking on nodes may vary between nodes.", "Q1": "The better I perform the higher my bonus will be.", "Q2": "No, the amount of cash at each node of the web may be different each time.", "Q3": "To click on the least number of nodes.", "Q4": "Only before moving the spider.", "Q5": "3 seconds"}, "question_order": [0, 1, 2, 3, 4, 5], "correct": {"Q0": "The cost for clicking on nodes may vary between nodes.", "Q1": "The better I perform the higher my bonus will be.", "Q2": "No, the amount of cash at each node of the web may be different each time.", "Q3": "To get the highest total score.", "Q4": "Only before moving the spider.", "Q5": "3 seconds"}, "trial_id": "mouselab_quiz_misaligned", "trial_type": "survey-multi-choice", "trial_index": 7, "time_elapsed": 684848, "internal_node_id": "0.0-2.0-4.0"}}, {"uniqueid": "w78972940:a36930198", "current_trial": 8, "dateTime": 1691486990564, "trialdata": {"success": true, "trial_type": "fullscreen", "trial_index": 8, "time_elapsed": 696849, "internal_node_id": "0.0-2.1-0.1"}}, {"uniqueid": "w78972940:a36930198", "current_trial": 9, "dateTime": 1691487019574, "trialdata": {"view_history": [{"page_index": 0, "viewing_time": 8118}, {"page_index": 1, "viewing_time": 11959}, {"page_index": 2, "viewing_time": 1836}, {"page_index": 3, "viewing_time": 7092}], "rt": 29005, "trial_id": "mouselab_instructions_1_misaligned", "trial_type": "instructions", "trial_index": 9, "time_elapsed": 725859, "internal_node_id": "0.0-2.1-1.1"}}, {"uniqueid": "w78972940:a36930198", "current_trial": 10, "dateTime": 1691487030767, "trialdata": {"revealed_states": [], "clicked_states": [], "num_clicks_accrued": [0, 0, 0, 0, 0, 0, 0, 0, 0, 0, 0, 0, 0], "stateRewards": ["", -10, -10, -10, -10, -10, 10, -10, 10, 10, -10, -10, -10, -10, -10, 10, 10, -10, 10, 10, -10, -10, 10, -10, -10, 10, -10, -10, 10, -10, -10, -10, 10, 10], "withholdReward": false, "trial_id": "practice_1", "block": "test", "trialIndex": 2, "score": -46.5, "costs": 0, "simulationMode": [null, null, null, null, null], "rewards": [-10, -10, -10, -10, -10], "path": ["0", "0", "1", "2", "3", "4", "5"], "rt": [1842, 612, 468, 1016, 220], "actions": ["up", "up", "up", "right", "up"], "actionTimes": [3737, 4856, 5846, 7376, 8097], "queries": {"click": {"state": {"target": [], "time": []}, "edge": {"target": [], "time": []}}, "mouseover": {"state": {"target": ["12", "13"], "time": [1992, 2059]}, "edge": {"target": [], "time": []}}, "mouseout": {"state": {"target": ["0", "12"], "time": [1508, 2042]}, "edge": {"target": [], "time": []}}}, "displayed_time": "8.61", "trialTime": 10809, "trial_type": "mouselab-mdp", "trial_index": 10, "time_elapsed": 737051, "internal_node_id": "0.0-2.1-2.1-0.1"}}, {"uniqueid": "w78972940:a36930198", "current_trial": 11, "dateTime": 1691487047846, "trialdata": {"revealed_states": [], "clicked_states": [], "num_clicks_accrued": [0, 0, 0, 0, 0, 0, 0, 0, 0, 0, 0, 0, 0], "stateRewards": ["", -10, -10, -10, 10, 10, 10, -10, 10, 10, -10, 10, -10, 10, -10, 10, -10, -10, -10, -10, 10, 10, -10, 10, -10, 10, 10, -10, 10, 10, 10, -10, -10, -10], "withholdReward": false, "trial_id": "practice_2", "block": "test", "trialIndex": 3, "score": 13.5, "costs": 0, "simulationMode": [null, null, null, null, null], "rewards": [10, -10, 10, 10, -10], "path": ["0", "0", "23", "24", "25", "30", "32"], "rt": [2694, 334, 414, 470, 297], "actions": ["left", "left", "left", "down", "down"], "actionTimes": [7451, 8306, 9236, 10225, 11037], "queries": {"click": {"state": {"target": [], "time": []}, "edge": {"target": [], "time": []}}, "mouseover": {"state": {"target": [], "time": []}, "edge": {"target": [], "time": []}}, "mouseout": {"state": {"target": ["13", "13", "12", "0", "12"], "time": [3670, 3785, 4101, 13935, 14052]}, "edge": {"target": [], "time": []}}}, "displayed_time": "11.55", "trialTime": 16632, "trial_type": "mouselab-mdp", "trial_index": 11, "time_elapsed": 754131, "internal_node_id": "0.0-2.1-2.1-1.1"}}, {"uniqueid": "w78972940:a36930198", "current_trial": 12, "dateTime": 1691487054527, "trialdata": {"view_history": [{"page_index": 0, "viewing_time": 4854}, {"page_index": 1, "viewing_time": 1822}], "rt": 6677, "trial_id": "mouselab_instructions_2_misaligned", "trial_type": "instructions", "trial_index": 12, "time_elapsed": 760812, "internal_node_id": "0.0-2.1-3.1"}}, {"uniqueid": "w78972940:a36930198", "current_trial": 13, "dateTime": 1691487095407, "trialdata": {"rt": 40876, "response": {"Q0": "The cost for clicking on nodes may vary between nodes.", "Q1": "The better I perform the higher my bonus will be.", "Q2": "No, the amount of cash at each node of the web may be different each time.", "Q3": "To get the highest total score.", "Q4": "Only before moving the spider.", "Q5": "3 seconds"}, "question_order": [0, 1, 2, 3, 4, 5], "correct": {"Q0": "The cost for clicking on nodes may vary between nodes.", "Q1": "The better I perform the higher my bonus will be.", "Q2": "No, the amount of cash at each node of the web may be different each time.", "Q3": "To get the highest total score.", "Q4": "Only before moving the spider.", "Q5": "3 seconds"}, "trial_id": "mouselab_quiz_misaligned", "trial_type": "survey-multi-choice", "trial_index": 13, "time_elapsed": 801692, "internal_node_id": "0.0-2.1-4.1"}}, {"uniqueid": "w78972940:a36930198", "current_trial": 14, "dateTime": 1691487115806, "trialdata": {"rt": 20389, "stimulus": "\n<h1> Get ready to start the game! </h1>\n\nThank you for reading the instructions. Get ready start with the 40 rounds of this game.\n<br><br>\nIf you need to take a break, feel free to take one after the end of a round, before continuing to the next one.\n<br><br>\nRemember, the more money the spider gets, the bigger your bonus will be!\n<br><br>\n<div style='text-align: center;'>Press <code>space</code> to begin.</div>\n\n<br><br>\n(If, at any point, the <code>space</code> key does not take you to the next page, click once on the text and try again.)", "response": " ", "trial_id": "mdp_ready", "trial_type": "html-keyboard-response", "trial_index": 14, "time_elapsed": 822091, "internal_node_id": "0.0-4.0-0.0"}}, {"uniqueid": "w78972940:a36930198", "current_trial": 15, "dateTime": 1691487137837, "trialdata": {"revealed_states": [], "clicked_states": [], "num_clicks_accrued": [0, 0, 0, 0, 0, 0, 0, 0, 0, 0, 0, 0, 0], "stateRewards": ["", 1, 3, -2, 15, 51, 15, -19, 11, 67, -45, -73, 2, 4, -2, -13, 36, 9, -28, 10, -30, 31, 16, 1, 2, -1, -16, 14, -22, 36, -1, 88, -5, 45], "withholdReward": false, "trial_id": "mdp_trial_1", "block": "test", "trialIndex": 4, "score": -4, "costs": 0, "simulationMode": [null, null, null, null, null], "rewards": [1, 2, -1, -1, -5], "path": ["0", "0", "23", "24", "25", "30", "32"], "rt": [1473, 573, 619, 425, 1556], "actions": ["left", "left", "left", "down", "down"], "actionTimes": [4739, 5821, 6951, 7890, 9938], "queries": {"click": {"state": {"target": [], "time": []}, "edge": {"target": [], "time": []}}, "mouseover": {"state": {"target": [], "time": []}, "edge": {"target": [], "time": []}}, "mouseout": {"state": {"target": ["15", "18", "12", "0", "0"], "time": [2561, 2595, 2647, 2878, 12129]}, "edge": {"target": [], "time": []}}}, "displayed_time": "17.27", "trialTime": 21591, "trial_type": "mouselab-mdp", "trial_index": 15, "time_elapsed": 844122, "internal_node_id": "0.0-4.0-1.0-0.0"}}, {"uniqueid": "w78972940:a36930198", "current_trial": 16, "dateTime": 1691487157252, "trialdata": {"revealed_states": [], "clicked_states": [], "num_clicks_accrued": [0, 0, 0, 0, 0, 0, 0, 0, 0, 0, 0, 0, 0], "stateRewards": ["", -2, 1, -3, -16, -39, -52, 30, -7, -41, -59, 11, 2, 1, 8, 2, -11, -26, -42, -13, 87, -59, -48, -1, -1, -1, 16, -79, 31, 50, -1, -84, 34, -82], "withholdReward": false, "trial_id": "mdp_trial_2", "block": "test", "trialIndex": 5, "score": 2, "costs": 0, "simulationMode": [null, null, null, null, null], "rewards": [2, 1, 8, 2, -11], "path": ["0", "0", "12", "13", "14", "15", "16"], "rt": [6089, 349, 1102, 440, 195], "actions": ["right", "right", "right", "up", "up"], "actionTimes": [8231, 9096, 10717, 11655, 12359], "queries": {"click": {"state": {"target": [], "time": []}, "edge": {"target": [], "time": []}}, "mouseover": {"state": {"target": ["12"], "time": [2296]}, "edge": {"target": [], "time": []}}, "mouseout": {"state": {"target": ["12", "0", "12"], "time": [1345, 2263, 2313]}, "edge": {"target": [], "time": []}}}, "displayed_time": "16.14", "trialTime": 18990, "trial_type": "mouselab-mdp", "trial_index": 16, "time_elapsed": 863537, "internal_node_id": "0.0-4.0-1.0-1.0"}}, {"uniqueid": "w78972940:a36930198", "current_trial": 17, "dateTime": 1691487178008, "trialdata": {"revealed_states": [], "clicked_states": [], "num_clicks_accrued": [0, 0, 0, 0, 0, 0, 0, 0, 0, 0, 0, 0, 0], "stateRewards": ["", -2, 3, -1, 2, -72, 63, 20, -1, 62, -66, 39, -2, 3, -6, 14, 22, 47, 1, 8, -49, -1, -41, 2, 2, -6, -16, -64, -60, -34, 16, 54, 22, -7], "withholdReward": false, "trial_id": "mdp_trial_3", "block": "test", "trialIndex": 6, "score": -82, "costs": 0, "simulationMode": [null, null, null, null, null], "rewards": [2, 2, -6, -16, -64], "path": ["0", "0", "23", "24", "25", "26", "27"], "rt": [1085, 378, 508, 290, 291], "actions": ["left", "left", "left", "up", "up"], "actionTimes": [3074, 3957, 4972, 5770, 6570], "queries": {"click": {"state": {"target": [], "time": []}, "edge": {"target": [], "time": []}}, "mouseover": {"state": {"target": [], "time": []}, "edge": {"target": [], "time": []}}, "mouseout": {"state": {"target": ["12", "0", "0", "12", "13", "14", "17"], "time": [1176, 1543, 8943, 9010, 9043, 9143, 9176]}, "edge": {"target": [], "time": []}}}, "displayed_time": "15.99", "trialTime": 20344, "trial_type": "mouselab-mdp", "trial_index": 17, "time_elapsed": 884292, "internal_node_id": "0.0-4.0-1.0-2.0"}}, {"uniqueid": "w78972940:a36930198", "current_trial": 18, "dateTime": 1691487196712, "trialdata": {"revealed_states": [], "clicked_states": [], "num_clicks_accrued": [0, 0, 0, 0, 0, 0, 0, 0, 0, 0, 0, 0, 0], "stateRewards": ["", 1, -2, -3, 14, -42, -87, -37, -11, -50, 33, -44, -2, 4, -7, 13, 48, -75, -66, 12, 23, -2, 82, 1, -4, 3, 12, 51, -15, -26, -11, -52, -29, 82], "withholdReward": false, "trial_id": "mdp_trial_4", "block": "test", "trialIndex": 7, "score": 56, "costs": 0, "simulationMode": [null, null, null, null, null], "rewards": [-2, 4, -7, 13, 48], "path": ["0", "0", "12", "13", "14", "15", "16"], "rt": [855, 792, 364, 345, 299], "actions": ["right", "right", "right", "up", "up"], "actionTimes": [2438, 3768, 4641, 5509, 6326], "queries": {"click": {"state": {"target": [], "time": []}, "edge": {"target": [], "time": []}}, "mouseover": {"state": {"target": [], "time": []}, "edge": {"target": [], "time": []}}, "mouseout": {"state": {"target": ["17", "15", "18", "1"], "time": [657, 674, 707, 892]}, "edge": {"target": [], "time": []}}}, "displayed_time": "15.59", "trialTime": 18282, "trial_type": "mouselab-mdp", "trial_index": 18, "time_elapsed": 902996, "internal_node_id": "0.0-4.0-1.0-3.0"}}, {"uniqueid": "w78972940:a36930198", "current_trial": 19, "dateTime": 1691487219708, "trialdata": {"revealed_states": [], "clicked_states": [], "num_clicks_accrued": [0, 0, 0, 0, 0, 0, 0, 0, 0, 0, 0, 0, 0], "stateRewards": ["", -1, 4, -5, 9, 29, -75, -42, -16, 24, -28, -41, 2, -3, 1, 10, 60, 47, 55, -1, -53, 22, -40, 2, -3, -6, 4, -26, 44, 54, 15, -76, 42, 14], "withholdReward": false, "trial_id": "mdp_trial_5", "block": "test", "trialIndex": 8, "score": 57, "costs": 0, "simulationMode": [null, null, null, null, null], "rewards": [2, -3, 1, 10, 47], "path": ["0", "0", "12", "13", "14", "15", "17"], "rt": [1568, 701, 788, 745, 508], "actions": ["right", "right", "right", "up", "right"], "actionTimes": [3520, 4729, 6031, 7291, 8318], "queries": {"click": {"state": {"target": [], "time": []}, "edge": {"target": [], "time": []}}, "mouseover": {"state": {"target": [], "time": []}, "edge": {"target": [], "time": []}}, "mouseout": {"state": {"target": ["0"], "time": [12708]}, "edge": {"target": [], "time": []}}}, "displayed_time": "15.95", "trialTime": 22562, "trial_type": "mouselab-mdp", "trial_index": 19, "time_elapsed": 925992, "internal_node_id": "0.0-4.0-1.0-4.0"}}, {"uniqueid": "w78972940:a36930198", "current_trial": 20, "dateTime": 1691487237874, "trialdata": {"revealed_states": [], "clicked_states": [], "num_clicks_accrued": [0, 0, 0, 0, 0, 0, 0, 0, 0, 0, 0, 0, 0], "stateRewards": ["", -2, -1, -3, -1, -78, -6, 2, -1, 22, -88, 32, 2, 2, -7, -8, -51, -17, 54, 2, -44, 54, 75, 2, -2, -8, -15, -29, 12, -67, 15, -1, -47, -47], "withholdReward": false, "trial_id": "mdp_trial_6", "block": "test", "trialIndex": 9, "score": 15, "costs": 0, "simulationMode": [null, null, null, null, null], "rewards": [-2, -1, -3, -1, 22], "path": ["0", "0", "1", "2", "3", "8", "9"], "rt": [1821, 630, 1298, 394, 352], "actions": ["up", "up", "up", "left", "up"], "actionTimes": [3146, 4266, 6085, 6981, 7855], "queries": {"click": {"state": {"target": [], "time": []}, "edge": {"target": [], "time": []}}, "mouseover": {"state": {"target": [], "time": []}, "edge": {"target": [], "time": []}}, "mouseout": {"state": {"target": ["0", "0", "12", "13", "14"], "time": [783, 10200, 10250, 10283, 10300]}, "edge": {"target": [], "time": []}}}, "displayed_time": "15.33", "trialTime": 17705, "trial_type": "mouselab-mdp", "trial_index": 20, "time_elapsed": 944159, "internal_node_id": "0.0-4.0-1.0-5.0"}}, {"uniqueid": "w78972940:a36930198", "current_trial": 21, "dateTime": 1691487255496, "trialdata": {"revealed_states": [], "clicked_states": [], "num_clicks_accrued": [0, 0, 0, 0, 0, 0, 0, 0, 0, 0, 0, 0, 0], "stateRewards": ["", 1, -1, 1, 13, 31, -56, 72, 2, 41, 5, 63, -2, -3, -2, 3, -71, -26, 52, 13, -31, 24, -67, 2, -2, 5, 4, 66, 43, 72, 9, 86, -26, 44], "withholdReward": false, "trial_id": "mdp_trial_7", "block": "test", "trialIndex": 10, "score": 52, "costs": 0, "simulationMode": [null, null, null, null, null], "rewards": [2, -2, 5, 4, 43], "path": ["0", "0", "23", "24", "25", "26", "28"], "rt": [1021, 628, 431, 597, 247], "actions": ["left", "left", "left", "up", "right"], "actionTimes": [2530, 3682, 4616, 5732, 6499], "queries": {"click": {"state": {"target": [], "time": []}, "edge": {"target": [], "time": []}}, "mouseover": {"state": {"target": [], "time": []}, "edge": {"target": [], "time": []}}, "mouseout": {"state": {"target": ["14", "13", "12"], "time": [849, 900, 933]}, "edge": {"target": [], "time": []}}}, "displayed_time": "15.51", "trialTime": 17194, "trial_type": "mouselab-mdp", "trial_index": 21, "time_elapsed": 961781, "internal_node_id": "0.0-4.0-1.0-6.0"}}, {"uniqueid": "w78972940:a36930198", "current_trial": 22, "dateTime": 1691487274040, "trialdata": {"revealed_states": [], "clicked_states": [], "num_clicks_accrued": [0, 0, 0, 0, 0, 0, 0, 0, 0, 0, 0, 0, 0], "stateRewards": ["", -1, -2, -1, -10, -57, 73, -72, -16, 75, -14, -46, -2, -3, -7, -1, -61, -60, 76, -4, 50, 4, 14, 2, 2, -7, 12, -65, -32, 15, -8, -76, -25, -61], "withholdReward": false, "trial_id": "mdp_trial_8", "block": "test", "trialIndex": 11, "score": -87, "costs": 0, "simulationMode": [null, null, null, null, null], "rewards": [2, 2, -7, -8, -76], "path": ["0", "0", "23", "24", "25", "30", "31"], "rt": [1122, 454, 411, 326, 269], "actions": ["left", "left", "left", "down", "right"], "actionTimes": [2856, 3831, 4754, 5604, 6395], "queries": {"click": {"state": {"target": [], "time": []}, "edge": {"target": [], "time": []}}, "mouseover": {"state": {"target": [], "time": []}, "edge": {"target": [], "time": []}}, "mouseout": {"state": {"target": ["14", "0", "12", "13", "14"], "time": [675, 7858, 7908, 7941, 7991]}, "edge": {"target": [], "time": []}}}, "displayed_time": "15.74", "trialTime": 18113, "trial_type": "mouselab-mdp", "trial_index": 22, "time_elapsed": 980324, "internal_node_id": "0.0-4.0-1.0-7.0"}}, {"uniqueid": "w78972940:a36930198", "current_trial": 23, "dateTime": 1691487291624, "trialdata": {"revealed_states": [], "clicked_states": [], "num_clicks_accrued": [0, 0, 0, 0, 0, 0, 0, 0, 0, 0, 0, 0, 0], "stateRewards": ["", 1, -2, 4, 7, -43, -83, -60, -5, -86, -80, 83, -1, -2, 6, 11, -15, 21, 13, 9, 29, -49, 11, -1, 4, -6, -11, 87, 40, 63, -8, -39, -11, 62], "withholdReward": false, "trial_id": "mdp_trial_9", "block": "test", "trialIndex": 12, "score": 27, "costs": 0, "simulationMode": [null, null, null, null, null], "rewards": [-1, -2, 6, 11, 13], "path": ["0", "0", "12", "13", "14", "15", "18"], "rt": [2109, 713, 317, 592, 139], "actions": ["right", "right", "right", "up", "left"], "actionTimes": [3805, 5035, 5873, 6981, 7629], "queries": {"click": {"state": {"target": [], "time": []}, "edge": {"target": [], "time": []}}, "mouseover": {"state": {"target": [], "time": []}, "edge": {"target": [], "time": []}}, "mouseout": {"state": {"target": ["14", "13", "12", "0", "13", "14"], "time": [820, 870, 1020, 8637, 8703, 8754]}, "edge": {"target": [], "time": []}}}, "displayed_time": "15.70", "trialTime": 17145, "trial_type": "mouselab-mdp", "trial_index": 23, "time_elapsed": 997908, "internal_node_id": "0.0-4.0-1.0-8.0"}}, {"uniqueid": "w78972940:a36930198", "current_trial": 24, "dateTime": 1691487309930, "trialdata": {"revealed_states": [], "clicked_states": [], "num_clicks_accrued": [0, 0, 0, 0, 0, 0, 0, 0, 0, 0, 0, 0, 0], "stateRewards": ["", 1, 1, -7, -9, -44, 24, -83, -15, 44, -24, 72, -2, -3, 4, -5, 57, 55, 29, -11, 22, 12, -25, -1, 2, 7, 12, 33, -8, 47, -4, 8, 50, -4], "withholdReward": false, "trial_id": "mdp_trial_10", "block": "test", "trialIndex": 13, "score": 23, "costs": 0, "simulationMode": [null, null, null, null, null], "rewards": [-2, -3, 4, -5, 29], "path": ["0", "0", "12", "13", "14", "15", "18"], "rt": [902, 554, 562, 287, 67], "actions": ["right", "right", "right", "up", "left"], "actionTimes": [3105, 4179, 5254, 6063, 6643], "queries": {"click": {"state": {"target": [], "time": []}, "edge": {"target": [], "time": []}}, "mouseover": {"state": {"target": [], "time": []}, "edge": {"target": [], "time": []}}, "mouseout": {"state": {"target": ["14", "13", "12", "0", "0"], "time": [1006, 1056, 1257, 1440, 1839]}, "edge": {"target": [], "time": []}}}, "displayed_time": "16.20", "trialTime": 17839, "trial_type": "mouselab-mdp", "trial_index": 24, "time_elapsed": 1016215, "internal_node_id": "0.0-4.0-1.0-9.0"}}, {"uniqueid": "w78972940:a36930198", "current_trial": 25, "dateTime": 1691487328593, "trialdata": {"revealed_states": [], "clicked_states": [], "num_clicks_accrued": [0, 0, 0, 0, 0, 0, 0, 0, 0, 0, 0, 0, 0], "stateRewards": ["", 2, 3, 6, -5, -74, -53, 17, -12, 46, 44, 18, -2, 4, 1, -8, 22, -23, -49, 9, -45, 55, 81, 1, -1, -7, -16, -83, -71, -45, 2, 51, 82, 61], "withholdReward": false, "trial_id": "mdp_trial_11", "block": "test", "trialIndex": 14, "score": 17, "costs": 0, "simulationMode": [null, null, null, null, null], "rewards": [2, 3, 6, -12, 18], "path": ["0", "0", "1", "2", "3", "8", "11"], "rt": [981, 259, 334, 225, 584], "actions": ["up", "up", "up", "left", "left"], "actionTimes": [2715, 3470, 4312, 5052, 6146], "queries": {"click": {"state": {"target": [], "time": []}, "edge": {"target": [], "time": []}}, "mouseover": {"state": {"target": [], "time": []}, "edge": {"target": [], "time": []}}, "mouseout": {"state": {"target": ["0", "0"], "time": [686, 7875]}, "edge": {"target": [], "time": []}}}, "displayed_time": "15.74", "trialTime": 18136, "trial_type": "mouselab-mdp", "trial_index": 25, "time_elapsed": 1034877, "internal_node_id": "0.0-4.0-1.0-10.0"}}, {"uniqueid": "w78972940:a36930198", "current_trial": 26, "dateTime": 1691487349514, "trialdata": {"revealed_states": [], "clicked_states": [], "num_clicks_accrued": [0, 0, 0, 0, 0, 0, 0, 0, 0, 0, 0, 0, 0], "stateRewards": ["", -1, -3, -6, -2, -7, 80, -45, -3, -38, -72, 76, 2, 1, 7, 4, -62, 14, -74, 14, -87, -21, -88, -2, 1, -7, -10, 66, 56, -76, 10, -29, -72, -70], "withholdReward": false, "trial_id": "mdp_trial_12", "block": "test", "trialIndex": 15, "score": -63, "costs": 0, "simulationMode": [null, null, null, null, null], "rewards": [2, 1, 7, 14, -87], "path": ["0", "0", "12", "13", "14", "19", "20"], "rt": [1049, 438, 557, 229, 221], "actions": ["right", "right", "right", "down", "right"], "actionTimes": [2426, 3401, 4472, 5211, 5951], "queries": {"click": {"state": {"target": [], "time": []}, "edge": {"target": [], "time": []}}, "mouseover": {"state": {"target": [], "time": []}, "edge": {"target": [], "time": []}}, "mouseout": {"state": {"target": ["13", "12"], "time": [661, 846]}, "edge": {"target": [], "time": []}}}, "displayed_time": "15.38", "trialTime": 20479, "trial_type": "mouselab-mdp", "trial_index": 26, "time_elapsed": 1055799, "internal_node_id": "0.0-4.0-1.0-11.0"}}, {"uniqueid": "w78972940:a36930198", "current_trial": 27, "dateTime": 1691487367429, "trialdata": {"revealed_states": [], "clicked_states": [], "num_clicks_accrued": [0, 0, 0, 0, 0, 0, 0, 0, 0, 0, 0, 0, 0], "stateRewards": ["", -2, 3, -1, -9, 44, 48, -37, -3, 71, -39, 87, -1, 3, -4, 4, -21, 59, -15, -8, -1, 28, -38, 2, 4, 4, 8, -85, -72, -63, 14, 58, 63, -46], "withholdReward": false, "trial_id": "mdp_trial_13", "block": "test", "trialIndex": 16, "score": -19, "costs": 0, "simulationMode": [null, null, null, null, null], "rewards": [-1, 3, -4, 4, -21], "path": ["0", "0", "12", "13", "14", "15", "16"], "rt": [1345, 558, 441, 226, 521], "actions": ["right", "right", "right", "up", "up"], "actionTimes": [2544, 3599, 4534, 5267, 6281], "queries": {"click": {"state": {"target": [], "time": []}, "edge": {"target": [], "time": []}}, "mouseover": {"state": {"target": [], "time": []}, "edge": {"target": [], "time": []}}, "mouseout": {"state": {"target": ["0"], "time": [631]}, "edge": {"target": [], "time": []}}}, "displayed_time": "15.20", "trialTime": 17423, "trial_type": "mouselab-mdp", "trial_index": 27, "time_elapsed": 1073713, "internal_node_id": "0.0-4.0-1.0-12.0"}}, {"uniqueid": "w78972940:a36930198", "current_trial": 28, "dateTime": 1691487385463, "trialdata": {"revealed_states": [], "clicked_states": [], "num_clicks_accrued": [0, 0, 0, 0, 0, 0, 0, 0, 0, 0, 0, 0, 0], "stateRewards": ["", 2, -2, -3, 10, -4, -1, -11, -8, -9, -36, -78, 2, 1, 7, -7, 44, -1, -31, -1, 26, 47, 83, 2, -4, -4, -6, -52, -76, -81, -1, -59, 45, 67], "withholdReward": false, "trial_id": "mdp_trial_14", "block": "test", "trialIndex": 17, "score": 92, "costs": 0, "simulationMode": [null, null, null, null, null], "rewards": [2, 1, 7, -1, 83], "path": ["0", "0", "12", "13", "14", "19", "22"], "rt": [1150, 2098, 427, 555, 2210], "actions": ["right", "right", "right", "down", "left"], "actionTimes": [2210, 4821, 5749, 6810, 9532], "queries": {"click": {"state": {"target": [], "time": []}, "edge": {"target": [], "time": []}}, "mouseover": {"state": {"target": [], "time": []}, "edge": {"target": [], "time": []}}, "mouseout": {"state": {"target": [], "time": []}, "edge": {"target": [], "time": []}}}, "displayed_time": "15.06", "trialTime": 17538, "trial_type": "mouselab-mdp", "trial_index": 28, "time_elapsed": 1091747, "internal_node_id": "0.0-4.0-1.0-13.0"}}, {"uniqueid": "w78972940:a36930198", "current_trial": 29, "dateTime": 1691487409792, "trialdata": {"revealed_states": [], "clicked_states": [], "num_clicks_accrued": [0, 0, 0, 0, 0, 0, 0, 0, 0, 0, 0, 0, 0], "stateRewards": ["", -1, -2, 4, 9, 10, -75, 39, 16, -43, 88, -19, -1, 1, 2, 4, -31, 10, 73, 12, 41, -64, -81, -2, 2, -6, 1, -81, -1, -26, 3, -59, -3, -20], "withholdReward": false, "trial_id": "mdp_trial_15", "block": "test", "trialIndex": 18, "score": -67, "costs": 0, "simulationMode": [null, null, null, null, null], "rewards": [-1, 1, 2, 12, -81], "path": ["0", "0", "12", "13", "14", "19", "22"], "rt": [748, 579, 461, 416, 361], "actions": ["right", "right", "right", "down", "left"], "actionTimes": [2622, 3717, 4700, 5605, 6482], "queries": {"click": {"state": {"target": [], "time": []}, "edge": {"target": [], "time": []}}, "mouseover": {"state": {"target": [], "time": []}, "edge": {"target": [], "time": []}}, "mouseout": {"state": {"target": ["0"], "time": [1404]}, "edge": {"target": [], "time": []}}}, "displayed_time": "15.88", "trialTime": 23885, "trial_type": "mouselab-mdp", "trial_index": 29, "time_elapsed": 1116076, "internal_node_id": "0.0-4.0-1.0-14.0"}}, {"uniqueid": "w78972940:a36930198", "current_trial": 30, "dateTime": 1691487426739, "trialdata": {"revealed_states": [], "clicked_states": [], "num_clicks_accrued": [0, 0, 0, 0, 0, 0, 0, 0, 0, 0, 0, 0, 0], "stateRewards": ["", 1, -1, 4, 5, -32, 18, 20, 6, -88, -74, 9, -2, 1, -2, -14, 34, -77, -38, -1, 80, -36, 73, 2, 3, -8, 10, -48, -73, -71, -11, -22, 20, 54], "withholdReward": false, "trial_id": "mdp_trial_16", "block": "test", "trialIndex": 19, "score": -36, "costs": 0, "simulationMode": [null, null, null, null, null], "rewards": [2, 3, -8, -11, -22], "path": ["0", "0", "23", "24", "25", "30", "31"], "rt": [591, 332, 420, 82, 35], "actions": ["left", "left", "left", "down", "right"], "actionTimes": [1733, 2574, 3510, 4090, 4641], "queries": {"click": {"state": {"target": [], "time": []}, "edge": {"target": [], "time": []}}, "mouseover": {"state": {"target": [], "time": []}, "edge": {"target": [], "time": []}}, "mouseout": {"state": {"target": ["0", "12"], "time": [871, 6006]}, "edge": {"target": [], "time": []}}}, "displayed_time": "15.14", "trialTime": 16469, "trial_type": "mouselab-mdp", "trial_index": 30, "time_elapsed": 1133023, "internal_node_id": "0.0-4.0-1.0-15.0"}}, {"uniqueid": "w78972940:a36930198", "current_trial": 31, "dateTime": 1691487445362, "trialdata": {"revealed_states": [], "clicked_states": [], "num_clicks_accrued": [0, 0, 0, 0, 0, 0, 0, 0, 0, 0, 0, 0, 0], "stateRewards": ["", -1, -4, -3, 1, -45, -67, -24, 14, 32, 22, 22, -1, 1, -5, -7, 72, 84, -79, -5, 19, -40, -2, -1, -2, 8, -3, 84, -25, -28, 11, 64, -66, 77], "withholdReward": false, "trial_id": "mdp_trial_17", "block": "test", "trialIndex": 20, "score": -23, "costs": 0, "simulationMode": [null, null, null, null, null], "rewards": [-1, -2, 8, -3, -25], "path": ["0", "0", "23", "24", "25", "26", "28"], "rt": [754, 496, 975, 680, 1710], "actions": ["left", "left", "left", "up", "right"], "actionTimes": [2813, 3827, 5323, 6494, 8723], "queries": {"click": {"state": {"target": [], "time": []}, "edge": {"target": [], "time": []}}, "mouseover": {"state": {"target": [], "time": []}, "edge": {"target": [], "time": []}}, "mouseout": {"state": {"target": ["0", "9"], "time": [13095, 15178]}, "edge": {"target": [], "time": []}}}, "displayed_time": "16.06", "trialTime": 18117, "trial_type": "mouselab-mdp", "trial_index": 31, "time_elapsed": 1151646, "internal_node_id": "0.0-4.0-1.0-16.0"}}, {"uniqueid": "w78972940:a36930198", "current_trial": 32, "dateTime": 1691487463059, "trialdata": {"revealed_states": [], "clicked_states": [], "num_clicks_accrued": [0, 0, 0, 0, 0, 0, 0, 0, 0, 0, 0, 0, 0], "stateRewards": ["", -2, 1, -5, 2, -68, 80, 33, 10, 67, -59, 20, -1, -3, 3, 14, 74, -2, 24, -16, 63, 80, 46, -1, 4, 6, 12, 83, -38, -43, -4, 43, 14, -79], "withholdReward": false, "trial_id": "mdp_trial_18", "block": "test", "trialIndex": 21, "score": -72, "costs": 0, "simulationMode": [null, null, null, null, null], "rewards": [-2, 1, -5, 2, -68], "path": ["0", "0", "1", "2", "3", "4", "5"], "rt": [904, 168, 260, 722, 1726], "actions": ["up", "up", "up", "right", "up"], "actionTimes": [2576, 3264, 4038, 5269, 7505], "queries": {"click": {"state": {"target": [], "time": []}, "edge": {"target": [], "time": []}}, "mouseover": {"state": {"target": [], "time": []}, "edge": {"target": [], "time": []}}, "mouseout": {"state": {"target": [], "time": []}, "edge": {"target": [], "time": []}}}, "displayed_time": "15.67", "trialTime": 17198, "trial_type": "mouselab-mdp", "trial_index": 32, "time_elapsed": 1169344, "internal_node_id": "0.0-4.0-1.0-17.0"}}, {"uniqueid": "w78972940:a36930198", "current_trial": 33, "dateTime": 1691487481234, "trialdata": {"revealed_states": [], "clicked_states": [], "num_clicks_accrued": [0, 0, 0, 0, 0, 0, 0, 0, 0, 0, 0, 0, 0], "stateRewards": ["", 1, 1, 1, 15, -76, 52, -32, 14, -57, 37, 49, 1, -4, -3, 6, 83, -76, 25, 9, 36, -1, -17, -1, 4, 4, -2, -22, -21, 58, -15, -57, 49, -24], "withholdReward": false, "trial_id": "mdp_trial_19", "block": "test", "trialIndex": 22, "score": -14, "costs": 0, "simulationMode": [null, null, null, null, null], "rewards": [1, 1, 1, 15, -32], "path": ["0", "0", "1", "2", "3", "4", "7"], "rt": [781, 140, 293, 1196, 928], "actions": ["up", "up", "up", "right", "down"], "actionTimes": [1917, 2569, 3373, 5077, 6529], "queries": {"click": {"state": {"target": [], "time": []}, "edge": {"target": [], "time": []}}, "mouseover": {"state": {"target": [], "time": []}, "edge": {"target": [], "time": []}}, "mouseout": {"state": {"target": ["0", "0", "12", "13", "14", "0"], "time": [599, 12910, 12927, 12960, 12976, 16761]}, "edge": {"target": [], "time": []}}}, "displayed_time": "15.14", "trialTime": 17608, "trial_type": "mouselab-mdp", "trial_index": 33, "time_elapsed": 1187519, "internal_node_id": "0.0-4.0-1.0-18.0"}}, {"uniqueid": "w78972940:a36930198", "current_trial": 34, "dateTime": 1691487498475, "trialdata": {"revealed_states": [], "clicked_states": [], "num_clicks_accrued": [0, 0, 0, 0, 0, 0, 0, 0, 0, 0, 0, 0, 0], "stateRewards": ["", 1, 2, -3, -5, 66, -50, -47, -5, 1, 28, -27, 1, 1, -1, -6, 37, -25, 56, 1, -82, -66, -40, -1, -4, -7, 15, -61, -23, 26, 10, 14, -56, 29], "withholdReward": false, "trial_id": "mdp_trial_20", "block": "test", "trialIndex": 23, "score": -55, "costs": 0, "simulationMode": [null, null, null, null, null], "rewards": [1, 2, -3, -5, -50], "path": ["0", "0", "1", "2", "3", "4", "6"], "rt": [2099, 619, 378, 30, 264], "actions": ["up", "up", "up", "right", "right"], "actionTimes": [3572, 4711, 5605, 6156, 6957], "queries": {"click": {"state": {"target": [], "time": []}, "edge": {"target": [], "time": []}}, "mouseover": {"state": {"target": [], "time": []}, "edge": {"target": [], "time": []}}, "mouseout": {"state": {"target": [], "time": []}, "edge": {"target": [], "time": []}}}, "displayed_time": "15.47", "trialTime": 16727, "trial_type": "mouselab-mdp", "trial_index": 34, "time_elapsed": 1204759, "internal_node_id": "0.0-4.0-1.0-19.0"}}, {"uniqueid": "w78972940:a36930198", "current_trial": 35, "dateTime": 1691487515941, "trialdata": {"revealed_states": [], "clicked_states": [], "num_clicks_accrued": [0, 0, 0, 0, 0, 0, 0, 0, 0, 0, 0, 0, 0], "stateRewards": ["", -2, -3, 1, -14, 48, -49, 67, -1, -35, -48, 3, -2, 1, -4, -5, 86, -84, 39, 1, 48, 41, -42, -1, -4, 2, -7, 18, -86, 17, 7, -9, 57, -69], "withholdReward": false, "trial_id": "mdp_trial_21", "block": "test", "trialIndex": 24, "score": 7, "costs": 0, "simulationMode": [null, null, null, null, null], "rewards": [-1, -4, 2, -7, 17], "path": ["0", "0", "23", "24", "25", "26", "29"], "rt": [748, 371, 385, 315, 15], "actions": ["left", "left", "left", "up", "left"], "actionTimes": [2107, 2990, 3886, 4717, 5250], "queries": {"click": {"state": {"target": [], "time": []}, "edge": {"target": [], "time": []}}, "mouseover": {"state": {"target": [], "time": []}, "edge": {"target": [], "time": []}}, "mouseout": {"state": {"target": ["0"], "time": [717]}, "edge": {"target": [], "time": []}}}, "displayed_time": "15.36", "trialTime": 16923, "trial_type": "mouselab-mdp", "trial_index": 35, "time_elapsed": 1222226, "internal_node_id": "0.0-4.0-1.0-20.0"}}, {"uniqueid": "w78972940:a36930198", "current_trial": 36, "dateTime": 1691487533503, "trialdata": {"revealed_states": [], "clicked_states": [], "num_clicks_accrued": [0, 0, 0, 0, 0, 0, 0, 0, 0, 0, 0, 0, 0], "stateRewards": ["", -1, -3, -5, -14, -13, -47, 79, 8, -60, -64, 41, -1, 2, 3, 13, -46, 61, -79, -11, -64, -65, 23, 1, -2, 6, -14, 46, 32, 21, 7, 75, -66, 15], "withholdReward": false, "trial_id": "mdp_trial_22", "block": "test", "trialIndex": 25, "score": 37, "costs": 0, "simulationMode": [null, null, null, null, null], "rewards": [1, -2, 6, -14, 46], "path": ["0", "0", "23", "24", "25", "26", "27"], "rt": [587, 320, 621, 185, 459], "actions": ["left", "left", "left", "up", "up"], "actionTimes": [1614, 2449, 3582, 4280, 5237], "queries": {"click": {"state": {"target": [], "time": []}, "edge": {"target": [], "time": []}}, "mouseover": {"state": {"target": [], "time": []}, "edge": {"target": [], "time": []}}, "mouseout": {"state": {"target": ["0"], "time": [695]}, "edge": {"target": [], "time": []}}}, "displayed_time": "15.03", "trialTime": 16875, "trial_type": "mouselab-mdp", "trial_index": 36, "time_elapsed": 1239787, "internal_node_id": "0.0-4.0-1.0-21.0"}}, {"uniqueid": "w78972940:a36930198", "current_trial": 37, "dateTime": 1691487550662, "trialdata": {"revealed_states": [], "clicked_states": [], "num_clicks_accrued": [0, 0, 0, 0, 0, 0, 0, 0, 0, 0, 0, 0, 0], "stateRewards": ["", 1, -2, -2, 10, -31, -77, 35, 9, -47, 8, 48, -2, 1, -4, -3, -26, -50, 43, -11, 76, -38, 17, 1, -1, 6, 10, 15, -9, 12, -8, 85, 11, -55], "withholdReward": false, "trial_id": "mdp_trial_23", "block": "test", "trialIndex": 26, "score": -54, "costs": 0, "simulationMode": [null, null, null, null, null], "rewards": [-2, 1, -4, -11, -38], "path": ["0", "0", "12", "13", "14", "19", "21"], "rt": [843, 290, 493, 394, 317], "actions": ["right", "right", "right", "down", "down"], "actionTimes": [2039, 2823, 3826, 4728, 5565], "queries": {"click": {"state": {"target": [], "time": []}, "edge": {"target": [], "time": []}}, "mouseover": {"state": {"target": [], "time": []}, "edge": {"target": [], "time": []}}, "mouseout": {"state": {"target": ["0"], "time": [906]}, "edge": {"target": [], "time": []}}}, "displayed_time": "15.20", "trialTime": 16542, "trial_type": "mouselab-mdp", "trial_index": 37, "time_elapsed": 1256946, "internal_node_id": "0.0-4.0-1.0-22.0"}}, {"uniqueid": "w78972940:a36930198", "current_trial": 38, "dateTime": 1691487567857, "trialdata": {"revealed_states": [], "clicked_states": [], "num_clicks_accrued": [0, 0, 0, 0, 0, 0, 0, 0, 0, 0, 0, 0, 0], "stateRewards": ["", 1, 1, 6, -14, -40, 37, 16, -13, 33, -68, 49, 2, 4, 3, 6, 55, 27, 32, 10, -65, 20, -87, 2, 1, -6, -5, -42, 12, 29, -8, 16, 76, -33], "withholdReward": false, "trial_id": "mdp_trial_24", "block": "test", "trialIndex": 27, "score": -73, "costs": 0, "simulationMode": [null, null, null, null, null], "rewards": [1, 1, 6, -13, -68], "path": ["0", "0", "1", "2", "3", "8", "10"], "rt": [1133, 420, 235, 78, 729], "actions": ["up", "up", "up", "left", "down"], "actionTimes": [2583, 3522, 4254, 4831, 6081], "queries": {"click": {"state": {"target": [], "time": []}, "edge": {"target": [], "time": []}}, "mouseover": {"state": {"target": [], "time": []}, "edge": {"target": [], "time": []}}, "mouseout": {"state": {"target": ["0"], "time": [952]}, "edge": {"target": [], "time": []}}}, "displayed_time": "15.45", "trialTime": 16590, "trial_type": "mouselab-mdp", "trial_index": 38, "time_elapsed": 1274141, "internal_node_id": "0.0-4.0-1.0-23.0"}}, {"uniqueid": "w78972940:a36930198", "current_trial": 39, "dateTime": 1691487586744, "trialdata": {"revealed_states": [], "clicked_states": [], "num_clicks_accrued": [0, 0, 0, 0, 0, 0, 0, 0, 0, 0, 0, 0, 0], "stateRewards": ["", 2, -4, -8, -15, 71, -43, -41, 7, -17, 20, 67, -1, -1, -4, 6, 37, -24, -47, 9, 34, 57, 45, 1, 2, -4, -5, -23, 88, -5, 13, -40, 43, 44], "withholdReward": false, "trial_id": "mdp_trial_25", "block": "test", "trialIndex": 28, "score": 56, "costs": 0, "simulationMode": [null, null, null, null, null], "rewards": [1, 2, -4, 13, 44], "path": ["0", "0", "23", "24", "25", "30", "33"], "rt": [996, 1085, 768, 644, 2567], "actions": ["left", "left", "left", "down", "left"], "actionTimes": [2976, 4572, 5855, 7013, 10087], "queries": {"click": {"state": {"target": [], "time": []}, "edge": {"target": [], "time": []}}, "mouseover": {"state": {"target": [], "time": []}, "edge": {"target": [], "time": []}}, "mouseout": {"state": {"target": ["14", "13", "12", "0", "12"], "time": [652, 816, 1384, 11200, 11252]}, "edge": {"target": [], "time": []}}}, "displayed_time": "15.98", "trialTime": 18261, "trial_type": "mouselab-mdp", "trial_index": 39, "time_elapsed": 1293028, "internal_node_id": "0.0-4.0-1.0-24.0"}}, {"uniqueid": "w78972940:a36930198", "current_trial": 40, "dateTime": 1691487605196, "trialdata": {"revealed_states": [], "clicked_states": [], "num_clicks_accrued": [0, 0, 0, 0, 0, 0, 0, 0, 0, 0, 0, 0, 0], "stateRewards": ["", 2, -4, 4, 9, 69, 9, -75, 12, -86, 66, 25, -1, 3, 2, -13, -88, -3, 1, 4, -69, 49, -84, 2, -1, 4, 2, -18, -81, -52, -15, -69, -54, 25], "withholdReward": false, "trial_id": "mdp_trial_26", "block": "test", "trialIndex": 29, "score": -79, "costs": 0, "simulationMode": [null, null, null, null, null], "rewards": [2, -1, 4, -15, -69], "path": ["0", "0", "23", "24", "25", "30", "31"], "rt": [1564, 684, 1041, 237, 470], "actions": ["left", "left", "left", "down", "right"], "actionTimes": [4027, 5228, 6782, 7512, 8494], "queries": {"click": {"state": {"target": [], "time": []}, "edge": {"target": [], "time": []}}, "mouseover": {"state": {"target": [], "time": []}, "edge": {"target": [], "time": []}}, "mouseout": {"state": {"target": [], "time": []}, "edge": {"target": [], "time": []}}}, "displayed_time": "16.46", "trialTime": 17871, "trial_type": "mouselab-mdp", "trial_index": 40, "time_elapsed": 1311480, "internal_node_id": "0.0-4.0-1.0-25.0"}}, {"uniqueid": "w78972940:a36930198", "current_trial": 41, "dateTime": 1691487622595, "trialdata": {"revealed_states": [], "clicked_states": [], "num_clicks_accrued": [0, 0, 0, 0, 0, 0, 0, 0, 0, 0, 0, 0, 0], "stateRewards": ["", 2, 4, 7, -6, -76, -81, 2, 5, -66, -3, 36, -2, -4, 6, -2, -69, 4, -49, -6, 67, 38, -67, 2, 1, 1, 6, -68, -21, 52, -16, -16, 6, -70], "withholdReward": false, "trial_id": "mdp_trial_27", "block": "test", "trialIndex": 30, "score": 2, "costs": 0, "simulationMode": [null, null, null, null, null], "rewards": [-2, -4, 6, -2, 4], "path": ["0", "0", "12", "13", "14", "15", "17"], "rt": [662, 285, 267, 266, 36], "actions": ["right", "right", "right", "up", "right"], "actionTimes": [1892, 2695, 3477, 4260, 4830], "queries": {"click": {"state": {"target": [], "time": []}, "edge": {"target": [], "time": []}}, "mouseover": {"state": {"target": [], "time": []}, "edge": {"target": [], "time": []}}, "mouseout": {"state": {"target": ["0"], "time": [874]}, "edge": {"target": [], "time": []}}}, "displayed_time": "15.23", "trialTime": 16774, "trial_type": "mouselab-mdp", "trial_index": 41, "time_elapsed": 1328879, "internal_node_id": "0.0-4.0-1.0-26.0"}}, {"uniqueid": "w78972940:a36930198", "current_trial": 42, "dateTime": 1691487640359, "trialdata": {"revealed_states": [], "clicked_states": [], "num_clicks_accrued": [0, 0, 0, 0, 0, 0, 0, 0, 0, 0, 0, 0, 0], "stateRewards": ["", 2, -3, 5, 11, -79, 54, 11, -9, -78, 33, 22, -2, -1, 2, 14, 43, 34, 1, 10, 49, -65, 39, -1, 1, -1, 3, -16, -2, 11, 2, 12, 48, -65], "withholdReward": false, "trial_id": "mdp_trial_28", "block": "test", "trialIndex": 31, "score": 58, "costs": 0, "simulationMode": [null, null, null, null, null], "rewards": [-2, -1, 2, 10, 49], "path": ["0", "0", "12", "13", "14", "19", "20"], "rt": [603, 588, 345, 87, 192], "actions": ["right", "right", "right", "down", "right"], "actionTimes": [1979, 3063, 3918, 4511, 5200], "queries": {"click": {"state": {"target": [], "time": []}, "edge": {"target": [], "time": []}}, "mouseover": {"state": {"target": [], "time": []}, "edge": {"target": [], "time": []}}, "mouseout": {"state": {"target": ["0"], "time": [1061]}, "edge": {"target": [], "time": []}}}, "displayed_time": "15.38", "trialTime": 17001, "trial_type": "mouselab-mdp", "trial_index": 42, "time_elapsed": 1346643, "internal_node_id": "0.0-4.0-1.0-27.0"}}, {"uniqueid": "w78972940:a36930198", "current_trial": 43, "dateTime": 1691487658445, "trialdata": {"revealed_states": [], "clicked_states": [], "num_clicks_accrued": [0, 0, 0, 0, 0, 0, 0, 0, 0, 0, 0, 0, 0], "stateRewards": ["", 2, -3, -4, -1, 25, -16, 16, 10, -71, -20, -55, 1, 3, -4, -9, 1, 32, 11, -6, 32, -50, -41, -1, 4, 4, -8, 7, -81, 70, 2, -52, 45, -10], "withholdReward": false, "trial_id": "mdp_trial_29", "block": "test", "trialIndex": 32, "score": 10, "costs": 0, "simulationMode": [null, null, null, null, null], "rewards": [2, -3, -4, -1, 16], "path": ["0", "0", "1", "2", "3", "4", "7"], "rt": [541, 612, 676, 360, 401], "actions": ["up", "up", "up", "right", "down"], "actionTimes": [1629, 2739, 3934, 4807, 5726], "queries": {"click": {"state": {"target": [], "time": []}, "edge": {"target": [], "time": []}}, "mouseover": {"state": {"target": [], "time": []}, "edge": {"target": [], "time": []}}, "mouseout": {"state": {"target": ["0"], "time": [662]}, "edge": {"target": [], "time": []}}}, "displayed_time": "15.09", "trialTime": 17472, "trial_type": "mouselab-mdp", "trial_index": 43, "time_elapsed": 1364729, "internal_node_id": "0.0-4.0-1.0-28.0"}}, {"uniqueid": "w78972940:a36930198", "current_trial": 44, "dateTime": 1691487678025, "trialdata": {"revealed_states": [], "clicked_states": [], "num_clicks_accrued": [0, 0, 0, 0, 0, 0, 0, 0, 0, 0, 0, 0, 0], "stateRewards": ["", 1, -3, -6, -5, 47, 80, -29, 11, -71, 10, -29, -2, 3, -6, 12, 2, -78, -6, 8, 34, -16, -5, -1, 3, 3, -13, 84, -36, -62, -3, -27, 66, 15], "withholdReward": false, "trial_id": "mdp_trial_30", "block": "test", "trialIndex": 33, "score": -26, "costs": 0, "simulationMode": [null, null, null, null, null], "rewards": [1, -3, -6, 11, -29], "path": ["0", "0", "1", "2", "3", "8", "11"], "rt": [794, 433, 496, 304, 430], "actions": ["up", "up", "up", "left", "left"], "actionTimes": [1953, 2879, 3891, 4716, 5659], "queries": {"click": {"state": {"target": [], "time": []}, "edge": {"target": [], "time": []}}, "mouseover": {"state": {"target": [], "time": []}, "edge": {"target": [], "time": []}}, "mouseout": {"state": {"target": ["0"], "time": [830]}, "edge": {"target": [], "time": []}}}, "displayed_time": "15.16", "trialTime": 18876, "trial_type": "mouselab-mdp", "trial_index": 44, "time_elapsed": 1384310, "internal_node_id": "0.0-4.0-1.0-29.0"}}, {"uniqueid": "w78972940:a36930198", "current_trial": 45, "dateTime": 1691487695494, "trialdata": {"revealed_states": [], "clicked_states": [], "num_clicks_accrued": [0, 0, 0, 0, 0, 0, 0, 0, 0, 0, 0, 0, 0], "stateRewards": ["", 2, -1, 4, -9, -43, 7, 54, -13, 38, -40, -83, -1, 2, -8, -10, 34, -33, 11, -14, -79, 65, 26, 1, 2, 4, 10, 21, 1, 86, 4, -53, 28, -29], "withholdReward": false, "trial_id": "mdp_trial_31", "block": "test", "trialIndex": 34, "score": 30, "costs": 0, "simulationMode": [null, null, null, null, null], "rewards": [2, -1, 4, -13, 38], "path": ["0", "0", "1", "2", "3", "8", "9"], "rt": [1216, 651, 814, 370, 399], "actions": ["up", "up", "up", "left", "up"], "actionTimes": [2512, 3680, 5011, 5901, 6798], "queries": {"click": {"state": {"target": [], "time": []}, "edge": {"target": [], "time": []}}, "mouseover": {"state": {"target": [], "time": []}, "edge": {"target": [], "time": []}}, "mouseout": {"state": {"target": ["0"], "time": [933]}, "edge": {"target": [], "time": []}}}, "displayed_time": "15.30", "trialTime": 16847, "trial_type": "mouselab-mdp", "trial_index": 45, "time_elapsed": 1401778, "internal_node_id": "0.0-4.0-1.0-30.0"}}, {"uniqueid": "w78972940:a36930198", "current_trial": 46, "dateTime": 1691487712792, "trialdata": {"revealed_states": [], "clicked_states": [], "num_clicks_accrued": [0, 0, 0, 0, 0, 0, 0, 0, 0, 0, 0, 0, 0], "stateRewards": ["", 2, 3, -1, 16, -78, -11, 46, 2, -20, 79, -67, 2, 3, 2, 11, -83, -42, -58, -11, -67, -22, 55, 2, -1, -1, -16, -83, -82, 23, -11, -29, 13, 13], "withholdReward": false, "trial_id": "mdp_trial_32", "block": "test", "trialIndex": 35, "score": -65, "costs": 0, "simulationMode": [null, null, null, null, null], "rewards": [2, 3, 2, 11, -83], "path": ["0", "0", "12", "13", "14", "15", "16"], "rt": [628, 368, 375, 212, 193], "actions": ["right", "right", "right", "up", "up"], "actionTimes": [1399, 2280, 3169, 3890, 4604], "queries": {"click": {"state": {"target": [], "time": []}, "edge": {"target": [], "time": []}}, "mouseover": {"state": {"target": [], "time": []}, "edge": {"target": [], "time": []}}, "mouseout": {"state": {"target": ["0"], "time": [128]}, "edge": {"target": [], "time": []}}}, "displayed_time": "14.77", "trialTime": 16459, "trial_type": "mouselab-mdp", "trial_index": 46, "time_elapsed": 1419077, "internal_node_id": "0.0-4.0-1.0-31.0"}}, {"uniqueid": "w78972940:a36930198", "current_trial": 47, "dateTime": 1691487734117, "trialdata": {"revealed_states": [], "clicked_states": [], "num_clicks_accrued": [0, 0, 0, 0, 0, 0, 0, 0, 0, 0, 0, 0, 0], "stateRewards": ["", 1, 4, -8, -5, -15, -7, 21, 13, -30, 40, -65, 1, 1, 5, -14, 35, 27, -38, -11, 36, -58, -47, -2, 4, -3, 13, -16, -49, 22, 15, -56, -44, -10], "withholdReward": false, "trial_id": "mdp_trial_33", "block": "test", "trialIndex": 36, "score": 34, "costs": 0, "simulationMode": [null, null, null, null, null], "rewards": [-2, 4, -3, 13, 22], "path": ["0", "0", "23", "24", "25", "26", "29"], "rt": [1201, 422, 484, 319, 359], "actions": ["left", "left", "left", "up", "left"], "actionTimes": [2302, 3237, 4232, 5069, 5924], "queries": {"click": {"state": {"target": [], "time": []}, "edge": {"target": [], "time": []}}, "mouseover": {"state": {"target": [], "time": []}, "edge": {"target": [], "time": []}}, "mouseout": {"state": {"target": ["0"], "time": [593]}, "edge": {"target": [], "time": []}}}, "displayed_time": "15.10", "trialTime": 20557, "trial_type": "mouselab-mdp", "trial_index": 47, "time_elapsed": 1440401, "internal_node_id": "0.0-4.0-1.0-32.0"}}, {"uniqueid": "w78972940:a36930198", "current_trial": 48, "dateTime": 1691487751799, "trialdata": {"revealed_states": [], "clicked_states": [], "num_clicks_accrued": [0, 0, 0, 0, 0, 0, 0, 0, 0, 0, 0, 0, 0], "stateRewards": ["", 1, -2, -8, -13, 4, 34, -84, -4, -49, 88, -70, -1, 3, -4, 10, -77, 13, -34, 15, -21, -16, 27, 1, -2, 8, -8, -6, 38, -26, 6, -15, 66, -3], "withholdReward": false, "trial_id": "mdp_trial_34", "block": "test", "trialIndex": 37, "score": 79, "costs": 0, "simulationMode": [null, null, null, null, null], "rewards": [1, -2, 8, 6, 66], "path": ["0", "0", "23", "24", "25", "30", "32"], "rt": [926, 429, 484, 251, 447], "actions": ["left", "left", "left", "down", "down"], "actionTimes": [2093, 3042, 4053, 4814, 5761], "queries": {"click": {"state": {"target": [], "time": []}, "edge": {"target": [], "time": []}}, "mouseover": {"state": {"target": [], "time": []}, "edge": {"target": [], "time": []}}, "mouseout": {"state": {"target": ["0", "0", "18", "16"], "time": [628, 14813, 14978, 15011]}, "edge": {"target": [], "time": []}}}, "displayed_time": "15.17", "trialTime": 17004, "trial_type": "mouselab-mdp", "trial_index": 48, "time_elapsed": 1458083, "internal_node_id": "0.0-4.0-1.0-33.0"}}, {"uniqueid": "w78972940:a36930198", "current_trial": 49, "dateTime": 1691487770398, "trialdata": {"revealed_states": [], "clicked_states": [], "num_clicks_accrued": [0, 0, 0, 0, 0, 0, 0, 0, 0, 0, 0, 0, 0], "stateRewards": ["", 2, -1, 5, 6, 10, 86, 55, 10, -45, 63, -71, 1, -2, 5, -8, -50, -72, 36, 15, 61, 12, 33, -1, -4, 6, 5, 79, -56, -21, -16, -87, 60, -81], "withholdReward": false, "trial_id": "mdp_trial_35", "block": "test", "trialIndex": 38, "score": -50, "costs": 0, "simulationMode": [null, null, null, null, null], "rewards": [-1, -4, 6, 5, -56], "path": ["0", "0", "23", "24", "25", "26", "28"], "rt": [1375, 831, 1238, 637, 422], "actions": ["left", "left", "left", "up", "right"], "actionTimes": [3502, 4849, 6606, 7756, 8691], "queries": {"click": {"state": {"target": [], "time": []}, "edge": {"target": [], "time": []}}, "mouseover": {"state": {"target": [], "time": []}, "edge": {"target": [], "time": []}}, "mouseout": {"state": {"target": ["16", "12"], "time": [1066, 1332]}, "edge": {"target": [], "time": []}}}, "displayed_time": "16.13", "trialTime": 17928, "trial_type": "mouselab-mdp", "trial_index": 49, "time_elapsed": 1476683, "internal_node_id": "0.0-4.0-1.0-34.0"}}, {"uniqueid": "w78972940:a36930198", "current_trial": 50, "dateTime": 1691487787928, "trialdata": {"revealed_states": [], "clicked_states": [], "num_clicks_accrued": [0, 0, 0, 0, 0, 0, 0, 0, 0, 0, 0, 0, 0], "stateRewards": ["", 2, 3, 8, 11, 25, -80, 6, -4, -56, 84, -23, -2, -4, -3, 4, -51, -9, -61, -15, -64, 67, -35, 1, -1, -7, -6, 83, 59, -15, 12, -79, 56, 41], "withholdReward": false, "trial_id": "mdp_trial_36", "block": "test", "trialIndex": 39, "score": 46, "costs": 0, "simulationMode": [null, null, null, null, null], "rewards": [1, -1, -7, 12, 41], "path": ["0", "0", "23", "24", "25", "30", "33"], "rt": [980, 868, 674, 410, 29], "actions": ["left", "left", "left", "down", "left"], "actionTimes": [2247, 3627, 4816, 5719, 6238], "queries": {"click": {"state": {"target": [], "time": []}, "edge": {"target": [], "time": []}}, "mouseover": {"state": {"target": [], "time": []}, "edge": {"target": [], "time": []}}, "mouseout": {"state": {"target": ["0", "18", "17"], "time": [8006, 8073, 12174]}, "edge": {"target": [], "time": []}}}, "displayed_time": "15.27", "trialTime": 16780, "trial_type": "mouselab-mdp", "trial_index": 50, "time_elapsed": 1494212, "internal_node_id": "0.0-4.0-1.0-35.0"}}, {"uniqueid": "w78972940:a36930198", "current_trial": 51, "dateTime": 1691487808930, "trialdata": {"revealed_states": [], "clicked_states": [], "num_clicks_accrued": [0, 0, 0, 0, 0, 0, 0, 0, 0, 0, 0, 0, 0], "stateRewards": ["", -2, -4, -2, 10, -8, -15, -47, 7, -84, 53, 5, -1, 2, -7, 3, 83, 31, 47, -1, 30, -8, 69, 2, -4, -1, 8, -7, 12, -8, -8, -13, 30, -84], "withholdReward": false, "trial_id": "mdp_trial_37", "block": "test", "trialIndex": 40, "score": -13, "costs": 0, "simulationMode": [null, null, null, null, null], "rewards": [-2, -4, -2, 10, -15], "path": ["0", "0", "1", "2", "3", "4", "6"], "rt": [569, 558, 571, 504, 365], "actions": ["up", "up", "up", "right", "right"], "actionTimes": [2168, 3232, 4292, 5309, 6186], "queries": {"click": {"state": {"target": [], "time": []}, "edge": {"target": [], "time": []}}, "mouseover": {"state": {"target": [], "time": []}, "edge": {"target": [], "time": []}}, "mouseout": {"state": {"target": ["15", "18", "12"], "time": [602, 684, 751]}, "edge": {"target": [], "time": []}}}, "displayed_time": "15.60", "trialTime": 20348, "trial_type": "mouselab-mdp", "trial_index": 51, "time_elapsed": 1515215, "internal_node_id": "0.0-4.0-1.0-36.0"}}, {"uniqueid": "w78972940:a36930198", "current_trial": 52, "dateTime": 1691487828210, "trialdata": {"revealed_states": [], "clicked_states": [], "num_clicks_accrued": [0, 0, 0, 0, 0, 0, 0, 0, 0, 0, 0, 0, 0], "stateRewards": ["", -1, -3, -3, 1, -38, 2, -53, -2, -1, -81, 70, -1, 1, -5, -9, 46, 15, 35, -1, -22, 38, 59, -2, 4, -8, 13, 1, -83, -43, 4, 76, 13, 48], "withholdReward": false, "trial_id": "mdp_trial_38", "block": "test", "trialIndex": 41, "score": -90, "costs": 0, "simulationMode": [null, null, null, null, null], "rewards": [-1, -3, -3, -2, -81], "path": ["0", "0", "1", "2", "3", "8", "10"], "rt": [595, 375, 528, 401, 225], "actions": ["up", "up", "up", "left", "down"], "actionTimes": [3146, 4041, 5062, 5984, 6725], "queries": {"click": {"state": {"target": [], "time": []}, "edge": {"target": [], "time": []}}, "mouseover": {"state": {"target": [], "time": []}, "edge": {"target": [], "time": []}}, "mouseout": {"state": {"target": ["0", "23"], "time": [1531, 1749]}, "edge": {"target": [], "time": []}}}, "displayed_time": "16.56", "trialTime": 18542, "trial_type": "mouselab-mdp", "trial_index": 52, "time_elapsed": 1534495, "internal_node_id": "0.0-4.0-1.0-37.0"}}, {"uniqueid": "w78972940:a36930198", "current_trial": 53, "dateTime": 1691487846036, "trialdata": {"revealed_states": [], "clicked_states": [], "num_clicks_accrued": [0, 0, 0, 0, 0, 0, 0, 0, 0, 0, 0, 0, 0], "stateRewards": ["", -2, -3, 4, 1, 33, -53, 15, 9, -12, 61, -6, -2, 4, 6, -11, 47, -43, -7, -11, 46, 23, -28, -1, -1, 3, -10, 11, 76, -76, 10, 18, -38, 87], "withholdReward": false, "trial_id": "mdp_trial_39", "block": "test", "trialIndex": 42, "score": 2, "costs": 0, "simulationMode": [null, null, null, null, null], "rewards": [-2, -3, 4, 9, -6], "path": ["0", "0", "1", "2", "3", "8", "11"], "rt": [979, 362, 620, 2139, 321], "actions": ["up", "up", "up", "left", "left"], "actionTimes": [2202, 3083, 4222, 6874, 7692], "queries": {"click": {"state": {"target": [], "time": []}, "edge": {"target": [], "time": []}}, "mouseover": {"state": {"target": [], "time": []}, "edge": {"target": [], "time": []}}, "mouseout": {"state": {"target": ["0", "0", "12", "13"], "time": [784, 8933, 8967, 8983]}, "edge": {"target": [], "time": []}}}, "displayed_time": "15.22", "trialTime": 17138, "trial_type": "mouselab-mdp", "trial_index": 53, "time_elapsed": 1552321, "internal_node_id": "0.0-4.0-1.0-38.0"}}, {"uniqueid": "w78972940:a36930198", "current_trial": 54, "dateTime": 1691487866284, "trialdata": {"revealed_states": [], "clicked_states": [], "num_clicks_accrued": [0, 0, 0, 0, 0, 0, 0, 0, 0, 0, 0, 0, 0], "stateRewards": ["", 2, -1, -4, -13, 74, 77, 3, 2, -43, -2, -11, 2, 3, 7, 11, -26, -29, -33, -3, -3, -13, -3, 1, 3, -7, 14, -59, 33, 9, -5, 34, 79, 68], "withholdReward": false, "trial_id": "mdp_trial_40", "block": "test", "trialIndex": 43, "score": -4, "costs": 0, "simulationMode": [null, null, null, null, null], "rewards": [2, 3, 7, -3, -13], "path": ["0", "0", "12", "13", "14", "19", "21"], "rt": [837, 370, 312, 364, 339], "actions": ["right", "right", "right", "down", "down"], "actionTimes": [2501, 3385, 4210, 5095, 5953], "queries": {"click": {"state": {"target": [], "time": []}, "edge": {"target": [], "time": []}}, "mouseover": {"state": {"target": [], "time": []}, "edge": {"target": [], "time": []}}, "mouseout": {"state": {"target": [], "time": []}, "edge": {"target": [], "time": []}}}, "displayed_time": "15.67", "trialTime": 19500, "trial_type": "mouselab-mdp", "trial_index": 54, "time_elapsed": 1572569, "internal_node_id": "0.0-4.0-1.0-39.0"}}, {"uniqueid": "w78972940:a36930198", "current_trial": 55, "dateTime": 1691487928494, "trialdata": {"rt": 62198, "response": {"Q0": "$-16 to 16", "Q1": "$-32 to $32", "Q2": "$-88 to $88", "Q3": "The cost for clicking on nodes varied between nodes.", "Q4": "Very motivated"}, "question_order": [0, 1, 2, 3, 4], "trial_id": "final_quiz_control", "trial_type": "survey-multi-choice", "trial_index": 55, "time_elapsed": 1634778, "internal_node_id": "0.0-4.0-2.0"}}, {"uniqueid": "w78972940:a36930198", "current_trial": 56, "dateTime": 1691488033703, "trialdata": {"rt": 105192, "response": {"Q0": "I used the first few rounds to check whether I was gaining money on certain nodes or not. Tried replicating these in the next rounds but I soon realised there was zero consistency. Sometimes I would go to the same node where I had made money but this time I would lose", "Q1": "I do not think I did.", "Q2": "Very. There was no consistency and very difficult to gauge whether the node is gain or loss."}, "trial_id": "self_report_control", "trial_type": "survey-text", "trial_index": 56, "time_elapsed": 1739988, "internal_node_id": "0.0-4.0-3.0"}}, {"uniqueid": "w78972940:a36930198", "current_trial": 57, "dateTime": 1691488083524, "trialdata": {"rt": 49813, "response": {"Q0": "Neither disagree nor agree", "Q1": "Neither disagree nor agree", "Q2": "Neither disagree nor agree", "Q3": "Strongly agree", "Q4": "Disagree", "Q5": "Agree", "Q6": "Disagree"}, "question_order": [0, 1, 2, 3, 4, 5, 6], "trial_id": "self_report_2", "trial_type": "survey-multi-choice", "trial_index": 57, "time_elapsed": 1789809, "internal_node_id": "0.0-4.0-4.0"}}, {"uniqueid": "w78972940:a36930198", "current_trial": 58, "dateTime": 1691488111277, "trialdata": {"rt": 27747, "response": {"gender": "male", "age": "28", "colorblind": "0", "effort": "0"}, "trial_type": "survey-html-form", "trial_index": 58, "time_elapsed": 1817562, "internal_node_id": "0.0-4.0-5.0"}}, {"uniqueid": "w78972940:a36930198", "current_trial": 59, "dateTime": 1691488188733, "trialdata": {"rt": 77447, "response": {"Q0": "Instructions were not very clear, but they became easier after the practice rounds.", "Q1": "No, I never participated before.", "Q2": "None, it was just an interesting game and would do it again given a chance."}, "trial_type": "survey-text", "trial_index": 59, "time_elapsed": 1895018, "internal_node_id": "0.0-4.0-6.0"}}, {"uniqueid": "w78972940:a36930198", "current_trial": 60, "dateTime": 1691488195952, "trialdata": {"rt": 7211, "stimulus": "Press 'Finish HIT' in order to reach the completion code. Once the data has been saved, you will receive the code either in this window or in the original browser window where you started the experiment.\n", "response": 0, "trial_type": "html-button-response", "trial_index": 60, "time_elapsed": 1902237, "internal_node_id": "0.0-5.0"}}, {"uniqueid": "w78972940:a36930198", "current_trial": 61, "dateTime": 1691488196957, "trialdata": {"success": true, "trial_type": "fullscreen", "trial_index": 61, "time_elapsed": 1903242, "internal_node_id": "0.0-6.0"}}], "questiondata": {"params": {"CODE": "C6DMOQA6", "MIN_TIME": 14, "inspectCost": 1, "startTime": "Tue Aug 08 2023 11:18:11 GMT+0200 (South Africa Standard Time)", "bonusRate": 0.002, "variance": "1_2_4_8_44", "branching": "31123"}, "final_score": -274}, "eventdata": [{"eventtype": "initialized", "value": null, "timestamp": 1691486291295, "interval": 0}, {"eventtype": "window_resize", "value": [1366, 670], "timestamp": 1691486291295, "interval": 0}, {"eventtype": "window_resize", "value": [1366, 670], "timestamp": 1691486291766, "interval": 471}, {"eventtype": "window_resize", "value": [1366, 768], "timestamp": 1691486299077, "interval": 7311}, {"eventtype": "focus", "value": "off", "timestamp": 1691486987555, "interval": 688478}, {"eventtype": "focus", "value": "on", "timestamp": 1691486987555, "interval": 0}, {"eventtype": "window_resize", "value": [1366, 670], "timestamp": 1691486987765, "interval": 210}, {"eventtype": "window_resize", "value": [1366, 768], "timestamp": 1691486989783, "interval": 2018}, {"eventtype": "window_resize", "value": [1366, 670], "timestamp": 1691488196191, "interval": 1206408}], "useragent": "Mozilla/5.0 (Windows NT 10.0; Win64; x64) AppleWebKit/537.36 (KHTML, like Gecko) Chrome/115.0.0.0 Safari/537.36", "mode": "live", "id": "w78972940:a36930198", "status": "user data saved", "Beginhit": "2023-08-08 09:18:10.102253", "Beginexp": "2023-08-08 09:18:21.113029", "Endhit": "2023-08-08 09:49:59.330523", "psiturkStatus": 3, "browser": "<redacted>", "platform": "windows", "language": "en-US"}