{"condition": 1, "counterbalance": 0, "assignmentId": "a45207523", "workerId": "w90432099", "hitId": "h13683735", "currenttrial": 56, "bonus": 0, "data": [{"uniqueid": "w90432099:a45207523", "current_trial": 0, "dateTime": 1691142372250, "trialdata": {"success": true, "trial_type": "fullscreen", "trial_index": 0, "time_elapsed": 11741, "internal_node_id": "0.0-0.0"}}, {"uniqueid": "w90432099:a45207523", "current_trial": 1, "dateTime": 1691142410293, "trialdata": {"view_history": [{"page_index": 0, "viewing_time": 38037}], "rt": 38038, "trial_id": "exp_instructions_misaligned", "trial_type": "instructions", "trial_index": 1, "time_elapsed": 49785, "internal_node_id": "0.0-1.0"}}, {"uniqueid": "w90432099:a45207523", "current_trial": 2, "dateTime": 1691142421336, "trialdata": {"success": true, "trial_type": "fullscreen", "trial_index": 2, "time_elapsed": 60828, "internal_node_id": "0.0-2.0-0.0"}}, {"uniqueid": "w90432099:a45207523", "current_trial": 3, "dateTime": 1691142919195, "trialdata": {"view_history": [{"page_index": 0, "viewing_time": 196162}, {"page_index": 1, "viewing_time": 166160}, {"page_index": 2, "viewing_time": 48867}, {"page_index": 3, "viewing_time": 86668}], "rt": 497858, "trial_id": "mouselab_instructions_1_misaligned", "trial_type": "instructions", "trial_index": 3, "time_elapsed": 558687, "internal_node_id": "0.0-2.0-1.0"}}, {"uniqueid": "w90432099:a45207523", "current_trial": 4, "dateTime": 1691142937829, "trialdata": {"revealed_states": [], "clicked_states": ["27", "29"], "num_clicks_accrued": [0, 0, 0, 0, 0, 0, 0, 0, 0, 0, 0, 0, 0], "stateRewards": ["", 10, 10, 10, -10, 10, -10, 10, 10, 10, 10, 10, -10, -10, -10, 10, -10, 10, 10, -10, -10, -10, -10, -10, -10, -10, 10, 10, 10, 10, 10, 10, 10, -10], "withholdReward": false, "trial_id": "practice_1", "block": "test", "trialIndex": 0, "score": -7.5, "costs": -1, "simulationMode": [null, null, null, null, null], "rewards": [-10, -10, -10, 10, 10], "path": ["0", "0", "23", "24", "25", "26", "27"], "rt": [7584, 356, 89, 344, 112], "actions": ["left", "left", "left", "up", "up"], "actionTimes": [8737, 9586, 10169, 11008, 11610], "queries": {"click": {"state": {"target": ["27", "29"], "time": [6055, 7167]}, "edge": {"target": [], "time": []}}, "mouseover": {"state": {"target": ["0", "23", "24", "25", "26", "27", "29", "29", "26", "25"], "time": [4926, 5010, 5126, 5243, 5576, 5893, 6261, 6994, 7494, 7862]}, "edge": {"target": [], "time": []}}, "mouseout": {"state": {"target": ["0", "1", "23", "0", "0", "0", "23", "24", "25", "26", "27", "29", "29", "26", "25", "28", "26", "28", "23"], "time": [null, null, 123, 308, 4263, 4960, 5060, 5214, 5326, 5726, 6194, 6627, 7411, 7777, 7994, 14028, 14421, 14931, 16048]}, "edge": {"target": [], "time": []}}}, "displayed_time": "12.10", "trialTime": 17536, "trial_type": "mouselab-mdp", "trial_index": 4, "time_elapsed": 577321, "internal_node_id": "0.0-2.0-2.0-0.0"}}, {"uniqueid": "w90432099:a45207523", "current_trial": 5, "dateTime": 1691142966049, "trialdata": {"revealed_states": [], "clicked_states": ["12", "14", "17", "18"], "num_clicks_accrued": [0, 0, 0, 0, 0, 0, 0, 0, 0, 0, 0, 0, 0], "stateRewards": ["", 10, -10, 10, 10, 10, -10, -10, -10, -10, -10, 10, 10, 10, 10, 10, 10, 10, -10, 10, 10, -10, -10, 10, 10, -10, 10, -10, -10, -10, -10, -10, 10, -10], "withholdReward": false, "trial_id": "practice_2", "block": "test", "trialIndex": 1, "score": 51.5, "costs": -2, "simulationMode": [null, null, null, null, null], "rewards": [10, 10, 10, 10, 10], "path": ["0", "0", "12", "13", "14", "15", "17"], "rt": [6213, 80, 199, 416, 17], "actions": ["right", "right", "right", "up", "right"], "actionTimes": [10120, 10692, 11393, 12327, 12845], "queries": {"click": {"state": {"target": ["12", "14", "17", "18"], "time": [4605, 5673, 7345, 8618]}, "edge": {"target": [], "time": []}}, "mouseover": {"state": {"target": ["12", "13", "14", "15", "17", "15", "18"], "time": [4373, 4923, 5340, 6157, 6941, 7808, 8425]}, "edge": {"target": [], "time": []}}, "mouseout": {"state": {"target": ["12", "8", "2", "0", "12", "12", "13", "14", "15", "17", "15", "18", "18", "0", "13", "14", "15", "14", "14", "17", "14", "17", "17", "14", "17", "17", "13"], "time": [1356, 2272, 2572, 4240, 4610, 4823, 5307, 5957, 6926, 7741, 8325, 14494, 15328, 15445, 17379, 17863, 18549, 18930, 19230, 20615, 21115, 21348, 21932, 22482, 22632, 23666, 23883]}, "edge": {"target": [], "time": []}}}, "displayed_time": "13.35", "trialTime": 28045, "trial_type": "mouselab-mdp", "trial_index": 5, "time_elapsed": 605541, "internal_node_id": "0.0-2.0-2.0-1.0"}}, {"uniqueid": "w90432099:a45207523", "current_trial": 6, "dateTime": 1691143071982, "trialdata": {"view_history": [{"page_index": 0, "viewing_time": 78446}, {"page_index": 1, "viewing_time": 27489}], "rt": 105935, "trial_id": "mouselab_instructions_2_misaligned", "trial_type": "instructions", "trial_index": 6, "time_elapsed": 711474, "internal_node_id": "0.0-2.0-3.0"}}, {"uniqueid": "w90432099:a45207523", "current_trial": 7, "dateTime": 1691143172535, "trialdata": {"rt": 100545, "response": {"Q0": "The cost for clicking on nodes may vary between nodes.", "Q1": "The better I perform the higher my bonus will be.", "Q2": "No, the amount of cash at each node of the web may be different each time.", "Q3": "To get the highest total score.", "Q4": "Only before moving the spider.", "Q5": "3 seconds"}, "question_order": [0, 1, 2, 3, 4, 5], "correct": {"Q0": "The cost for clicking on nodes may vary between nodes.", "Q1": "The better I perform the higher my bonus will be.", "Q2": "No, the amount of cash at each node of the web may be different each time.", "Q3": "To get the highest total score.", "Q4": "Only before moving the spider.", "Q5": "3 seconds"}, "trial_id": "mouselab_quiz_misaligned", "trial_type": "survey-multi-choice", "trial_index": 7, "time_elapsed": 812027, "internal_node_id": "0.0-2.0-4.0"}}, {"uniqueid": "w90432099:a45207523", "current_trial": 8, "dateTime": 1691143200036, "trialdata": {"rt": 27498, "stimulus": "\n<h1> Get ready to start the game! </h1>\n\nThank you for reading the instructions. Get ready start with the 40 rounds of this game.\n<br><br>\nIf you need to take a break, feel free to take one after the end of a round, before continuing to the next one.\n<br><br>\nRemember, the more money the spider gets, the bigger your bonus will be!\n<br><br>\n<div style='text-align: center;'>Press <code>space</code> to begin.</div>\n\n<br><br>\n(If, at any point, the <code>space</code> key does not take you to the next page, click once on the text and try again.)", "response": " ", "trial_id": "mdp_ready", "trial_type": "html-keyboard-response", "trial_index": 8, "time_elapsed": 839528, "internal_node_id": "0.0-4.0-0.0"}}, {"uniqueid": "w90432099:a45207523", "current_trial": 9, "dateTime": 1691143229526, "trialdata": {"revealed_states": [], "clicked_states": ["14", "17", "25", "29", "31"], "num_clicks_accrued": [0, 0, 0, 0, 0, 0, 0, 0, 0, 0, 0, 0, 0], "stateRewards": ["", -1, 3, -7, 16, -32, -74, -48, 2, 10, 15, -30, 1, 1, -2, 10, 12, -83, 67, 13, -66, 47, 65, -2, 4, 2, -14, -8, -57, 24, 9, 65, 12, 46], "withholdReward": false, "trial_id": "mdp_trial_1", "block": "test", "trialIndex": 2, "score": 5.649999999999999, "costs": -8.35, "simulationMode": [null, null, null, null, null, null], "rewards": [-2, 4, 2, -14, 24], "path": ["0", "0", "23", "24", "25", "26", "29"], "rt": [12740, 3331, 316, 306, 312, 74], "actions": ["left", "left", "left", "left", "up", "left"], "actionTimes": [14914, 18248, 19065, 19872, 20697, 21275], "queries": {"click": {"state": {"target": ["14", "17", "25", "29", "31"], "time": [4290, 5666, 9193, 10178, 13505]}, "edge": {"target": [], "time": []}}, "mouseover": {"state": {"target": ["12", "13", "14", "17", "15", "16", "16", "18", "18", "24", "25", "29", "30", "33", "32", "31", "30", "24", "23", "0"], "time": [3224, 3343, 3491, 4997, 6109, 6343, 6976, 7443, 7744, 8160, 9015, 9910, 11129, 11396, 12163, 12979, 16880, 17064, 17164, 17850]}, "edge": {"target": [], "time": []}}, "mouseout": {"state": {"target": ["10", "2", "15", "13", "0", "12", "13", "14", "17", "17", "15", "16", "16", "18", "18", "24", "25", "29", "25", "30", "33", "32", "31", "31", "30", "24", "23", "0", "31", "31"], "time": [990, 1025, 1390, 1423, 2657, 3308, 3408, 4592, 5747, 6009, 6192, 6776, 7295, 7476, 8111, 8177, 9477, 10695, 10995, 11279, 11980, 12913, 14263, 16864, 16981, 17131, 17631, 24951, 25234, 25651]}, "edge": {"target": [], "time": []}}}, "displayed_time": "21.79", "trialTime": 29289, "trial_type": "mouselab-mdp", "trial_index": 9, "time_elapsed": 869017, "internal_node_id": "0.0-4.0-1.0-0.0"}}, {"uniqueid": "w90432099:a45207523", "current_trial": 10, "dateTime": 1691143253879, "trialdata": {"revealed_states": [], "clicked_states": [], "num_clicks_accrued": [0, 0, 0, 0, 0, 0, 0, 0, 0, 0, 0, 0, 0], "stateRewards": ["", -1, 4, -5, 9, 29, -75, -42, -16, 24, -28, -41, 2, -3, 1, 10, 60, 47, 55, -1, -53, 22, -40, 2, -3, -6, 4, -26, 44, 54, 15, -76, 42, 14], "withholdReward": false, "trial_id": "mdp_trial_2", "block": "test", "trialIndex": 3, "score": 70, "costs": 0, "simulationMode": [null, null, null, null, null], "rewards": [2, -3, 1, 10, 60], "path": ["0", "0", "12", "13", "14", "15", "16"], "rt": [5802, 181, 22, 121, 79], "actions": ["right", "right", "right", "up", "up"], "actionTimes": [9741, 10424, 10945, 11561, 12137], "queries": {"click": {"state": {"target": [], "time": []}, "edge": {"target": [], "time": []}}, "mouseover": {"state": {"target": ["12", "13", "14", "17", "14", "15", "15"], "time": [4486, 4552, 5323, 6820, 8471, 8754, 9188]}, "edge": {"target": [], "time": []}}, "mouseout": {"state": {"target": ["25", "24", "23", "0", "0", "0", "12", "13", "14", "17", "14", "15", "15"], "time": [2401, 2434, 2468, 2517, 2834, 4319, 4519, 4586, 6003, 8288, 8721, 8871, 16141]}, "edge": {"target": [], "time": []}}}, "displayed_time": "17.95", "trialTime": 24157, "trial_type": "mouselab-mdp", "trial_index": 10, "time_elapsed": 893371, "internal_node_id": "0.0-4.0-1.0-1.0"}}, {"uniqueid": "w90432099:a45207523", "current_trial": 11, "dateTime": 1691143282263, "trialdata": {"revealed_states": [], "clicked_states": ["25", "29", "17", "22"], "num_clicks_accrued": [0, 0, 0, 0, 0, 0, 0, 0, 0, 0, 0, 0, 0], "stateRewards": ["", 1, 4, 5, -5, 58, -80, 75, 6, 25, -39, 46, 2, -2, 4, 2, 59, 31, -22, -12, -61, 15, 72, 1, -2, -7, 8, 77, 76, -23, -7, 71, -15, -3], "withholdReward": false, "trial_id": "mdp_trial_3", "block": "test", "trialIndex": 4, "score": 29.6, "costs": -7.4, "simulationMode": [null, null, null, null, null, null], "rewards": [2, -2, 4, 2, 31], "path": ["0", "0", "12", "13", "14", "15", "17"], "rt": [10175, 3049, 86, 133, 107, 415], "actions": ["right", "right", "right", "right", "up", "right"], "actionTimes": [11686, 14737, 15321, 15953, 16560, 17467], "queries": {"click": {"state": {"target": ["25", "29", "17", "22"], "time": [2419, 2900, 6464, 9584]}, "edge": {"target": [], "time": []}}, "mouseover": {"state": {"target": ["23", "24", "25", "25", "25", "29", "26", "27", "27", "27", "27", "1", "18", "15", "17", "16", "15", "14", "20", "20", "21", "22", "22", "14"], "time": [1593, 1627, 1677, 1927, 2231, 2678, 3053, 3380, 4012, 5063, 5380, 5913, 6063, 6113, 6346, 6830, 7815, 7865, 7965, 8165, 8632, 9015, 9481, 10533]}, "edge": {"target": [], "time": []}}, "mouseout": {"state": {"target": ["31", "24", "23", "23", "24", "25", "25", "25", "29", "26", "27", "27", "27", "27", "1", "18", "15", "17", "16", "15", "14", "20", "20", "21", "22", "22", "14", "15", "12", "13", "13"], "time": [642, 742, 843, 1610, 1660, 1710, 1960, 2578, 3050, 3146, 3813, 4763, 5130, 5799, 5930, 6080, 6280, 6696, 7798, 7848, 7914, 8015, 8548, 8982, 9032, 10482, 10583, 19436, 19652, 20020, 21770]}, "edge": {"target": [], "time": []}}}, "displayed_time": "17.97", "trialTime": 28139, "trial_type": "mouselab-mdp", "trial_index": 11, "time_elapsed": 921755, "internal_node_id": "0.0-4.0-1.0-2.0"}}, {"uniqueid": "w90432099:a45207523", "current_trial": 12, "dateTime": 1691143314727, "trialdata": {"revealed_states": [], "clicked_states": ["5", "9", "11", "6", "17"], "num_clicks_accrued": [0, 0, 0, 0, 0, 0, 0, 0, 0, 0, 0, 0, 0], "stateRewards": ["", 1, 1, -5, 8, -6, 45, 16, -6, -7, -22, -38, -1, -4, 8, -11, -16, 21, -45, -15, -59, -32, 42, -1, 3, 6, 11, -7, 34, -27, -8, 85, 43, -9], "withholdReward": false, "trial_id": "mdp_trial_4", "block": "test", "trialIndex": 5, "score": 39.25, "costs": -10.75, "simulationMode": [null, null, null, null, null, null], "rewards": [1, 1, -5, 8, 45], "path": ["0", "0", "1", "2", "3", "4", "6"], "rt": [15625, 1625, 72, 33, 168, 521], "actions": ["up", "up", "up", "up", "right", "right"], "actionTimes": [18137, 19779, 20342, 20870, 21538, 22558], "queries": {"click": {"state": {"target": ["5", "9", "11", "6", "17"], "time": [3866, 7174, 10499, 13512, 16772]}, "edge": {"target": [], "time": []}}, "mouseover": {"state": {"target": ["28", "26", "29", "25", "28", "7", "4", "5", "6", "6", "7", "3", "9", "11", "8", "10", "11", "10", "3", "3", "4", "6", "16", "17", "15"], "time": [2793, 2811, 2843, 3014, 3027, 3060, 3093, 3577, 4427, 5128, 6044, 6812, 6861, 7662, 8308, 9180, 10379, 11114, 12131, 12815, 13082, 13331, 14165, 15766, 17400]}, "edge": {"target": [], "time": []}}, "mouseout": {"state": {"target": ["12", "2", "8", "28", "26", "29", "25", "28", "7", "4", "5", "6", "6", "7", "3", "9", "11", "8", "10", "11", "11", "10", "3", "3", "4", "6", "6", "16", "17", "15", "18", "0", "23"], "time": [1292, 1375, 1450, 2809, 2826, 2859, 3026, 3043, 3076, 3393, 4144, 4995, 5928, 6745, 6828, 7495, 8213, 9113, 10063, 10624, 10947, 12031, 12715, 12898, 13166, 13532, 13969, 15633, 17283, 17416, 30606, 30689, 30856]}, "edge": {"target": [], "time": []}}}, "displayed_time": "23.07", "trialTime": 32255, "trial_type": "mouselab-mdp", "trial_index": 12, "time_elapsed": 954219, "internal_node_id": "0.0-4.0-1.0-3.0"}}, {"uniqueid": "w90432099:a45207523", "current_trial": 13, "dateTime": 1691143340419, "trialdata": {"revealed_states": [], "clicked_states": ["32", "31"], "num_clicks_accrued": [0, 0, 0, 0, 0, 0, 0, 0, 0, 0, 0, 0, 0], "stateRewards": ["", 2, 4, 4, -8, -36, -33, 38, 16, -51, 57, 57, 1, 3, 4, -6, 45, 68, 87, 1, 63, 24, -55, -2, 2, -6, -13, -63, -50, 8, 2, 80, 6, 60], "withholdReward": false, "trial_id": "mdp_trial_5", "block": "test", "trialIndex": 6, "score": 71.7, "costs": -4.3, "simulationMode": [null, null, null, null, null], "rewards": [-2, 2, -6, 2, 80], "path": ["0", "0", "23", "24", "25", "30", "31"], "rt": [8953, 331, 349, 119, 184], "actions": ["left", "left", "left", "down", "right"], "actionTimes": [11805, 12651, 13503, 14140, 14822], "queries": {"click": {"state": {"target": ["32", "31"], "time": [4153, 7074]}, "edge": {"target": [], "time": []}}, "mouseover": {"state": {"target": ["32", "33", "30", "31", "25", "29", "26", "28", "1"], "time": [3914, 4716, 6733, 6867, 8269, 8668, 10584, 10602, 10651]}, "edge": {"target": [], "time": []}}, "mouseout": {"state": {"target": ["0", "0", "0", "32", "33", "30", "31", "25", "29", "26", "28", "1"], "time": [1279, 1697, 3248, 4359, 6633, 6801, 8017, 8451, 10551, 10601, 10617, 23790]}, "edge": {"target": [], "time": []}}}, "displayed_time": "16.86", "trialTime": 25403, "trial_type": "mouselab-mdp", "trial_index": 13, "time_elapsed": 979911, "internal_node_id": "0.0-4.0-1.0-4.0"}}, {"uniqueid": "w90432099:a45207523", "current_trial": 14, "dateTime": 1691143368986, "trialdata": {"revealed_states": [], "clicked_states": ["16", "17", "20", "21"], "num_clicks_accrued": [0, 0, 0, 0, 0, 0, 0, 0, 0, 0, 0, 0, 0], "stateRewards": ["", 2, -4, 1, -12, -59, -53, -74, 16, -88, -66, 66, 1, -2, 8, -9, -14, 22, 25, -1, -39, 47, -14, -1, -1, -2, 1, -4, 52, -26, 15, -7, 46, 43], "withholdReward": false, "trial_id": "mdp_trial_6", "block": "test", "trialIndex": 7, "score": 44.4, "costs": -8.6, "simulationMode": [null, null, null, null, null], "rewards": [1, -2, 8, -1, 47], "path": ["0", "0", "12", "13", "14", "19", "21"], "rt": [15931, 264, 100, 100, 456], "actions": ["right", "right", "right", "down", "down"], "actionTimes": [17818, 18572, 19174, 19776, 20732], "queries": {"click": {"state": {"target": ["16", "17", "20", "21"], "time": [3237, 6410, 9774, 12731]}, "edge": {"target": [], "time": []}}, "mouseover": {"state": {"target": ["0", "14", "17", "16", "17", "20", "20", "21", "21", "22", "19"], "time": [2015, 2198, 2499, 3016, 3633, 7034, 7401, 10536, 11270, 13721, 17022]}, "edge": {"target": [], "time": []}}, "mouseout": {"state": {"target": ["12", "12", "0", "12", "0", "14", "17", "16", "17", "20", "20", "20", "21", "21", "22"], "time": [581, 781, 881, 1448, 2032, 2215, 2749, 3416, 6868, 7067, 9927, 10386, 10786, 13254, 16989]}, "edge": {"target": [], "time": []}}}, "displayed_time": "21.23", "trialTime": 28243, "trial_type": "mouselab-mdp", "trial_index": 14, "time_elapsed": 1008478, "internal_node_id": "0.0-4.0-1.0-5.0"}}, {"uniqueid": "w90432099:a45207523", "current_trial": 15, "dateTime": 1691143393816, "trialdata": {"revealed_states": [], "clicked_states": ["27", "29", "17", "16"], "num_clicks_accrued": [0, 0, 0, 0, 0, 0, 0, 0, 0, 0, 0, 0, 0], "stateRewards": ["", 1, 1, 1, 15, -76, 52, -32, 14, -57, 37, 49, 1, -4, -3, 6, 83, -76, 25, 9, 36, -1, -17, -1, 4, 4, -2, -22, -21, 58, -15, -57, 49, -24], "withholdReward": false, "trial_id": "mdp_trial_7", "block": "test", "trialIndex": 8, "score": 74.4, "costs": -8.6, "simulationMode": [null, null, null, null, null], "rewards": [1, -4, -3, 6, 83], "path": ["0", "0", "12", "13", "14", "15", "16"], "rt": [15016, 288, 145, 107, 59], "actions": ["right", "right", "right", "up", "up"], "actionTimes": [16368, 17147, 17786, 18382, 18951], "queries": {"click": {"state": {"target": ["27", "29", "17", "16"], "time": [2297, 5917, 8860, 12213]}, "edge": {"target": [], "time": []}}, "mouseover": {"state": {"target": ["28", "27", "29", "26", "15", "17", "15", "16", "15"], "time": [1821, 1938, 2823, 6357, 6591, 7091, 9916, 10055, 15489]}, "edge": {"target": [], "time": []}}, "mouseout": {"state": {"target": ["19", "13", "12", "0", "0", "28", "27", "27", "29", "26", "15", "17", "15", "16", "15"], "time": [337, 404, 671, 720, 1373, 1838, 2386, 2622, 6324, 6407, 6791, 9836, 9987, 15339, 15689]}, "edge": {"target": [], "time": []}}}, "displayed_time": "19.46", "trialTime": 24550, "trial_type": "mouselab-mdp", "trial_index": 15, "time_elapsed": 1033308, "internal_node_id": "0.0-4.0-1.0-6.0"}}, {"uniqueid": "w90432099:a45207523", "current_trial": 16, "dateTime": 1691143426828, "trialdata": {"revealed_states": [], "clicked_states": ["5", "6", "7", "16", "17", "21"], "num_clicks_accrued": [0, 0, 0, 0, 0, 0, 0, 0, 0, 0, 0, 0, 0], "stateRewards": ["", 1, 4, -4, 14, 35, 51, 19, -13, 54, 78, -74, -2, -1, -3, 13, -11, -42, -73, -15, -24, -3, -69, 2, -1, 5, 16, -27, 73, 58, 9, -60, 5, -60], "withholdReward": false, "trial_id": "mdp_trial_8", "block": "test", "trialIndex": 9, "score": 53.1, "costs": -12.9, "simulationMode": [null, null, null, null, null], "rewards": [1, 4, -4, 14, 51], "path": ["0", "0", "1", "2", "3", "4", "6"], "rt": [20861, 271, 81, 309, 383], "actions": ["up", "up", "up", "right", "right"], "actionTimes": [24197, 24966, 25560, 26373, 27247], "queries": {"click": {"state": {"target": ["5", "6", "7", "16", "17", "21"], "time": [4268, 7379, 10656, 13937, 17717, 20771]}, "edge": {"target": [], "time": []}}, "mouseover": {"state": {"target": ["7", "4", "5", "6", "6", "7", "16", "17", "21", "21", "20", "14"], "time": [3735, 3801, 3935, 4803, 6325, 8037, 11538, 14556, 18208, 18525, 21309, 21610]}, "edge": {"target": [], "time": []}}, "mouseout": {"state": {"target": ["16", "6", "16", "18", "23", "24", "25", "26", "1", "2", "8", "12", "7", "4", "5", "6", "6", "7", "16", "17", "21", "21", "20", "14", "18", "12", "1"], "time": [299, 599, 682, 733, 949, 966, 1216, 1333, 1500, 1634, 1767, 2283, 3785, 3853, 4636, 6003, 7820, 11238, 14206, 17991, 18258, 21209, 21409, 21626, 29913, 30797, 31664]}, "edge": {"target": [], "time": []}}}, "displayed_time": "27.76", "trialTime": 32752, "trial_type": "mouselab-mdp", "trial_index": 16, "time_elapsed": 1066320, "internal_node_id": "0.0-4.0-1.0-7.0"}}, {"uniqueid": "w90432099:a45207523", "current_trial": 17, "dateTime": 1691143465231, "trialdata": {"revealed_states": [], "clicked_states": ["29", "9", "10", "7", "22", "31", "33", "20"], "num_clicks_accrued": [0, 0, 0, 0, 0, 0, 0, 0, 0, 0, 0, 0, 0], "stateRewards": ["", -1, 1, -1, 2, 19, 85, -18, 2, -3, -26, 36, 2, 4, 7, -9, -18, 70, 72, -5, 35, -20, -28, 1, -2, -4, -3, -59, -11, -63, -2, -72, 59, -69], "withholdReward": false, "trial_id": "mdp_trial_9", "block": "test", "trialIndex": 10, "score": -29.2, "costs": -17.2, "simulationMode": [null, null, null, null, null], "rewards": [2, 4, 7, -5, -20], "path": ["0", "0", "12", "13", "14", "19", "21"], "rt": [29666, 248, 147, 92, 196], "actions": ["right", "right", "right", "down", "down"], "actionTimes": [30928, 31676, 32324, 32920, 33610], "queries": {"click": {"state": {"target": ["29", "9", "10", "7", "22", "31", "33", "20"], "time": [2176, 5206, 9023, 12105, 15251, 18909, 22072, 26079]}, "edge": {"target": [], "time": []}}, "mouseover": {"state": {"target": ["29", "29", "27", "8", "9", "5", "8", "26", "28", "10", "2", "7", "16", "18", "13", "22", "19", "20", "19", "31", "30", "33", "31", "30", "33", "30", "22", "19", "20", "19", "14", "16"], "time": [1658, 1991, 2508, 2808, 3208, 5676, 8211, 8277, 8511, 8832, 9516, 9833, 12701, 12901, 12968, 13285, 15753, 16070, 16187, 16303, 16337, 16403, 18720, 19471, 19771, 22624, 25541, 25573, 25973, 26557, 26674, 27375]}, "edge": {"target": [], "time": []}}, "mouseout": {"state": {"target": ["0", "29", "29", "27", "8", "9", "9", "5", "8", "26", "28", "10", "2", "7", "16", "18", "13", "22", "19", "20", "19", "22", "31", "30", "33", "31", "30", "33", "30", "31", "22", "19", "20", "19", "14", "16"], "time": [1408, 1674, 2391, 2742, 3075, 5297, 5593, 8194, 8228, 8294, 8611, 9400, 9633, 12651, 12818, 12934, 13101, 15686, 15769, 16155, 16220, 16237, 16320, 16371, 16421, 18987, 19671, 22540, 22691, 22759, 25557, 25757, 26441, 26641, 26725, 29742]}, "edge": {"target": [], "time": []}}}, "displayed_time": "34.11", "trialTime": 38114, "trial_type": "mouselab-mdp", "trial_index": 17, "time_elapsed": 1104722, "internal_node_id": "0.0-4.0-1.0-8.0"}}, {"uniqueid": "w90432099:a45207523", "current_trial": 18, "dateTime": 1691143488684, "trialdata": {"revealed_states": [], "clicked_states": ["9", "11", "29"], "num_clicks_accrued": [0, 0, 0, 0, 0, 0, 0, 0, 0, 0, 0, 0, 0], "stateRewards": ["", 1, -3, 4, 13, -72, 52, 5, 5, -58, 5, 14, 2, 1, 3, -14, -86, -4, 73, 6, -58, -50, 49, 2, -3, -4, 2, 33, -41, 42, -11, 81, 45, 53], "withholdReward": false, "trial_id": "mdp_trial_10", "block": "test", "trialIndex": 11, "score": 32.55, "costs": -6.449999999999999, "simulationMode": [null, null, null, null, null], "rewards": [2, -3, -4, 2, 42], "path": ["0", "0", "23", "24", "25", "26", "29"], "rt": [12258, 215, 196, 994, 323], "actions": ["left", "left", "left", "up", "left"], "actionTimes": [14136, 14867, 15565, 17064, 17896], "queries": {"click": {"state": {"target": ["9", "11", "29"], "time": [2961, 5956, 9634]}, "edge": {"target": [], "time": []}}, "mouseover": {"state": {"target": ["1", "9", "11", "27", "27", "29", "25", "33", "33", "30", "31", "31", "23"], "time": [2197, 2746, 3430, 6531, 6965, 7765, 10450, 10833, 11450, 11900, 12001, 12267, 13084]}, "edge": {"target": [], "time": []}}, "mouseout": {"state": {"target": ["6", "4", "6", "7", "1", "0", "1", "9", "11", "27", "27", "29", "25", "33", "33", "30", "31", "31"], "time": [527, 846, 1011, 1177, 1328, 1899, 2230, 3229, 6331, 6598, 7415, 10183, 10616, 11033, 11684, 12000, 12034, 12984]}, "edge": {"target": [], "time": []}}}, "displayed_time": "18.41", "trialTime": 23231, "trial_type": "mouselab-mdp", "trial_index": 18, "time_elapsed": 1128175, "internal_node_id": "0.0-4.0-1.0-9.0"}}, {"uniqueid": "w90432099:a45207523", "current_trial": 19, "dateTime": 1691143515345, "trialdata": {"revealed_states": [], "clicked_states": ["22", "20", "21"], "num_clicks_accrued": [0, 0, 0, 0, 0, 0, 0, 0, 0, 0, 0, 0, 0], "stateRewards": ["", -2, -3, -7, 7, -54, -69, -4, -14, -77, 22, 40, -2, -1, 5, 6, -35, 50, -60, 10, -28, 75, 57, 1, -4, -2, 2, 68, 34, -18, 12, 3, -21, -43], "withholdReward": false, "trial_id": "mdp_trial_11", "block": "test", "trialIndex": 12, "score": 80.55, "costs": -6.449999999999999, "simulationMode": [null, null, null, null, null], "rewards": [-2, -1, 5, 10, 75], "path": ["0", "0", "12", "13", "14", "19", "21"], "rt": [13410, 417, 161, 42, 293], "actions": ["right", "right", "right", "down", "down"], "actionTimes": [15171, 16093, 16753, 17301, 18102], "queries": {"click": {"state": {"target": ["22", "20", "21"], "time": [4420, 7660, 10960]}, "edge": {"target": [], "time": []}}, "mouseover": {"state": {"target": ["12", "14", "19", "22", "22", "19", "14", "20", "21", "17"], "time": [2201, 3335, 3768, 3904, 4218, 4853, 5285, 6503, 8305, 11606]}, "edge": {"target": [], "time": []}}, "mouseout": {"state": {"target": ["23", "12", "0", "12", "14", "19", "22", "22", "19", "14", "20", "21", "20", "17", "17", "16"], "time": [516, 1200, 2119, 2233, 3684, 3835, 3974, 4785, 4969, 6369, 8205, 11324, 11422, 25461, 25561, 25595]}, "edge": {"target": [], "time": []}}}, "displayed_time": "18.59", "trialTime": 26354, "trial_type": "mouselab-mdp", "trial_index": 19, "time_elapsed": 1154837, "internal_node_id": "0.0-4.0-1.0-10.0"}}, {"uniqueid": "w90432099:a45207523", "current_trial": 20, "dateTime": 1691143554689, "trialdata": {"revealed_states": [], "clicked_states": ["5", "10", "7", "18", "17", "22", "21"], "num_clicks_accrued": [0, 0, 0, 0, 0, 0, 0, 0, 0, 0, 0, 0, 0], "stateRewards": ["", -1, 2, 6, 11, 21, -21, -21, -6, 48, -71, 88, -1, -3, 3, 7, 64, 2, 9, -4, 37, -67, 72, 2, 2, -8, -8, -10, 71, -40, -3, 73, 80, 47], "withholdReward": false, "trial_id": "mdp_trial_12", "block": "test", "trialIndex": 13, "score": 51.95, "costs": -15.05, "simulationMode": [null, null, null, null, null], "rewards": [-1, -3, 3, -4, 72], "path": ["0", "0", "12", "13", "14", "19", "22"], "rt": [24606, 154, 128, 16, 18], "actions": ["right", "right", "right", "down", "left"], "actionTimes": [28233, 28877, 29500, 30006, 30540], "queries": {"click": {"state": {"target": ["5", "10", "7", "18", "17", "22", "21"], "time": [4511, 7491, 11604, 14691, 18916, 22064, 25158]}, "edge": {"target": [], "time": []}}, "mouseover": {"state": {"target": ["7", "4", "5", "6", "2", "10", "2", "7", "18", "13", "13", "18", "14", "14", "17", "20", "21", "22", "19", "21"], "time": [4043, 4109, 4326, 5128, 6161, 6311, 11330, 11381, 12263, 12430, 12780, 13013, 15367, 17134, 18455, 19634, 19886, 20285, 22718, 23218]}, "edge": {"target": [], "time": []}}, "mouseout": {"state": {"target": ["6", "4", "3", "8", "13", "0", "7", "4", "5", "6", "2", "10", "10", "2", "7", "18", "13", "13", "18", "14", "14", "17", "17", "20", "21", "22", "19", "21", "6"], "time": [490, 524, 1358, 1841, 2875, 3258, 4076, 4143, 4777, 5829, 6245, 9531, 11312, 11347, 12130, 12363, 12496, 12947, 15266, 15599, 17682, 18937, 19367, 19702, 19968, 22618, 22801, 25720, 38108]}, "edge": {"target": [], "time": []}}}, "displayed_time": "31.04", "trialTime": 39077, "trial_type": "mouselab-mdp", "trial_index": 20, "time_elapsed": 1194181, "internal_node_id": "0.0-4.0-1.0-11.0"}}, {"uniqueid": "w90432099:a45207523", "current_trial": 21, "dateTime": 1691143573250, "trialdata": {"revealed_states": [], "clicked_states": [], "num_clicks_accrued": [0, 0, 0, 0, 0, 0, 0, 0, 0, 0, 0, 0, 0], "stateRewards": ["", -1, -2, -8, 8, -27, -82, 19, -14, -62, 4, 1, -2, 2, 6, 10, 73, -51, -2, 2, 73, -48, 54, -1, 2, -4, 11, -25, 47, 86, 15, 33, 43, -42], "withholdReward": false, "trial_id": "mdp_trial_13", "block": "test", "trialIndex": 14, "score": 45, "costs": 0, "simulationMode": [null, null, null, null, null], "rewards": [-1, 2, -4, 15, 33], "path": ["0", "0", "23", "24", "25", "30", "31"], "rt": [9369, 309, 302, 47, 235], "actions": ["left", "left", "left", "down", "right"], "actionTimes": [11585, 12395, 13207, 13751, 14504], "queries": {"click": {"state": {"target": [], "time": []}, "edge": {"target": [], "time": []}}, "mouseover": {"state": {"target": ["27", "27", "26", "29", "25", "30", "32", "32", "31", "32"], "time": [2696, 3047, 3147, 3447, 4514, 4815, 5148, 6081, 7032, 10000]}, "edge": {"target": [], "time": []}}, "mouseout": {"state": {"target": ["6", "4", "2", "0", "0", "27", "27", "26", "29", "25", "30", "32", "32", "31", "32"], "time": [634, 667, 801, 1117, 2227, 2715, 3097, 3181, 4414, 4547, 4881, 5648, 6815, 7265, 10734]}, "edge": {"target": [], "time": []}}}, "displayed_time": "16.23", "trialTime": 18247, "trial_type": "mouselab-mdp", "trial_index": 21, "time_elapsed": 1212742, "internal_node_id": "0.0-4.0-1.0-12.0"}}, {"uniqueid": "w90432099:a45207523", "current_trial": 22, "dateTime": 1691143594156, "trialdata": {"revealed_states": [], "clicked_states": ["31", "32"], "num_clicks_accrued": [0, 0, 0, 0, 0, 0, 0, 0, 0, 0, 0, 0, 0], "stateRewards": ["", 2, -2, 7, -11, -76, -65, -23, 16, -58, 30, 81, 1, 2, 7, 14, 9, 55, -2, 6, 11, -15, 31, -1, -1, -3, 2, 15, 2, 46, 15, 18, 45, -34], "withholdReward": false, "trial_id": "mdp_trial_14", "block": "test", "trialIndex": 15, "score": 50.7, "costs": -4.3, "simulationMode": [null, null, null, null, null], "rewards": [-1, -1, -3, 15, 45], "path": ["0", "0", "23", "24", "25", "30", "32"], "rt": [8217, 184, 102, 323, 127], "actions": ["left", "left", "left", "down", "down"], "actionTimes": [10131, 10811, 11411, 12233, 12853], "queries": {"click": {"state": {"target": ["31", "32"], "time": [2724, 5504]}, "edge": {"target": [], "time": []}}, "mouseover": {"state": {"target": ["23", "24", "24", "31", "32", "33"], "time": [2103, 2203, 2354, 2561, 3070, 6489]}, "edge": {"target": [], "time": []}}, "mouseout": {"state": {"target": ["33", "24", "23", "23", "24", "24", "31", "32"], "time": [336, 1103, 1190, 2172, 2259, 2470, 2938, 6022]}, "edge": {"target": [], "time": []}}}, "displayed_time": "15.92", "trialTime": 20635, "trial_type": "mouselab-mdp", "trial_index": 22, "time_elapsed": 1233648, "internal_node_id": "0.0-4.0-1.0-13.0"}}, {"uniqueid": "w90432099:a45207523", "current_trial": 23, "dateTime": 1691143626878, "trialdata": {"revealed_states": [], "clicked_states": ["11", "10", "7", "22", "6"], "num_clicks_accrued": [0, 0, 0, 0, 0, 0, 0, 0, 0, 0, 0, 0, 0], "stateRewards": ["", 2, 3, -6, -5, -3, 55, 40, 11, 61, 11, 51, 2, -4, -6, 9, -25, 29, -15, -6, 7, -77, -2, -2, -4, 1, 14, -43, -1, 56, -12, -54, 41, -74], "withholdReward": false, "trial_id": "mdp_trial_15", "block": "test", "trialIndex": 16, "score": 38.25, "costs": -10.75, "simulationMode": [null, null, null, null, null], "rewards": [2, 3, -6, -5, 55], "path": ["0", "0", "1", "2", "3", "4", "6"], "rt": [19367, 140, 303, 63, 152], "actions": ["up", "up", "up", "right", "right"], "actionTimes": [21383, 22016, 22818, 23376, 24049], "queries": {"click": {"state": {"target": ["11", "10", "7", "22", "6"], "time": [3891, 7391, 10939, 14260, 17324]}, "edge": {"target": [], "time": []}}, "mouseover": {"state": {"target": ["1", "2", "3", "3", "8", "11", "10", "2", "7", "13", "22", "13", "22", "13", "18", "6", "5", "5"], "time": [2314, 2363, 2413, 2847, 3447, 3764, 4382, 7934, 8217, 11435, 11768, 12068, 12335, 14687, 14737, 15370, 17755, 20839]}, "edge": {"target": [], "time": []}}, "mouseout": {"state": {"target": ["33", "29", "10", "2", "0", "0", "1", "2", "3", "3", "8", "11", "10", "2", "7", "13", "22", "13", "22", "13", "18", "6", "5", "5", "4", "18"], "time": [297, 379, 912, 1096, 1245, 2214, 2347, 2397, 2465, 3430, 3659, 4232, 7916, 8151, 11335, 11502, 12002, 12186, 14330, 14721, 14755, 17671, 20822, 30876, 31151, 31399]}, "edge": {"target": [], "time": []}}}, "displayed_time": "24.55", "trialTime": 32440, "trial_type": "mouselab-mdp", "trial_index": 23, "time_elapsed": 1266369, "internal_node_id": "0.0-4.0-1.0-14.0"}}, {"uniqueid": "w90432099:a45207523", "current_trial": 24, "dateTime": 1691143650951, "trialdata": {"revealed_states": [], "clicked_states": ["17", "16", "5", "29", "9"], "num_clicks_accrued": [0, 0, 0, 0, 0, 0, 0, 0, 0, 0, 0, 0, 0], "stateRewards": ["", -2, 2, 2, -6, 9, 37, 50, -13, -7, -18, -75, -2, -4, 4, 7, 23, -57, -66, -7, -81, -48, -76, 1, 1, -8, 1, 51, -2, 70, 14, 59, 71, -37], "withholdReward": false, "trial_id": "mdp_trial_16", "block": "test", "trialIndex": 17, "score": 54.25, "costs": -10.75, "simulationMode": [null, null, null, null, null], "rewards": [1, 1, -8, 1, 70], "path": ["0", "0", "23", "24", "25", "26", "29"], "rt": [17207, 93, 2, 75, 275], "actions": ["left", "left", "left", "up", "left"], "actionTimes": [18982, 19573, 20067, 20657, 21425], "queries": {"click": {"state": {"target": ["17", "16", "5", "29", "9"], "time": [2734, 5734, 9001, 12018, 15955]}, "edge": {"target": [], "time": []}}, "mouseover": {"state": {"target": ["0", "13", "14", "17", "16", "16", "6", "5", "9", "11", "26", "29", "29", "27", "11", "9", "9"], "time": [1789, 2072, 2138, 2521, 3138, 5206, 6258, 6707, 9392, 10110, 10459, 10860, 11359, 12444, 12526, 12645, 13128]}, "edge": {"target": [], "time": []}}, "mouseout": {"state": {"target": ["32", "23", "0", "0", "13", "14", "17", "16", "16", "6", "5", "9", "11", "26", "29", "29", "27", "11", "9", "9"], "time": [554, 904, 1504, 1828, 2105, 2222, 2921, 5106, 6091, 6374, 9293, 9409, 10392, 10810, 10893, 12394, 12477, 12578, 12729, 16017]}, "edge": {"target": [], "time": []}}}, "displayed_time": "21.92", "trialTime": 23767, "trial_type": "mouselab-mdp", "trial_index": 24, "time_elapsed": 1290442, "internal_node_id": "0.0-4.0-1.0-15.0"}}, {"uniqueid": "w90432099:a45207523", "current_trial": 25, "dateTime": 1691143686481, "trialdata": {"revealed_states": [], "clicked_states": ["29", "33", "32", "31", "22", "21", "20"], "num_clicks_accrued": [0, 0, 0, 0, 0, 0, 0, 0, 0, 0, 0, 0, 0], "stateRewards": ["", 1, -3, -1, 9, -34, -40, 22, -7, 45, 53, -11, 2, 4, 5, 15, 21, 37, -49, -3, 80, -28, -34, 1, -3, 1, 1, -40, -6, -5, -16, -85, -86, 59], "withholdReward": false, "trial_id": "mdp_trial_17", "block": "test", "trialIndex": 18, "score": 72.95, "costs": -15.05, "simulationMode": [null, null, null, null, null], "rewards": [2, 4, 5, -3, 80], "path": ["0", "0", "12", "13", "14", "19", "20"], "rt": [24316, 350, 136, 321, 140], "actions": ["right", "right", "right", "down", "right"], "actionTimes": [26537, 27383, 28017, 28836, 29471], "queries": {"click": {"state": {"target": ["29", "33", "32", "31", "22", "21", "20"], "time": [3411, 6536, 9624, 12697, 15822, 19227, 22295]}, "edge": {"target": [], "time": []}}, "mouseover": {"state": {"target": ["29", "30", "33", "32", "31", "31", "24", "22", "21", "19", "20", "17"], "time": [3251, 3801, 4018, 6936, 10138, 10654, 13306, 14173, 16242, 19625, 20492, 23094]}, "edge": {"target": [], "time": []}}, "mouseout": {"state": {"target": ["9", "12", "0", "0", "0", "29", "30", "33", "33", "32", "31", "31", "24", "22", "21", "19", "20", "17"], "time": [384, 966, 1282, 1449, 1583, 3651, 3834, 6629, 6853, 10021, 10404, 12769, 13557, 16142, 19475, 19792, 22376, 34299]}, "edge": {"target": [], "time": []}}}, "displayed_time": "29.98", "trialTime": 35264, "trial_type": "mouselab-mdp", "trial_index": 25, "time_elapsed": 1325972, "internal_node_id": "0.0-4.0-1.0-16.0"}}, {"uniqueid": "w90432099:a45207523", "current_trial": 26, "dateTime": 1691143706505, "trialdata": {"revealed_states": [], "clicked_states": ["9", "33"], "num_clicks_accrued": [0, 0, 0, 0, 0, 0, 0, 0, 0, 0, 0, 0, 0], "stateRewards": ["", 2, 4, -6, -13, -75, -81, 30, 7, 5, 59, -65, -1, -1, 7, 14, -38, 36, -41, 1, -54, -5, 64, 2, -1, 5, 6, -19, 79, 11, 16, -33, -50, 58], "withholdReward": false, "trial_id": "mdp_trial_18", "block": "test", "trialIndex": 19, "score": 75.7, "costs": -4.3, "simulationMode": [null, null, null, null, null], "rewards": [2, -1, 5, 16, 58], "path": ["0", "0", "23", "24", "25", "30", "33"], "rt": [9216, 349, 1455, 85, 305], "actions": ["left", "left", "left", "down", "left"], "actionTimes": [11091, 11933, 13903, 14484, 15304], "queries": {"click": {"state": {"target": ["9", "33"], "time": [2974, 6750]}, "edge": {"target": [], "time": []}}, "mouseover": {"state": {"target": ["11", "9", "8", "24", "25", "33", "33", "32", "32", "32", "31", "23"], "time": [2342, 2526, 3311, 4214, 4611, 5232, 6627, 7377, 7678, 8779, 9995, 10396]}, "edge": {"target": [], "time": []}}, "mouseout": {"state": {"target": ["15", "15", "18", "0", "11", "9", "8", "24", "25", "33", "33", "32", "32", "33", "32", "31"], "time": [390, 641, 691, 2142, 2358, 3244, 3346, 4362, 5128, 5248, 7278, 7644, 7961, 8512, 9763, 10279]}, "edge": {"target": [], "time": []}}}, "displayed_time": "15.88", "trialTime": 19748, "trial_type": "mouselab-mdp", "trial_index": 26, "time_elapsed": 1345997, "internal_node_id": "0.0-4.0-1.0-17.0"}}, {"uniqueid": "w90432099:a45207523", "current_trial": 27, "dateTime": 1691143766114, "trialdata": {"revealed_states": [], "clicked_states": ["16", "5"], "num_clicks_accrued": [0, 0, 0, 0, 0, 0, 0, 0, 0, 0, 0, 0, 0], "stateRewards": ["", -2, 2, -2, -7, -50, -62, -45, 7, 36, -24, -72, -1, -1, 8, -1, -67, 20, -52, 2, 35, -50, 80, -1, 1, 6, -6, -70, 6, 88, 8, -47, 74, -19], "withholdReward": false, "trial_id": "mdp_trial_19", "block": "test", "trialIndex": 20, "score": -23.3, "costs": -4.3, "simulationMode": [null, null, null, null, null], "rewards": [-2, 2, -2, 7, -24], "path": ["0", "0", "1", "2", "3", "8", "10"], "rt": [20946, 978, 269, 325, 410], "actions": ["up", "up", "up", "left", "down"], "actionTimes": [24610, 26086, 26847, 27684, 28603], "queries": {"click": {"state": {"target": ["16", "5"], "time": [4587, 8087]}, "edge": {"target": [], "time": []}}, "mouseover": {"state": {"target": ["1", "16", "17", "5", "4", "2", "26", "29", "25", "26", "26", "29"], "time": [3865, 4315, 5349, 7883, 8616, 8884, 17071, 17354, 18772, 21673, 23257, 23842]}, "edge": {"target": [], "time": []}}, "mouseout": {"state": {"target": ["23", "0", "1", "16", "17", "5", "5", "4", "2", "26", "29", "25", "26", "26", "29", "28", "31"], "time": [2147, 3715, 3915, 5082, 5398, 8137, 8483, 8834, 8918, 17154, 18438, 19438, 23140, 23340, 23891, 58190, 58291]}, "edge": {"target": [], "time": []}}}, "displayed_time": "29.13", "trialTime": 59370, "trial_type": "mouselab-mdp", "trial_index": 27, "time_elapsed": 1405606, "internal_node_id": "0.0-4.0-1.0-18.0"}}, {"uniqueid": "w90432099:a45207523", "current_trial": 28, "dateTime": 1691143789160, "trialdata": {"revealed_states": [], "clicked_states": ["21", "20", "22"], "num_clicks_accrued": [0, 0, 0, 0, 0, 0, 0, 0, 0, 0, 0, 0, 0], "stateRewards": ["", -1, 2, 7, 8, 75, 67, -11, 6, 52, -17, 38, -1, 4, -8, 14, 74, -37, -17, -12, 52, 55, 71, -2, -1, -5, 2, 21, 6, -88, -14, 64, -61, -47], "withholdReward": false, "trial_id": "mdp_trial_20", "block": "test", "trialIndex": 21, "score": 47.55, "costs": -6.449999999999999, "simulationMode": [null, null, null, null, null], "rewards": [-1, 4, -8, -12, 71], "path": ["0", "0", "12", "13", "14", "19", "22"], "rt": [10859, 108, 143, 751, 264], "actions": ["right", "right", "right", "down", "left"], "actionTimes": [12554, 13168, 13816, 15060, 15843], "queries": {"click": {"state": {"target": ["21", "20", "22"], "time": [2505, 5545, 8884]}, "edge": {"target": [], "time": []}}, "mouseover": {"state": {"target": ["21", "19", "19", "14", "20", "19", "22", "22", "17", "17", "15", "17"], "time": [2402, 3170, 3853, 3872, 4487, 6170, 6222, 6522, 9457, 9622, 9773, 10820]}, "edge": {"target": [], "time": []}}, "mouseout": {"state": {"target": ["0", "21", "19", "19", "14", "20", "19", "22", "22", "17", "17", "15"], "time": [1716, 2820, 3504, 3870, 3954, 6056, 6207, 6304, 9375, 9472, 9709, 9851]}, "edge": {"target": [], "time": []}}}, "displayed_time": "16.34", "trialTime": 22260, "trial_type": "mouselab-mdp", "trial_index": 28, "time_elapsed": 1428652, "internal_node_id": "0.0-4.0-1.0-19.0"}}, {"uniqueid": "w90432099:a45207523", "current_trial": 29, "dateTime": 1691143839647, "trialdata": {"revealed_states": [], "clicked_states": ["32", "33", "29", "27", "31", "11", "9", "10", "5", "6", "7", "18"], "num_clicks_accrued": [0, 0, 0, 0, 0, 0, 0, 0, 0, 0, 0, 0, 0], "stateRewards": ["", -2, -1, -3, -1, -78, -6, 2, -1, 22, -88, 32, 2, 2, -7, -8, -51, -17, 54, 2, -44, 54, 75, 2, -2, -8, -15, -29, 12, -67, 15, -1, -47, -47], "withholdReward": false, "trial_id": "mdp_trial_21", "block": "test", "trialIndex": 22, "score": -87.8, "costs": -25.799999999999994, "simulationMode": [null, null, null, null, null], "rewards": [2, 2, -7, -8, -51], "path": ["0", "0", "12", "13", "14", "15", "16"], "rt": [40614, 146, 137, 121, 273], "actions": ["right", "right", "right", "up", "up"], "actionTimes": [43105, 43757, 44414, 45031, 45826], "queries": {"click": {"state": {"target": ["32", "33", "29", "27", "31", "11", "9", "10", "5", "6", "7", "18"], "time": [3213, 6377, 9451, 12551, 15729, 18877, 22493, 26427, 29555, 32801, 35937, 39165]}, "edge": {"target": [], "time": []}}, "mouseover": {"state": {"target": ["32", "33", "29", "27", "11", "11", "11", "28", "24", "31", "31", "28", "11", "9", "11", "9", "9", "5", "3", "10", "3", "5", "6", "6", "7", "18", "16", "16"], "time": [3074, 3646, 6931, 10101, 13030, 13061, 14112, 14492, 14539, 14890, 15145, 16330, 16500, 16817, 17284, 19298, 19563, 22968, 25734, 26184, 26753, 26965, 30066, 32603, 33208, 37527, 39494, 39924]}, "edge": {"target": [], "time": []}}, "mouseout": {"state": {"target": ["18", "0", "33", "31", "0", "32", "33", "29", "27", "11", "11", "11", "28", "24", "31", "31", "28", "11", "9", "11", "9", "9", "5", "3", "10", "3", "5", "6", "6", "6", "7", "18", "16"], "time": [9, 171, 522, 644, 2502, 3442, 6689, 9757, 12945, 13049, 13078, 14281, 14522, 14641, 14915, 16186, 16340, 16547, 16997, 19169, 19337, 22868, 25718, 25784, 26701, 26767, 29907, 31787, 32877, 33161, 36397, 39394, 39607]}, "edge": {"target": [], "time": []}}}, "displayed_time": "46.39", "trialTime": 49524, "trial_type": "mouselab-mdp", "trial_index": 29, "time_elapsed": 1479139, "internal_node_id": "0.0-4.0-1.0-20.0"}}, {"uniqueid": "w90432099:a45207523", "current_trial": 30, "dateTime": 1691143879690, "trialdata": {"revealed_states": [], "clicked_states": ["21", "20", "16", "18", "6", "7", "5", "10"], "num_clicks_accrued": [0, 0, 0, 0, 0, 0, 0, 0, 0, 0, 0, 0, 0], "stateRewards": ["", 1, -2, -8, -13, 4, 34, -84, -4, -49, 88, -70, -1, 3, -4, 10, -77, 13, -34, 15, -21, -16, 27, 1, -2, 8, -8, -6, 38, -26, 6, -15, 66, -3], "withholdReward": false, "trial_id": "mdp_trial_22", "block": "test", "trialIndex": 23, "score": 57.8, "costs": -17.2, "simulationMode": [null, null, null, null, null], "rewards": [1, -2, -8, -4, 88], "path": ["0", "0", "1", "2", "3", "8", "10"], "rt": [28044, 383, 179, 219, 194], "actions": ["up", "up", "up", "left", "down"], "actionTimes": [30650, 31557, 32266, 33035, 33765], "queries": {"click": {"state": {"target": ["21", "20", "16", "18", "6", "7", "5", "10"], "time": [4201, 7303, 10386, 13471, 16555, 19889, 23594, 26871]}, "edge": {"target": [], "time": []}}, "mouseover": {"state": {"target": ["0", "12", "14", "19", "21", "20", "16", "16", "18", "6", "2", "7", "4", "5", "11", "10", "2"], "time": [2854, 3314, 3667, 3840, 4098, 4807, 7779, 8138, 11279, 13965, 16947, 17175, 23221, 23428, 24470, 24986, 30002]}, "edge": {"target": [], "time": []}}, "mouseout": {"state": {"target": ["23", "0", "12", "14", "19", "21", "20", "16", "16", "18", "6", "2", "7", "4", "5", "11", "10", "10", "2", "2", "33", "30", "30", "31"], "time": [1085, 3152, 3366, 3741, 4032, 4701, 7581, 7828, 10929, 13711, 16816, 17127, 23128, 23361, 23894, 24887, 26933, 27308, 30031, 36834, 37523, 37569, 37595, 37784]}, "edge": {"target": [], "time": []}}}, "displayed_time": "34.32", "trialTime": 38338, "trial_type": "mouselab-mdp", "trial_index": 30, "time_elapsed": 1519181, "internal_node_id": "0.0-4.0-1.0-21.0"}}, {"uniqueid": "w90432099:a45207523", "current_trial": 31, "dateTime": 1691143898789, "trialdata": {"revealed_states": [], "clicked_states": ["27", "16"], "num_clicks_accrued": [0, 0, 0, 0, 0, 0, 0, 0, 0, 0, 0, 0, 0], "stateRewards": ["", 2, -3, 5, 11, -79, 54, 11, -9, -78, 33, 22, -2, -1, 2, 14, 43, 34, 1, 10, 49, -65, 39, -1, 1, -1, 3, -16, -2, 11, 2, 12, 48, -65], "withholdReward": false, "trial_id": "mdp_trial_23", "block": "test", "trialIndex": 24, "score": 51.7, "costs": -4.3, "simulationMode": [null, null, null, null, null], "rewards": [-2, -1, 2, 14, 43], "path": ["0", "0", "12", "13", "14", "15", "16"], "rt": [8935, 122, 82, 62, 73], "actions": ["right", "right", "right", "up", "up"], "actionTimes": [11171, 11807, 12427, 13008, 13632], "queries": {"click": {"state": {"target": ["27", "16"], "time": [3220, 7085]}, "edge": {"target": [], "time": []}}, "mouseover": {"state": {"target": ["0", "23", "24", "26", "27", "31", "12", "0", "12", "13", "15", "16", "15", "22", "13"], "time": [2253, 2669, 2785, 2938, 3079, 3631, 5174, 5222, 6624, 6700, 6810, 6913, 7500, 10416, 10465]}, "edge": {"target": [], "time": []}}, "mouseout": {"state": {"target": ["23", "0", "23", "24", "26", "27", "31", "12", "0", "12", "13", "15", "16", "16", "15", "22", "13"], "time": [1578, 2648, 2729, 2804, 3012, 3421, 3787, 5188, 5267, 6677, 6754, 6860, 7122, 7475, 7538, 10431, 16835]}, "edge": {"target": [], "time": []}}}, "displayed_time": "16.25", "trialTime": 18281, "trial_type": "mouselab-mdp", "trial_index": 31, "time_elapsed": 1538281, "internal_node_id": "0.0-4.0-1.0-22.0"}}, {"uniqueid": "w90432099:a45207523", "current_trial": 32, "dateTime": 1691143919289, "trialdata": {"revealed_states": [], "clicked_states": ["21", "22"], "num_clicks_accrued": [0, 0, 0, 0, 0, 0, 0, 0, 0, 0, 0, 0, 0], "stateRewards": ["", 2, -1, 5, 6, 10, 86, 55, 10, -45, 63, -71, 1, -2, 5, -8, -50, -72, 36, 15, 61, 12, 33, -1, -4, 6, 5, 79, -56, -21, -16, -87, 60, -81], "withholdReward": false, "trial_id": "mdp_trial_24", "block": "test", "trialIndex": 25, "score": 47.7, "costs": -4.3, "simulationMode": [null, null, null, null, null], "rewards": [1, -2, 5, 15, 33], "path": ["0", "0", "12", "13", "14", "19", "22"], "rt": [8249, 43, 154, 559, 290], "actions": ["right", "right", "right", "down", "left"], "actionTimes": [10067, 10617, 11308, 12362, 13145], "queries": {"click": {"state": {"target": ["21", "22"], "time": [2700, 6021]}, "edge": {"target": [], "time": []}}, "mouseover": {"state": {"target": ["12", "22", "21", "21", "19", "22", "20", "20"], "time": [2130, 2262, 2362, 2546, 3230, 3379, 6582, 7752]}, "edge": {"target": [], "time": []}}, "mouseout": {"state": {"target": ["0", "12", "22", "21", "21", "19", "22", "20", "20", "21"], "time": [1406, 2162, 2313, 2379, 3113, 3280, 6110, 6617, 9600, 18520]}, "edge": {"target": [], "time": []}}}, "displayed_time": "15.82", "trialTime": 19640, "trial_type": "mouselab-mdp", "trial_index": 32, "time_elapsed": 1558781, "internal_node_id": "0.0-4.0-1.0-23.0"}}, {"uniqueid": "w90432099:a45207523", "current_trial": 33, "dateTime": 1691143936988, "trialdata": {"revealed_states": [], "clicked_states": ["11", "29"], "num_clicks_accrued": [0, 0, 0, 0, 0, 0, 0, 0, 0, 0, 0, 0, 0], "stateRewards": ["", -2, -1, -4, -15, -14, -67, 32, -3, -59, 63, 31, 2, -1, -7, -15, 71, -66, -27, -3, -54, -39, 72, 2, 1, 1, -13, 77, -40, 35, -9, 35, 75, 57], "withholdReward": false, "trial_id": "mdp_trial_25", "block": "test", "trialIndex": 26, "score": 21.7, "costs": -4.3, "simulationMode": [null, null, null, null, null], "rewards": [2, 1, 1, -13, 35], "path": ["0", "0", "23", "24", "25", "26", "29"], "rt": [8595, 186, 623, 18, 571], "actions": ["left", "left", "left", "up", "left"], "actionTimes": [10609, 11293, 12412, 12924, 14012], "queries": {"click": {"state": {"target": ["11", "29"], "time": [3262, 6413]}, "edge": {"target": [], "time": []}}, "mouseover": {"state": {"target": ["11", "28", "26", "29", "25", "31", "14", "17"], "time": [3084, 3800, 4066, 4353, 6938, 7018, 7316, 7587]}, "edge": {"target": [], "time": []}}, "mouseout": {"state": {"target": ["7", "7", "1", "23", "0", "11", "28", "26", "29", "25", "31", "14"], "time": [198, 965, 1065, 1265, 2433, 3568, 3839, 4335, 6885, 6987, 7035, 7418]}, "edge": {"target": [], "time": []}}}, "displayed_time": "16.02", "trialTime": 17033, "trial_type": "mouselab-mdp", "trial_index": 33, "time_elapsed": 1576480, "internal_node_id": "0.0-4.0-1.0-24.0"}}, {"uniqueid": "w90432099:a45207523", "current_trial": 34, "dateTime": 1691143984579, "trialdata": {"revealed_states": [], "clicked_states": ["21", "20", "22"], "num_clicks_accrued": [0, 0, 0, 0, 0, 0, 0, 0, 0, 0, 0, 0, 0], "stateRewards": ["", -2, 1, -8, 12, -65, -79, 16, 7, -80, -17, -45, -2, 2, -5, -2, -85, 23, -4, -7, 48, 27, -76, 2, 3, 5, 2, 43, 71, -13, 7, -49, 59, -31], "withholdReward": false, "trial_id": "mdp_trial_26", "block": "test", "trialIndex": 27, "score": 29.55, "costs": -6.449999999999999, "simulationMode": [null, null, null, null, null], "rewards": [-2, 2, -5, -7, 48], "path": ["0", "0", "12", "13", "14", "19", "20"], "rt": [13764, 254, 15, 204, 49], "actions": ["right", "right", "right", "down", "right"], "actionTimes": [41420, 42168, 42677, 43384, 43929], "queries": {"click": {"state": {"target": ["21", "20", "22"], "time": [30152, 33566, 37163]}, "edge": {"target": [], "time": []}}, "mouseover": {"state": {"target": ["23", "28", "26", "29", "28", "14", "20", "19", "21", "20", "17", "22", "22", "12", "13"], "time": [27678, 28971, 29005, 29038, 29121, 29205, 29421, 29541, 29805, 30874, 35322, 36792, 37041, 37642, 37843]}, "edge": {"target": [], "time": []}}, "mouseout": {"state": {"target": ["17", "17", "15", "16", "31", "31", "24", "23", "0", "23", "28", "26", "29", "28", "14", "20", "19", "21", "20", "17", "20", "22", "22", "12", "13"], "time": [1275, 1942, 25986, 26002, 26503, 26637, 26687, 26770, 27674, 27737, 28990, 29022, 29055, 29138, 29234, 29525, 29555, 30651, 34124, 35435, 36675, 36808, 37177, 37726, 38016]}, "edge": {"target": [], "time": []}}}, "displayed_time": "44.45", "trialTime": 46958, "trial_type": "mouselab-mdp", "trial_index": 34, "time_elapsed": 1624070, "internal_node_id": "0.0-4.0-1.0-25.0"}}, {"uniqueid": "w90432099:a45207523", "current_trial": 35, "dateTime": 1691144020424, "trialdata": {"revealed_states": [], "clicked_states": ["5", "7", "16", "18", "29"], "num_clicks_accrued": [0, 0, 0, 0, 0, 0, 0, 0, 0, 0, 0, 0, 0], "stateRewards": ["", 1, 2, -6, -13, -51, 22, -4, -12, -44, -12, 6, -2, -2, -2, -14, -46, -4, -77, -2, 36, -79, 41, 2, -4, 2, -6, -55, 59, 70, -5, 39, -19, 24], "withholdReward": false, "trial_id": "mdp_trial_27", "block": "test", "trialIndex": 28, "score": 53.25, "costs": -10.75, "simulationMode": [null, null, null, null, null], "rewards": [2, -4, 2, -6, 70], "path": ["0", "0", "23", "24", "25", "26", "29"], "rt": [19384, 8, 297, 125, 374], "actions": ["left", "left", "left", "up", "left"], "actionTimes": [29684, 30195, 31022, 31647, 32516], "queries": {"click": {"state": {"target": ["5", "7", "16", "18", "29"], "time": [10981, 14120, 17199, 21304, 25183]}, "edge": {"target": [], "time": []}}, "mouseover": {"state": {"target": ["1", "4", "4", "5", "4", "7", "16", "15", "15", "13", "18", "14", "13", "1", "29", "27", "27"], "time": [10309, 10493, 10676, 10849, 11294, 11762, 14795, 17731, 20464, 20765, 21181, 22783, 24449, 24483, 24916, 26337, 27083]}, "edge": {"target": [], "time": []}}, "mouseout": {"state": {"target": ["2", "8", "10", "1", "0", "1", "1", "4", "4", "5", "4", "7", "16", "15", "15", "13", "18", "18", "14", "13", "1", "29", "29", "27", "27", "8"], "time": [31, 705, 788, 972, 1455, 8000, 10393, 10560, 10795, 11244, 11310, 14629, 17647, 17879, 20615, 21081, 21467, 21732, 23669, 24466, 24499, 25434, 25484, 26585, 28635, 33920]}, "edge": {"target": [], "time": []}}}, "displayed_time": "33.01", "trialTime": 35096, "trial_type": "mouselab-mdp", "trial_index": 35, "time_elapsed": 1659916, "internal_node_id": "0.0-4.0-1.0-26.0"}}, {"uniqueid": "w90432099:a45207523", "current_trial": 36, "dateTime": 1691144038607, "trialdata": {"revealed_states": [], "clicked_states": ["16"], "num_clicks_accrued": [0, 0, 0, 0, 0, 0, 0, 0, 0, 0, 0, 0, 0], "stateRewards": ["", -2, -3, 1, -14, 48, -49, 67, -1, -35, -48, 3, -2, 1, -4, -5, 86, -84, 39, 1, 48, 41, -42, -1, -4, 2, -7, 18, -86, 17, 7, -9, 57, -69], "withholdReward": false, "trial_id": "mdp_trial_28", "block": "test", "trialIndex": 29, "score": 73.85, "costs": -2.15, "simulationMode": [null, null, null, null, null], "rewards": [-2, 1, -4, -5, 86], "path": ["0", "0", "12", "13", "14", "15", "16"], "rt": [5257, 121, 174, 17, 511], "actions": ["right", "right", "right", "up", "up"], "actionTimes": [7409, 8026, 8695, 9205, 10237], "queries": {"click": {"state": {"target": ["16"], "time": [3447]}, "edge": {"target": [], "time": []}}, "mouseover": {"state": {"target": ["18", "16", "16", "15", "22"], "time": [2867, 2933, 3267, 3853, 3951]}, "edge": {"target": [], "time": []}}, "mouseout": {"state": {"target": ["31", "0", "18", "16", "16", "15", "22", "33", "32", "30", "24", "31"], "time": [932, 2466, 2885, 2967, 3801, 3886, 3985, 14255, 14388, 15089, 15406, 15756]}, "edge": {"target": [], "time": []}}}, "displayed_time": "16.15", "trialTime": 17240, "trial_type": "mouselab-mdp", "trial_index": 36, "time_elapsed": 1678099, "internal_node_id": "0.0-4.0-1.0-27.0"}}, {"uniqueid": "w90432099:a45207523", "current_trial": 37, "dateTime": 1691144065701, "trialdata": {"revealed_states": [], "clicked_states": ["16", "27", "32", "21"], "num_clicks_accrued": [0, 0, 0, 0, 0, 0, 0, 0, 0, 0, 0, 0, 0], "stateRewards": ["", -2, -3, -5, 8, 27, 11, 43, -6, -24, -87, 69, -2, 1, 1, 9, 19, 48, -37, 9, -14, 45, 62, 1, 2, 1, 16, -81, -41, 22, 4, -6, -63, 47], "withholdReward": false, "trial_id": "mdp_trial_29", "block": "test", "trialIndex": 30, "score": 45.4, "costs": -8.6, "simulationMode": [null, null, null, null, null], "rewards": [-2, 1, 1, 9, 45], "path": ["0", "0", "12", "13", "14", "19", "21"], "rt": [17155, 26, 285, 77, 309], "actions": ["right", "right", "right", "down", "down"], "actionTimes": [19711, 20233, 21023, 21598, 22401], "queries": {"click": {"state": {"target": ["16", "27", "32", "21"], "time": [3752, 7728, 11718, 15302]}, "edge": {"target": [], "time": []}}, "mouseover": {"state": {"target": ["16", "18", "13", "12", "28", "27", "26", "25", "33", "32", "22", "20", "21", "14", "15", "16", "5", "7"], "time": [3479, 4146, 4229, 7013, 7097, 7530, 8287, 8648, 11048, 11500, 12552, 14284, 15167, 15721, 15769, 15818, 16457, 19035]}, "edge": {"target": [], "time": []}}, "mouseout": {"state": {"target": ["23", "12", "0", "16", "18", "13", "12", "28", "27", "26", "25", "33", "32", "22", "20", "21", "14", "15", "16", "5", "7", "0"], "time": [1060, 1127, 2895, 4013, 4163, 4580, 7047, 7114, 8181, 8452, 10998, 11065, 11751, 12900, 14318, 15620, 15739, 15807, 15837, 18768, 19071, 25539]}, "edge": {"target": [], "time": []}}}, "displayed_time": "22.91", "trialTime": 26354, "trial_type": "mouselab-mdp", "trial_index": 37, "time_elapsed": 1705193, "internal_node_id": "0.0-4.0-1.0-28.0"}}, {"uniqueid": "w90432099:a45207523", "current_trial": 38, "dateTime": 1691144085301, "trialdata": {"revealed_states": [], "clicked_states": ["9", "11", "17"], "num_clicks_accrued": [0, 0, 0, 0, 0, 0, 0, 0, 0, 0, 0, 0, 0], "stateRewards": ["", -1, -3, -6, -2, -7, 80, -45, -3, -38, -72, 76, 2, 1, 7, 4, -62, 14, -74, 14, -87, -21, -88, -2, 1, -7, -10, 66, 56, -76, 10, -29, -72, -70], "withholdReward": false, "trial_id": "mdp_trial_30", "block": "test", "trialIndex": 31, "score": 56.55, "costs": -6.449999999999999, "simulationMode": [null, null, null, null, null], "rewards": [-1, -3, -6, -3, 76], "path": ["0", "0", "1", "2", "3", "8", "11"], "rt": [11115, 139, 211, 14, 45], "actions": ["up", "up", "up", "left", "left"], "actionTimes": [12653, 13295, 14005, 14536, 15085], "queries": {"click": {"state": {"target": ["9", "11", "17"], "time": [3158, 6387, 9417]}, "edge": {"target": [], "time": []}}, "mouseover": {"state": {"target": ["1", "7", "6", "5", "9", "11", "10", "2", "7", "17", "15"], "time": [2233, 2265, 2316, 2483, 2949, 4684, 6901, 7052, 7135, 7702, 10253]}, "edge": {"target": [], "time": []}}, "mouseout": {"state": {"target": ["13", "12", "0", "1", "7", "6", "5", "9", "11", "10", "2", "7", "17", "15"], "time": [732, 765, 1216, 2249, 2282, 2384, 2516, 3433, 6771, 6953, 7101, 7185, 10070, 10341]}, "edge": {"target": [], "time": []}}}, "displayed_time": "15.57", "trialTime": 18763, "trial_type": "mouselab-mdp", "trial_index": 38, "time_elapsed": 1724793, "internal_node_id": "0.0-4.0-1.0-29.0"}}, {"uniqueid": "w90432099:a45207523", "current_trial": 39, "dateTime": 1691144106809, "trialdata": {"revealed_states": [], "clicked_states": ["5", "22", "20"], "num_clicks_accrued": [0, 0, 0, 0, 0, 0, 0, 0, 0, 0, 0, 0, 0], "stateRewards": ["", 1, -1, 1, -14, -10, 67, -28, -11, 72, 40, -65, -1, 1, 1, -2, 8, -55, 34, -10, 61, 33, -15, 2, -4, 7, 4, -75, 63, -21, -16, 61, 19, 21], "withholdReward": false, "trial_id": "mdp_trial_31", "block": "test", "trialIndex": 32, "score": 45.55, "costs": -6.449999999999999, "simulationMode": [null, null, null, null, null], "rewards": [-1, 1, 1, -10, 61], "path": ["0", "0", "12", "13", "14", "19", "20"], "rt": [12163, 593, 22, 184, 73], "actions": ["right", "right", "right", "down", "right"], "actionTimes": [13777, 14871, 15384, 16079, 16668], "queries": {"click": {"state": {"target": ["5", "22", "20"], "time": [2748, 6030, 9684]}, "edge": {"target": [], "time": []}}, "mouseover": {"state": {"target": ["4", "5", "4", "7", "12", "22", "22", "21", "20", "19", "31", "30", "30", "31", "25"], "time": [2337, 2571, 2998, 3081, 3256, 3762, 4023, 9242, 9540, 9959, 10340, 10387, 10515, 10707, 13209]}, "edge": {"target": [], "time": []}}, "mouseout": {"state": {"target": ["8", "8", "28", "1", "0", "4", "5", "4", "7", "12", "22", "22", "21", "20", "19", "31", "30", "30", "31", "25", "24", "23", "24", "25", "24", "23", "0"], "time": [369, 487, 753, 837, 1704, 2440, 2946, 3062, 3097, 3405, 3819, 6573, 9277, 9927, 9977, 10365, 10402, 10609, 13192, 18928, 19063, 19128, 19179, 19379, 19411, 19528, 19578]}, "edge": {"target": [], "time": []}}}, "displayed_time": "17.16", "trialTime": 20700, "trial_type": "mouselab-mdp", "trial_index": 39, "time_elapsed": 1746301, "internal_node_id": "0.0-4.0-1.0-30.0"}}, {"uniqueid": "w90432099:a45207523", "current_trial": 40, "dateTime": 1691144130141, "trialdata": {"revealed_states": [], "clicked_states": ["33", "29", "6"], "num_clicks_accrued": [0, 0, 0, 0, 0, 0, 0, 0, 0, 0, 0, 0, 0], "stateRewards": ["", 2, -1, 1, 10, -52, 86, -22, -2, -14, -63, 38, 1, 3, 7, -8, 11, -32, -27, 9, -71, 40, -87, -2, -1, 5, -7, 12, 31, -57, 13, 86, -58, 29], "withholdReward": false, "trial_id": "mdp_trial_32", "block": "test", "trialIndex": 33, "score": 91.55, "costs": -6.449999999999999, "simulationMode": [null, null, null, null, null], "rewards": [2, -1, 1, 10, 86], "path": ["0", "0", "1", "2", "3", "4", "6"], "rt": [11600, 159, 266, 82, 132], "actions": ["up", "up", "up", "right", "right"], "actionTimes": [13266, 13967, 14729, 15312, 15950], "queries": {"click": {"state": {"target": ["33", "29", "6"], "time": [2737, 6004, 9172]}, "edge": {"target": [], "time": []}}, "mouseover": {"state": {"target": ["29", "33", "29", "26", "29", "27", "3", "4", "6", "7", "1", "12", "22"], "time": [1796, 2556, 3207, 3366, 4596, 6595, 7038, 7175, 7791, 9756, 11051, 11737, 12352]}, "edge": {"target": [], "time": []}}, "mouseout": {"state": {"target": ["32", "10", "0", "29", "33", "29", "26", "29", "27", "3", "4", "6", "7", "1", "12", "22", "12"], "time": [171, 722, 1674, 1833, 2993, 3296, 3381, 6078, 6846, 7077, 7463, 9630, 9851, 11621, 11812, 21048, 21749]}, "edge": {"target": [], "time": []}}}, "displayed_time": "16.45", "trialTime": 22558, "trial_type": "mouselab-mdp", "trial_index": 40, "time_elapsed": 1769633, "internal_node_id": "0.0-4.0-1.0-31.0"}}, {"uniqueid": "w90432099:a45207523", "current_trial": 41, "dateTime": 1691144154446, "trialdata": {"revealed_states": [], "clicked_states": ["5", "11", "29", "20"], "num_clicks_accrued": [0, 0, 0, 0, 0, 0, 0, 0, 0, 0, 0, 0, 0], "stateRewards": ["", 2, 3, -3, 12, -43, 81, -82, -15, 58, -7, -75, -1, -1, 3, -5, 50, -25, -8, 4, 66, 65, -66, 2, -4, 2, -1, -10, 10, 37, 11, 88, -37, 8], "withholdReward": false, "trial_id": "mdp_trial_33", "block": "test", "trialIndex": 34, "score": 62.4, "costs": -8.6, "simulationMode": [null, null, null, null, null], "rewards": [-1, -1, 3, 4, 66], "path": ["0", "0", "12", "13", "14", "19", "20"], "rt": [15336, 128, 14, 428, 221], "actions": ["right", "right", "right", "down", "right"], "actionTimes": [16976, 17596, 18100, 19046, 19758], "queries": {"click": {"state": {"target": ["5", "11", "29", "20"], "time": [2864, 5959, 9176, 12854]}, "edge": {"target": [], "time": []}}, "mouseover": {"state": {"target": ["5", "3", "8", "11", "11", "26", "29", "29", "22", "19", "20", "20", "14"], "time": [2660, 3227, 3577, 3977, 5226, 6439, 6477, 6996, 9849, 9866, 9897, 10234, 16433]}, "edge": {"target": [], "time": []}}, "mouseout": {"state": {"target": ["9", "4", "18", "5", "5", "3", "8", "11", "11", "26", "29", "29", "22", "19", "20", "20", "14", "13"], "time": [809, 858, 975, 2919, 3144, 3410, 3677, 4377, 6262, 6457, 6496, 9399, 9864, 9881, 10118, 13232, 22332, 22468]}, "edge": {"target": [], "time": []}}}, "displayed_time": "20.25", "trialTime": 23456, "trial_type": "mouselab-mdp", "trial_index": 41, "time_elapsed": 1793938, "internal_node_id": "0.0-4.0-1.0-32.0"}}, {"uniqueid": "w90432099:a45207523", "current_trial": 42, "dateTime": 1691144178662, "trialdata": {"revealed_states": [], "clicked_states": ["29", "17", "21", "22"], "num_clicks_accrued": [0, 0, 0, 0, 0, 0, 0, 0, 0, 0, 0, 0, 0], "stateRewards": ["", 2, 3, 6, -5, -74, -53, 17, -12, 46, 44, 18, -2, 4, 1, -8, 22, -23, -49, 9, -45, 55, 81, 1, -1, -7, -16, -83, -71, -45, 2, 51, 82, 61], "withholdReward": false, "trial_id": "mdp_trial_34", "block": "test", "trialIndex": 35, "score": 84.4, "costs": -8.6, "simulationMode": [null, null, null, null, null, null], "rewards": [-2, 4, 1, 9, 81], "path": ["0", "0", "12", "13", "14", "19", "22"], "rt": [13329, 1405, 144, 78, 498, 453], "actions": ["right", "right", "right", "right", "down", "left"], "actionTimes": [16413, 17820, 18455, 19037, 20026, 20980], "queries": {"click": {"state": {"target": ["29", "17", "21", "22"], "time": [4422, 7471, 10555, 14681]}, "edge": {"target": [], "time": []}}, "mouseover": {"state": {"target": ["1", "10", "27", "26", "29", "26", "24", "23", "12", "15", "17", "17", "20", "21", "19", "14", "18", "4", "5", "9", "3", "7", "15", "20", "22", "19"], "time": [3161, 3566, 3783, 4034, 4250, 4801, 4884, 4934, 5018, 5220, 5317, 5722, 7837, 8292, 10823, 10858, 10887, 10945, 10981, 11596, 13839, 13888, 13938, 14054, 14355, 14990]}, "edge": {"target": [], "time": []}}, "mouseout": {"state": {"target": ["19", "18", "1", "1", "10", "27", "26", "29", "26", "24", "23", "12", "15", "17", "17", "20", "21", "19", "14", "18", "4", "5", "9", "3", "7", "15", "20", "21", "22", "19"], "time": [1883, 1966, 2349, 3533, 3583, 3884, 4083, 4701, 4817, 4918, 4970, 5051, 5258, 5384, 7719, 7905, 10789, 10854, 10871, 10905, 10956, 11020, 13788, 13872, 13905, 13954, 14088, 14206, 14956, 15042]}, "edge": {"target": [], "time": []}}}, "displayed_time": "21.48", "trialTime": 23218, "trial_type": "mouselab-mdp", "trial_index": 42, "time_elapsed": 1818154, "internal_node_id": "0.0-4.0-1.0-33.0"}}, {"uniqueid": "w90432099:a45207523", "current_trial": 43, "dateTime": 1691144202773, "trialdata": {"revealed_states": [], "clicked_states": ["11", "21", "10", "20"], "num_clicks_accrued": [0, 0, 0, 0, 0, 0, 0, 0, 0, 0, 0, 0, 0], "stateRewards": ["", -1, -2, 8, -6, -79, -6, 87, 9, -5, -66, -38, 2, 2, 5, -6, -82, 74, 85, -8, 67, -30, -15, 1, -2, -2, -2, 87, 64, 49, 7, 2, -38, -9], "withholdReward": false, "trial_id": "mdp_trial_35", "block": "test", "trialIndex": 36, "score": 59.4, "costs": -8.6, "simulationMode": [null, null, null, null, null], "rewards": [2, 2, 5, -8, 67], "path": ["0", "0", "12", "13", "14", "19", "20"], "rt": [14843, 357, 152, 335, 208], "actions": ["right", "right", "right", "down", "right"], "actionTimes": [17509, 18364, 19011, 19842, 20550], "queries": {"click": {"state": {"target": ["11", "21", "10", "20"], "time": [4014, 7130, 10246, 13300]}, "edge": {"target": [], "time": []}}, "mouseover": {"state": {"target": ["1", "2", "7", "4", "3", "8", "11", "10", "13", "19", "21", "22", "0", "10", "1", "14", "20", "14", "16", "17"], "time": [3132, 3215, 3268, 3348, 3399, 3615, 3816, 4499, 4666, 4874, 5269, 7603, 7686, 8247, 10535, 10737, 11048, 13890, 14095, 14410]}, "edge": {"target": [], "time": []}}, "mouseout": {"state": {"target": ["22", "33", "28", "23", "0", "1", "2", "7", "4", "3", "8", "11", "10", "13", "19", "21", "22", "0", "10", "1", "14", "20", "14", "16"], "time": [680, 747, 1081, 1347, 1665, 3165, 3248, 3283, 3384, 3515, 3749, 4416, 4533, 4683, 4935, 7535, 7619, 7703, 10481, 10560, 10776, 13789, 13941, 14141]}, "edge": {"target": [], "time": []}}}, "displayed_time": "21.05", "trialTime": 23149, "trial_type": "mouselab-mdp", "trial_index": 43, "time_elapsed": 1842264, "internal_node_id": "0.0-4.0-1.0-34.0"}}, {"uniqueid": "w90432099:a45207523", "current_trial": 44, "dateTime": 1691144230407, "trialdata": {"revealed_states": [], "clicked_states": ["5", "32", "33", "16", "17"], "num_clicks_accrued": [0, 0, 0, 0, 0, 0, 0, 0, 0, 0, 0, 0, 0], "stateRewards": ["", -1, -3, 4, -10, -5, 79, -87, -2, 53, 29, -20, -2, -1, -5, 10, 27, 86, 46, -16, -29, 40, 3, 2, 4, -1, -6, 37, 79, -29, 7, 86, -62, 29], "withholdReward": false, "trial_id": "mdp_trial_36", "block": "test", "trialIndex": 37, "score": 77.25, "costs": -10.75, "simulationMode": [null, null, null, null, null], "rewards": [-2, -1, -5, 10, 86], "path": ["0", "0", "12", "13", "14", "15", "17"], "rt": [19202, 368, 182, 219, 350], "actions": ["right", "right", "right", "up", "right"], "actionTimes": [20901, 21761, 22441, 23163, 24009], "queries": {"click": {"state": {"target": ["5", "32", "33", "16", "17"], "time": [2641, 5690, 8742, 11982, 15744]}, "edge": {"target": [], "time": []}}, "mouseover": {"state": {"target": ["5", "5", "4", "10", "28", "30", "32", "32", "33", "25", "24", "18", "18", "16", "18", "18", "15", "17", "14", "13", "1", "28", "29", "18"], "time": [1899, 2498, 2899, 3028, 3075, 3386, 3902, 4269, 6518, 9023, 9087, 9187, 9371, 9669, 12586, 15271, 15388, 15438, 16192, 16422, 16626, 16675, 17333, 19006]}, "edge": {"target": [], "time": []}}, "mouseout": {"state": {"target": ["9", "3", "2", "1", "5", "5", "4", "10", "28", "30", "32", "32", "33", "25", "24", "18", "18", "16", "16", "18", "18", "15", "17", "14", "13", "1", "28", "29", "18", "18"], "time": [166, 613, 646, 764, 1998, 2865, 2966, 3042, 3334, 3418, 3951, 6051, 8947, 9037, 9105, 9220, 9454, 12063, 12488, 12689, 15371, 15422, 16122, 16247, 16497, 16644, 16689, 18939, 19022, 26009]}, "edge": {"target": [], "time": []}}}, "displayed_time": "24.51", "trialTime": 26606, "trial_type": "mouselab-mdp", "trial_index": 44, "time_elapsed": 1869899, "internal_node_id": "0.0-4.0-1.0-35.0"}}, {"uniqueid": "w90432099:a45207523", "current_trial": 45, "dateTime": 1691144254478, "trialdata": {"revealed_states": [], "clicked_states": ["27", "5", "21", "17"], "num_clicks_accrued": [0, 0, 0, 0, 0, 0, 0, 0, 0, 0, 0, 0, 0], "stateRewards": ["", -1, 3, -5, -2, -13, -9, -34, -7, -81, 32, 35, -2, -2, 1, -14, -32, 81, 7, 4, 82, 56, -8, -1, 3, -8, 6, -24, -24, -53, 2, 38, 61, 54], "withholdReward": false, "trial_id": "mdp_trial_37", "block": "test", "trialIndex": 38, "score": 55.4, "costs": -8.6, "simulationMode": [null, null, null, null, null], "rewards": [-2, -2, 1, -14, 81], "path": ["0", "0", "12", "13", "14", "15", "17"], "rt": [16094, 326, 283, 65, 123], "actions": ["right", "right", "right", "up", "right"], "actionTimes": [17608, 18425, 19197, 19787, 20464], "queries": {"click": {"state": {"target": ["27", "5", "21", "17"], "time": [2570, 5706, 8862, 13379]}, "edge": {"target": [], "time": []}}, "mouseover": {"state": {"target": ["27", "27", "3", "4", "5", "5", "4", "7", "21", "21", "19", "22", "23", "23", "12", "13", "14", "17", "22", "19", "20"], "time": [2054, 2437, 2909, 3055, 3092, 3555, 6191, 6344, 6573, 6998, 9531, 9882, 10127, 12092, 12177, 12209, 12642, 13260, 14294, 15645, 15695]}, "edge": {"target": [], "time": []}}, "mouseout": {"state": {"target": ["13", "0", "27", "27", "3", "4", "5", "5", "4", "7", "21", "21", "19", "22", "23", "23", "12", "13", "14", "17", "22", "19"], "time": [320, 986, 2070, 2805, 2925, 3072, 3239, 6156, 6258, 6509, 6588, 9044, 9660, 9992, 10162, 12146, 12194, 12359, 12726, 13715, 15627, 15677]}, "edge": {"target": [], "time": []}}}, "displayed_time": "20.97", "trialTime": 22987, "trial_type": "mouselab-mdp", "trial_index": 45, "time_elapsed": 1893969, "internal_node_id": "0.0-4.0-1.0-36.0"}}, {"uniqueid": "w90432099:a45207523", "current_trial": 46, "dateTime": 1691144273311, "trialdata": {"revealed_states": [], "clicked_states": ["29"], "num_clicks_accrued": [0, 0, 0, 0, 0, 0, 0, 0, 0, 0, 0, 0, 0], "stateRewards": ["", -1, -3, -7, -4, -85, -70, 79, 8, 84, -66, 42, 2, -2, -3, -16, -54, -66, 68, -3, 21, -14, 7, -2, -1, -3, -8, 75, 80, 86, -7, -84, 73, -16], "withholdReward": false, "trial_id": "mdp_trial_38", "block": "test", "trialIndex": 39, "score": 69.85, "costs": -2.15, "simulationMode": [null, null, null, null, null], "rewards": [-2, -1, -3, -8, 86], "path": ["0", "0", "23", "24", "25", "26", "29"], "rt": [5725, 147, 152, 658, 144], "actions": ["left", "left", "left", "up", "left"], "actionTimes": [7145, 7794, 8453, 9606, 10242], "queries": {"click": {"state": {"target": ["29"], "time": [2924]}, "edge": {"target": [], "time": []}}, "mouseover": {"state": {"target": ["1", "26", "29", "30"], "time": [2078, 2326, 2777, 3310]}, "edge": {"target": [], "time": []}}, "mouseout": {"state": {"target": ["11", "28", "23", "0", "1", "26", "29", "30", "0", "12", "14", "19"], "time": [224, 342, 608, 1434, 2127, 2377, 3177, 3327, 16707, 16732, 17016, 17250]}, "edge": {"target": [], "time": []}}}, "displayed_time": "15.42", "trialTime": 17748, "trial_type": "mouselab-mdp", "trial_index": 46, "time_elapsed": 1912803, "internal_node_id": "0.0-4.0-1.0-37.0"}}, {"uniqueid": "w90432099:a45207523", "current_trial": 47, "dateTime": 1691144321326, "trialdata": {"revealed_states": [], "clicked_states": ["9", "20", "21", "22", "17", "16", "18", "29", "33", "32"], "num_clicks_accrued": [0, 0, 0, 0, 0, 0, 0, 0, 0, 0, 0, 0, 0], "stateRewards": ["", -1, 3, 8, 10, -86, 61, -36, 10, 17, -60, 24, -1, -3, 3, 11, 50, 60, 33, -3, -20, 58, -6, 1, -4, -4, 13, -70, -71, 43, 14, 52, 82, -11], "withholdReward": false, "trial_id": "mdp_trial_39", "block": "test", "trialIndex": 40, "score": 67.5, "costs": -21.499999999999996, "simulationMode": [null, null, null, null, null], "rewards": [1, -4, -4, 14, 82], "path": ["0", "0", "23", "24", "25", "30", "32"], "rt": [38975, 157, 296, 53, 177], "actions": ["left", "left", "left", "down", "down"], "actionTimes": [40457, 41107, 41897, 42454, 43128], "queries": {"click": {"state": {"target": ["9", "20", "21", "22", "17", "16", "18", "29", "33", "32"], "time": [2613, 6513, 10063, 13150, 16272, 19762, 25231, 29575, 32718, 36056]}, "edge": {"target": [], "time": []}}, "mouseover": {"state": {"target": ["1", "2", "3", "9", "9", "8", "19", "20", "21", "22", "14", "17", "16", "18", "29", "33", "33", "32", "31"], "time": [1815, 1913, 2014, 2198, 2447, 2864, 4196, 4650, 7102, 10520, 13653, 14024, 16989, 24865, 29102, 30453, 31714, 33295, 36959]}, "edge": {"target": [], "time": []}}, "mouseout": {"state": {"target": ["11", "10", "1", "2", "3", "9", "9", "9", "8", "19", "20", "21", "22", "14", "17", "16", "16", "18", "29", "29", "33", "33", "33", "32", "31", "21"], "time": [613, 662, 1880, 1964, 2114, 2230, 2670, 2814, 2953, 4399, 6818, 10271, 13488, 13705, 16537, 21174, 24854, 29098, 29640, 30012, 30488, 32817, 33064, 36466, 39564, 44733]}, "edge": {"target": [], "time": []}}}, "displayed_time": "43.62", "trialTime": 47076, "trial_type": "mouselab-mdp", "trial_index": 47, "time_elapsed": 1960818, "internal_node_id": "0.0-4.0-1.0-38.0"}}, {"uniqueid": "w90432099:a45207523", "current_trial": 48, "dateTime": 1691144338940, "trialdata": {"revealed_states": [], "clicked_states": ["5"], "num_clicks_accrued": [0, 0, 0, 0, 0, 0, 0, 0, 0, 0, 0, 0, 0], "stateRewards": ["", -1, 1, -6, -1, 80, 23, 2, -11, 73, -81, 59, 1, 3, 5, -1, -26, 28, -3, 16, -59, -13, -50, -2, -2, 2, 15, -50, 86, 17, -4, 37, 35, 44], "withholdReward": false, "trial_id": "mdp_trial_40", "block": "test", "trialIndex": 41, "score": 70.85, "costs": -2.15, "simulationMode": [null, null, null, null, null], "rewards": [-1, 1, -6, -1, 80], "path": ["0", "0", "1", "2", "3", "4", "5"], "rt": [4562, 166, 69, 361, 1000], "actions": ["up", "up", "up", "right", "up"], "actionTimes": [6421, 7091, 7663, 8521, 10011], "queries": {"click": {"state": {"target": ["5"], "time": [2624]}, "edge": {"target": [], "time": []}}, "mouseover": {"state": {"target": ["23", "1", "5", "4", "7"], "time": [1868, 2057, 2305, 2839, 3111]}, "edge": {"target": [], "time": []}}, "mouseout": {"state": {"target": ["22", "12", "0", "23", "1", "5", "5", "4"], "time": [220, 1004, 1087, 2024, 2105, 2683, 2823, 2973]}, "edge": {"target": [], "time": []}}}, "displayed_time": "15.86", "trialTime": 16742, "trial_type": "mouselab-mdp", "trial_index": 48, "time_elapsed": 1978431, "internal_node_id": "0.0-4.0-1.0-39.0"}}, {"uniqueid": "w90432099:a45207523", "current_trial": 49, "dateTime": 1691144429360, "trialdata": {"rt": 90415, "response": {"Q0": "$-2 to $2", "Q1": "$-4 to $4", "Q2": "$-88 to $88", "Q3": "The cost for clicking on nodes varied between nodes.", "Q4": "Very motivated"}, "question_order": [0, 1, 2, 3, 4], "trial_id": "final_quiz_control", "trial_type": "survey-multi-choice", "trial_index": 49, "time_elapsed": 2068851, "internal_node_id": "0.0-4.0-2.0"}}, {"uniqueid": "w90432099:a45207523", "current_trial": 50, "dateTime": 1691144659197, "trialdata": {"rt": 229824, "response": {"Q0": "I would use the inspector node to inspect which nodes pay the highest and then move to that node. I also minimised the number of times I used the inspector nodes. And I made sure not to select nodes in the same area after discovering that they may decrease my winning amount.", "Q1": "Yes it improved. I made sure not to inspect nodes in the same area.", "Q2": "It wasn't difficult to improve my performance."}, "trial_id": "self_report_control", "trial_type": "survey-text", "trial_index": 50, "time_elapsed": 2298687, "internal_node_id": "0.0-4.0-3.0"}}, {"uniqueid": "w90432099:a45207523", "current_trial": 51, "dateTime": 1691144746239, "trialdata": {"rt": 87036, "response": {"Q0": "Disagree", "Q1": "Strongly disagree", "Q2": "Disagree", "Q3": "Strongly agree", "Q4": "Strongly disagree", "Q5": "Strongly agree", "Q6": "Strongly disagree"}, "question_order": [0, 1, 2, 3, 4, 5, 6], "trial_id": "self_report_2", "trial_type": "survey-multi-choice", "trial_index": 51, "time_elapsed": 2385731, "internal_node_id": "0.0-4.0-4.0"}}, {"uniqueid": "w90432099:a45207523", "current_trial": 52, "dateTime": 1691144798270, "trialdata": {"rt": 52026, "response": {"gender": "male", "age": "21", "colorblind": "0", "effort": "0"}, "trial_type": "survey-html-form", "trial_index": 52, "time_elapsed": 2437762, "internal_node_id": "0.0-4.0-5.0"}}, {"uniqueid": "w90432099:a45207523", "current_trial": 53, "dateTime": 1691144927079, "trialdata": {"rt": 128671, "response": {"Q0": "Nothing was confusing i understood all instructions given.", "Q1": "No I haven't participated in any HITS like this.", "Q2": "I enjoyed this study."}, "trial_type": "survey-text", "trial_index": 53, "time_elapsed": 2566550, "internal_node_id": "0.0-4.0-6.0"}}, {"uniqueid": "w90432099:a45207523", "current_trial": 54, "dateTime": 1691144939304, "trialdata": {"rt": 12206, "stimulus": "Press 'Finish HIT' in order to reach the completion code. Once the data has been saved, you will receive the code either in this window or in the original browser window where you started the experiment.\n", "response": 0, "trial_type": "html-button-response", "trial_index": 54, "time_elapsed": 2578796, "internal_node_id": "0.0-5.0"}}, {"uniqueid": "w90432099:a45207523", "current_trial": 55, "dateTime": 1691144940307, "trialdata": {"success": true, "trial_type": "fullscreen", "trial_index": 55, "time_elapsed": 2579799, "internal_node_id": "0.0-6.0"}}], "questiondata": {"params": {"CODE": "C6DMOQA6", "MIN_TIME": 14, "inspectCost": 1, "startTime": "Fri Aug 04 2023 11:45:57 GMT+0200 (South Africa Standard Time)", "bonusRate": 0.002, "variance": "1_2_4_8_44", "branching": "31123"}}, "eventdata": [{"eventtype": "initialized", "value": null, "timestamp": 1691142356897, "interval": 0}, {"eventtype": "window_resize", "value": [1024, 646], "timestamp": 1691142356897, "interval": 0}, {"eventtype": "window_resize", "value": [1024, 646], "timestamp": 1691142357366, "interval": 469}, {"eventtype": "window_resize", "value": [1366, 768], "timestamp": 1691142371474, "interval": 14108}, {"eventtype": "focus", "value": "off", "timestamp": 1691142447543, "interval": 76069}, {"eventtype": "focus", "value": "on", "timestamp": 1691142447548, "interval": 5}, {"eventtype": "window_resize", "value": [1024, 646], "timestamp": 1691142447753, "interval": 205}, {"eventtype": "window_resize", "value": [1366, 662], "timestamp": 1691142448822, "interval": 1069}, {"eventtype": "window_resize", "value": [1366, 768], "timestamp": 1691142452069, "interval": 3247}, {"eventtype": "focus", "value": "off", "timestamp": 1691143715885, "interval": 1263816}, {"eventtype": "window_resize", "value": [1366, 767], "timestamp": 1691143716181, "interval": 296}, {"eventtype": "focus", "value": "on", "timestamp": 1691143718300, "interval": 2119}, {"eventtype": "window_resize", "value": [1366, 768], "timestamp": 1691143718547, "interval": 247}], "useragent": "Mozilla/5.0 (Windows NT 10.0; Win64; x64) AppleWebKit/537.36 (KHTML, like Gecko) Chrome/115.0.0.0 Safari/537.36", "mode": "live", "id": "w90432099:a45207523", "status": "user data saved", "Beginhit": "2023-08-04 09:45:47.067713", "Beginexp": "2023-08-04 09:46:07.771728", "Endhit": "2023-08-04 10:28:56.81016", "psiturkStatus": 3, "browser": "<redacted>", "platform": "windows", "language": "en-US"}