{"condition": 0, "counterbalance": 0, "assignmentId": "a83775427", "workerId": "w87353974", "hitId": "h10871729", "currenttrial": 55, "bonus": 0, "data": [{"uniqueid": "w87353974:a83775427", "current_trial": 0, "dateTime": 1693564782364, "trialdata": {"success": true, "trial_type": "fullscreen", "trial_index": 0, "time_elapsed": 4323, "internal_node_id": "0.0-0.0"}}, {"uniqueid": "w87353974:a83775427", "current_trial": 1, "dateTime": 1693564830576, "trialdata": {"view_history": [{"page_index": 0, "viewing_time": 48200}], "rt": 48201, "trial_id": "exp_instructions_control", "trial_type": "instructions", "trial_index": 1, "time_elapsed": 52537, "internal_node_id": "0.0-1.0"}}, {"uniqueid": "w87353974:a83775427", "current_trial": 2, "dateTime": 1693565524472, "trialdata": {"view_history": [{"page_index": 0, "viewing_time": 274945}, {"page_index": 1, "viewing_time": 269052}, {"page_index": 2, "viewing_time": 67468}, {"page_index": 3, "viewing_time": 82428}], "rt": 693893, "trial_id": "mouselab_instructions_1_control", "trial_type": "instructions", "trial_index": 2, "time_elapsed": 746433, "internal_node_id": "0.0-2.0-1.0"}}, {"uniqueid": "w87353974:a83775427", "current_trial": 3, "dateTime": 1693565603251, "trialdata": {"revealed_states": [], "clicked_states": ["25", "27", "24", "3", "15", "16", "9", "5", "29", "17", "18", "1", "10", "11"], "num_clicks_accrued": [0, 0, 0, 0, 0, 0, 0, 0, 0, 0, 0, 0, 0], "stateRewards": ["", -10, 10, -10, 10, -10, -10, 10, 10, 10, -10, 10, 10, -10, -10, -10, 10, 10, 10, -10, -10, -10, 10, 10, -10, -10, 10, 10, 10, -10, 10, 10, 10, 10], "withholdReward": false, "trial_id": "practice_1", "block": "test", "trialIndex": 0, "score": 6.5, "costs": -7, "simulationMode": [null, null, null, null, null], "rewards": [-10, 10, -10, 10, 10], "path": ["0", "0", "1", "2", "3", "8", "11"], "rt": [59363, 1591, 560, 471, 369], "actions": ["up", "up", "up", "left", "left"], "actionTimes": [59871, 61955, 63027, 64003, 64883], "queries": {"click": {"state": {"target": ["25", "27", "24", "3", "15", "16", "9", "5", "29", "17", "18", "1", "10", "11"], "time": [5453, 9038, 13442, 17863, 20370, 22952, 26763, 30168, 33363, 35816, 40466, 43538, 45810, 50105]}, "edge": {"target": [], "time": []}}, "mouseover": {"state": {"target": ["23", "25", "28", "26", "27", "2", "10", "28", "24", "28", "2", "3", "7", "15", "15", "17", "16", "17", "14", "13", "12", "22", "19", "22", "18", "2", "8", "9", "5", "6", "7", "1", "28", "28", "26", "26", "27", "29", "26", "1", "15", "17", "18", "1", "18", "14", "19", "0", "1", "2", "10", "2", "7", "7", "2", "3", "7", "15", "18", "18", "18", "7", "11", "2", "1", "28", "27", "11", "2"], "time": [1106, 1407, 8209, 8757, 8819, 10390, 10604, 10907, 13086, 14067, 17083, 17466, 18917, 19123, 19706, 21282, 21966, 23633, 23966, 24049, 24116, 24538, 24754, 25005, 25439, 26023, 26206, 26421, 29989, 30864, 31215, 31320, 31438, 32170, 32197, 32438, 32672, 33004, 34099, 35138, 35454, 35498, 37931, 38664, 38883, 41886, 42120, 42965, 43252, 44230, 45598, 46330, 47017, 47385, 47412, 47686, 47728, 47799, 48017, 48733, 49468, 49530, 49833, 50880, 52617, 53599, 54215, 57434, 58417]}, "edge": {"target": [], "time": []}}, "mouseout": {"state": {"target": ["0", "23", "25", "28", "26", "27", "2", "10", "28", "24", "28", "2", "3", "7", "15", "15", "17", "16", "17", "14", "13", "12", "22", "19", "22", "18", "2", "8", "9", "5", "6", "7", "1", "28", "28", "26", "26", "27", "29", "26", "1", "15", "17", "18", "1", "18", "14", "19", "0", "1", "2", "10", "2", "7", "7", "2", "3", "7", "15", "18", "18", "18", "7", "11", "2", "1", "28", "11", "27", "11", "2"], "time": [1070, 1120, 6118, 8459, 8787, 9302, 10451, 10687, 12989, 13900, 17006, 17438, 18236, 18934, 19305, 21015, 21673, 23568, 23865, 24033, 24103, 24132, 24621, 24921, 25106, 25906, 26034, 26232, 27765, 30731, 31148, 31232, 31349, 31482, 32184, 32214, 32450, 32839, 34065, 34147, 35164, 35467, 37381, 38568, 38784, 41718, 41951, 42551, 43048, 43896, 45415, 45890, 46431, 47097, 47396, 47429, 47697, 47745, 47968, 48616, 49334, 49480, 49583, 50779, 50945, 53335, 53630, 54068, 57301, 58067, 59030]}, "edge": {"target": [], "time": []}}}, "displayed_time": "65.40", "trialTime": 77676, "trial_type": "mouselab-mdp", "trial_index": 3, "time_elapsed": 825210, "internal_node_id": "0.0-2.0-2.0-0.0"}}, {"uniqueid": "w87353974:a83775427", "current_trial": 4, "dateTime": 1693565641388, "trialdata": {"revealed_states": [], "clicked_states": [], "num_clicks_accrued": [0, 0, 0, 0, 0, 0, 0, 0, 0, 0, 0, 0, 0], "stateRewards": ["", 10, 10, 10, -10, -10, 10, -10, 10, 10, -10, 10, -10, 10, -10, 10, -10, 10, -10, 10, 10, -10, -10, -10, -10, -10, -10, -10, 10, -10, -10, 10, -10, 10], "withholdReward": false, "trial_id": "practice_2", "block": "test", "trialIndex": 1, "score": 53.5, "costs": 0, "simulationMode": [null, null, null, null, null], "rewards": [10, 10, 10, 10, 10], "path": ["0", "0", "1", "2", "3", "8", "11"], "rt": [14649, 649, 523, 1970, 358], "actions": ["up", "up", "up", "left", "left"], "actionTimes": [22742, 23907, 24947, 27428, 28299], "queries": {"click": {"state": {"target": [], "time": []}, "edge": {"target": [], "time": []}}, "mouseover": {"state": {"target": ["23", "28", "26", "29", "26", "28", "10", "3", "8", "2", "13", "19"], "time": [10262, 14294, 14462, 14661, 14960, 15040, 16061, 17893, 18262, 19678, 20179, 20222]}, "edge": {"target": [], "time": []}}, "mouseout": {"state": {"target": ["0", "23", "28", "26", "29", "26", "28", "10", "3", "8", "2", "13", "19"], "time": [10144, 10362, 14393, 14574, 14911, 15007, 15074, 17812, 18161, 19578, 19726, 20207, 20239]}, "edge": {"target": [], "time": []}}}, "displayed_time": "28.81", "trialTime": 37829, "trial_type": "mouselab-mdp", "trial_index": 4, "time_elapsed": 863347, "internal_node_id": "0.0-2.0-2.0-1.0"}}, {"uniqueid": "w87353974:a83775427", "current_trial": 5, "dateTime": 1693565772364, "trialdata": {"view_history": [{"page_index": 0, "viewing_time": 53587}, {"page_index": 1, "viewing_time": 77380}], "rt": 130968, "trial_id": "mouselab_instructions_2_control", "trial_type": "instructions", "trial_index": 5, "time_elapsed": 994325, "internal_node_id": "0.0-2.0-3.0"}}, {"uniqueid": "w87353974:a83775427", "current_trial": 6, "dateTime": 1693566004925, "trialdata": {"rt": 232555, "response": {"Q0": "The cost for clicking on nodes may vary between nodes.", "Q1": "The better I perform the higher my bonus will be.", "Q2": "No, the amount of cash at each node of the web may be different each time.", "Q3": "To get the highest total score.", "Q4": "Only before moving the spider.", "Q5": "3 seconds"}, "question_order": [0, 1, 2, 3, 4, 5], "correct": {"Q0": "The cost for clicking on nodes may vary between nodes.", "Q1": "The better I perform the higher my bonus will be.", "Q2": "No, the amount of cash at each node of the web may be different each time.", "Q3": "To get the highest total score.", "Q4": "Only before moving the spider.", "Q5": "3 seconds"}, "trial_id": "mouselab_quiz_control", "trial_type": "survey-multi-choice", "trial_index": 6, "time_elapsed": 1226886, "internal_node_id": "0.0-2.0-4.0"}}, {"uniqueid": "w87353974:a83775427", "current_trial": 7, "dateTime": 1693566024164, "trialdata": {"rt": 19229, "response": {"Q0": "No"}, "question_order": [0], "trial_id": "repeat_check", "trial_type": "survey-multi-choice", "trial_index": 7, "time_elapsed": 1246125, "internal_node_id": "0.0-4.0-0.0"}}, {"uniqueid": "w87353974:a83775427", "current_trial": 8, "dateTime": 1693566107848, "trialdata": {"rt": 83674, "stimulus": "\n<h1> Get ready to start the game! </h1>\n\nThank you for reading the instructions. Get ready start with the 40 rounds of this game.\n<br><br>\nIf you need to take a break, feel free to take one after the end of a round, before continuing to the next one.\n<br><br>\nRemember, the more money the spider gets, the bigger your bonus will be!\n<br><br>\n<div style='text-align: center;'>Press <code>space</code> to begin.</div>\n\n<br><br>\n(If, at any point, the <code>space</code> key does not take you to the next page, click once on the text and try again.)", "response": " ", "trial_id": "mdp_ready", "trial_type": "html-keyboard-response", "trial_index": 8, "time_elapsed": 1329809, "internal_node_id": "0.0-6.0-0.0"}}, {"uniqueid": "w87353974:a83775427", "current_trial": 9, "dateTime": 1693566139393, "trialdata": {"revealed_states": [], "clicked_states": [], "num_clicks_accrued": [0, 0, 0, 0, 0, 0, 0, 0, 0, 0, 0, 0, 0], "stateRewards": ["", 1, -2, 7, -14, 88, -56, -44, -14, 64, -51, -57, -2, 3, -4, -9, -11, 19, -77, -1, 68, 75, -67, -1, 1, -2, 5, -37, 70, -34, -10, -72, 63, -41], "withholdReward": false, "trial_id": "mdp_trial_1", "block": "test", "trialIndex": 2, "score": -31, "costs": 0, "simulationMode": [null, null, null, null, null], "rewards": [-1, 1, -2, 5, -34], "path": ["0", "0", "23", "24", "25", "26", "29"], "rt": [3547, 98, 67, 1733, 827], "actions": ["left", "left", "left", "up", "left"], "actionTimes": [10212, 10808, 11392, 13640, 14984], "queries": {"click": {"state": {"target": [], "time": []}, "edge": {"target": [], "time": []}}, "mouseover": {"state": {"target": [], "time": []}, "edge": {"target": [], "time": []}}, "mouseout": {"state": {"target": ["0", "1", "1", "0", "23", "0"], "time": [1125, 1238, 1408, 8277, 25425, 26306]}, "edge": {"target": [], "time": []}}}, "displayed_time": "20.67", "trialTime": 31248, "trial_type": "mouselab-mdp", "trial_index": 9, "time_elapsed": 1361353, "internal_node_id": "0.0-6.0-1.0-0.0"}}, {"uniqueid": "w87353974:a83775427", "current_trial": 10, "dateTime": 1693566163603, "trialdata": {"revealed_states": [], "clicked_states": ["3", "11"], "num_clicks_accrued": [0, 0, 0, 0, 0, 0, 0, 0, 0, 0, 0, 0, 0], "stateRewards": ["", -1, 1, -2, 5, 73, 15, 61, 8, 7, 38, 76, 2, 2, -4, -6, -6, -26, 43, -5, -45, -85, -35, -2, 1, -4, 15, -10, 69, 72, -11, 84, -49, -38], "withholdReward": false, "trial_id": "mdp_trial_2", "block": "test", "trialIndex": 3, "score": 79.2, "costs": -2.8, "simulationMode": [null, null, null, null, null], "rewards": [-1, 1, -2, 8, 76], "path": ["0", "0", "1", "2", "3", "8", "11"], "rt": [8344, 419, 392, 195, 111], "actions": ["up", "up", "up", "left", "left"], "actionTimes": [9330, 10250, 11154, 11857, 12490], "queries": {"click": {"state": {"target": ["3", "11"], "time": [3765, 6497]}, "edge": {"target": [], "time": []}}, "mouseover": {"state": {"target": ["1", "2", "3", "8", "11"], "time": [1528, 1711, 2011, 4843, 6082]}, "edge": {"target": [], "time": []}}, "mouseout": {"state": {"target": ["0", "1", "2", "3", "3", "8", "11", "12", "13", "21"], "time": [564, 1682, 1932, 3866, 4579, 6026, 7846, 15698, 15742, 15844]}, "edge": {"target": [], "time": []}}}, "displayed_time": "14.99", "trialTime": 23899, "trial_type": "mouselab-mdp", "trial_index": 10, "time_elapsed": 1385563, "internal_node_id": "0.0-6.0-1.0-1.0"}}, {"uniqueid": "w87353974:a83775427", "current_trial": 11, "dateTime": 1693566190612, "trialdata": {"revealed_states": [], "clicked_states": ["29", "18"], "num_clicks_accrued": [0, 0, 0, 0, 0, 0, 0, 0, 0, 0, 0, 0, 0], "stateRewards": ["", -1, -2, -1, -10, -57, 73, -72, -16, 75, -14, -46, -2, -3, -7, -1, -61, -60, 76, -4, 50, 4, 14, 2, 2, -7, 12, -65, -32, 15, -8, -76, -25, -61], "withholdReward": false, "trial_id": "mdp_trial_3", "block": "test", "trialIndex": 4, "score": 60.2, "costs": -2.8, "simulationMode": [null, null, null, null, null], "rewards": [-2, -3, -7, -1, 76], "path": ["0", "0", "12", "13", "14", "15", "18"], "rt": [6589, 310, 8, 1278, 60], "actions": ["right", "right", "right", "up", "left"], "actionTimes": [7998, 8820, 9346, 11132, 11714], "queries": {"click": {"state": {"target": ["29", "18"], "time": [2178, 5579]}, "edge": {"target": [], "time": []}}, "mouseover": {"state": {"target": ["23", "26", "29", "26", "28", "27", "10", "2", "7", "18"], "time": [1674, 1823, 1923, 2652, 2786, 3285, 4819, 4854, 5024, 5270]}, "edge": {"target": [], "time": []}}, "mouseout": {"state": {"target": ["0", "23", "26", "29", "26", "28", "27", "10", "2", "7", "18", "18", "14", "21", "19", "14"], "time": [787, 1756, 1874, 2453, 2753, 2835, 4773, 4851, 4884, 5036, 5671, 6518, 14290, 22621, 22768, 23307]}, "edge": {"target": [], "time": []}}}, "displayed_time": "15.41", "trialTime": 26669, "trial_type": "mouselab-mdp", "trial_index": 11, "time_elapsed": 1412571, "internal_node_id": "0.0-6.0-1.0-2.0"}}, {"uniqueid": "w87353974:a83775427", "current_trial": 12, "dateTime": 1693566216314, "trialdata": {"revealed_states": [], "clicked_states": ["5", "2", "8", "24"], "num_clicks_accrued": [0, 0, 0, 0, 0, 0, 0, 0, 0, 0, 0, 0, 0], "stateRewards": ["", -2, 4, 3, 5, -61, 4, 30, 1, -47, 83, 10, 1, 4, 7, -14, 19, -74, -83, 6, -2, -2, -65, -1, -2, 4, -11, 12, -1, -68, 11, -38, -28, 66], "withholdReward": false, "trial_id": "mdp_trial_4", "block": "test", "trialIndex": 5, "score": -56.6, "costs": -5.6, "simulationMode": [null, null, null, null, null], "rewards": [-2, 4, 3, 5, -61], "path": ["0", "0", "1", "2", "3", "4", "5"], "rt": [14363, 28, 205, 348, 246], "actions": ["up", "up", "up", "right", "up"], "actionTimes": [16238, 16785, 17531, 18371, 19122], "queries": {"click": {"state": {"target": ["5", "2", "8", "24"], "time": [2713, 5455, 8627, 11345]}, "edge": {"target": [], "time": []}}, "mouseover": {"state": {"target": ["12", "7", "4", "3", "5", "4", "2", "1", "1", "3", "8", "1", "28", "24", "23", "0", "12", "1", "3", "7"], "time": [1955, 2227, 2255, 2306, 2478, 3188, 4495, 6305, 7558, 7978, 8406, 9638, 10693, 11156, 11604, 11971, 14660, 14860, 15092, 15354]}, "edge": {"target": [], "time": []}}, "mouseout": {"state": {"target": ["13", "12", "12", "7", "4", "3", "5", "4", "2", "1", "1", "3", "8", "1", "28", "24", "23", "0", "12", "1", "3", "7", "12"], "time": [858, 1142, 1989, 2241, 2271, 2321, 2956, 3238, 6238, 6321, 7589, 8304, 8854, 9821, 11094, 11408, 11704, 11987, 14687, 14905, 15242, 15392, 20759]}, "edge": {"target": [], "time": []}}}, "displayed_time": "19.64", "trialTime": 25380, "trial_type": "mouselab-mdp", "trial_index": 12, "time_elapsed": 1438274, "internal_node_id": "0.0-6.0-1.0-3.0"}}, {"uniqueid": "w87353974:a83775427", "current_trial": 13, "dateTime": 1693566240449, "trialdata": {"revealed_states": [], "clicked_states": [], "num_clicks_accrued": [0, 0, 0, 0, 0, 0, 0, 0, 0, 0, 0, 0, 0], "stateRewards": ["", -2, 1, -8, 12, -65, -79, 16, 7, -80, -17, -45, -2, 2, -5, -2, -85, 23, -4, -7, 48, 27, -76, 2, 3, 5, 2, 43, 71, -13, 7, -49, 59, -31], "withholdReward": false, "trial_id": "mdp_trial_5", "block": "test", "trialIndex": 6, "score": -92, "costs": 0, "simulationMode": [null, null, null, null, null], "rewards": [-2, 2, -5, -2, -85], "path": ["0", "0", "12", "13", "14", "15", "16"], "rt": [11162, 480, 457, 306, 5537], "actions": ["right", "right", "right", "up", "up"], "actionTimes": [12589, 13587, 14564, 15380, 21428], "queries": {"click": {"state": {"target": [], "time": []}, "edge": {"target": [], "time": []}}, "mouseover": {"state": {"target": ["7", "4", "3", "4", "14", "19", "14", "19", "22", "12", "0", "22", "19", "20", "19", "22"], "time": [1556, 1862, 2391, 2655, 2860, 3110, 3456, 5961, 6442, 6745, 9508, 9660, 9759, 10262, 10508, 10643]}, "edge": {"target": [], "time": []}}, "mouseout": {"state": {"target": ["0", "7", "4", "3", "4", "14", "19", "14", "19", "22", "12", "0", "22", "19", "20", "19", "22"], "time": [842, 1609, 2295, 2628, 2689, 2940, 3395, 5228, 6142, 6642, 7045, 9556, 9706, 9805, 10444, 10556, 10760]}, "edge": {"target": [], "time": []}}}, "displayed_time": "21.93", "trialTime": 23851, "trial_type": "mouselab-mdp", "trial_index": 13, "time_elapsed": 1462409, "internal_node_id": "0.0-6.0-1.0-4.0"}}, {"uniqueid": "w87353974:a83775427", "current_trial": 14, "dateTime": 1693566272970, "trialdata": {"revealed_states": [], "clicked_states": ["26", "2", "10"], "num_clicks_accrued": [0, 0, 0, 0, 0, 0, 0, 0, 0, 0, 0, 0, 0], "stateRewards": ["", -1, 2, -6, 6, -82, -19, -39, -16, -83, 11, -33, -2, -2, 4, -6, -82, -1, -19, -6, -10, -67, -41, -2, 1, -7, 16, -23, -78, -52, 14, 31, -71, 74], "withholdReward": false, "trial_id": "mdp_trial_6", "block": "test", "trialIndex": 7, "score": -22.2, "costs": -4.199999999999999, "simulationMode": [null, null, null, null, null, null], "rewards": [-1, 2, -6, 6, -19], "path": ["0", "0", "1", "2", "3", "4", "6"], "rt": [7925, 247, 378, 1129, 14777, 1337], "actions": ["up", "up", "up", "up", "right", "right"], "actionTimes": [10181, 10435, 11342, 12997, 28293, 30132], "queries": {"click": {"state": {"target": ["26", "2", "10"], "time": [3180, 6373, 9302]}, "edge": {"target": [], "time": []}}, "mouseover": {"state": {"target": ["23", "24", "26", "28", "23", "2", "2", "7", "10"], "time": [2582, 2628, 2849, 3428, 3511, 5812, 6033, 6861, 9080]}, "edge": {"target": [], "time": []}}, "mouseout": {"state": {"target": ["0", "23", "24", "26", "28", "23", "2", "2", "7", "10", "2", "3", "2", "3", "1", "2", "3", "3", "3", "5", "16", "15", "18", "12", "0"], "time": [1964, 2612, 2717, 3394, 3444, 5769, 5861, 6844, 6911, 9528, 15298, 16581, 17046, 23628, 24613, 24730, 24846, 25363, 25781, 26244, 26798, 26844, 26892, 26997, 27114]}, "edge": {"target": [], "time": []}}}, "displayed_time": "30.66", "trialTime": 32197, "trial_type": "mouselab-mdp", "trial_index": 14, "time_elapsed": 1494929, "internal_node_id": "0.0-6.0-1.0-5.0"}}, {"uniqueid": "w87353974:a83775427", "current_trial": 15, "dateTime": 1693566293114, "trialdata": {"revealed_states": [], "clicked_states": ["31"], "num_clicks_accrued": [0, 0, 0, 0, 0, 0, 0, 0, 0, 0, 0, 0, 0], "stateRewards": ["", 1, 1, 1, 15, -76, 52, -32, 14, -57, 37, 49, 1, -4, -3, 6, 83, -76, 25, 9, 36, -1, -17, -1, 4, 4, -2, -22, -21, 58, -15, -57, 49, -24], "withholdReward": false, "trial_id": "mdp_trial_7", "block": "test", "trialIndex": 8, "score": -66.4, "costs": -1.4, "simulationMode": [null, null, null, null, null], "rewards": [-1, 4, 4, -15, -57], "path": ["0", "0", "23", "24", "25", "30", "31"], "rt": [3557, 176, 2717, 100, 250], "actions": ["left", "left", "left", "down", "right"], "actionTimes": [5033, 5727, 8951, 9567, 10335], "queries": {"click": {"state": {"target": ["31"], "time": [2891]}, "edge": {"target": [], "time": []}}, "mouseover": {"state": {"target": ["23", "24", "30", "31", "24", "31"], "time": [1517, 1581, 1686, 2053, 2369, 2586]}, "edge": {"target": [], "time": []}}, "mouseout": {"state": {"target": ["0", "23", "24", "30", "31", "24", "31"], "time": [1484, 1547, 1598, 1903, 2220, 2519, 3131]}, "edge": {"target": [], "time": []}}}, "displayed_time": "15.48", "trialTime": 19815, "trial_type": "mouselab-mdp", "trial_index": 15, "time_elapsed": 1515073, "internal_node_id": "0.0-6.0-1.0-6.0"}}, {"uniqueid": "w87353974:a83775427", "current_trial": 16, "dateTime": 1693566317403, "trialdata": {"revealed_states": [], "clicked_states": ["8", "4"], "num_clicks_accrued": [0, 0, 0, 0, 0, 0, 0, 0, 0, 0, 0, 0, 0], "stateRewards": ["", -2, 4, -7, -3, -76, 39, -28, 10, 14, 12, 60, 2, -3, 6, -10, 88, -34, -41, -3, 72, -13, -56, 1, 3, 2, 8, -51, 23, -57, 1, 14, -46, -16], "withholdReward": false, "trial_id": "mdp_trial_8", "block": "test", "trialIndex": 9, "score": 62.2, "costs": -2.8, "simulationMode": [null, null, null, null, null], "rewards": [-2, 4, -7, 10, 60], "path": ["0", "0", "1", "2", "3", "8", "11"], "rt": [7394, 4550, 485, 494, 744], "actions": ["up", "up", "up", "left", "left"], "actionTimes": [9940, 15012, 16011, 17036, 18284], "queries": {"click": {"state": {"target": ["8", "4"], "time": [4664, 8088]}, "edge": {"target": [], "time": []}}, "mouseover": {"state": {"target": ["5", "3", "8", "3", "7", "3", "4", "7", "7"], "time": [3041, 3444, 3564, 5223, 5506, 7295, 7657, 8605, 9322]}, "edge": {"target": [], "time": []}}, "mouseout": {"state": {"target": ["19", "13", "12", "5", "3", "8", "3", "7", "3", "4", "7", "7", "2", "3", "7", "15", "15", "18", "7", "7", "18", "13"], "time": [1760, 1789, 1822, 3161, 3490, 5189, 5273, 7091, 7390, 8422, 8755, 11455, 12394, 12906, 13125, 13227, 13926, 14005, 14345, 21091, 21158, 21188]}, "edge": {"target": [], "time": []}}}, "displayed_time": "18.79", "trialTime": 23965, "trial_type": "mouselab-mdp", "trial_index": 16, "time_elapsed": 1539362, "internal_node_id": "0.0-6.0-1.0-7.0"}}, {"uniqueid": "w87353974:a83775427", "current_trial": 17, "dateTime": 1693566335802, "trialdata": {"revealed_states": [], "clicked_states": ["9"], "num_clicks_accrued": [0, 0, 0, 0, 0, 0, 0, 0, 0, 0, 0, 0, 0], "stateRewards": ["", 1, 1, -7, -9, -44, 24, -83, -15, 44, -24, 72, -2, -3, 4, -5, 57, 55, 29, -11, 22, 12, -25, -1, 2, 7, 12, 33, -8, 47, -4, 8, 50, -4], "withholdReward": false, "trial_id": "mdp_trial_9", "block": "test", "trialIndex": 10, "score": 22.6, "costs": -1.4, "simulationMode": [null, null, null, null, null], "rewards": [1, 1, -7, -15, 44], "path": ["0", "0", "1", "2", "3", "8", "9"], "rt": [5459, 125, 284, 114, 296], "actions": ["up", "up", "up", "left", "up"], "actionTimes": [7478, 8126, 8918, 9550, 10350], "queries": {"click": {"state": {"target": ["9"], "time": [4661]}, "edge": {"target": [], "time": []}}, "mouseover": {"state": {"target": ["1", "8", "11", "9", "8", "2", "7"], "time": [2601, 3120, 3388, 4471, 5266, 5366, 6233]}, "edge": {"target": [], "time": []}}, "mouseout": {"state": {"target": ["0", "1", "8", "11", "9", "8", "2", "7", "6"], "time": [2473, 2667, 3288, 4339, 4982, 5283, 5399, 6301, 12017]}, "edge": {"target": [], "time": []}}}, "displayed_time": "16.02", "trialTime": 18094, "trial_type": "mouselab-mdp", "trial_index": 17, "time_elapsed": 1557761, "internal_node_id": "0.0-6.0-1.0-8.0"}}, {"uniqueid": "w87353974:a83775427", "current_trial": 18, "dateTime": 1693566440356, "trialdata": {"revealed_states": [], "clicked_states": ["16"], "num_clicks_accrued": [0, 0, 0, 0, 0, 0, 0, 0, 0, 0, 0, 0, 0], "stateRewards": ["", -2, -1, -1, 5, -54, -87, 35, 2, -8, 20, -22, 1, 3, 6, 13, -75, -32, -55, -3, 56, 62, -22, -1, -4, -1, -7, -51, 84, 70, 7, -15, 5, 55], "withholdReward": false, "trial_id": "mdp_trial_10", "block": "test", "trialIndex": 11, "score": -53.4, "costs": -1.4, "simulationMode": [null, null, null, null, null], "rewards": [1, 3, 6, 13, -75], "path": ["0", "0", "12", "13", "14", "15", "16"], "rt": [3407, 5, 314, 182, 132], "actions": ["right", "right", "right", "up", "up"], "actionTimes": [4853, 5378, 6204, 6908, 7541], "queries": {"click": {"state": {"target": ["16"], "time": [2570]}, "edge": {"target": [], "time": []}}, "mouseover": {"state": {"target": ["15", "16", "20"], "time": [1760, 1993, 3272]}, "edge": {"target": [], "time": []}}, "mouseout": {"state": {"target": ["21", "0", "15", "16", "20", "21"], "time": [543, 1176, 1890, 2772, 3339, 101548]}, "edge": {"target": [], "time": []}}}, "displayed_time": "15.45", "trialTime": 104224, "trial_type": "mouselab-mdp", "trial_index": 18, "time_elapsed": 1662316, "internal_node_id": "0.0-6.0-1.0-9.0"}}, {"uniqueid": "w87353974:a83775427", "current_trial": 19, "dateTime": 1693566457777, "trialdata": {"revealed_states": [], "clicked_states": ["3", "11"], "num_clicks_accrued": [0, 0, 0, 0, 0, 0, 0, 0, 0, 0, 0, 0, 0], "stateRewards": ["", -1, 3, 8, 9, -53, 20, -84, 2, -28, -62, -31, -1, -2, -7, 2, 51, 58, 45, -4, -17, -41, 36, 2, -2, -7, -15, 29, -54, -37, -16, -43, 65, -17], "withholdReward": false, "trial_id": "mdp_trial_11", "block": "test", "trialIndex": 12, "score": -21.8, "costs": -2.8, "simulationMode": [null, null, null, null, null], "rewards": [-1, 3, 8, 2, -31], "path": ["0", "0", "1", "2", "3", "8", "11"], "rt": [6806, 183, 371, 3152, 489], "actions": ["up", "up", "up", "left", "left"], "actionTimes": [7944, 8647, 9535, 13183, 14183], "queries": {"click": {"state": {"target": ["3", "11"], "time": [2426, 5011]}, "edge": {"target": [], "time": []}}, "mouseover": {"state": {"target": ["1", "2", "3", "2", "3", "2", "10", "11", "10", "1", "7", "7"], "time": [1210, 1260, 1293, 1532, 2076, 2944, 4363, 4614, 5279, 5377, 6892, 7133]}, "edge": {"target": [], "time": []}}, "mouseout": {"state": {"target": ["0", "1", "2", "3", "2", "3", "2", "10", "11", "10", "1", "7", "7", "6", "4", "3", "8"], "time": [780, 1244, 1277, 1310, 2049, 2843, 2993, 4393, 5227, 5310, 6849, 6927, 7196, 12114, 12126, 12178, 12277]}, "edge": {"target": [], "time": []}}}, "displayed_time": "15.14", "trialTime": 17079, "trial_type": "mouselab-mdp", "trial_index": 19, "time_elapsed": 1679737, "internal_node_id": "0.0-6.0-1.0-10.0"}}, {"uniqueid": "w87353974:a83775427", "current_trial": 20, "dateTime": 1693566475458, "trialdata": {"revealed_states": [], "clicked_states": ["2", "29"], "num_clicks_accrued": [0, 0, 0, 0, 0, 0, 0, 0, 0, 0, 0, 0, 0], "stateRewards": ["", -2, -1, -2, -15, 87, 57, 29, -10, 77, -80, -7, 1, -3, 6, 14, -11, 87, -59, 4, -71, 16, -11, 2, 2, -7, 2, -47, 61, 50, 14, -20, 17, 81], "withholdReward": false, "trial_id": "mdp_trial_12", "block": "test", "trialIndex": 13, "score": 46.2, "costs": -2.8, "simulationMode": [null, null, null, null, null], "rewards": [2, 2, -7, 2, 50], "path": ["0", "0", "23", "24", "25", "26", "29"], "rt": [7799, 386, 165, 108, 83], "actions": ["left", "left", "left", "up", "left"], "actionTimes": [8982, 9885, 10565, 11173, 11765], "queries": {"click": {"state": {"target": ["2", "29"], "time": [2128, 5908]}, "edge": {"target": [], "time": []}}, "mouseover": {"state": {"target": ["1", "2", "8", "8", "26", "29", "24"], "time": [1700, 1834, 4499, 4782, 5169, 5637, 6313]}, "edge": {"target": [], "time": []}}, "mouseout": {"state": {"target": ["15", "14", "19", "13", "12", "0", "1", "2", "8", "8", "26", "29", "24"], "time": [134, 183, 434, 499, 768, 1516, 1782, 2314, 4530, 4848, 5553, 6263, 6330]}, "edge": {"target": [], "time": []}}}, "displayed_time": "15.19", "trialTime": 17366, "trial_type": "mouselab-mdp", "trial_index": 20, "time_elapsed": 1697417, "internal_node_id": "0.0-6.0-1.0-11.0"}}, {"uniqueid": "w87353974:a83775427", "current_trial": 21, "dateTime": 1693566492153, "trialdata": {"revealed_states": [], "clicked_states": ["18", "15"], "num_clicks_accrued": [0, 0, 0, 0, 0, 0, 0, 0, 0, 0, 0, 0, 0], "stateRewards": ["", 2, -4, 1, -12, -59, -53, -74, 16, -88, -66, 66, 1, -2, 8, -9, -14, 22, 25, -1, -39, 47, -14, -1, -1, -2, 1, -4, 52, -26, 15, -7, 46, 43], "withholdReward": false, "trial_id": "mdp_trial_13", "block": "test", "trialIndex": 14, "score": 20.2, "costs": -2.8, "simulationMode": [null, null, null, null, null], "rewards": [1, -2, 8, -9, 25], "path": ["0", "0", "12", "13", "14", "15", "18"], "rt": [6868, 404, 393, 158, 107], "actions": ["right", "right", "right", "up", "left"], "actionTimes": [7858, 8762, 9665, 10330, 10930], "queries": {"click": {"state": {"target": ["18", "15"], "time": [1905, 4601]}, "edge": {"target": [], "time": []}}, "mouseover": {"state": {"target": ["18", "16", "18", "15", "17", "15", "17", "17"], "time": [1025, 1088, 1628, 2355, 3037, 4253, 4921, 6810]}, "edge": {"target": [], "time": []}}, "mouseout": {"state": {"target": ["12", "18", "16", "18", "15", "17", "15", "17"], "time": [522, 1059, 1475, 2071, 2904, 4042, 4854, 5120]}, "edge": {"target": [], "time": []}}}, "displayed_time": "14.99", "trialTime": 16354, "trial_type": "mouselab-mdp", "trial_index": 21, "time_elapsed": 1714113, "internal_node_id": "0.0-6.0-1.0-12.0"}}, {"uniqueid": "w87353974:a83775427", "current_trial": 22, "dateTime": 1693566509498, "trialdata": {"revealed_states": [], "clicked_states": ["3", "9"], "num_clicks_accrued": [0, 0, 0, 0, 0, 0, 0, 0, 0, 0, 0, 0, 0], "stateRewards": ["", -2, -1, -5, 10, -36, -70, 68, -9, 86, 71, -10, 2, -4, 7, -7, 66, 44, -66, -13, -69, 43, 15, -2, 2, 6, -13, 62, 57, 50, -10, -69, 42, -72], "withholdReward": false, "trial_id": "mdp_trial_14", "block": "test", "trialIndex": 15, "score": 66.2, "costs": -2.8, "simulationMode": [null, null, null, null, null], "rewards": [-2, -1, -5, -9, 86], "path": ["0", "0", "1", "2", "3", "8", "9"], "rt": [7787, 27, 584, 43, 181], "actions": ["up", "up", "up", "left", "up"], "actionTimes": [9394, 9936, 11058, 11600, 12289], "queries": {"click": {"state": {"target": ["3", "9"], "time": [3161, 6846]}, "edge": {"target": [], "time": []}}, "mouseover": {"state": {"target": ["1", "8", "3", "18", "14", "15", "16", "5", "9", "15"], "time": [1960, 2145, 2639, 3490, 3572, 5738, 5756, 6095, 6323, 7405]}, "edge": {"target": [], "time": []}}, "mouseout": {"state": {"target": ["17", "15", "18", "1", "8", "3", "3", "18", "14", "15", "16", "5", "9", "15", "20"], "time": [877, 939, 990, 2023, 2474, 3243, 3389, 3506, 5725, 5754, 5788, 6277, 7239, 14421, 14878]}, "edge": {"target": [], "time": []}}}, "displayed_time": "15.61", "trialTime": 17003, "trial_type": "mouselab-mdp", "trial_index": 22, "time_elapsed": 1731458, "internal_node_id": "0.0-6.0-1.0-13.0"}}, {"uniqueid": "w87353974:a83775427", "current_trial": 23, "dateTime": 1693566527883, "trialdata": {"revealed_states": [], "clicked_states": ["11", "6"], "num_clicks_accrued": [0, 0, 0, 0, 0, 0, 0, 0, 0, 0, 0, 0, 0], "stateRewards": ["", -2, 2, 3, -7, -31, -33, 29, -8, -57, 50, -83, -1, -1, 5, 13, -23, -62, 25, 5, -66, -85, 14, 1, -2, -1, 16, 71, 33, -19, -14, 5, -43, 79], "withholdReward": false, "trial_id": "mdp_trial_15", "block": "test", "trialIndex": 16, "score": -39.8, "costs": -2.8, "simulationMode": [null, null, null, null, null], "rewards": [-2, 2, 3, -7, -33], "path": ["0", "0", "1", "2", "3", "4", "6"], "rt": [9029, 2459, 307, 73, 494], "actions": ["up", "up", "up", "right", "right"], "actionTimes": [10189, 13149, 13980, 14562, 15549], "queries": {"click": {"state": {"target": ["11", "6"], "time": [3726, 7896]}, "edge": {"target": [], "time": []}}, "mouseover": {"state": {"target": ["24", "25", "26", "27", "18", "15", "17", "16", "7", "2", "8", "11", "7", "18", "18", "15", "15", "6"], "time": [1241, 1320, 1625, 1955, 2271, 2291, 2306, 2570, 2720, 3093, 3291, 3470, 3921, 3987, 5743, 5903, 6442, 6755]}, "edge": {"target": [], "time": []}}, "mouseout": {"state": {"target": ["19", "22", "0", "24", "25", "26", "27", "18", "15", "17", "16", "7", "2", "8", "11", "7", "18", "18", "15", "15", "6", "6", "5", "3", "15", "14", "19"], "time": [475, 503, 738, 1287, 1474, 1923, 2192, 2288, 2303, 2420, 2622, 2771, 3189, 3426, 3887, 3937, 4021, 5892, 5971, 6636, 8370, 11405, 11503, 12321, 16801, 17484, 17551]}, "edge": {"target": [], "time": []}}}, "displayed_time": "16.09", "trialTime": 18058, "trial_type": "mouselab-mdp", "trial_index": 23, "time_elapsed": 1749844, "internal_node_id": "0.0-6.0-1.0-14.0"}}, {"uniqueid": "w87353974:a83775427", "current_trial": 24, "dateTime": 1693566544360, "trialdata": {"revealed_states": [], "clicked_states": ["29", "16"], "num_clicks_accrued": [0, 0, 0, 0, 0, 0, 0, 0, 0, 0, 0, 0, 0], "stateRewards": ["", -1, -3, 4, -10, -5, 79, -87, -2, 53, 29, -20, -2, -1, -5, 10, 27, 86, 46, -16, -29, 40, 3, 2, 4, -1, -6, 37, 79, -29, 7, 86, -62, 29], "withholdReward": false, "trial_id": "mdp_trial_16", "block": "test", "trialIndex": 17, "score": 26.2, "costs": -2.8, "simulationMode": [null, null, null, null, null], "rewards": [-2, -1, -5, 10, 27], "path": ["0", "0", "12", "13", "14", "15", "16"], "rt": [7769, 302, 400, 154, 123], "actions": ["right", "right", "right", "up", "up"], "actionTimes": [8864, 9688, 10585, 11258, 11889], "queries": {"click": {"state": {"target": ["29", "16"], "time": [2509, 6339]}, "edge": {"target": [], "time": []}}, "mouseover": {"state": {"target": ["23", "31", "30", "25", "25", "26", "29", "26", "28", "11", "2", "7", "16", "17"], "time": [1106, 1182, 1339, 1416, 1569, 2019, 2253, 2652, 4485, 5005, 5188, 5215, 5586, 6565]}, "edge": {"target": [], "time": []}}, "mouseout": {"state": {"target": ["21", "0", "23", "31", "30", "25", "25", "26", "29", "29", "26", "28", "11", "2", "7", "16", "17", "22", "12", "12"], "time": [7, 764, 1133, 1269, 1366, 1451, 1950, 2152, 2532, 2649, 2665, 4549, 5102, 5199, 5232, 6550, 6584, 13620, 15249, 15653]}, "edge": {"target": [], "time": []}}}, "displayed_time": "15.10", "trialTime": 16113, "trial_type": "mouselab-mdp", "trial_index": 24, "time_elapsed": 1766320, "internal_node_id": "0.0-6.0-1.0-15.0"}}, {"uniqueid": "w87353974:a83775427", "current_trial": 25, "dateTime": 1693566560860, "trialdata": {"revealed_states": [], "clicked_states": ["3", "27"], "num_clicks_accrued": [0, 0, 0, 0, 0, 0, 0, 0, 0, 0, 0, 0, 0], "stateRewards": ["", 1, 4, 5, -5, 58, -80, 75, 6, 25, -39, 46, 2, -2, 4, 2, 59, 31, -22, -12, -61, 15, 72, 1, -2, -7, 8, 77, 76, -23, -7, 71, -15, -3], "withholdReward": false, "trial_id": "mdp_trial_17", "block": "test", "trialIndex": 18, "score": 74.2, "costs": -2.8, "simulationMode": [null, null, null, null, null], "rewards": [1, -2, -7, 8, 77], "path": ["0", "0", "23", "24", "25", "26", "27"], "rt": [6699, 59, 349, 124, 418], "actions": ["left", "left", "left", "up", "up"], "actionTimes": [7793, 8369, 9241, 9865, 10776], "queries": {"click": {"state": {"target": ["3", "27"], "time": [1855, 5051]}, "edge": {"target": [], "time": []}}, "mouseover": {"state": {"target": ["1", "2", "3", "7", "2", "10", "27", "27", "13", "14", "20", "19", "22"], "time": [1127, 1173, 1509, 2089, 3772, 3822, 4012, 4823, 5455, 5475, 6305, 6876, 6957]}, "edge": {"target": [], "time": []}}, "mouseout": {"state": {"target": ["0", "1", "2", "3", "7", "2", "10", "27", "27", "13", "14", "20", "19", "22"], "time": [789, 1159, 1392, 2022, 3757, 3805, 3839, 4565, 5122, 5472, 5489, 6406, 6940, 6988]}, "edge": {"target": [], "time": []}}}, "displayed_time": "15.10", "trialTime": 16175, "trial_type": "mouselab-mdp", "trial_index": 25, "time_elapsed": 1782821, "internal_node_id": "0.0-6.0-1.0-16.0"}}, {"uniqueid": "w87353974:a83775427", "current_trial": 26, "dateTime": 1693566579554, "trialdata": {"revealed_states": [], "clicked_states": ["20"], "num_clicks_accrued": [0, 0, 0, 0, 0, 0, 0, 0, 0, 0, 0, 0, 0], "stateRewards": ["", 2, 3, -3, 12, -43, 81, -82, -15, 58, -7, -75, -1, -1, 3, -5, 50, -25, -8, 4, 66, 65, -66, 2, -4, 2, -1, -10, 10, 37, 11, 88, -37, 8], "withholdReward": false, "trial_id": "mdp_trial_18", "block": "test", "trialIndex": 19, "score": 69.6, "costs": -1.4, "simulationMode": [null, null, null, null, null], "rewards": [-1, -1, 3, 4, 66], "path": ["0", "0", "12", "13", "14", "19", "20"], "rt": [4586, 258, 3, 207, 179], "actions": ["right", "right", "right", "down", "right"], "actionTimes": [5774, 6550, 7044, 7781, 8470], "queries": {"click": {"state": {"target": ["20"], "time": [2547]}, "edge": {"target": [], "time": []}}, "mouseover": {"state": {"target": ["15", "15", "14", "14", "20", "19", "18", "15", "17"], "time": [1259, 1375, 1790, 1924, 2326, 3008, 3105, 3288, 4573]}, "edge": {"target": [], "time": []}}, "mouseout": {"state": {"target": ["19", "22", "0", "15", "15", "14", "14", "20", "20", "19", "18", "15", "17", "20"], "time": [525, 606, 875, 1289, 1608, 1838, 2141, 2610, 2754, 3021, 3172, 4493, 4604, 10960]}, "edge": {"target": [], "time": []}}}, "displayed_time": "15.19", "trialTime": 18367, "trial_type": "mouselab-mdp", "trial_index": 26, "time_elapsed": 1801513, "internal_node_id": "0.0-6.0-1.0-17.0"}}, {"uniqueid": "w87353974:a83775427", "current_trial": 27, "dateTime": 1693566605936, "trialdata": {"revealed_states": [], "clicked_states": [], "num_clicks_accrued": [0, 0, 0, 0, 0, 0, 0, 0, 0, 0, 0, 0, 0], "stateRewards": ["", 1, 1, 6, -14, -40, 37, 16, -13, 33, -68, 49, 2, 4, 3, 6, 55, 27, 32, 10, -65, 20, -87, 2, 1, -6, -5, -42, 12, 29, -8, 16, 76, -33], "withholdReward": false, "trial_id": "mdp_trial_19", "block": "test", "trialIndex": 20, "score": 44, "costs": 0, "simulationMode": [null, null, null, null, null], "rewards": [1, 1, 6, -13, 49], "path": ["0", "0", "1", "2", "3", "8", "11"], "rt": [16250, 161, 309, 3318, 260], "actions": ["up", "up", "up", "left", "left"], "actionTimes": [17797, 18453, 19284, 23109, 23885], "queries": {"click": {"state": {"target": [], "time": []}, "edge": {"target": [], "time": []}}, "mouseover": {"state": {"target": ["10", "8", "9", "3", "0", "0", "12", "21"], "time": [1977, 2075, 2293, 7073, 7828, 8646, 10441, 12295]}, "edge": {"target": [], "time": []}}, "mouseout": {"state": {"target": ["1", "1", "0", "10", "8", "9", "3", "0", "0", "12", "21"], "time": [893, 1078, 1828, 2040, 2192, 7046, 7107, 7957, 9658, 10543, 12373]}, "edge": {"target": [], "time": []}}}, "displayed_time": "24.39", "trialTime": 26021, "trial_type": "mouselab-mdp", "trial_index": 27, "time_elapsed": 1827897, "internal_node_id": "0.0-6.0-1.0-18.0"}}, {"uniqueid": "w87353974:a83775427", "current_trial": 28, "dateTime": 1693566643945, "trialdata": {"revealed_states": [], "clicked_states": ["11", "6", "18", "25", "27"], "num_clicks_accrued": [0, 0, 0, 0, 0, 0, 0, 0, 0, 0, 0, 0, 0], "stateRewards": ["", -2, 2, -2, -7, -50, -62, -45, 7, 36, -24, -72, -1, -1, 8, -1, -67, 20, -52, 2, 35, -50, 80, -1, 1, 6, -6, -70, 6, 88, 8, -47, 74, -19], "withholdReward": false, "trial_id": "mdp_trial_20", "block": "test", "trialIndex": 21, "score": 81, "costs": -7, "simulationMode": [null, null, null, null, null], "rewards": [-1, 1, 6, 8, 74], "path": ["0", "0", "23", "24", "25", "30", "32"], "rt": [17635, 1437, 2121, 5255, 442], "actions": ["left", "left", "left", "down", "down"], "actionTimes": [22014, 23966, 26582, 32334, 33286], "queries": {"click": {"state": {"target": ["11", "6", "18", "25", "27"], "time": [6855, 10194, 13583, 16800, 19876]}, "edge": {"target": [], "time": []}}, "mouseover": {"state": {"target": ["10", "11", "2", "7", "6", "7", "2", "2", "1", "18", "14", "20", "13", "26", "25", "25", "23", "28", "26", "27", "28"], "time": [6402, 6477, 7079, 8847, 9029, 10961, 11210, 11544, 11828, 12631, 13777, 13811, 16093, 16398, 16426, 16599, 19382, 19442, 19544, 19728, 20310]}, "edge": {"target": [], "time": []}}, "mouseout": {"state": {"target": ["0", "10", "11", "2", "7", "6", "7", "2", "2", "1", "18", "14", "20", "13", "26", "25", "25", "23", "28", "26", "27", "28"], "time": [2524, 6428, 7027, 7098, 8966, 10910, 10977, 11244, 11728, 11895, 13760, 13794, 13828, 16109, 16416, 16459, 17010, 19393, 19510, 19631, 20193, 20343]}, "edge": {"target": [], "time": []}}}, "displayed_time": "33.79", "trialTime": 37670, "trial_type": "mouselab-mdp", "trial_index": 28, "time_elapsed": 1865905, "internal_node_id": "0.0-6.0-1.0-19.0"}}, {"uniqueid": "w87353974:a83775427", "current_trial": 29, "dateTime": 1693566661885, "trialdata": {"revealed_states": [], "clicked_states": ["33"], "num_clicks_accrued": [0, 0, 0, 0, 0, 0, 0, 0, 0, 0, 0, 0, 0], "stateRewards": ["", 2, 4, -3, 16, -58, 30, -35, 11, -60, 47, 27, -2, -1, -7, -16, 23, -70, 68, -10, -65, -43, -34, -2, 1, 7, 9, -63, 34, -31, -8, -12, -86, 59], "withholdReward": false, "trial_id": "mdp_trial_21", "block": "test", "trialIndex": 22, "score": 55.6, "costs": -1.4, "simulationMode": [null, null, null, null, null], "rewards": [-2, 1, 7, -8, 59], "path": ["0", "0", "23", "24", "25", "30", "33"], "rt": [5319, 3, 349, 161, 319], "actions": ["left", "left", "left", "down", "left"], "actionTimes": [7348, 7867, 8747, 9427, 10251], "queries": {"click": {"state": {"target": ["33"], "time": [3768]}, "edge": {"target": [], "time": []}}, "mouseover": {"state": {"target": ["0", "31", "33", "32", "33", "30", "26", "29", "25", "24", "23", "21"], "time": [2346, 2484, 2717, 3166, 3580, 4347, 4979, 5702, 5880, 6030, 6095, 6231]}, "edge": {"target": [], "time": []}}, "mouseout": {"state": {"target": ["22", "13", "0", "31", "33", "32", "33", "30", "26", "29", "25", "24", "23", "21"], "time": [897, 930, 2362, 2531, 3098, 3300, 4296, 4429, 5419, 5780, 5962, 6079, 6129, 6246]}, "edge": {"target": [], "time": []}}}, "displayed_time": "16.03", "trialTime": 17585, "trial_type": "mouselab-mdp", "trial_index": 29, "time_elapsed": 1883845, "internal_node_id": "0.0-6.0-1.0-20.0"}}, {"uniqueid": "w87353974:a83775427", "current_trial": 30, "dateTime": 1693566680125, "trialdata": {"revealed_states": [], "clicked_states": ["29"], "num_clicks_accrued": [0, 0, 0, 0, 0, 0, 0, 0, 0, 0, 0, 0, 0], "stateRewards": ["", 1, -1, -7, -7, -22, 15, -13, 13, 26, -32, 38, -1, 1, -7, -4, 16, -62, 86, 12, -54, 56, 64, -2, -1, 6, 14, -57, 37, 62, -6, -25, 50, -70], "withholdReward": false, "trial_id": "mdp_trial_22", "block": "test", "trialIndex": 23, "score": 77.6, "costs": -1.4, "simulationMode": [null, null, null, null, null], "rewards": [-2, -1, 6, 14, 62], "path": ["0", "0", "23", "24", "25", "26", "29"], "rt": [5267, 381, 251, 132, 115], "actions": ["left", "left", "left", "up", "left"], "actionTimes": [6556, 7443, 8211, 8859, 9491], "queries": {"click": {"state": {"target": ["29"], "time": [3595]}, "edge": {"target": [], "time": []}}, "mouseover": {"state": {"target": ["0", "23", "24", "25", "29", "25", "26", "29", "25", "24"], "time": [1298, 1559, 1694, 1723, 1994, 2625, 2907, 3128, 3990, 4009]}, "edge": {"target": [], "time": []}}, "mouseout": {"state": {"target": ["0", "0", "23", "24", "25", "29", "25", "26", "29", "29", "25", "24", "0", "22", "21"], "time": [926, 1342, 1680, 1707, 1740, 2343, 2845, 2942, 3695, 3907, 4007, 4040, 16578, 16659, 17058]}, "edge": {"target": [], "time": []}}}, "displayed_time": "15.29", "trialTime": 17905, "trial_type": "mouselab-mdp", "trial_index": 30, "time_elapsed": 1902085, "internal_node_id": "0.0-6.0-1.0-21.0"}}, {"uniqueid": "w87353974:a83775427", "current_trial": 31, "dateTime": 1693566697416, "trialdata": {"revealed_states": [], "clicked_states": [], "num_clicks_accrued": [0, 0, 0, 0, 0, 0, 0, 0, 0, 0, 0, 0, 0], "stateRewards": ["", -2, 2, -5, -6, 10, -66, -58, -10, -11, -63, -70, -1, -4, -5, 7, 66, -64, -43, -3, 45, -37, 4, -2, -2, -6, -4, -30, 33, 43, 15, -32, -65, -59], "withholdReward": false, "trial_id": "mdp_trial_23", "block": "test", "trialIndex": 24, "score": -69, "costs": 0, "simulationMode": [null, null, null, null, null], "rewards": [-2, 2, -5, -6, -58], "path": ["0", "0", "1", "2", "3", "4", "7"], "rt": [8346, 197, 88, 180, 365], "actions": ["up", "up", "up", "right", "down"], "actionTimes": [9816, 10528, 11136, 11831, 12712], "queries": {"click": {"state": {"target": [], "time": []}, "edge": {"target": [], "time": []}}, "mouseover": {"state": {"target": ["1", "2", "3", "12", "0", "1", "3", "3", "2", "1", "0"], "time": [2316, 2378, 2684, 6361, 6649, 7100, 7398, 8194, 8345, 8378, 8731]}, "edge": {"target": [], "time": []}}, "mouseout": {"state": {"target": ["0", "1", "2", "3", "12", "0", "1", "3", "3", "2", "1", "0", "0"], "time": [2186, 2345, 2429, 6314, 6394, 6748, 7111, 7983, 8332, 8361, 8428, 8978, 15312]}, "edge": {"target": [], "time": []}}}, "displayed_time": "15.47", "trialTime": 16951, "trial_type": "mouselab-mdp", "trial_index": 31, "time_elapsed": 1919376, "internal_node_id": "0.0-6.0-1.0-22.0"}}, {"uniqueid": "w87353974:a83775427", "current_trial": 32, "dateTime": 1693566716769, "trialdata": {"revealed_states": [], "clicked_states": ["14", "16"], "num_clicks_accrued": [0, 0, 0, 0, 0, 0, 0, 0, 0, 0, 0, 0, 0], "stateRewards": ["", -2, 1, -5, 2, -68, 80, 33, 10, 67, -59, 20, -1, -3, 3, 14, 74, -2, 24, -16, 63, 80, 46, -1, 4, 6, 12, 83, -38, -43, -4, 43, 14, -79], "withholdReward": false, "trial_id": "mdp_trial_24", "block": "test", "trialIndex": 25, "score": 84.2, "costs": -2.8, "simulationMode": [null, null, null, null, null], "rewards": [-1, -3, 3, 14, 74], "path": ["0", "0", "12", "13", "14", "15", "16"], "rt": [6226, 350, 323, 178, 111], "actions": ["right", "right", "right", "up", "up"], "actionTimes": [9345, 10217, 11057, 11729, 12361], "queries": {"click": {"state": {"target": ["14", "16"], "time": [4223, 6392]}, "edge": {"target": [], "time": []}}, "mouseover": {"state": {"target": ["0", "12", "13", "14", "14", "15", "16", "17", "24", "26", "29", "1"], "time": [3670, 3731, 3780, 3813, 4049, 4747, 6086, 6814, 7547, 7731, 7865, 8466]}, "edge": {"target": [], "time": []}}, "mouseout": {"state": {"target": ["0", "0", "12", "13", "14", "14", "15", "16", "17", "24", "26", "29", "1", "20"], "time": [1785, 3698, 3763, 3797, 3847, 4304, 5816, 6764, 6830, 7598, 7814, 8251, 8482, 14386]}, "edge": {"target": [], "time": []}}}, "displayed_time": "17.12", "trialTime": 19010, "trial_type": "mouselab-mdp", "trial_index": 32, "time_elapsed": 1938729, "internal_node_id": "0.0-6.0-1.0-23.0"}}, {"uniqueid": "w87353974:a83775427", "current_trial": 33, "dateTime": 1693566734248, "trialdata": {"revealed_states": [], "clicked_states": [], "num_clicks_accrued": [0, 0, 0, 0, 0, 0, 0, 0, 0, 0, 0, 0, 0], "stateRewards": ["", 2, 1, -3, 7, 46, 11, -36, 16, 71, 5, 1, 2, -2, -8, -3, -4, 6, 55, 7, 68, -54, 2, 1, 1, 6, -6, 42, -4, -84, -11, -65, 63, 25], "withholdReward": false, "trial_id": "mdp_trial_25", "block": "test", "trialIndex": 26, "score": -29, "costs": 0, "simulationMode": [null, null, null, null, null], "rewards": [2, 1, -3, 7, -36], "path": ["0", "0", "1", "2", "3", "4", "7"], "rt": [5771, 299, 316, 33, 172], "actions": ["up", "up", "up", "right", "down"], "actionTimes": [7720, 8536, 9352, 9887, 10560], "queries": {"click": {"state": {"target": [], "time": []}, "edge": {"target": [], "time": []}}, "mouseover": {"state": {"target": ["22", "19", "20", "20", "14", "17", "14", "13", "0", "0"], "time": [2933, 2969, 3003, 3173, 3351, 4240, 6071, 6087, 6389, 6819]}, "edge": {"target": [], "time": []}}, "mouseout": {"state": {"target": ["23", "0", "22", "19", "20", "20", "14", "17", "14", "13", "0", "0"], "time": [1005, 2892, 2952, 2985, 3068, 3268, 3901, 6056, 6084, 6100, 6401, 6922]}, "edge": {"target": [], "time": []}}}, "displayed_time": "15.95", "trialTime": 17128, "trial_type": "mouselab-mdp", "trial_index": 33, "time_elapsed": 1956208, "internal_node_id": "0.0-6.0-1.0-24.0"}}, {"uniqueid": "w87353974:a83775427", "current_trial": 34, "dateTime": 1693566750994, "trialdata": {"revealed_states": [], "clicked_states": ["11", "6"], "num_clicks_accrued": [0, 0, 0, 0, 0, 0, 0, 0, 0, 0, 0, 0, 0], "stateRewards": ["", -1, 1, 6, -6, 70, 66, 67, -16, -75, -35, 37, -1, 4, 4, -6, 47, -9, 63, 15, 21, -63, 13, 1, 3, -6, 10, 79, -29, 18, -15, 9, -67, -19], "withholdReward": false, "trial_id": "mdp_trial_26", "block": "test", "trialIndex": 27, "score": 63.2, "costs": -2.8, "simulationMode": [null, null, null, null, null], "rewards": [-1, 1, 6, -6, 66], "path": ["0", "0", "1", "2", "3", "4", "6"], "rt": [6118, 324, 227, 51, 55], "actions": ["up", "up", "up", "right", "right"], "actionTimes": [7267, 8115, 8835, 9394, 9979], "queries": {"click": {"state": {"target": ["11", "6"], "time": [1869, 4574]}, "edge": {"target": [], "time": []}}, "mouseover": {"state": {"target": ["11", "10", "1", "6", "18"], "time": [1724, 2190, 3828, 4408, 5006]}, "edge": {"target": [], "time": []}}, "mouseout": {"state": {"target": ["0", "11", "10", "1", "6", "18"], "time": [1172, 2090, 2206, 3905, 4775, 15839]}, "edge": {"target": [], "time": []}}}, "displayed_time": "15.15", "trialTime": 16380, "trial_type": "mouselab-mdp", "trial_index": 34, "time_elapsed": 1972953, "internal_node_id": "0.0-6.0-1.0-25.0"}}, {"uniqueid": "w87353974:a83775427", "current_trial": 35, "dateTime": 1693566773953, "trialdata": {"revealed_states": [], "clicked_states": ["24", "16", "11", "5", "9", "29"], "num_clicks_accrued": [0, 0, 0, 0, 0, 0, 0, 0, 0, 0, 0, 0, 0], "stateRewards": ["", 2, 4, 7, -6, -76, -81, 2, 5, -66, -3, 36, -2, -4, 6, -2, -69, 4, -49, -6, 67, 38, -67, 2, 1, 1, 6, -68, -21, 52, -16, -16, 6, -70], "withholdReward": false, "trial_id": "mdp_trial_27", "block": "test", "trialIndex": 28, "score": 53.6, "costs": -8.4, "simulationMode": [null, null, null, null, null], "rewards": [2, 1, 1, 6, 52], "path": ["0", "0", "23", "24", "25", "26", "29"], "rt": [16293, 379, 337, 128, 68], "actions": ["left", "left", "left", "up", "left"], "actionTimes": [17607, 18487, 19343, 19983, 20575], "queries": {"click": {"state": {"target": ["24", "16", "11", "5", "9", "29"], "time": [2227, 4146, 7040, 9411, 12289, 14749]}, "edge": {"target": [], "time": []}}, "mouseover": {"state": {"target": ["24", "12", "15", "16", "3", "8", "3", "3", "8", "11", "2", "2", "3", "9", "5", "4", "7", "3", "9", "3", "2", "24", "25", "29", "25", "30", "30", "30", "31"], "time": [1856, 2588, 2838, 3205, 4539, 4671, 6204, 6623, 6750, 6838, 7304, 7604, 7672, 7888, 8723, 9888, 10438, 10654, 11056, 12687, 12821, 13056, 13170, 14441, 15103, 16153, 16303, 16772, 16853]}, "edge": {"target": [], "time": []}}, "mouseout": {"state": {"target": ["23", "24", "12", "15", "16", "3", "8", "3", "3", "8", "11", "11", "2", "2", "3", "9", "5", "4", "7", "3", "9", "9", "3", "2", "24", "25", "29", "25", "30", "30", "30", "31"], "time": [775, 2388, 2756, 2872, 4405, 4604, 6191, 6221, 6671, 6804, 7110, 7238, 7357, 7621, 7704, 8587, 9821, 9938, 10571, 10754, 12387, 12637, 12721, 12853, 13120, 13288, 15020, 15153, 16203, 16356, 16837, 16886]}, "edge": {"target": [], "time": []}}}, "displayed_time": "21.09", "trialTime": 22607, "trial_type": "mouselab-mdp", "trial_index": 35, "time_elapsed": 1995912, "internal_node_id": "0.0-6.0-1.0-26.0"}}, {"uniqueid": "w87353974:a83775427", "current_trial": 36, "dateTime": 1693566790834, "trialdata": {"revealed_states": [], "clicked_states": ["14", "31", "28", "27"], "num_clicks_accrued": [0, 0, 0, 0, 0, 0, 0, 0, 0, 0, 0, 0, 0], "stateRewards": ["", -2, 2, 3, -7, 76, 63, 21, 15, 35, -8, -44, 1, 1, -2, -12, 23, 24, 76, -9, 46, 66, -49, -2, -1, 7, 12, 40, -71, -45, -6, 38, -49, 46], "withholdReward": false, "trial_id": "mdp_trial_28", "block": "test", "trialIndex": 29, "score": 50.4, "costs": -5.6, "simulationMode": [null, null, null, null, null], "rewards": [-2, -1, 7, 12, 40], "path": ["0", "0", "23", "24", "25", "26", "27"], "rt": [10260, 434, 340, 116, 378], "actions": ["left", "left", "left", "up", "up"], "actionTimes": [11521, 12472, 13328, 13952, 14831], "queries": {"click": {"state": {"target": ["14", "31", "28", "27"], "time": [1898, 3806, 5820, 8650]}, "edge": {"target": [], "time": []}}, "mouseover": {"state": {"target": ["22", "14", "19", "22", "31", "0", "27", "27", "28", "1", "1", "27", "12", "13", "19", "14"], "time": [1403, 1739, 2268, 2369, 2784, 4318, 4451, 4668, 4851, 6234, 7802, 8386, 9067, 9101, 9151, 10786]}, "edge": {"target": [], "time": []}}, "mouseout": {"state": {"target": ["0", "22", "14", "19", "22", "31", "0", "27", "27", "28", "1", "1", "27", "12", "13", "19", "14"], "time": [1272, 1519, 2186, 2285, 2535, 4085, 4351, 4468, 4751, 5924, 6251, 7870, 8934, 9084, 9118, 10555, 10834]}, "edge": {"target": [], "time": []}}}, "displayed_time": "15.35", "trialTime": 16520, "trial_type": "mouselab-mdp", "trial_index": 36, "time_elapsed": 2012793, "internal_node_id": "0.0-6.0-1.0-27.0"}}, {"uniqueid": "w87353974:a83775427", "current_trial": 37, "dateTime": 1693566830712, "trialdata": {"revealed_states": [], "clicked_states": ["6", "11", "25", "14", "15", "16", "9", "5", "7", "2", "10", "19", "21", "32"], "num_clicks_accrued": [0, 0, 0, 0, 0, 0, 0, 0, 0, 0, 0, 0, 0], "stateRewards": ["", 2, -3, -4, -1, 25, -16, 16, 10, -71, -20, -55, 1, 3, -4, -9, 1, 32, 11, -6, 32, -50, -41, -1, 4, 4, -8, 7, -81, 70, 2, -52, 45, -10], "withholdReward": false, "trial_id": "mdp_trial_29", "block": "test", "trialIndex": 30, "score": 34.400000000000006, "costs": -19.599999999999998, "simulationMode": [null, null, null, null, null], "rewards": [-1, 4, 4, 2, 45], "path": ["0", "0", "23", "24", "25", "30", "32"], "rt": [32547, 521, 273, 176, 239], "actions": ["left", "left", "left", "down", "down"], "actionTimes": [33772, 34803, 35571, 36243, 37004], "queries": {"click": {"state": {"target": ["6", "11", "25", "14", "15", "16", "9", "5", "7", "2", "10", "19", "21", "32"], "time": [2098, 4452, 6796, 8771, 10993, 12885, 15294, 17926, 20083, 22344, 24285, 26403, 28596, 30919]}, "edge": {"target": [], "time": []}}, "mouseover": {"state": {"target": ["6", "16", "15", "18", "1", "10", "11", "10", "1", "0", "30", "31", "24", "25", "24", "14", "19", "15", "16", "18", "2", "3", "9", "4", "6", "5", "6", "7", "13", "12", "1", "2", "12", "0", "10", "0", "19", "21", "21", "32"], "time": [1752, 2399, 2465, 2715, 2832, 2948, 3232, 4699, 4799, 4915, 5515, 5665, 6200, 6433, 7298, 7748, 9914, 10330, 11831, 13314, 14620, 14680, 15118, 15581, 17232, 17731, 18297, 19831, 20429, 21079, 21786, 21979, 22629, 23063, 23863, 24679, 25663, 26779, 28300, 29562]}, "edge": {"target": [], "time": []}}, "mouseout": {"state": {"target": ["13", "12", "6", "16", "15", "18", "1", "10", "11", "10", "1", "0", "30", "31", "24", "25", "24", "14", "19", "14", "15", "16", "18", "2", "3", "9", "4", "6", "5", "5", "6", "7", "13", "12", "1", "2", "12", "0", "10", "0", "19", "21", "21", "32", "32"], "time": [604, 652, 2332, 2432, 2648, 2731, 2882, 2965, 4665, 4749, 4832, 4982, 5566, 6033, 6266, 7281, 7334, 9081, 9948, 10198, 11464, 13181, 13348, 14647, 14747, 15515, 15597, 17247, 17939, 18247, 18330, 20296, 20529, 21479, 21866, 22546, 22797, 23079, 24563, 24696, 26713, 26890, 28862, 31001, 31295]}, "edge": {"target": [], "time": []}}}, "displayed_time": "37.51", "trialTime": 39516, "trial_type": "mouselab-mdp", "trial_index": 37, "time_elapsed": 2052672, "internal_node_id": "0.0-6.0-1.0-28.0"}}, {"uniqueid": "w87353974:a83775427", "current_trial": 38, "dateTime": 1693566856024, "trialdata": {"revealed_states": [], "clicked_states": ["25", "15", "14", "2", "8", "9"], "num_clicks_accrued": [0, 0, 0, 0, 0, 0, 0, 0, 0, 0, 0, 0, 0], "stateRewards": ["", -2, 3, -1, -9, 44, 48, -37, -3, 71, -39, 87, -1, 3, -4, 4, -21, 59, -15, -8, -1, 28, -38, 2, 4, 4, 8, -85, -72, -63, 14, 58, 63, -46], "withholdReward": false, "trial_id": "mdp_trial_30", "block": "test", "trialIndex": 31, "score": 59.6, "costs": -8.4, "simulationMode": [null, null, null, null, null], "rewards": [-2, 3, -1, -3, 71], "path": ["0", "0", "1", "2", "3", "8", "9"], "rt": [18317, 147, 345, 54, 96], "actions": ["up", "up", "up", "left", "up"], "actionTimes": [20183, 20847, 21710, 22286, 22911], "queries": {"click": {"state": {"target": ["25", "15", "14", "2", "8", "9"], "time": [4408, 7173, 9448, 12413, 15039, 17468]}, "edge": {"target": [], "time": []}}, "mouseover": {"state": {"target": ["22", "12", "23", "0", "23", "24", "25", "23", "13", "15", "16", "15", "14", "12", "0", "23", "23", "1", "2", "3", "8", "7", "10", "11", "9", "3", "7"], "time": [2368, 2651, 3437, 3686, 3798, 3965, 4215, 4598, 6416, 6549, 6732, 6967, 9285, 11565, 11632, 11681, 11922, 12033, 12201, 14501, 14865, 15313, 16550, 16937, 17267, 17996, 18097]}, "edge": {"target": [], "time": []}}, "mouseout": {"state": {"target": ["23", "0", "22", "12", "23", "0", "23", "24", "25", "23", "13", "15", "16", "15", "14", "12", "0", "23", "23", "1", "2", "3", "8", "8", "7", "10", "11", "9", "3", "7", "12"], "time": [1336, 2168, 2382, 2734, 3518, 3766, 3882, 4150, 4549, 4615, 6448, 6667, 6882, 7448, 9631, 11580, 11664, 11750, 11935, 12084, 12631, 14768, 15114, 15247, 15364, 16764, 17182, 17863, 18013, 24346, 24501]}, "edge": {"target": [], "time": []}}}, "displayed_time": "23.42", "trialTime": 24982, "trial_type": "mouselab-mdp", "trial_index": 38, "time_elapsed": 2077983, "internal_node_id": "0.0-6.0-1.0-29.0"}}, {"uniqueid": "w87353974:a83775427", "current_trial": 39, "dateTime": 1693566875408, "trialdata": {"revealed_states": [], "clicked_states": ["6", "14", "29"], "num_clicks_accrued": [0, 0, 0, 0, 0, 0, 0, 0, 0, 0, 0, 0, 0], "stateRewards": ["", 1, 2, -6, -13, -51, 22, -4, -12, -44, -12, 6, -2, -2, -2, -14, -46, -4, -77, -2, 36, -79, 41, 2, -4, 2, -6, -55, 59, 70, -5, 39, -19, 24], "withholdReward": false, "trial_id": "mdp_trial_31", "block": "test", "trialIndex": 32, "score": 59.8, "costs": -4.199999999999999, "simulationMode": [null, null, null, null, null], "rewards": [2, -4, 2, -6, 70], "path": ["0", "0", "23", "24", "25", "26", "29"], "rt": [12721, 350, 401, 180, 72], "actions": ["left", "left", "left", "up", "left"], "actionTimes": [14346, 15217, 16114, 16793, 17384], "queries": {"click": {"state": {"target": ["6", "14", "29"], "time": [3047, 6311, 10343]}, "edge": {"target": [], "time": []}}, "mouseover": {"state": {"target": ["12", "18", "7", "2", "4", "6", "13", "13", "14", "14", "10", "28", "29", "26", "24", "23", "0", "0", "23"], "time": [1700, 1764, 2211, 2483, 2579, 2896, 3578, 4605, 5761, 6099, 9661, 9863, 10132, 12944, 13276, 13326, 13394, 13514, 13593]}, "edge": {"target": [], "time": []}}, "mouseout": {"state": {"target": ["12", "0", "12", "18", "7", "2", "4", "6", "6", "13", "13", "14", "14", "10", "28", "29", "26", "24", "23", "0", "0", "23"], "time": [646, 1079, 1728, 1795, 2350, 2511, 2762, 3101, 3245, 3811, 5714, 5811, 9611, 9678, 9877, 10438, 13245, 13292, 13360, 13411, 13560, 13660]}, "edge": {"target": [], "time": []}}}, "displayed_time": "17.88", "trialTime": 19050, "trial_type": "mouselab-mdp", "trial_index": 39, "time_elapsed": 2097368, "internal_node_id": "0.0-6.0-1.0-30.0"}}, {"uniqueid": "w87353974:a83775427", "current_trial": 40, "dateTime": 1693566894376, "trialdata": {"revealed_states": [], "clicked_states": ["17"], "num_clicks_accrued": [0, 0, 0, 0, 0, 0, 0, 0, 0, 0, 0, 0, 0], "stateRewards": ["", -1, 1, 8, -8, -49, 62, -78, 16, 28, -81, 78, -2, -3, -1, -4, 67, 49, -2, -13, -16, -39, 83, 1, -4, 4, -5, -20, 7, 84, 7, -32, -59, 19], "withholdReward": false, "trial_id": "mdp_trial_32", "block": "test", "trialIndex": 33, "score": 37.6, "costs": -1.4, "simulationMode": [null, null, null, null, null], "rewards": [-2, -3, -1, -4, 49], "path": ["0", "0", "12", "13", "14", "15", "17"], "rt": [3734, 362, 390, 159, 46], "actions": ["right", "right", "right", "up", "right"], "actionTimes": [5050, 5913, 6824, 7496, 8063], "queries": {"click": {"state": {"target": ["17"], "time": [2229]}, "edge": {"target": [], "time": []}}, "mouseover": {"state": {"target": ["0", "22", "19", "14", "17", "14", "13", "12"], "time": [1326, 1453, 1532, 1784, 1884, 2732, 2799, 4218]}, "edge": {"target": [], "time": []}}, "mouseout": {"state": {"target": ["0", "0", "22", "19", "14", "17", "14", "13", "12"], "time": [1052, 1351, 1481, 1565, 1815, 2449, 2765, 2865, 13535]}, "edge": {"target": [], "time": []}}}, "displayed_time": "15.32", "trialTime": 18641, "trial_type": "mouselab-mdp", "trial_index": 40, "time_elapsed": 2116336, "internal_node_id": "0.0-6.0-1.0-31.0"}}, {"uniqueid": "w87353974:a83775427", "current_trial": 41, "dateTime": 1693566920112, "trialdata": {"revealed_states": [], "clicked_states": ["14", "25", "4", "27", "32", "21"], "num_clicks_accrued": [0, 0, 0, 0, 0, 0, 0, 0, 0, 0, 0, 0, 0], "stateRewards": ["", -1, 1, -5, -6, -78, 47, -13, 12, 48, -88, 20, 2, -3, -2, 13, -20, 37, -57, 14, -38, 30, 31, -2, -2, 8, 2, -23, 78, 28, 12, -74, -88, 8], "withholdReward": false, "trial_id": "mdp_trial_33", "block": "test", "trialIndex": 34, "score": 32.6, "costs": -8.4, "simulationMode": [null, null, null, null, null], "rewards": [2, -3, -2, 14, 30], "path": ["0", "0", "12", "13", "14", "19", "21"], "rt": [18546, 346, 450, 153, 127], "actions": ["right", "right", "right", "down", "down"], "actionTimes": [20496, 21359, 22328, 22999, 23639], "queries": {"click": {"state": {"target": ["14", "25", "4", "27", "32", "21"], "time": [4188, 6566, 9162, 12102, 14536, 17470]}, "edge": {"target": [], "time": []}}, "mouseover": {"state": {"target": ["1", "2", "2", "15", "14", "14", "21", "31", "25", "28", "10", "3", "4", "7", "18", "12", "1", "10", "11", "27", "12", "31", "32", "21", "19"], "time": [2412, 2711, 2916, 3245, 3769, 4032, 4978, 5279, 6096, 7712, 8461, 8528, 9048, 9561, 9644, 9745, 11111, 11213, 11515, 11952, 12611, 14132, 14283, 17283, 19311]}, "edge": {"target": [], "time": []}}, "mouseout": {"state": {"target": ["0", "1", "2", "2", "15", "14", "14", "21", "31", "25", "28", "10", "3", "4", "7", "18", "12", "1", "10", "11", "27", "12", "31", "32", "21", "21", "19"], "time": [2362, 2461, 2744, 3049, 3261, 3830, 4345, 4995, 5328, 7528, 7894, 8496, 8611, 9545, 9595, 9661, 9778, 11127, 11296, 11813, 12187, 12630, 14160, 14761, 17730, 19180, 19482]}, "edge": {"target": [], "time": []}}}, "displayed_time": "24.15", "trialTime": 25375, "trial_type": "mouselab-mdp", "trial_index": 41, "time_elapsed": 2142071, "internal_node_id": "0.0-6.0-1.0-32.0"}}, {"uniqueid": "w87353974:a83775427", "current_trial": 42, "dateTime": 1693566958088, "trialdata": {"revealed_states": [], "clicked_states": ["7", "11", "5", "15", "25", "27", "29", "24", "31"], "num_clicks_accrued": [0, 0, 0, 0, 0, 0, 0, 0, 0, 0, 0, 0, 0], "stateRewards": ["", -1, 4, -6, -5, -22, -38, -38, -2, -56, 88, 14, -1, -1, -7, -6, 61, -60, 21, 11, 57, 31, -30, -2, -2, 6, -9, -44, -70, -44, -15, 34, 16, -78], "withholdReward": false, "trial_id": "mdp_trial_34", "block": "test", "trialIndex": 35, "score": 8.399999999999999, "costs": -12.600000000000001, "simulationMode": [null, null, null, null, null], "rewards": [-2, -2, 6, -15, 34], "path": ["0", "0", "23", "24", "25", "30", "31"], "rt": [24210, 458, 4470, 2879, 280], "actions": ["left", "left", "left", "down", "right"], "actionTimes": [25597, 26574, 31550, 34941, 35725], "queries": {"click": {"state": {"target": ["7", "11", "5", "15", "25", "27", "29", "24", "31"], "time": [2592, 4899, 6915, 9288, 12176, 14494, 16873, 19066, 21480]}, "edge": {"target": [], "time": []}}, "mouseover": {"state": {"target": ["0", "12", "7", "7", "7", "2", "10", "8", "11", "11", "8", "2", "3", "5", "15", "22", "24", "25", "25", "24", "23", "0", "23", "28", "27", "26", "29", "24", "31"], "time": [1533, 1842, 1963, 2182, 2399, 3213, 3313, 4146, 4298, 4698, 5180, 5246, 5413, 5762, 9050, 11435, 11600, 11662, 12031, 12446, 12480, 13950, 14028, 14095, 14298, 16412, 16494, 17296, 21311]}, "edge": {"target": [], "time": []}}, "mouseout": {"state": {"target": ["14", "12", "0", "0", "12", "7", "7", "7", "7", "2", "10", "8", "11", "11", "8", "2", "3", "5", "5", "15", "22", "24", "25", "25", "24", "23", "0", "23", "28", "27", "27", "26", "29", "24", "31", "29", "31", "31"], "time": [497, 729, 880, 1549, 1913, 2015, 2212, 2730, 3080, 3280, 4063, 4166, 4346, 5163, 5196, 5364, 5463, 6987, 7116, 9730, 11462, 11621, 11695, 12261, 12478, 12512, 13995, 14047, 14162, 14511, 14661, 16445, 17178, 21046, 21861, 29481, 29864, 30297]}, "edge": {"target": [], "time": []}}}, "displayed_time": "36.24", "trialTime": 37589, "trial_type": "mouselab-mdp", "trial_index": 42, "time_elapsed": 2180048, "internal_node_id": "0.0-6.0-1.0-33.0"}}, {"uniqueid": "w87353974:a83775427", "current_trial": 43, "dateTime": 1693566978752, "trialdata": {"revealed_states": [], "clicked_states": ["15", "8", "4", "31"], "num_clicks_accrued": [0, 0, 0, 0, 0, 0, 0, 0, 0, 0, 0, 0, 0], "stateRewards": ["", 1, -1, 1, -14, -10, 67, -28, -11, 72, 40, -65, -1, 1, 1, -2, 8, -55, 34, -10, 61, 33, -15, 2, -4, 7, 4, -75, 63, -21, -16, 61, 19, 21], "withholdReward": false, "trial_id": "mdp_trial_35", "block": "test", "trialIndex": 36, "score": 44.4, "costs": -5.6, "simulationMode": [null, null, null, null, null], "rewards": [2, -4, 7, -16, 61], "path": ["0", "0", "23", "24", "25", "30", "31"], "rt": [13480, 219, 607, 156, 256], "actions": ["left", "left", "left", "down", "right"], "actionTimes": [14932, 15677, 16780, 17428, 18196], "queries": {"click": {"state": {"target": ["15", "8", "4", "31"], "time": [2426, 5414, 9663, 12408]}, "edge": {"target": [], "time": []}}, "mouseover": {"state": {"target": ["12", "18", "16", "15", "22", "2", "3", "8", "11", "8", "2", "7", "4", "7", "4", "7", "0", "31"], "time": [1556, 1655, 1956, 2123, 3155, 4488, 4521, 4588, 4706, 5057, 5623, 6940, 8491, 8606, 9489, 10538, 11975, 12104]}, "edge": {"target": [], "time": []}}, "mouseout": {"state": {"target": ["0", "12", "18", "16", "15", "22", "2", "3", "8", "11", "8", "2", "7", "4", "7", "4", "7", "0", "31"], "time": [1491, 1572, 1905, 2040, 2622, 4357, 4505, 4555, 4622, 4924, 5588, 5672, 7111, 8521, 9322, 10438, 11874, 11990, 12621]}, "edge": {"target": [], "time": []}}}, "displayed_time": "18.70", "trialTime": 20300, "trial_type": "mouselab-mdp", "trial_index": 43, "time_elapsed": 2200712, "internal_node_id": "0.0-6.0-1.0-34.0"}}, {"uniqueid": "w87353974:a83775427", "current_trial": 44, "dateTime": 1693566996464, "trialdata": {"revealed_states": [], "clicked_states": ["19", "21"], "num_clicks_accrued": [0, 0, 0, 0, 0, 0, 0, 0, 0, 0, 0, 0, 0], "stateRewards": ["", 1, 3, -2, 15, 51, 15, -19, 11, 67, -45, -73, 2, 4, -2, -13, 36, 9, -28, 10, -30, 31, 16, 1, 2, -1, -16, 14, -22, 36, -1, 88, -5, 45], "withholdReward": false, "trial_id": "mdp_trial_36", "block": "test", "trialIndex": 37, "score": 42.2, "costs": -2.8, "simulationMode": [null, null, null, null, null], "rewards": [2, 4, -2, 10, 31], "path": ["0", "0", "12", "13", "14", "19", "21"], "rt": [7742, 357, 340, 187, 318], "actions": ["right", "right", "right", "down", "down"], "actionTimes": [9116, 9971, 10819, 11483, 12298], "queries": {"click": {"state": {"target": ["19", "21"], "time": [2968, 6291]}, "edge": {"target": [], "time": []}}, "mouseover": {"state": {"target": ["0", "22", "19", "21"], "time": [1535, 1879, 2112, 5929]}, "edge": {"target": [], "time": []}}, "mouseout": {"state": {"target": ["0", "0", "22", "19", "19", "21"], "time": [946, 1577, 1911, 3071, 3262, 6694]}, "edge": {"target": [], "time": []}}}, "displayed_time": "15.38", "trialTime": 17371, "trial_type": "mouselab-mdp", "trial_index": 44, "time_elapsed": 2218424, "internal_node_id": "0.0-6.0-1.0-35.0"}}, {"uniqueid": "w87353974:a83775427", "current_trial": 45, "dateTime": 1693567019439, "trialdata": {"revealed_states": [], "clicked_states": ["4", "26", "33", "15", "27"], "num_clicks_accrued": [0, 0, 0, 0, 0, 0, 0, 0, 0, 0, 0, 0, 0], "stateRewards": ["", 1, -4, -4, 8, 1, -79, 68, -10, -79, 8, -74, -1, -3, -6, 14, 43, 23, 9, 5, -51, 63, 61, -2, 4, 6, -10, 69, -32, 57, 15, -80, -80, -77], "withholdReward": false, "trial_id": "mdp_trial_37", "block": "test", "trialIndex": 38, "score": 60, "costs": -7, "simulationMode": [null, null, null, null, null], "rewards": [-2, 4, 6, -10, 69], "path": ["0", "0", "23", "24", "25", "26", "27"], "rt": [16801, 214, 151, 157, 171], "actions": ["left", "left", "left", "up", "up"], "actionTimes": [18266, 19001, 19673, 20345, 21025], "queries": {"click": {"state": {"target": ["4", "26", "33", "15", "27"], "time": [2510, 5264, 8817, 12066, 15701]}, "edge": {"target": [], "time": []}}, "mouseover": {"state": {"target": ["1", "2", "4", "16", "1", "28", "26", "28", "0", "22", "30", "32", "33", "30", "31", "21", "18", "15", "17", "17", "18", "1", "27"], "time": [1906, 1970, 2192, 3054, 4421, 4470, 4774, 5820, 5887, 5970, 7688, 8020, 8525, 9103, 9136, 9236, 11604, 11854, 12419, 14920, 15035, 15169, 15489]}, "edge": {"target": [], "time": []}}, "mouseout": {"state": {"target": ["14", "1", "0", "1", "2", "4", "16", "1", "28", "26", "28", "0", "22", "30", "32", "33", "30", "31", "21", "18", "15", "15", "17", "17", "15", "18", "1", "27"], "time": [657, 906, 1591, 1954, 2037, 2855, 3287, 4438, 4486, 5803, 5837, 5903, 7486, 7890, 8390, 9069, 9119, 9152, 11575, 11635, 12127, 12370, 12486, 14935, 15019, 15069, 15202, 15869]}, "edge": {"target": [], "time": []}}}, "displayed_time": "21.54", "trialTime": 22625, "trial_type": "mouselab-mdp", "trial_index": 45, "time_elapsed": 2241399, "internal_node_id": "0.0-6.0-1.0-36.0"}}, {"uniqueid": "w87353974:a83775427", "current_trial": 46, "dateTime": 1693567036658, "trialdata": {"revealed_states": [], "clicked_states": ["9"], "num_clicks_accrued": [0, 0, 0, 0, 0, 0, 0, 0, 0, 0, 0, 0, 0], "stateRewards": ["", 2, 3, 6, -5, -74, -53, 17, -12, 46, 44, 18, -2, 4, 1, -8, 22, -23, -49, 9, -45, 55, 81, 1, -1, -7, -16, -83, -71, -45, 2, 51, 82, 61], "withholdReward": false, "trial_id": "mdp_trial_38", "block": "test", "trialIndex": 39, "score": 43.6, "costs": -1.4, "simulationMode": [null, null, null, null, null], "rewards": [2, 3, 6, -12, 46], "path": ["0", "0", "1", "2", "3", "8", "9"], "rt": [4958, 28, 328, 12, 136], "actions": ["up", "up", "up", "left", "up"], "actionTimes": [6320, 6870, 7720, 8254, 8927], "queries": {"click": {"state": {"target": ["9"], "time": [3562]}, "edge": {"target": [], "time": []}}, "mouseover": {"state": {"target": ["0", "12", "13", "18", "15", "7", "2", "3", "8", "9", "3", "4", "18", "6"], "time": [1444, 1511, 1607, 1943, 2244, 2441, 2625, 2890, 3258, 3374, 3756, 3790, 3923, 5547]}, "edge": {"target": [], "time": []}}, "mouseout": {"state": {"target": ["12", "0", "0", "12", "13", "18", "15", "7", "2", "3", "8", "9", "3", "4", "18", "6", "19", "21"], "time": [857, 1373, 1458, 1527, 1828, 2058, 2308, 2541, 2840, 3139, 3323, 3722, 3773, 3807, 5363, 10240, 10527, 10555]}, "edge": {"target": [], "time": []}}}, "displayed_time": "15.36", "trialTime": 16864, "trial_type": "mouselab-mdp", "trial_index": 46, "time_elapsed": 2258617, "internal_node_id": "0.0-6.0-1.0-37.0"}}, {"uniqueid": "w87353974:a83775427", "current_trial": 47, "dateTime": 1693567055151, "trialdata": {"revealed_states": [], "clicked_states": ["6"], "num_clicks_accrued": [0, 0, 0, 0, 0, 0, 0, 0, 0, 0, 0, 0, 0], "stateRewards": ["", -2, 2, -1, -6, 22, 6, 6, -5, 70, -42, 65, 1, 3, 5, -6, -67, -9, 3, 14, 7, -62, -13, -2, 4, 1, 16, 42, -21, -52, -8, 32, 53, 81], "withholdReward": false, "trial_id": "mdp_trial_39", "block": "test", "trialIndex": 40, "score": 13.6, "costs": -1.4, "simulationMode": [null, null, null, null, null], "rewards": [-2, 2, -1, -6, 22], "path": ["0", "0", "1", "2", "3", "4", "5"], "rt": [8937, 28, 182, 3378, 248], "actions": ["up", "up", "up", "right", "up"], "actionTimes": [10174, 10725, 11446, 15359, 16111], "queries": {"click": {"state": {"target": ["6"], "time": [2191]}, "edge": {"target": [], "time": []}}, "mouseover": {"state": {"target": ["12", "6", "13", "23", "24", "26", "28", "18", "15", "17", "15", "18", "1", "7", "3", "3", "2", "18", "15", "14", "0", "1"], "time": [1501, 1900, 2463, 4648, 4681, 5014, 5229, 5311, 5345, 5379, 5578, 5696, 5865, 6082, 6249, 6666, 7079, 7262, 7430, 8630, 8862, 9397]}, "edge": {"target": [], "time": []}}, "mouseout": {"state": {"target": ["12", "6", "13", "23", "24", "26", "28", "18", "15", "17", "15", "18", "1", "7", "3", "3", "2", "18", "15", "14", "0", "1"], "time": [1546, 2345, 2546, 4669, 4779, 5201, 5261, 5328, 5362, 5549, 5611, 5784, 5946, 6163, 6398, 7031, 7184, 7312, 7930, 8678, 8929, 9412]}, "edge": {"target": [], "time": []}}}, "displayed_time": "16.61", "trialTime": 18134, "trial_type": "mouselab-mdp", "trial_index": 47, "time_elapsed": 2277111, "internal_node_id": "0.0-6.0-1.0-38.0"}}, {"uniqueid": "w87353974:a83775427", "current_trial": 48, "dateTime": 1693567082064, "trialdata": {"revealed_states": [], "clicked_states": ["28", "30", "14", "25", "3", "9"], "num_clicks_accrued": [0, 0, 0, 0, 0, 0, 0, 0, 0, 0, 0, 0, 0], "stateRewards": ["", -2, 2, 5, -14, -56, 64, 84, -5, 52, 39, 85, -2, 1, 7, 8, 21, 29, -78, -9, -10, -69, 10, -2, -1, -7, 15, 72, 20, 41, -2, 52, 80, 22], "withholdReward": false, "trial_id": "mdp_trial_40", "block": "test", "trialIndex": 41, "score": 43.6, "costs": -8.4, "simulationMode": [null, null, null, null, null], "rewards": [-2, 2, 5, -5, 52], "path": ["0", "0", "1", "2", "3", "8", "9"], "rt": [20266, 266, 148, 66, 137], "actions": ["up", "up", "up", "left", "up"], "actionTimes": [21868, 22636, 23301, 23891, 24540], "queries": {"click": {"state": {"target": ["28", "30", "14", "25", "3", "9"], "time": [3050, 6997, 10016, 13463, 16371, 19711]}, "edge": {"target": [], "time": []}}, "mouseover": {"state": {"target": ["0", "12", "14", "20", "22", "28", "23", "23", "29", "25", "30", "30", "31", "14", "19", "12", "25", "2", "3", "7", "7", "9"], "time": [1619, 1670, 1821, 2073, 2289, 2773, 3236, 5738, 6071, 6388, 6503, 6807, 7203, 9838, 10635, 12568, 13118, 15971, 16120, 16734, 18909, 19468]}, "edge": {"target": [], "time": []}}, "mouseout": {"state": {"target": ["12", "0", "12", "14", "20", "22", "28", "23", "23", "29", "25", "30", "30", "31", "14", "19", "12", "25", "25", "2", "3", "7", "7", "9", "3", "18", "18", "12"], "time": [1106, 1653, 1686, 1921, 2103, 2336, 3220, 3253, 5754, 6222, 6436, 6604, 7169, 7235, 10352, 12517, 12587, 13531, 13734, 16017, 16684, 16786, 18928, 19951, 20001, 25900, 25986, 26066]}, "edge": {"target": [], "time": []}}}, "displayed_time": "25.06", "trialTime": 26572, "trial_type": "mouselab-mdp", "trial_index": 48, "time_elapsed": 2304024, "internal_node_id": "0.0-6.0-1.0-39.0"}}, {"uniqueid": "w87353974:a83775427", "current_trial": 49, "dateTime": 1693567157776, "trialdata": {"rt": 75698, "response": {"Q0": "$-2 to $2", "Q1": "$-16 to $16", "Q2": "$-88 to $88", "Q3": "The cost for clicking on nodes varied between nodes.", "Q4": "Very motivated"}, "question_order": [0, 1, 2, 3, 4], "trial_id": "final_quiz_control", "trial_type": "survey-multi-choice", "trial_index": 49, "time_elapsed": 2379737, "internal_node_id": "0.0-6.0-2.0"}}, {"uniqueid": "w87353974:a83775427", "current_trial": 50, "dateTime": 1693567394684, "trialdata": {"rt": 236885, "response": {"Q0": "I was trying to spot the highest numbers in the\nquickest time but also with the shortest distance. ", "Q1": "I clicked the nods where numbers were usually higher to improve my chances. ", "Q2": "It became difficult once there appeared more negative numbers than \npositive ones. "}, "trial_id": "self_report_control", "trial_type": "survey-text", "trial_index": 50, "time_elapsed": 2616645, "internal_node_id": "0.0-6.0-3.0"}}, {"uniqueid": "w87353974:a83775427", "current_trial": 51, "dateTime": 1693567494537, "trialdata": {"rt": 99845, "response": {"gender": "female", "age": "30", "colorblind": "0", "effort": "0"}, "trial_type": "survey-html-form", "trial_index": 51, "time_elapsed": 2716498, "internal_node_id": "0.0-6.0-4.0"}}, {"uniqueid": "w87353974:a83775427", "current_trial": 52, "dateTime": 1693567559576, "trialdata": {"rt": 65028, "response": {"Q0": "The process was a little confusing. ", "Q1": "No, I've never participated in a Web of Cash Hit before. ", "Q2": ""}, "trial_type": "survey-text", "trial_index": 52, "time_elapsed": 2781537, "internal_node_id": "0.0-6.0-5.0"}}, {"uniqueid": "w87353974:a83775427", "current_trial": 53, "dateTime": 1693567565413, "trialdata": {"rt": 5830, "stimulus": "<h1>Completion Code Instructions (1/2)</h1>\n<br><br><br><br>\nYou have reached the end of the experiment! The completion code consists of two parts: (1) a code with 2 characters (2) a code with 6 characters. On this page, you will receive the second part of the code. The first part of the completion code will be on the next page.\n<br><br>\nThe second part of your completion code is: <b>EWEK22</b>\n<br><br>\nPlease note this down. Then, press 'Finish HIT' in order to find the first part of your completion code. Once the data has been saved, you will receive this code either in this window or in the original browser window where you started the experiment.\n", "response": 0, "trial_type": "html-button-response", "trial_index": 53, "time_elapsed": 2787374, "internal_node_id": "0.0-6.0-6.0"}}, {"uniqueid": "w87353974:a83775427", "current_trial": 54, "dateTime": 1693567566418, "trialdata": {"success": true, "trial_type": "fullscreen", "trial_index": 54, "time_elapsed": 2788379, "internal_node_id": "0.0-7.0"}}], "questiondata": {"params": {"CODE": "C6DMOQA6", "MIN_TIME": 14, "inspectCost": 1, "startTime": "Fri Sep 01 2023 12:39:34 GMT+0200 (South Africa Standard Time)", "bonusRate": 0.002, "variance": "1_2_4_8_44", "branching": "31123"}, "final_score": 1035}, "eventdata": [{"eventtype": "initialized", "value": null, "timestamp": 1693564773929, "interval": 0}, {"eventtype": "window_resize", "value": [1536, 766], "timestamp": 1693564773929, "interval": 0}, {"eventtype": "window_resize", "value": [1536, 766], "timestamp": 1693564774714, "interval": 785}, {"eventtype": "window_resize", "value": [1536, 864], "timestamp": 1693564781592, "interval": 6878}, {"eventtype": "window_resize", "value": [1536, 766], "timestamp": 1693567565658, "interval": 2784066}], "useragent": "Mozilla/5.0 (Windows NT 10.0; Win64; x64) AppleWebKit/537.36 (KHTML, like Gecko) Chrome/116.0.0.0 Safari/537.36", "mode": "live", "id": "w87353974:a83775427", "status": "user data saved", "Beginhit": "2023-09-01 10:39:30.198275", "Beginexp": "2023-09-01 10:39:42.724522", "Endhit": null, "psiturkStatus": 6, "browser": "<redacted>", "platform": "windows", "language": "en-ZA"}