{"condition": 1, "counterbalance": 0, "assignmentId": "a95662775", "workerId": "w11186246", "hitId": "h59342495", "currenttrial": 56, "bonus": 0, "data": [{"uniqueid": "w11186246:a95662775", "current_trial": 0, "dateTime": 1693564507046, "trialdata": {"success": true, "trial_type": "fullscreen", "trial_index": 0, "time_elapsed": 8343, "internal_node_id": "0.0-0.0"}}, {"uniqueid": "w11186246:a95662775", "current_trial": 1, "dateTime": 1693564538226, "trialdata": {"view_history": [{"page_index": 0, "viewing_time": 31169}], "rt": 31170, "trial_id": "exp_instructions_misaligned", "trial_type": "instructions", "trial_index": 1, "time_elapsed": 39524, "internal_node_id": "0.0-1.0"}}, {"uniqueid": "w11186246:a95662775", "current_trial": 2, "dateTime": 1693564916444, "trialdata": {"view_history": [{"page_index": 0, "viewing_time": 113351}, {"page_index": 1, "viewing_time": 137751}, {"page_index": 2, "viewing_time": 46947}, {"page_index": 3, "viewing_time": 80156}], "rt": 378206, "trial_id": "mouselab_instructions_1_misaligned", "trial_type": "instructions", "trial_index": 2, "time_elapsed": 417742, "internal_node_id": "0.0-2.0-1.0"}}, {"uniqueid": "w11186246:a95662775", "current_trial": 3, "dateTime": 1693564956704, "trialdata": {"revealed_states": [], "clicked_states": ["1", "2", "3"], "num_clicks_accrued": [0, 0, 0, 0, 0, 0, 0, 0, 0, 0, 0, 0, 0], "stateRewards": ["", -10, -10, 10, 10, -10, 10, 10, 10, 10, -10, -10, 10, -10, -10, -10, 10, -10, 10, -10, -10, 10, -10, 10, -10, 10, -10, -10, 10, -10, 10, 10, -10, -10], "withholdReward": false, "trial_id": "practice_1", "block": "test", "trialIndex": 0, "score": -28, "costs": -1.5, "simulationMode": [null, null, null, null, null], "rewards": [10, -10, -10, -10, -10], "path": ["0", "0", "12", "13", "14", "19", "20"], "rt": [14018, 2738, 2361, 1970, 1010], "actions": ["right", "right", "right", "down", "right"], "actionTimes": [15834, 19085, 21971, 24463, 25999], "queries": {"click": {"state": {"target": ["1", "2", "3"], "time": [10427, 11885, 13240]}, "edge": {"target": [], "time": []}}, "mouseover": {"state": {"target": ["1", "2", "3", "0"], "time": [9415, 11431, 12596, 14248]}, "edge": {"target": [], "time": []}}, "mouseout": {"state": {"target": ["0", "1", "2", "3", "2", "1", "0"], "time": [9234, 11197, 12463, 13880, 13931, 14063, 14311]}, "edge": {"target": [], "time": []}}}, "displayed_time": "26.52", "trialTime": 39167, "trial_type": "mouselab-mdp", "trial_index": 3, "time_elapsed": 458001, "internal_node_id": "0.0-2.0-2.0-0.0"}}, {"uniqueid": "w11186246:a95662775", "current_trial": 4, "dateTime": 1693564973302, "trialdata": {"revealed_states": [], "clicked_states": [], "num_clicks_accrued": [0, 0, 0, 0, 0, 0, 0, 0, 0, 0, 0, 0, 0], "stateRewards": ["", -10, -10, -10, 10, 10, -10, 10, -10, 10, -10, -10, 10, 10, 10, 10, 10, -10, 10, 10, 10, 10, 10, 10, 10, 10, -10, 10, -10, -10, 10, -10, 10, 10], "withholdReward": false, "trial_id": "practice_2", "block": "test", "trialIndex": 1, "score": 33.5, "costs": 0, "simulationMode": [null, null, null, null, null], "rewards": [10, 10, 10, -10, 10], "path": ["0", "0", "23", "24", "25", "26", "27"], "rt": [2162, 1048, 1698, 1135, 1067], "actions": ["left", "left", "left", "up", "up"], "actionTimes": [4517, 6088, 8303, 9953, 11534], "queries": {"click": {"state": {"target": [], "time": []}, "edge": {"target": [], "time": []}}, "mouseover": {"state": {"target": [], "time": []}, "edge": {"target": [], "time": []}}, "mouseout": {"state": {"target": [], "time": []}, "edge": {"target": [], "time": []}}}, "displayed_time": "12.05", "trialTime": 15948, "trial_type": "mouselab-mdp", "trial_index": 4, "time_elapsed": 474598, "internal_node_id": "0.0-2.0-2.0-1.0"}}, {"uniqueid": "w11186246:a95662775", "current_trial": 5, "dateTime": 1693565074533, "trialdata": {"view_history": [{"page_index": 0, "viewing_time": 78437}, {"page_index": 1, "viewing_time": 22790}], "rt": 101227, "trial_id": "mouselab_instructions_2_misaligned", "trial_type": "instructions", "trial_index": 5, "time_elapsed": 575831, "internal_node_id": "0.0-2.0-3.0"}}, {"uniqueid": "w11186246:a95662775", "current_trial": 6, "dateTime": 1693565163285, "trialdata": {"rt": 88744, "response": {"Q0": "The cost for clicking on nodes may vary between nodes.", "Q1": "The better I perform the higher my bonus will be.", "Q2": "No, the amount of cash at each node of the web may be different each time.", "Q3": "To get the highest total score.", "Q4": "Only before moving the spider.", "Q5": "3 seconds"}, "question_order": [0, 1, 2, 3, 4, 5], "correct": {"Q0": "The cost for clicking on nodes may vary between nodes.", "Q1": "The better I perform the higher my bonus will be.", "Q2": "No, the amount of cash at each node of the web may be different each time.", "Q3": "To get the highest total score.", "Q4": "Only before moving the spider.", "Q5": "3 seconds"}, "trial_id": "mouselab_quiz_misaligned", "trial_type": "survey-multi-choice", "trial_index": 6, "time_elapsed": 664583, "internal_node_id": "0.0-2.0-4.0"}}, {"uniqueid": "w11186246:a95662775", "current_trial": 7, "dateTime": 1693565181515, "trialdata": {"rt": 18219, "response": {"Q0": "No"}, "question_order": [0], "trial_id": "repeat_check", "trial_type": "survey-multi-choice", "trial_index": 7, "time_elapsed": 682813, "internal_node_id": "0.0-4.0-0.0"}}, {"uniqueid": "w11186246:a95662775", "current_trial": 8, "dateTime": 1693565214330, "trialdata": {"rt": 32806, "stimulus": "\n<h1> Get ready to start the game! </h1>\n\nThank you for reading the instructions. Get ready start with the 40 rounds of this game.\n<br><br>\nIf you need to take a break, feel free to take one after the end of a round, before continuing to the next one.\n<br><br>\nRemember, the more money the spider gets, the bigger your bonus will be!\n<br><br>\n<div style='text-align: center;'>Press <code>space</code> to begin.</div>\n\n<br><br>\n(If, at any point, the <code>space</code> key does not take you to the next page, click once on the text and try again.)", "response": " ", "trial_id": "mdp_ready", "trial_type": "html-keyboard-response", "trial_index": 8, "time_elapsed": 715628, "internal_node_id": "0.0-6.0-0.0"}}, {"uniqueid": "w11186246:a95662775", "current_trial": 9, "dateTime": 1693565239527, "trialdata": {"revealed_states": [], "clicked_states": [], "num_clicks_accrued": [0, 0, 0, 0, 0, 0, 0, 0, 0, 0, 0, 0, 0], "stateRewards": ["", -2, -3, 1, -14, 48, -49, 67, -1, -35, -48, 3, -2, 1, -4, -5, 86, -84, 39, 1, 48, 41, -42, -1, -4, 2, -7, 18, -86, 17, 7, -9, 57, -69], "withholdReward": false, "trial_id": "mdp_trial_1", "block": "test", "trialIndex": 2, "score": 44, "costs": 0, "simulationMode": [null, null, null, null, null], "rewards": [-2, 1, -4, 1, 48], "path": ["0", "0", "12", "13", "14", "19", "20"], "rt": [1802, 971, 2891, 3216, 2279], "actions": ["right", "right", "right", "down", "right"], "actionTimes": [6784, 8276, 11678, 15400, 18207], "queries": {"click": {"state": {"target": [], "time": []}, "edge": {"target": [], "time": []}}, "mouseover": {"state": {"target": [], "time": []}, "edge": {"target": [], "time": []}}, "mouseout": {"state": {"target": ["0"], "time": [2306]}, "edge": {"target": [], "time": []}}}, "displayed_time": "18.98", "trialTime": 24565, "trial_type": "mouselab-mdp", "trial_index": 9, "time_elapsed": 740824, "internal_node_id": "0.0-6.0-1.0-0.0"}}, {"uniqueid": "w11186246:a95662775", "current_trial": 10, "dateTime": 1693565262956, "trialdata": {"revealed_states": [], "clicked_states": [], "num_clicks_accrued": [0, 0, 0, 0, 0, 0, 0, 0, 0, 0, 0, 0, 0], "stateRewards": ["", 1, -2, -2, 10, -31, -77, 35, 9, -47, 8, 48, -2, 1, -4, -3, -26, -50, 43, -11, 76, -38, 17, 1, -1, 6, 10, 15, -9, 12, -8, 85, 11, -55], "withholdReward": false, "trial_id": "mdp_trial_2", "block": "test", "trialIndex": 3, "score": 60, "costs": 0, "simulationMode": [null, null, null, null, null], "rewards": [-2, 1, -4, -11, 76], "path": ["0", "0", "12", "13", "14", "19", "20"], "rt": [4200, 1100, 1991, 1895, 1603], "actions": ["right", "right", "right", "down", "right"], "actionTimes": [6811, 8422, 10927, 13330, 15456], "queries": {"click": {"state": {"target": [], "time": []}, "edge": {"target": [], "time": []}}, "mouseover": {"state": {"target": [], "time": []}, "edge": {"target": [], "time": []}}, "mouseout": {"state": {"target": ["0"], "time": [2104]}, "edge": {"target": [], "time": []}}}, "displayed_time": "16.61", "trialTime": 22787, "trial_type": "mouselab-mdp", "trial_index": 10, "time_elapsed": 764253, "internal_node_id": "0.0-6.0-1.0-1.0"}}, {"uniqueid": "w11186246:a95662775", "current_trial": 11, "dateTime": 1693565286015, "trialdata": {"revealed_states": [], "clicked_states": [], "num_clicks_accrued": [0, 0, 0, 0, 0, 0, 0, 0, 0, 0, 0, 0, 0], "stateRewards": ["", 2, 3, 8, 14, 69, -27, 17, 2, -71, -65, -10, 2, -3, 7, 8, 65, -10, 65, -12, 73, -12, 13, -2, -2, 6, 10, -79, -69, -18, 10, -85, 67, 74], "withholdReward": false, "trial_id": "mdp_trial_3", "block": "test", "trialIndex": 4, "score": 67, "costs": 0, "simulationMode": [null, null, null, null, null], "rewards": [2, -3, 7, -12, 73], "path": ["0", "0", "12", "13", "14", "19", "20"], "rt": [3663, 2351, 2178, 1503, 1498], "actions": ["right", "right", "right", "down", "right"], "actionTimes": [6936, 9804, 12479, 14486, 16497], "queries": {"click": {"state": {"target": [], "time": []}, "edge": {"target": [], "time": []}}, "mouseover": {"state": {"target": [], "time": []}, "edge": {"target": [], "time": []}}, "mouseout": {"state": {"target": ["0"], "time": [2767]}, "edge": {"target": [], "time": []}}}, "displayed_time": "17.27", "trialTime": 22412, "trial_type": "mouselab-mdp", "trial_index": 11, "time_elapsed": 787313, "internal_node_id": "0.0-6.0-1.0-2.0"}}, {"uniqueid": "w11186246:a95662775", "current_trial": 12, "dateTime": 1693565307328, "trialdata": {"revealed_states": [], "clicked_states": ["12", "13", "14", "19"], "num_clicks_accrued": [0, 0, 0, 0, 0, 0, 0, 0, 0, 0, 0, 0, 0], "stateRewards": ["", 1, -3, -4, -11, -56, 61, -47, -16, -28, -9, 69, -2, -3, -4, -8, 40, -86, 59, -4, 80, 27, 54, -1, 3, -1, 8, 67, 23, 50, 6, 83, -43, -29], "withholdReward": false, "trial_id": "mdp_trial_4", "block": "test", "trialIndex": 5, "score": -66.6, "costs": -2.5999999999999996, "simulationMode": [null, null, null, null, null], "rewards": [1, -3, -4, -11, -47], "path": ["0", "0", "1", "2", "3", "4", "7"], "rt": [7429, 1272, 1151, 1284, 1710], "actions": ["up", "up", "up", "right", "down"], "actionTimes": [9101, 10878, 12537, 14321, 16545], "queries": {"click": {"state": {"target": ["12", "13", "14", "19"], "time": [2653, 3376, 4393, 6681]}, "edge": {"target": [], "time": []}}, "mouseover": {"state": {"target": ["12", "13", "14", "19"], "time": [2275, 2994, 3909, 5552]}, "edge": {"target": [], "time": []}}, "mouseout": {"state": {"target": ["0", "12", "13", "14", "19"], "time": [1102, 2958, 3592, 5263, 6903]}, "edge": {"target": [], "time": []}}}, "displayed_time": "17.05", "trialTime": 20482, "trial_type": "mouselab-mdp", "trial_index": 12, "time_elapsed": 808625, "internal_node_id": "0.0-6.0-1.0-3.0"}}, {"uniqueid": "w11186246:a95662775", "current_trial": 13, "dateTime": 1693565328861, "trialdata": {"revealed_states": [], "clicked_states": [], "num_clicks_accrued": [0, 0, 0, 0, 0, 0, 0, 0, 0, 0, 0, 0, 0], "stateRewards": ["", 2, -1, 3, -12, -83, 6, -33, 9, 28, 24, -50, -2, -1, -2, -5, -87, 37, 82, 12, 80, -5, 10, -2, -3, -6, 9, 22, -1, 16, 9, 77, -62, 58], "withholdReward": false, "trial_id": "mdp_trial_5", "block": "test", "trialIndex": 6, "score": 87, "costs": 0, "simulationMode": [null, null, null, null, null], "rewards": [-2, -1, -2, 12, 80], "path": ["0", "0", "12", "13", "14", "19", "20"], "rt": [1612, 991, 1440, 1941, 1665], "actions": ["right", "right", "right", "down", "right"], "actionTimes": [4488, 6005, 7950, 10400, 12588], "queries": {"click": {"state": {"target": [], "time": []}, "edge": {"target": [], "time": []}}, "mouseover": {"state": {"target": [], "time": []}, "edge": {"target": [], "time": []}}, "mouseout": {"state": {"target": ["19", "22", "0"], "time": [1375, 1425, 2075]}, "edge": {"target": [], "time": []}}}, "displayed_time": "16.88", "trialTime": 20720, "trial_type": "mouselab-mdp", "trial_index": 13, "time_elapsed": 830159, "internal_node_id": "0.0-6.0-1.0-4.0"}}, {"uniqueid": "w11186246:a95662775", "current_trial": 14, "dateTime": 1693565348821, "trialdata": {"revealed_states": [], "clicked_states": [], "num_clicks_accrued": [0, 0, 0, 0, 0, 0, 0, 0, 0, 0, 0, 0, 0], "stateRewards": ["", -2, 2, -4, -4, -59, 88, 62, -3, 69, -15, -34, 1, -2, -5, 7, -54, -20, 78, -16, -74, -53, -21, 2, -4, 2, 13, -8, -44, 26, 9, 72, 4, 17], "withholdReward": false, "trial_id": "mdp_trial_6", "block": "test", "trialIndex": 7, "score": -96, "costs": 0, "simulationMode": [null, null, null, null, null], "rewards": [1, -2, -5, -16, -74], "path": ["0", "0", "12", "13", "14", "19", "20"], "rt": [4714, 1472, 1241, 962, 1316], "actions": ["right", "right", "right", "down", "right"], "actionTimes": [6426, 8396, 10146, 11632, 13451], "queries": {"click": {"state": {"target": [], "time": []}, "edge": {"target": [], "time": []}}, "mouseover": {"state": {"target": [], "time": []}, "edge": {"target": [], "time": []}}, "mouseout": {"state": {"target": ["0"], "time": [1194]}, "edge": {"target": [], "time": []}}}, "displayed_time": "15.71", "trialTime": 19162, "trial_type": "mouselab-mdp", "trial_index": 14, "time_elapsed": 850118, "internal_node_id": "0.0-6.0-1.0-5.0"}}, {"uniqueid": "w11186246:a95662775", "current_trial": 15, "dateTime": 1693565372092, "trialdata": {"revealed_states": [], "clicked_states": [], "num_clicks_accrued": [0, 0, 0, 0, 0, 0, 0, 0, 0, 0, 0, 0, 0], "stateRewards": ["", -2, -3, -7, 7, -54, -69, -4, -14, -77, 22, 40, -2, -1, 5, 6, -35, 50, -60, 10, -28, 75, 57, 1, -4, -2, 2, 68, 34, -18, 12, 3, -21, -43], "withholdReward": false, "trial_id": "mdp_trial_7", "block": "test", "trialIndex": 8, "score": 87, "costs": 0, "simulationMode": [null, null, null, null, null], "rewards": [-2, -1, 5, 10, 75], "path": ["0", "0", "12", "13", "14", "19", "21"], "rt": [3447, 1583, 1114, 1257, 1237], "actions": ["right", "right", "right", "down", "down"], "actionTimes": [5271, 7367, 8996, 10755, 12515], "queries": {"click": {"state": {"target": [], "time": []}, "edge": {"target": [], "time": []}}, "mouseover": {"state": {"target": [], "time": []}, "edge": {"target": [], "time": []}}, "mouseout": {"state": {"target": ["0"], "time": [1308]}, "edge": {"target": [], "time": []}}}, "displayed_time": "15.83", "trialTime": 22377, "trial_type": "mouselab-mdp", "trial_index": 15, "time_elapsed": 873389, "internal_node_id": "0.0-6.0-1.0-6.0"}}, {"uniqueid": "w11186246:a95662775", "current_trial": 16, "dateTime": 1693565397974, "trialdata": {"revealed_states": [], "clicked_states": ["1", "2", "3", "4", "7"], "num_clicks_accrued": [0, 0, 0, 0, 0, 0, 0, 0, 0, 0, 0, 0, 0], "stateRewards": ["", 1, -1, -7, -7, -22, 15, -13, 13, 26, -32, 38, -1, 1, -7, -4, 16, -62, 86, 12, -54, 56, 64, -2, -1, 6, 14, -57, 37, 62, -6, -25, 50, -70], "withholdReward": false, "trial_id": "mdp_trial_8", "block": "test", "trialIndex": 9, "score": -30.75, "costs": -4.75, "simulationMode": [null, null, null, null, null], "rewards": [1, -1, -7, 13, -32], "path": ["0", "0", "1", "2", "3", "8", "10"], "rt": [10984, 1441, 1372, 1173, 1434], "actions": ["up", "up", "up", "left", "down"], "actionTimes": [13051, 15021, 16902, 18591, 20550], "queries": {"click": {"state": {"target": ["1", "2", "3", "4", "7"], "time": [2837, 3719, 4626, 5562, 6447]}, "edge": {"target": [], "time": []}}, "mouseover": {"state": {"target": ["1", "2", "3", "4", "7"], "time": [2493, 3346, 4303, 5263, 6041]}, "edge": {"target": [], "time": []}}, "mouseout": {"state": {"target": ["0", "1", "2", "3", "4"], "time": [1558, 3250, 3903, 5227, 5934]}, "edge": {"target": [], "time": []}}}, "displayed_time": "21.06", "trialTime": 25056, "trial_type": "mouselab-mdp", "trial_index": 16, "time_elapsed": 899272, "internal_node_id": "0.0-6.0-1.0-7.0"}}, {"uniqueid": "w11186246:a95662775", "current_trial": 17, "dateTime": 1693565418530, "trialdata": {"revealed_states": [], "clicked_states": [], "num_clicks_accrued": [0, 0, 0, 0, 0, 0, 0, 0, 0, 0, 0, 0, 0], "stateRewards": ["", -1, -1, 4, -16, -75, 81, -51, -7, -84, 73, -30, -2, 1, -3, -16, -77, 33, 14, 1, 45, 87, -66, 2, 2, -5, -7, -19, -17, 79, -3, 8, 49, 47], "withholdReward": false, "trial_id": "mdp_trial_9", "block": "test", "trialIndex": 10, "score": 42, "costs": 0, "simulationMode": [null, null, null, null, null], "rewards": [-2, 1, -3, 1, 45], "path": ["0", "0", "12", "13", "14", "19", "20"], "rt": [1752, 1037, 1583, 1477, 1406], "actions": ["right", "right", "right", "down", "right"], "actionTimes": [4646, 6204, 8297, 10289, 12216], "queries": {"click": {"state": {"target": [], "time": []}, "edge": {"target": [], "time": []}}, "mouseover": {"state": {"target": [], "time": []}, "edge": {"target": [], "time": []}}, "mouseout": {"state": {"target": ["7", "1"], "time": [1672, 1845]}, "edge": {"target": [], "time": []}}}, "displayed_time": "16.90", "trialTime": 19704, "trial_type": "mouselab-mdp", "trial_index": 17, "time_elapsed": 919827, "internal_node_id": "0.0-6.0-1.0-8.0"}}, {"uniqueid": "w11186246:a95662775", "current_trial": 18, "dateTime": 1693565444703, "trialdata": {"revealed_states": [], "clicked_states": ["23", "24", "25", "30", "31"], "num_clicks_accrued": [0, 0, 0, 0, 0, 0, 0, 0, 0, 0, 0, 0, 0], "stateRewards": ["", -1, -4, -1, -11, 43, 69, 39, 4, 17, -20, -82, -2, -1, 4, 8, -79, 24, -79, 11, 36, 64, 41, 2, 4, -1, 11, -79, -47, 75, -3, 63, -36, -19], "withholdReward": false, "trial_id": "mdp_trial_10", "block": "test", "trialIndex": 11, "score": 43.25, "costs": -4.75, "simulationMode": [null, null, null, null, null], "rewards": [-2, -1, 4, 11, 36], "path": ["0", "0", "12", "13", "14", "19", "20"], "rt": [11443, 1386, 1234, 1574, 2176], "actions": ["right", "right", "right", "down", "right"], "actionTimes": [14019, 15929, 17674, 19763, 22449], "queries": {"click": {"state": {"target": ["23", "24", "25", "30", "31"], "time": [3410, 4438, 5546, 6213, 7497]}, "edge": {"target": [], "time": []}}, "mouseover": {"state": {"target": ["23", "24", "25", "30", "31", "31"], "time": [3131, 4049, 5031, 6034, 6748, 7211]}, "edge": {"target": [], "time": []}}, "mouseout": {"state": {"target": ["0", "23", "24", "25", "30", "31"], "time": [2033, 3883, 4866, 5899, 6426, 6833]}, "edge": {"target": [], "time": []}}}, "displayed_time": "22.95", "trialTime": 25363, "trial_type": "mouselab-mdp", "trial_index": 18, "time_elapsed": 946000, "internal_node_id": "0.0-6.0-1.0-9.0"}}, {"uniqueid": "w11186246:a95662775", "current_trial": 19, "dateTime": 1693565465069, "trialdata": {"revealed_states": [], "clicked_states": [], "num_clicks_accrued": [0, 0, 0, 0, 0, 0, 0, 0, 0, 0, 0, 0, 0], "stateRewards": ["", -2, 2, -1, -6, 22, 6, 6, -5, 70, -42, 65, 1, 3, 5, -6, -67, -9, 3, 14, 7, -62, -13, -2, 4, 1, 16, 42, -21, -52, -8, 32, 53, 81], "withholdReward": false, "trial_id": "mdp_trial_11", "block": "test", "trialIndex": 12, "score": 30, "costs": 0, "simulationMode": [null, null, null, null, null], "rewards": [1, 3, 5, 14, 7], "path": ["0", "0", "12", "13", "14", "19", "20"], "rt": [1756, 1535, 2354, 1336, 1880], "actions": ["right", "right", "right", "down", "right"], "actionTimes": [4557, 6618, 9487, 11331, 13722], "queries": {"click": {"state": {"target": [], "time": []}, "edge": {"target": [], "time": []}}, "mouseover": {"state": {"target": [], "time": []}, "edge": {"target": [], "time": []}}, "mouseout": {"state": {"target": ["31", "0"], "time": [1529, 1944]}, "edge": {"target": [], "time": []}}}, "displayed_time": "16.80", "trialTime": 19451, "trial_type": "mouselab-mdp", "trial_index": 19, "time_elapsed": 966367, "internal_node_id": "0.0-6.0-1.0-10.0"}}, {"uniqueid": "w11186246:a95662775", "current_trial": 20, "dateTime": 1693565483724, "trialdata": {"revealed_states": [], "clicked_states": [], "num_clicks_accrued": [0, 0, 0, 0, 0, 0, 0, 0, 0, 0, 0, 0, 0], "stateRewards": ["", 1, 2, 8, -2, 23, -69, -18, -16, 54, -21, 71, -1, -4, 7, 11, 43, -6, 88, 6, -55, 72, 43, 1, -3, -2, -1, 68, -31, -54, 4, -8, 25, -2], "withholdReward": false, "trial_id": "mdp_trial_12", "block": "test", "trialIndex": 13, "score": -47, "costs": 0, "simulationMode": [null, null, null, null, null], "rewards": [-1, -4, 7, 6, -55], "path": ["0", "0", "12", "13", "14", "19", "20"], "rt": [1579, 1413, 1421, 1547, 1544], "actions": ["right", "right", "right", "down", "right"], "actionTimes": [3833, 5747, 7688, 9744, 11806], "queries": {"click": {"state": {"target": [], "time": []}, "edge": {"target": [], "time": []}}, "mouseover": {"state": {"target": [], "time": []}, "edge": {"target": [], "time": []}}, "mouseout": {"state": {"target": ["0"], "time": [1655]}, "edge": {"target": [], "time": []}}}, "displayed_time": "16.25", "trialTime": 17741, "trial_type": "mouselab-mdp", "trial_index": 20, "time_elapsed": 985021, "internal_node_id": "0.0-6.0-1.0-11.0"}}, {"uniqueid": "w11186246:a95662775", "current_trial": 21, "dateTime": 1693565502044, "trialdata": {"revealed_states": [], "clicked_states": [], "num_clicks_accrued": [0, 0, 0, 0, 0, 0, 0, 0, 0, 0, 0, 0, 0], "stateRewards": ["", -2, -4, 4, -11, -63, -60, -7, 2, -14, 81, -43, -1, -1, -5, 7, 10, 69, 40, 8, -83, 52, 60, 1, 2, 5, -5, 16, 64, 14, -3, 29, 7, -51], "withholdReward": false, "trial_id": "mdp_trial_13", "block": "test", "trialIndex": 14, "score": -43, "costs": 0, "simulationMode": [null, null, null, null, null], "rewards": [-2, -4, 4, 2, -43], "path": ["0", "0", "1", "2", "3", "8", "11"], "rt": [3121, 1136, 1402, 1181, 1705], "actions": ["up", "up", "up", "left", "left"], "actionTimes": [5014, 6675, 8588, 10281, 12487], "queries": {"click": {"state": {"target": [], "time": []}, "edge": {"target": [], "time": []}}, "mouseover": {"state": {"target": [], "time": []}, "edge": {"target": [], "time": []}}, "mouseout": {"state": {"target": ["0"], "time": [1298]}, "edge": {"target": [], "time": []}}}, "displayed_time": "15.89", "trialTime": 17449, "trial_type": "mouselab-mdp", "trial_index": 21, "time_elapsed": 1003341, "internal_node_id": "0.0-6.0-1.0-12.0"}}, {"uniqueid": "w11186246:a95662775", "current_trial": 22, "dateTime": 1693565520560, "trialdata": {"revealed_states": [], "clicked_states": [], "num_clicks_accrued": [0, 0, 0, 0, 0, 0, 0, 0, 0, 0, 0, 0, 0], "stateRewards": ["", 1, -3, 4, 13, -72, 52, 5, 5, -58, 5, 14, 2, 1, 3, -14, -86, -4, 73, 6, -58, -50, 49, 2, -3, -4, 2, 33, -41, 42, -11, 81, 45, 53], "withholdReward": false, "trial_id": "mdp_trial_14", "block": "test", "trialIndex": 15, "score": 65, "costs": 0, "simulationMode": [null, null, null, null, null], "rewards": [2, 1, 3, -14, 73], "path": ["0", "0", "12", "13", "14", "15", "18"], "rt": [2675, 1454, 1798, 2139, 1792], "actions": ["right", "right", "right", "up", "left"], "actionTimes": [4292, 6274, 8588, 11240, 13545], "queries": {"click": {"state": {"target": [], "time": []}, "edge": {"target": [], "time": []}}, "mouseover": {"state": {"target": [], "time": []}, "edge": {"target": [], "time": []}}, "mouseout": {"state": {"target": ["0"], "time": [999]}, "edge": {"target": [], "time": []}}}, "displayed_time": "15.62", "trialTime": 17378, "trial_type": "mouselab-mdp", "trial_index": 22, "time_elapsed": 1021857, "internal_node_id": "0.0-6.0-1.0-13.0"}}, {"uniqueid": "w11186246:a95662775", "current_trial": 23, "dateTime": 1693565539120, "trialdata": {"revealed_states": [], "clicked_states": [], "num_clicks_accrued": [0, 0, 0, 0, 0, 0, 0, 0, 0, 0, 0, 0, 0], "stateRewards": ["", -2, -3, 7, -13, 60, 9, 37, -6, 37, 20, 1, 2, -2, -8, 6, -80, -31, -10, -7, 70, -65, -44, -1, 1, 7, 6, -11, 73, -85, 16, -21, 47, 34], "withholdReward": false, "trial_id": "mdp_trial_15", "block": "test", "trialIndex": 16, "score": 55, "costs": 0, "simulationMode": [null, null, null, null, null], "rewards": [2, -2, -8, -7, 70], "path": ["0", "0", "12", "13", "14", "19", "20"], "rt": [1228, 1251, 1201, 3067, 3421], "actions": ["right", "right", "right", "down", "right"], "actionTimes": [3445, 5219, 6932, 10498, 14434], "queries": {"click": {"state": {"target": [], "time": []}, "edge": {"target": [], "time": []}}, "mouseover": {"state": {"target": [], "time": []}, "edge": {"target": [], "time": []}}, "mouseout": {"state": {"target": ["0"], "time": [1549]}, "edge": {"target": [], "time": []}}}, "displayed_time": "16.22", "trialTime": 17617, "trial_type": "mouselab-mdp", "trial_index": 23, "time_elapsed": 1040417, "internal_node_id": "0.0-6.0-1.0-14.0"}}, {"uniqueid": "w11186246:a95662775", "current_trial": 24, "dateTime": 1693565564341, "trialdata": {"revealed_states": [], "clicked_states": [], "num_clicks_accrued": [0, 0, 0, 0, 0, 0, 0, 0, 0, 0, 0, 0, 0], "stateRewards": ["", -1, 3, -7, 16, -32, -74, -48, 2, 10, 15, -30, 1, 1, -2, 10, 12, -83, 67, 13, -66, 47, 65, -2, 4, 2, -14, -8, -57, 24, 9, 65, 12, 46], "withholdReward": false, "trial_id": "mdp_trial_16", "block": "test", "trialIndex": 17, "score": 77, "costs": 0, "simulationMode": [null, null, null, null, null], "rewards": [1, 1, -2, 10, 67], "path": ["0", "0", "12", "13", "14", "15", "18"], "rt": [4967, 3061, 2462, 2913, 3478], "actions": ["right", "right", "right", "up", "left"], "actionTimes": [7079, 10659, 13640, 17071, 21050], "queries": {"click": {"state": {"target": [], "time": []}, "edge": {"target": [], "time": []}}, "mouseover": {"state": {"target": [], "time": []}, "edge": {"target": [], "time": []}}, "mouseout": {"state": {"target": ["0"], "time": [1541]}, "edge": {"target": [], "time": []}}}, "displayed_time": "21.55", "trialTime": 24306, "trial_type": "mouselab-mdp", "trial_index": 24, "time_elapsed": 1065639, "internal_node_id": "0.0-6.0-1.0-15.0"}}, {"uniqueid": "w11186246:a95662775", "current_trial": 25, "dateTime": 1693565585289, "trialdata": {"revealed_states": [], "clicked_states": [], "num_clicks_accrued": [0, 0, 0, 0, 0, 0, 0, 0, 0, 0, 0, 0, 0], "stateRewards": ["", 1, 4, 7, -16, -84, -6, -46, -12, -7, -49, -26, -1, 2, -4, 2, 22, 37, -64, 1, 88, -13, -10, 1, -4, -2, 5, 2, -10, -34, 9, 66, 55, 38], "withholdReward": false, "trial_id": "mdp_trial_17", "block": "test", "trialIndex": 18, "score": 86, "costs": 0, "simulationMode": [null, null, null, null, null], "rewards": [-1, 2, -4, 1, 88], "path": ["0", "0", "12", "13", "14", "19", "20"], "rt": [1456, 2055, 3925, 2440, 2779], "actions": ["right", "right", "right", "down", "right"], "actionTimes": [3876, 6445, 10878, 13824, 17127], "queries": {"click": {"state": {"target": [], "time": []}, "edge": {"target": [], "time": []}}, "mouseover": {"state": {"target": [], "time": []}, "edge": {"target": [], "time": []}}, "mouseout": {"state": {"target": ["0"], "time": [1832]}, "edge": {"target": [], "time": []}}}, "displayed_time": "17.63", "trialTime": 20016, "trial_type": "mouselab-mdp", "trial_index": 25, "time_elapsed": 1086587, "internal_node_id": "0.0-6.0-1.0-16.0"}}, {"uniqueid": "w11186246:a95662775", "current_trial": 26, "dateTime": 1693565604558, "trialdata": {"revealed_states": [], "clicked_states": [], "num_clicks_accrued": [0, 0, 0, 0, 0, 0, 0, 0, 0, 0, 0, 0, 0], "stateRewards": ["", -1, 2, 5, -6, 13, -64, -47, 8, -79, -80, -33, 1, 2, -2, -16, 56, -71, -10, 3, 29, 44, 85, -1, 4, 5, 4, -36, -56, 19, 8, 52, -13, -2], "withholdReward": false, "trial_id": "mdp_trial_18", "block": "test", "trialIndex": 19, "score": -25, "costs": 0, "simulationMode": [null, null, null, null, null], "rewards": [1, 2, -2, -16, -10], "path": ["0", "0", "12", "13", "14", "15", "18"], "rt": [2970, 2273, 1770, 1987, 2515], "actions": ["right", "right", "right", "up", "left"], "actionTimes": [4940, 7724, 10049, 12534, 15559], "queries": {"click": {"state": {"target": [], "time": []}, "edge": {"target": [], "time": []}}, "mouseover": {"state": {"target": [], "time": []}, "edge": {"target": [], "time": []}}, "mouseout": {"state": {"target": ["0"], "time": [1340]}, "edge": {"target": [], "time": []}}}, "displayed_time": "16.08", "trialTime": 18215, "trial_type": "mouselab-mdp", "trial_index": 26, "time_elapsed": 1105855, "internal_node_id": "0.0-6.0-1.0-17.0"}}, {"uniqueid": "w11186246:a95662775", "current_trial": 27, "dateTime": 1693565626822, "trialdata": {"revealed_states": [], "clicked_states": [], "num_clicks_accrued": [0, 0, 0, 0, 0, 0, 0, 0, 0, 0, 0, 0, 0], "stateRewards": ["", 1, 2, -3, -5, 66, -50, -47, -5, 1, 28, -27, 1, 1, -1, -6, 37, -25, 56, 1, -82, -66, -40, -1, -4, -7, 15, -61, -23, 26, 10, 14, -56, 29], "withholdReward": false, "trial_id": "mdp_trial_19", "block": "test", "trialIndex": 20, "score": 29, "costs": 0, "simulationMode": [null, null, null, null, null], "rewards": [-1, -4, -7, 15, 26], "path": ["0", "0", "23", "24", "25", "26", "29"], "rt": [3118, 747, 792, 782, 2242], "actions": ["left", "left", "left", "up", "left"], "actionTimes": [9250, 10521, 11840, 13164, 15921], "queries": {"click": {"state": {"target": [], "time": []}, "edge": {"target": [], "time": []}}, "mouseover": {"state": {"target": [], "time": []}, "edge": {"target": [], "time": []}}, "mouseout": {"state": {"target": ["0", "0", "0"], "time": [4649, 4800, 6832]}, "edge": {"target": [], "time": []}}}, "displayed_time": "20.14", "trialTime": 21313, "trial_type": "mouselab-mdp", "trial_index": 27, "time_elapsed": 1128119, "internal_node_id": "0.0-6.0-1.0-18.0"}}, {"uniqueid": "w11186246:a95662775", "current_trial": 28, "dateTime": 1693565647773, "trialdata": {"revealed_states": [], "clicked_states": [], "num_clicks_accrued": [0, 0, 0, 0, 0, 0, 0, 0, 0, 0, 0, 0, 0], "stateRewards": ["", -2, 1, -8, 12, -65, -79, 16, 7, -80, -17, -45, -2, 2, -5, -2, -85, 23, -4, -7, 48, 27, -76, 2, 3, 5, 2, 43, 71, -13, 7, -49, 59, -31], "withholdReward": false, "trial_id": "mdp_trial_20", "block": "test", "trialIndex": 21, "score": 83, "costs": 0, "simulationMode": [null, null, null, null, null], "rewards": [2, 3, 5, 2, 71], "path": ["0", "0", "23", "24", "25", "26", "28"], "rt": [3946, 1348, 1621, 1903, 2165], "actions": ["left", "left", "left", "up", "right"], "actionTimes": [8352, 10210, 12348, 14761, 17437], "queries": {"click": {"state": {"target": [], "time": []}, "edge": {"target": [], "time": []}}, "mouseover": {"state": {"target": [], "time": []}, "edge": {"target": [], "time": []}}, "mouseout": {"state": {"target": [], "time": []}, "edge": {"target": [], "time": []}}}, "displayed_time": "18.41", "trialTime": 19879, "trial_type": "mouselab-mdp", "trial_index": 28, "time_elapsed": 1149070, "internal_node_id": "0.0-6.0-1.0-19.0"}}, {"uniqueid": "w11186246:a95662775", "current_trial": 29, "dateTime": 1693565665921, "trialdata": {"revealed_states": [], "clicked_states": [], "num_clicks_accrued": [0, 0, 0, 0, 0, 0, 0, 0, 0, 0, 0, 0, 0], "stateRewards": ["", 2, -4, 7, 3, 23, -42, 4, 7, -81, -33, 7, -2, -4, 5, -1, 50, -57, -14, -13, -14, 44, 55, -2, -2, 5, -2, 33, 1, 57, -13, -7, 58, 87], "withholdReward": false, "trial_id": "mdp_trial_21", "block": "test", "trialIndex": 22, "score": 32, "costs": 0, "simulationMode": [null, null, null, null, null], "rewards": [-2, -2, 5, -2, 33], "path": ["0", "0", "23", "24", "25", "26", "27"], "rt": [1444, 2418, 2244, 2336, 1860], "actions": ["left", "left", "left", "up", "up"], "actionTimes": [3313, 6242, 8998, 11840, 14227], "queries": {"click": {"state": {"target": [], "time": []}, "edge": {"target": [], "time": []}}, "mouseover": {"state": {"target": [], "time": []}, "edge": {"target": [], "time": []}}, "mouseout": {"state": {"target": [], "time": []}, "edge": {"target": [], "time": []}}}, "displayed_time": "15.87", "trialTime": 17137, "trial_type": "mouselab-mdp", "trial_index": 29, "time_elapsed": 1167219, "internal_node_id": "0.0-6.0-1.0-20.0"}}, {"uniqueid": "w11186246:a95662775", "current_trial": 30, "dateTime": 1693565687360, "trialdata": {"revealed_states": [], "clicked_states": [], "num_clicks_accrued": [0, 0, 0, 0, 0, 0, 0, 0, 0, 0, 0, 0, 0], "stateRewards": ["", 1, -1, 1, 13, 31, -56, 72, 2, 41, 5, 63, -2, -3, -2, 3, -71, -26, 52, 13, -31, 24, -67, 2, -2, 5, 4, 66, 43, 72, 9, 86, -26, 44], "withholdReward": false, "trial_id": "mdp_trial_22", "block": "test", "trialIndex": 23, "score": 58, "costs": 0, "simulationMode": [null, null, null, null, null], "rewards": [2, -2, 5, 9, 44], "path": ["0", "0", "23", "24", "25", "30", "33"], "rt": [3185, 2436, 2564, 3003, 2878], "actions": ["left", "left", "left", "down", "left"], "actionTimes": [5366, 8316, 11393, 14925, 18312], "queries": {"click": {"state": {"target": [], "time": []}, "edge": {"target": [], "time": []}}, "mouseover": {"state": {"target": [], "time": []}, "edge": {"target": [], "time": []}}, "mouseout": {"state": {"target": [], "time": []}, "edge": {"target": [], "time": []}}}, "displayed_time": "18.82", "trialTime": 20418, "trial_type": "mouselab-mdp", "trial_index": 30, "time_elapsed": 1188658, "internal_node_id": "0.0-6.0-1.0-21.0"}}, {"uniqueid": "w11186246:a95662775", "current_trial": 31, "dateTime": 1693565707053, "trialdata": {"revealed_states": [], "clicked_states": [], "num_clicks_accrued": [0, 0, 0, 0, 0, 0, 0, 0, 0, 0, 0, 0, 0], "stateRewards": ["", -1, 2, -6, 6, -82, -19, -39, -16, -83, 11, -33, -2, -2, 4, -6, -82, -1, -19, -6, -10, -67, -41, -2, 1, -7, 16, -23, -78, -52, 14, 31, -71, 74], "withholdReward": false, "trial_id": "mdp_trial_23", "block": "test", "trialIndex": 24, "score": 37, "costs": 0, "simulationMode": [null, null, null, null, null], "rewards": [-2, 1, -7, 14, 31], "path": ["0", "0", "23", "24", "25", "30", "31"], "rt": [3772, 2016, 1901, 2142, 2757], "actions": ["left", "left", "left", "down", "right"], "actionTimes": [5462, 7995, 10412, 13069, 16329], "queries": {"click": {"state": {"target": [], "time": []}, "edge": {"target": [], "time": []}}, "mouseover": {"state": {"target": [], "time": []}, "edge": {"target": [], "time": []}}, "mouseout": {"state": {"target": [], "time": []}, "edge": {"target": [], "time": []}}}, "displayed_time": "16.84", "trialTime": 18710, "trial_type": "mouselab-mdp", "trial_index": 31, "time_elapsed": 1208351, "internal_node_id": "0.0-6.0-1.0-22.0"}}, {"uniqueid": "w11186246:a95662775", "current_trial": 32, "dateTime": 1693565725775, "trialdata": {"revealed_states": [], "clicked_states": [], "num_clicks_accrued": [0, 0, 0, 0, 0, 0, 0, 0, 0, 0, 0, 0, 0], "stateRewards": ["", -2, 1, -7, 9, 8, 25, 61, -7, -17, 69, -81, 1, 4, -4, -11, 16, 67, 44, 3, 6, -45, -54, -2, 3, 6, -11, -15, 32, -47, 3, -39, -6, -88], "withholdReward": false, "trial_id": "mdp_trial_24", "block": "test", "trialIndex": 25, "score": 4, "costs": 0, "simulationMode": [null, null, null, null, null], "rewards": [-2, 3, 6, 3, -6], "path": ["0", "0", "23", "24", "25", "30", "32"], "rt": [3250, 1705, 1756, 2141, 2411], "actions": ["left", "left", "left", "down", "down"], "actionTimes": [5177, 7397, 9664, 12313, 15241], "queries": {"click": {"state": {"target": [], "time": []}, "edge": {"target": [], "time": []}}, "mouseover": {"state": {"target": [], "time": []}, "edge": {"target": [], "time": []}}, "mouseout": {"state": {"target": [], "time": []}, "edge": {"target": [], "time": []}}}, "displayed_time": "15.93", "trialTime": 17697, "trial_type": "mouselab-mdp", "trial_index": 32, "time_elapsed": 1227072, "internal_node_id": "0.0-6.0-1.0-23.0"}}, {"uniqueid": "w11186246:a95662775", "current_trial": 33, "dateTime": 1693565744072, "trialdata": {"revealed_states": [], "clicked_states": [], "num_clicks_accrued": [0, 0, 0, 0, 0, 0, 0, 0, 0, 0, 0, 0, 0], "stateRewards": ["", -2, -1, -1, 5, -54, -87, 35, 2, -8, 20, -22, 1, 3, 6, 13, -75, -32, -55, -3, 56, 62, -22, -1, -4, -1, -7, -51, 84, 70, 7, -15, 5, 55], "withholdReward": false, "trial_id": "mdp_trial_25", "block": "test", "trialIndex": 26, "score": 18, "costs": 0, "simulationMode": [null, null, null, null, null], "rewards": [-2, -1, -1, 2, 20], "path": ["0", "0", "1", "2", "3", "8", "10"], "rt": [2395, 1833, 2037, 2011, 2087], "actions": ["up", "up", "up", "left", "down"], "actionTimes": [4443, 6792, 9345, 11885, 14520], "queries": {"click": {"state": {"target": [], "time": []}, "edge": {"target": [], "time": []}}, "mouseover": {"state": {"target": [], "time": []}, "edge": {"target": [], "time": []}}, "mouseout": {"state": {"target": [], "time": []}, "edge": {"target": [], "time": []}}}, "displayed_time": "16.05", "trialTime": 17242, "trial_type": "mouselab-mdp", "trial_index": 33, "time_elapsed": 1245369, "internal_node_id": "0.0-6.0-1.0-24.0"}}, {"uniqueid": "w11186246:a95662775", "current_trial": 34, "dateTime": 1693565766752, "trialdata": {"revealed_states": [], "clicked_states": [], "num_clicks_accrued": [0, 0, 0, 0, 0, 0, 0, 0, 0, 0, 0, 0, 0], "stateRewards": ["", -1, 3, -5, -2, -13, -9, -34, -7, -81, 32, 35, -2, -2, 1, -14, -32, 81, 7, 4, 82, 56, -8, -1, 3, -8, 6, -24, -24, -53, 2, 38, 61, 54], "withholdReward": false, "trial_id": "mdp_trial_26", "block": "test", "trialIndex": 27, "score": -91, "costs": 0, "simulationMode": [null, null, null, null, null], "rewards": [-1, 3, -5, -7, -81], "path": ["0", "0", "1", "2", "3", "8", "9"], "rt": [1676, 2021, 2266, 2179, 3609], "actions": ["up", "up", "up", "left", "up"], "actionTimes": [3684, 6218, 8994, 11689, 15818], "queries": {"click": {"state": {"target": [], "time": []}, "edge": {"target": [], "time": []}}, "mouseover": {"state": {"target": [], "time": []}, "edge": {"target": [], "time": []}}, "mouseout": {"state": {"target": [], "time": []}, "edge": {"target": [], "time": []}}}, "displayed_time": "16.35", "trialTime": 21559, "trial_type": "mouselab-mdp", "trial_index": 34, "time_elapsed": 1268050, "internal_node_id": "0.0-6.0-1.0-25.0"}}, {"uniqueid": "w11186246:a95662775", "current_trial": 35, "dateTime": 1693565788533, "trialdata": {"revealed_states": [], "clicked_states": [], "num_clicks_accrued": [0, 0, 0, 0, 0, 0, 0, 0, 0, 0, 0, 0, 0], "stateRewards": ["", -1, -2, -1, -10, -57, 73, -72, -16, 75, -14, -46, -2, -3, -7, -1, -61, -60, 76, -4, 50, 4, 14, 2, 2, -7, 12, -65, -32, 15, -8, -76, -25, -61], "withholdReward": false, "trial_id": "mdp_trial_27", "block": "test", "trialIndex": 28, "score": -66, "costs": 0, "simulationMode": [null, null, null, null, null], "rewards": [-1, -2, -1, -16, -46], "path": ["0", "0", "1", "2", "3", "8", "11"], "rt": [3784, 2652, 2087, 2142, 2263], "actions": ["up", "up", "up", "left", "left"], "actionTimes": [6114, 9294, 11899, 14552, 17320], "queries": {"click": {"state": {"target": [], "time": []}, "edge": {"target": [], "time": []}}, "mouseover": {"state": {"target": [], "time": []}, "edge": {"target": [], "time": []}}, "mouseout": {"state": {"target": [], "time": []}, "edge": {"target": [], "time": []}}}, "displayed_time": "17.86", "trialTime": 20628, "trial_type": "mouselab-mdp", "trial_index": 35, "time_elapsed": 1289830, "internal_node_id": "0.0-6.0-1.0-26.0"}}, {"uniqueid": "w11186246:a95662775", "current_trial": 36, "dateTime": 1693565806911, "trialdata": {"revealed_states": [], "clicked_states": [], "num_clicks_accrued": [0, 0, 0, 0, 0, 0, 0, 0, 0, 0, 0, 0, 0], "stateRewards": ["", -2, 3, -5, -7, 66, 43, -60, -4, -70, -75, 4, -1, 2, 2, -13, 54, 11, -40, -1, 77, 32, 15, -2, 3, -8, -9, -35, 83, -27, 6, -74, -34, 44], "withholdReward": false, "trial_id": "mdp_trial_28", "block": "test", "trialIndex": 29, "score": 55, "costs": 0, "simulationMode": [null, null, null, null, null], "rewards": [-2, 3, -5, -7, 66], "path": ["0", "0", "1", "2", "3", "4", "5"], "rt": [1148, 1889, 1960, 2155, 2321], "actions": ["up", "up", "up", "right", "up"], "actionTimes": [2977, 5384, 7868, 10546, 13375], "queries": {"click": {"state": {"target": [], "time": []}, "edge": {"target": [], "time": []}}, "mouseover": {"state": {"target": [], "time": []}, "edge": {"target": [], "time": []}}, "mouseout": {"state": {"target": [], "time": []}, "edge": {"target": [], "time": []}}}, "displayed_time": "15.83", "trialTime": 17103, "trial_type": "mouselab-mdp", "trial_index": 36, "time_elapsed": 1308209, "internal_node_id": "0.0-6.0-1.0-27.0"}}, {"uniqueid": "w11186246:a95662775", "current_trial": 37, "dateTime": 1693565828045, "trialdata": {"revealed_states": [], "clicked_states": [], "num_clicks_accrued": [0, 0, 0, 0, 0, 0, 0, 0, 0, 0, 0, 0, 0], "stateRewards": ["", -1, 1, 3, -8, -23, -15, -14, -11, -23, 58, 68, 1, 3, 5, 12, -17, -41, -7, -10, -4, 82, 10, 1, 4, -4, 11, 73, 55, -55, -1, -86, -86, 54], "withholdReward": false, "trial_id": "mdp_trial_29", "block": "test", "trialIndex": 30, "score": -20, "costs": 0, "simulationMode": [null, null, null, null, null], "rewards": [-1, 1, 3, -8, -15], "path": ["0", "0", "1", "2", "3", "4", "6"], "rt": [1657, 3496, 3331, 1777, 2561], "actions": ["up", "up", "up", "right", "right"], "actionTimes": [3901, 7916, 11748, 14039, 17130], "queries": {"click": {"state": {"target": [], "time": []}, "edge": {"target": [], "time": []}}, "mouseover": {"state": {"target": [], "time": []}, "edge": {"target": [], "time": []}}, "mouseout": {"state": {"target": [], "time": []}, "edge": {"target": [], "time": []}}}, "displayed_time": "17.68", "trialTime": 19862, "trial_type": "mouselab-mdp", "trial_index": 37, "time_elapsed": 1329343, "internal_node_id": "0.0-6.0-1.0-28.0"}}, {"uniqueid": "w11186246:a95662775", "current_trial": 38, "dateTime": 1693565854809, "trialdata": {"revealed_states": [], "clicked_states": [], "num_clicks_accrued": [0, 0, 0, 0, 0, 0, 0, 0, 0, 0, 0, 0, 0], "stateRewards": ["", -1, -3, -5, -14, -13, -47, 79, 8, -60, -64, 41, -1, 2, 3, 13, -46, 61, -79, -11, -64, -65, 23, 1, -2, 6, -14, 46, 32, 21, 7, 75, -66, 15], "withholdReward": false, "trial_id": "mdp_trial_30", "block": "test", "trialIndex": 31, "score": 16, "costs": 0, "simulationMode": [null, null, null, null, null], "rewards": [-1, 2, 3, -11, 23], "path": ["0", "0", "12", "13", "14", "19", "22"], "rt": [14209, 8, 260, 879, 818], "actions": ["right", "right", "right", "down", "left"], "actionTimes": [16821, 17353, 18145, 19546, 20884], "queries": {"click": {"state": {"target": [], "time": []}, "edge": {"target": [], "time": []}}, "mouseover": {"state": {"target": [], "time": []}, "edge": {"target": [], "time": []}}, "mouseout": {"state": {"target": [], "time": []}, "edge": {"target": [], "time": []}}}, "displayed_time": "21.40", "trialTime": 25720, "trial_type": "mouselab-mdp", "trial_index": 38, "time_elapsed": 1356106, "internal_node_id": "0.0-6.0-1.0-29.0"}}, {"uniqueid": "w11186246:a95662775", "current_trial": 39, "dateTime": 1693565888984, "trialdata": {"revealed_states": [], "clicked_states": [], "num_clicks_accrued": [0, 0, 0, 0, 0, 0, 0, 0, 0, 0, 0, 0, 0], "stateRewards": ["", -2, -3, 1, -7, 39, -67, 16, 5, -20, 73, 66, -1, 4, 5, -3, 23, -68, -87, -8, 3, -3, 17, 1, -4, -2, -13, -32, 34, 61, -5, -11, -18, 12], "withholdReward": false, "trial_id": "mdp_trial_31", "block": "test", "trialIndex": 32, "score": -3, "costs": 0, "simulationMode": [null, null, null, null, null], "rewards": [-1, 4, 5, -8, -3], "path": ["0", "0", "12", "13", "14", "19", "21"], "rt": [3783, 18566, 919, 1373, 775], "actions": ["right", "right", "right", "down", "down"], "actionTimes": [6235, 25322, 26758, 28650, 29950], "queries": {"click": {"state": {"target": [], "time": []}, "edge": {"target": [], "time": []}}, "mouseover": {"state": {"target": [], "time": []}, "edge": {"target": [], "time": []}}, "mouseout": {"state": {"target": ["0"], "time": [21338]}, "edge": {"target": [], "time": []}}}, "displayed_time": "30.47", "trialTime": 32746, "trial_type": "mouselab-mdp", "trial_index": 39, "time_elapsed": 1390281, "internal_node_id": "0.0-6.0-1.0-30.0"}}, {"uniqueid": "w11186246:a95662775", "current_trial": 40, "dateTime": 1693565915071, "trialdata": {"revealed_states": [], "clicked_states": [], "num_clicks_accrued": [0, 0, 0, 0, 0, 0, 0, 0, 0, 0, 0, 0, 0], "stateRewards": ["", -2, 3, 3, -14, 62, 36, 49, 16, 11, 17, -84, 2, -1, 6, 2, -82, -73, 49, -6, -87, 48, 50, -1, -2, -1, -16, -11, 37, -44, 4, 55, 73, -10], "withholdReward": false, "trial_id": "mdp_trial_32", "block": "test", "trialIndex": 33, "score": -86, "costs": 0, "simulationMode": [null, null, null, null, null], "rewards": [2, -1, 6, -6, -87], "path": ["0", "0", "12", "13", "14", "19", "20"], "rt": [2032, 2614, 2660, 4517, 2086], "actions": ["right", "right", "right", "down", "right"], "actionTimes": [6416, 9551, 12728, 17791, 20441], "queries": {"click": {"state": {"target": [], "time": []}, "edge": {"target": [], "time": []}}, "mouseover": {"state": {"target": [], "time": []}, "edge": {"target": [], "time": []}}, "mouseout": {"state": {"target": [], "time": []}, "edge": {"target": [], "time": []}}}, "displayed_time": "20.94", "trialTime": 24879, "trial_type": "mouselab-mdp", "trial_index": 40, "time_elapsed": 1416368, "internal_node_id": "0.0-6.0-1.0-31.0"}}, {"uniqueid": "w11186246:a95662775", "current_trial": 41, "dateTime": 1693565935963, "trialdata": {"revealed_states": [], "clicked_states": [], "num_clicks_accrued": [0, 0, 0, 0, 0, 0, 0, 0, 0, 0, 0, 0, 0], "stateRewards": ["", -2, 2, 3, -7, 76, 63, 21, 15, 35, -8, -44, 1, 1, -2, -12, 23, 24, 76, -9, 46, 66, -49, -2, -1, 7, 12, 40, -71, -45, -6, 38, -49, 46], "withholdReward": false, "trial_id": "mdp_trial_33", "block": "test", "trialIndex": 34, "score": 64, "costs": 0, "simulationMode": [null, null, null, null, null], "rewards": [1, 1, -2, -12, 76], "path": ["0", "0", "12", "13", "14", "15", "18"], "rt": [659, 2201, 2224, 1648, 1614], "actions": ["right", "right", "right", "up", "left"], "actionTimes": [3484, 6195, 8932, 11088, 13216], "queries": {"click": {"state": {"target": [], "time": []}, "edge": {"target": [], "time": []}}, "mouseover": {"state": {"target": [], "time": []}, "edge": {"target": [], "time": []}}, "mouseout": {"state": {"target": [], "time": []}, "edge": {"target": [], "time": []}}}, "displayed_time": "16.83", "trialTime": 19763, "trial_type": "mouselab-mdp", "trial_index": 41, "time_elapsed": 1437260, "internal_node_id": "0.0-6.0-1.0-32.0"}}, {"uniqueid": "w11186246:a95662775", "current_trial": 42, "dateTime": 1693565963629, "trialdata": {"revealed_states": [], "clicked_states": [], "num_clicks_accrued": [0, 0, 0, 0, 0, 0, 0, 0, 0, 0, 0, 0, 0], "stateRewards": ["", -2, -1, -2, -15, 87, 57, 29, -10, 77, -80, -7, 1, -3, 6, 14, -11, 87, -59, 4, -71, 16, -11, 2, 2, -7, 2, -47, 61, 50, 14, -20, 17, 81], "withholdReward": false, "trial_id": "mdp_trial_34", "block": "test", "trialIndex": 35, "score": 7, "costs": 0, "simulationMode": [null, null, null, null, null], "rewards": [1, -3, 6, 14, -11], "path": ["0", "0", "12", "13", "14", "15", "16"], "rt": [1736, 1637, 7956, 2731, 3119], "actions": ["right", "right", "right", "up", "up"], "actionTimes": [3947, 6098, 14567, 17820, 21452], "queries": {"click": {"state": {"target": [], "time": []}, "edge": {"target": [], "time": []}}, "mouseover": {"state": {"target": [], "time": []}, "edge": {"target": [], "time": []}}, "mouseout": {"state": {"target": [], "time": []}, "edge": {"target": [], "time": []}}}, "displayed_time": "21.97", "trialTime": 26434, "trial_type": "mouselab-mdp", "trial_index": 42, "time_elapsed": 1464926, "internal_node_id": "0.0-6.0-1.0-33.0"}}, {"uniqueid": "w11186246:a95662775", "current_trial": 43, "dateTime": 1693565985372, "trialdata": {"revealed_states": [], "clicked_states": [], "num_clicks_accrued": [0, 0, 0, 0, 0, 0, 0, 0, 0, 0, 0, 0, 0], "stateRewards": ["", -2, 2, 3, -7, -31, -33, 29, -8, -57, 50, -83, -1, -1, 5, 13, -23, -62, 25, 5, -66, -85, 14, 1, -2, -1, 16, 71, 33, -19, -14, 5, -43, 79], "withholdReward": false, "trial_id": "mdp_trial_35", "block": "test", "trialIndex": 36, "score": 41, "costs": 0, "simulationMode": [null, null, null, null, null], "rewards": [-1, -1, 5, 13, 25], "path": ["0", "0", "12", "13", "14", "15", "18"], "rt": [4849, 1220, 1561, 1819, 2851], "actions": ["right", "right", "right", "up", "left"], "actionTimes": [6567, 8301, 10407, 12746, 16109], "queries": {"click": {"state": {"target": [], "time": []}, "edge": {"target": [], "time": []}}, "mouseover": {"state": {"target": [], "time": []}, "edge": {"target": [], "time": []}}, "mouseout": {"state": {"target": [], "time": []}, "edge": {"target": [], "time": []}}}, "displayed_time": "16.67", "trialTime": 20323, "trial_type": "mouselab-mdp", "trial_index": 43, "time_elapsed": 1486670, "internal_node_id": "0.0-6.0-1.0-34.0"}}, {"uniqueid": "w11186246:a95662775", "current_trial": 44, "dateTime": 1693566006608, "trialdata": {"revealed_states": [], "clicked_states": [], "num_clicks_accrued": [0, 0, 0, 0, 0, 0, 0, 0, 0, 0, 0, 0, 0], "stateRewards": ["", 1, 1, -5, 8, -6, 45, 16, -6, -7, -22, -38, -1, -4, 8, -11, -16, 21, -45, -15, -59, -32, 42, -1, 3, 6, 11, -7, 34, -27, -8, 85, 43, -9], "withholdReward": false, "trial_id": "mdp_trial_36", "block": "test", "trialIndex": 37, "score": -44, "costs": 0, "simulationMode": [null, null, null, null, null], "rewards": [-1, -4, 8, -15, -32], "path": ["0", "0", "12", "13", "14", "19", "21"], "rt": [3663, 2060, 2522, 1597, 1533], "actions": ["right", "right", "right", "down", "down"], "actionTimes": [5846, 8420, 11452, 13570, 15622], "queries": {"click": {"state": {"target": [], "time": []}, "edge": {"target": [], "time": []}}, "mouseover": {"state": {"target": [], "time": []}, "edge": {"target": [], "time": []}}, "mouseout": {"state": {"target": [], "time": []}, "edge": {"target": [], "time": []}}}, "displayed_time": "16.18", "trialTime": 20039, "trial_type": "mouselab-mdp", "trial_index": 44, "time_elapsed": 1507905, "internal_node_id": "0.0-6.0-1.0-35.0"}}, {"uniqueid": "w11186246:a95662775", "current_trial": 45, "dateTime": 1693566028531, "trialdata": {"revealed_states": [], "clicked_states": [], "num_clicks_accrued": [0, 0, 0, 0, 0, 0, 0, 0, 0, 0, 0, 0, 0], "stateRewards": ["", 1, -2, -8, -13, 4, 34, -84, -4, -49, 88, -70, -1, 3, -4, 10, -77, 13, -34, 15, -21, -16, 27, 1, -2, 8, -8, -6, 38, -26, 6, -15, 66, -3], "withholdReward": false, "trial_id": "mdp_trial_37", "block": "test", "trialIndex": 38, "score": -3, "costs": 0, "simulationMode": [null, null, null, null, null], "rewards": [-1, 3, -4, 15, -16], "path": ["0", "0", "12", "13", "14", "19", "21"], "rt": [2947, 2098, 2160, 3466, 2832], "actions": ["right", "right", "right", "down", "down"], "actionTimes": [5055, 7668, 10337, 14322, 17669], "queries": {"click": {"state": {"target": [], "time": []}, "edge": {"target": [], "time": []}}, "mouseover": {"state": {"target": [], "time": []}, "edge": {"target": [], "time": []}}, "mouseout": {"state": {"target": [], "time": []}, "edge": {"target": [], "time": []}}}, "displayed_time": "18.24", "trialTime": 20698, "trial_type": "mouselab-mdp", "trial_index": 45, "time_elapsed": 1529829, "internal_node_id": "0.0-6.0-1.0-36.0"}}, {"uniqueid": "w11186246:a95662775", "current_trial": 46, "dateTime": 1693566049771, "trialdata": {"revealed_states": [], "clicked_states": [], "num_clicks_accrued": [0, 0, 0, 0, 0, 0, 0, 0, 0, 0, 0, 0, 0], "stateRewards": ["", -2, -3, -5, 8, 27, 11, 43, -6, -24, -87, 69, -2, 1, 1, 9, 19, 48, -37, 9, -14, 45, 62, 1, 2, 1, 16, -81, -41, 22, 4, -6, -63, 47], "withholdReward": false, "trial_id": "mdp_trial_38", "block": "test", "trialIndex": 39, "score": -5, "costs": 0, "simulationMode": [null, null, null, null, null], "rewards": [-2, 1, 1, 9, -14], "path": ["0", "0", "12", "13", "14", "19", "20"], "rt": [3909, 3073, 1999, 2307, 932], "actions": ["right", "right", "right", "down", "right"], "actionTimes": [6072, 9650, 12155, 14997, 16451], "queries": {"click": {"state": {"target": [], "time": []}, "edge": {"target": [], "time": []}}, "mouseover": {"state": {"target": [], "time": []}, "edge": {"target": [], "time": []}}, "mouseout": {"state": {"target": [], "time": []}, "edge": {"target": [], "time": []}}}, "displayed_time": "16.95", "trialTime": 19690, "trial_type": "mouselab-mdp", "trial_index": 46, "time_elapsed": 1551068, "internal_node_id": "0.0-6.0-1.0-37.0"}}, {"uniqueid": "w11186246:a95662775", "current_trial": 47, "dateTime": 1693566073494, "trialdata": {"revealed_states": [], "clicked_states": [], "num_clicks_accrued": [0, 0, 0, 0, 0, 0, 0, 0, 0, 0, 0, 0, 0], "stateRewards": ["", 1, 1, 5, 6, -29, -7, 3, -16, 9, -46, 65, -1, 4, -1, -16, -63, -77, -87, 8, 80, -50, 43, -1, -1, -5, 5, -38, -71, -62, 9, 81, -50, -52], "withholdReward": false, "trial_id": "mdp_trial_39", "block": "test", "trialIndex": 40, "score": -77, "costs": 0, "simulationMode": [null, null, null, null, null], "rewards": [-1, 4, -1, -16, -63], "path": ["0", "0", "12", "13", "14", "15", "16"], "rt": [4260, 1859, 1257, 1325, 4835], "actions": ["right", "right", "right", "up", "up"], "actionTimes": [6762, 9132, 10895, 12744, 18103], "queries": {"click": {"state": {"target": [], "time": []}, "edge": {"target": [], "time": []}}, "mouseover": {"state": {"target": [], "time": []}, "edge": {"target": [], "time": []}}, "mouseout": {"state": {"target": [], "time": []}, "edge": {"target": [], "time": []}}}, "displayed_time": "18.63", "trialTime": 22344, "trial_type": "mouselab-mdp", "trial_index": 47, "time_elapsed": 1574792, "internal_node_id": "0.0-6.0-1.0-38.0"}}, {"uniqueid": "w11186246:a95662775", "current_trial": 48, "dateTime": 1693566094404, "trialdata": {"revealed_states": [], "clicked_states": [], "num_clicks_accrued": [0, 0, 0, 0, 0, 0, 0, 0, 0, 0, 0, 0, 0], "stateRewards": ["", 1, -4, 6, -3, 40, 76, -51, 5, -24, -63, 44, -2, -2, 8, 1, 76, -85, -58, 10, 59, 20, 11, -2, 3, -3, 3, -82, -10, 54, -7, -57, -6, -32], "withholdReward": false, "trial_id": "mdp_trial_40", "block": "test", "trialIndex": 41, "score": 73, "costs": 0, "simulationMode": [null, null, null, null, null], "rewards": [-2, -2, 8, 10, 59], "path": ["0", "0", "12", "13", "14", "19", "20"], "rt": [1880, 1733, 1843, 1531, 4138], "actions": ["right", "right", "right", "down", "right"], "actionTimes": [3956, 6199, 8557, 10592, 15248], "queries": {"click": {"state": {"target": [], "time": []}, "edge": {"target": [], "time": []}}, "mouseover": {"state": {"target": [], "time": []}, "edge": {"target": [], "time": []}}, "mouseout": {"state": {"target": [], "time": []}, "edge": {"target": [], "time": []}}}, "displayed_time": "16.08", "trialTime": 19316, "trial_type": "mouselab-mdp", "trial_index": 48, "time_elapsed": 1595701, "internal_node_id": "0.0-6.0-1.0-39.0"}}, {"uniqueid": "w11186246:a95662775", "current_trial": 49, "dateTime": 1693566208406, "trialdata": {"rt": 113974, "response": {"Q0": "$-2 to $2", "Q1": "$-16 to $16", "Q2": "$-32 to $32", "Q3": "The cost for clicking on nodes varied between nodes.", "Q4": "Very motivated"}, "question_order": [0, 1, 2, 3, 4], "trial_id": "final_quiz_control", "trial_type": "survey-multi-choice", "trial_index": 49, "time_elapsed": 1709703, "internal_node_id": "0.0-6.0-2.0"}}, {"uniqueid": "w11186246:a95662775", "current_trial": 50, "dateTime": 1693566501950, "trialdata": {"rt": 293400, "response": {"Q0": "The first node if is in loss then I follow the path expecting the last one to be more than the first or previous node.", "Q1": "I improved my strategy by repeating the same path if I get a small loss on it.", "Q2": "It was not that hard just that I made a little loss before applying the strategy."}, "trial_id": "self_report_control", "trial_type": "survey-text", "trial_index": 50, "time_elapsed": 2003247, "internal_node_id": "0.0-6.0-3.0"}}, {"uniqueid": "w11186246:a95662775", "current_trial": 51, "dateTime": 1693566604078, "trialdata": {"rt": 102118, "response": {"Q0": "Agree", "Q1": "Neither disagree nor agree", "Q2": "Agree", "Q3": "Strongly agree", "Q4": "Disagree", "Q5": "Strongly agree", "Q6": "Strongly disagree"}, "question_order": [0, 1, 2, 3, 4, 5, 6], "trial_id": "self_report_2", "trial_type": "survey-multi-choice", "trial_index": 51, "time_elapsed": 2105376, "internal_node_id": "0.0-6.0-4.0"}}, {"uniqueid": "w11186246:a95662775", "current_trial": 52, "dateTime": 1693566650452, "trialdata": {"rt": 46362, "response": {"gender": "male", "age": "21", "colorblind": "0", "effort": "0"}, "trial_type": "survey-html-form", "trial_index": 52, "time_elapsed": 2151750, "internal_node_id": "0.0-6.0-5.0"}}, {"uniqueid": "w11186246:a95662775", "current_trial": 53, "dateTime": 1693566730191, "trialdata": {"rt": 79716, "response": {"Q0": "No.", "Q1": "No, have never participated before.", "Q2": ""}, "trial_type": "survey-text", "trial_index": 53, "time_elapsed": 2231489, "internal_node_id": "0.0-6.0-6.0"}}, {"uniqueid": "w11186246:a95662775", "current_trial": 54, "dateTime": 1693566772137, "trialdata": {"rt": 41915, "stimulus": "<h1>Completion Code Instructions (1/2)</h1>\n<br><br><br><br>\nYou have reached the end of the experiment! The completion code consists of two parts: (1) a code with 2 characters (2) a code with 6 characters. On this page, you will receive the second part of the code. The first part of the completion code will be on the next page.\n<br><br>\nThe second part of your completion code is: <b>EWEK22</b>\n<br><br>\nPlease note this down. Then, press 'Finish HIT' in order to find the first part of your completion code. Once the data has been saved, you will receive this code either in this window or in the original browser window where you started the experiment.\n", "response": 0, "trial_type": "html-button-response", "trial_index": 54, "time_elapsed": 2273434, "internal_node_id": "0.0-6.0-7.0"}}, {"uniqueid": "w11186246:a95662775", "current_trial": 55, "dateTime": 1693566773143, "trialdata": {"success": true, "trial_type": "fullscreen", "trial_index": 55, "time_elapsed": 2274441, "internal_node_id": "0.0-7.0"}}], "questiondata": {"params": {"CODE": "C6DMOQA6", "MIN_TIME": 14, "inspectCost": 1, "startTime": "Fri Sep 01 2023 12:34:53 GMT+0200 (South Africa Standard Time)", "bonusRate": 0.002, "variance": "1_2_4_8_44", "branching": "31123"}}, "eventdata": [{"eventtype": "initialized", "value": null, "timestamp": 1693564492744, "interval": 0}, {"eventtype": "window_resize", "value": [1536, 762], "timestamp": 1693564492744, "interval": 0}, {"eventtype": "window_resize", "value": [1536, 762], "timestamp": 1693564493582, "interval": 838}, {"eventtype": "window_resize", "value": [1536, 864], "timestamp": 1693564506280, "interval": 12698}, {"eventtype": "focus", "value": "off", "timestamp": 1693565864399, "interval": 1358119}, {"eventtype": "focus", "value": "on", "timestamp": 1693565878610, "interval": 14211}, {"eventtype": "focus", "value": "off", "timestamp": 1693566318204, "interval": 439594}, {"eventtype": "focus", "value": "on", "timestamp": 1693566318457, "interval": 253}, {"eventtype": "focus", "value": "off", "timestamp": 1693566321849, "interval": 3392}, {"eventtype": "focus", "value": "on", "timestamp": 1693566322070, "interval": 221}, {"eventtype": "focus", "value": "off", "timestamp": 1693566722861, "interval": 400791}, {"eventtype": "focus", "value": "on", "timestamp": 1693566723105, "interval": 244}, {"eventtype": "window_resize", "value": [1536, 762], "timestamp": 1693566772443, "interval": 49338}], "useragent": "Mozilla/5.0 (Windows NT 10.0; Win64; x64) AppleWebKit/537.36 (KHTML, like Gecko) Chrome/116.0.0.0 Safari/537.36 Edg/116.0.1938.62", "mode": "live", "id": "w11186246:a95662775", "status": "user data saved", "Beginhit": "2023-09-01 10:34:41.245987", "Beginexp": "2023-09-01 10:35:08.37313", "Endhit": "2023-09-01 11:12:54.926105", "psiturkStatus": 3, "browser": "<redacted>", "platform": "windows", "language": "en-GB"}