{"condition": 0, "counterbalance": 0, "assignmentId": "a12860498", "workerId": "w56991682", "hitId": "h50073321", "currenttrial": 61, "bonus": 0, "data": [{"uniqueid": "w56991682:a12860498", "current_trial": 0, "dateTime": 1693480895762, "trialdata": {"success": true, "trial_type": "fullscreen", "trial_index": 0, "time_elapsed": 9184, "internal_node_id": "0.0-0.0"}}, {"uniqueid": "w56991682:a12860498", "current_trial": 1, "dateTime": 1693480931958, "trialdata": {"view_history": [{"page_index": 0, "viewing_time": 36190}], "rt": 36191, "trial_id": "exp_instructions_control", "trial_type": "instructions", "trial_index": 1, "time_elapsed": 45380, "internal_node_id": "0.0-1.0"}}, {"uniqueid": "w56991682:a12860498", "current_trial": 2, "dateTime": 1693481238755, "trialdata": {"view_history": [{"page_index": 0, "viewing_time": 121637}, {"page_index": 1, "viewing_time": 98647}, {"page_index": 2, "viewing_time": 39270}, {"page_index": 3, "viewing_time": 47240}], "rt": 306795, "trial_id": "mouselab_instructions_1_control", "trial_type": "instructions", "trial_index": 2, "time_elapsed": 352177, "internal_node_id": "0.0-2.0-1.0"}}, {"uniqueid": "w56991682:a12860498", "current_trial": 3, "dateTime": 1693481473180, "trialdata": {"revealed_states": [], "clicked_states": ["12", "13", "14", "19", "20", "22", "21", "15", "16", "17", "18", "23", "24", "25", "30", "32", "31", "33", "26", "28", "27", "29", "1", "2", "7", "4", "6", "5", "3", "8", "9", "11", "10"], "num_clicks_accrued": [0, 0, 0, 0, 0, 0, 0, 0, 0, 0, 0, 0, 0], "stateRewards": ["", 10, -10, 10, -10, 10, -10, 10, -10, -10, -10, 10, 10, -10, -10, -10, -10, 10, -10, 10, -10, -10, -10, 10, 10, 10, 10, 10, 10, -10, 10, -10, 10, 10], "withholdReward": false, "trial_id": "practice_1", "block": "test", "trialIndex": 0, "score": -43, "costs": -16.5, "simulationMode": [null, null, null, null, null], "rewards": [10, -10, -10, -10, -10], "path": ["0", "0", "12", "13", "14", "15", "16"], "rt": [203468, 977, 1194, 1843, 1060], "actions": ["right", "right", "right", "up", "up"], "actionTimes": [214137, 215634, 217333, 219707, 221284], "queries": {"click": {"state": {"target": ["12", "13", "14", "19", "20", "22", "21", "15", "16", "17", "18", "23", "24", "25", "30", "32", "31", "33", "26", "28", "27", "29", "1", "2", "7", "4", "6", "5", "3", "8", "9", "11", "10"], "time": [13388, 16137, 18536, 19918, 21711, 29109, 31113, 37053, 38356, 39737, 41218, 46587, 47829, 49340, 51559, 52609, 54665, 62089, 64499, 65567, 66664, 68639, 70322, 71715, 73117, 74160, 76187, 77539, 78713, 80681, 81798, 82986, 84225]}, "edge": {"target": [], "time": []}}, "mouseover": {"state": {"target": ["12", "13", "14", "19", "20", "19", "22", "19", "21", "22", "12", "13", "15", "16", "17", "18", "1", "12", "23", "24", "25", "33", "30", "32", "31", "25", "33", "26", "28", "27", "29", "26", "1", "2", "7", "4", "6", "5", "3", "2", "8", "9", "11", "10", "0", "22", "20", "20", "0"], "time": [12051, 15004, 17733, 19424, 21300, 26118, 28733, 30041, 30433, 35632, 35864, 36182, 36565, 37590, 39385, 40471, 44781, 45382, 46165, 47436, 48736, 50731, 51148, 52253, 53676, 60799, 61212, 64041, 65266, 66139, 68128, 69275, 69845, 71186, 72702, 73681, 74750, 76983, 78310, 79598, 80233, 81382, 82666, 83899, 86826, 104907, 105091, 116837, 118920]}, "edge": {"target": [], "time": []}}, "mouseout": {"state": {"target": ["0", "12", "13", "14", "19", "20", "19", "22", "19", "21", "22", "12", "13", "15", "16", "17", "18", "1", "12", "23", "24", "25", "33", "30", "32", "31", "25", "33", "26", "28", "27", "27", "29", "26", "28", "1", "2", "7", "4", "6", "5", "3", "2", "8", "9", "11", "11", "10", "10", "0", "22", "20", "20", "0"], "time": [11866, 14767, 17517, 19257, 21217, 25834, 28548, 29954, 30317, 35534, 35666, 36081, 36348, 37503, 39155, 39952, 44382, 44801, 45798, 47303, 48608, 50415, 51097, 52170, 52823, 60696, 60861, 62482, 65148, 66050, 67283, 67978, 69244, 69295, 69468, 70948, 72600, 73583, 74365, 76843, 78152, 79417, 79945, 81316, 82382, 83209, 83516, 84442, 86261, 103559, 105008, 105125, 116871, 118970]}, "edge": {"target": [], "time": []}}}, "displayed_time": "221.79", "trialTime": 233227, "trial_type": "mouselab-mdp", "trial_index": 3, "time_elapsed": 586601, "internal_node_id": "0.0-2.0-2.0-0.0"}}, {"uniqueid": "w56991682:a12860498", "current_trial": 4, "dateTime": 1693481559637, "trialdata": {"revealed_states": [], "clicked_states": ["12", "13", "14", "15", "16", "1", "2", "3", "4", "6", "7", "5", "8", "11", "10", "9", "23", "24", "28", "26", "25", "30", "32", "31", "33", "29"], "num_clicks_accrued": [0, 0, 0, 0, 0, 0, 0, 0, 0, 0, 0, 0, 0], "stateRewards": ["", 10, 10, -10, -10, 10, -10, -10, 10, 10, 10, -10, -10, -10, -10, -10, -10, -10, 10, -10, -10, -10, -10, -10, 10, 10, 10, -10, -10, 10, -10, 10, -10, 10], "withholdReward": false, "trial_id": "practice_2", "block": "test", "trialIndex": 1, "score": -59.5, "costs": -13, "simulationMode": [null, null, null, null, null], "rewards": [-10, -10, -10, -10, -10], "path": ["0", "0", "12", "13", "14", "15", "16"], "rt": [64435, 1190, 917, 1343, 608], "actions": ["right", "right", "right", "up", "up"], "actionTimes": [74388, 76121, 77551, 79408, 80520], "queries": {"click": {"state": {"target": ["12", "13", "14", "15", "16", "1", "2", "3", "4", "6", "7", "5", "8", "11", "10", "9", "23", "24", "28", "26", "25", "30", "32", "31", "33", "29"], "time": [19294, 22142, 24861, 26481, 27945, 33599, 35428, 36844, 38547, 40192, 42844, 44586, 46811, 48834, 51101, 52866, 55560, 57640, 59146, 60547, 62048, 63465, 64642, 65998, 67375, 68704]}, "edge": {"target": [], "time": []}}, "mouseover": {"state": {"target": ["12", "13", "14", "15", "16", "15", "14", "13", "12", "0", "1", "2", "3", "4", "6", "7", "4", "5", "8", "11", "10", "8", "9", "8", "23", "24", "28", "26", "25", "30", "32", "31", "33", "29", "29"], "time": [17790, 20423, 24331, 25715, 27358, 30989, 31422, 31905, 32205, 32488, 32938, 34927, 36369, 37850, 39744, 42326, 43681, 43926, 46094, 48259, 50326, 51768, 52276, 53868, 54709, 56642, 58551, 59965, 61548, 63000, 64264, 65347, 66780, 68195, 74050]}, "edge": {"target": [], "time": []}}, "mouseout": {"state": {"target": ["23", "0", "12", "13", "13", "14", "15", "16", "15", "14", "13", "12", "0", "1", "2", "3", "4", "6", "7", "4", "5", "8", "11", "10", "8", "9", "8", "10", "23", "24", "28", "26", "25", "25", "30", "30", "32", "31", "30", "33", "29", "29", "26", "26"], "time": [7073, 17606, 20240, 22364, 24056, 25543, 27061, 30805, 31122, 31725, 32071, 32423, 32509, 34532, 36056, 37640, 39549, 42010, 43563, 43781, 45612, 48127, 49046, 51714, 51879, 53758, 53941, 54078, 55770, 58397, 59881, 61431, 62259, 62885, 63694, 64180, 64862, 66517, 66680, 67812, 68920, 74124, 81607, 85057]}, "edge": {"target": [], "time": []}}}, "displayed_time": "81.03", "trialTime": 86179, "trial_type": "mouselab-mdp", "trial_index": 4, "time_elapsed": 673058, "internal_node_id": "0.0-2.0-2.0-1.0"}}, {"uniqueid": "w56991682:a12860498", "current_trial": 5, "dateTime": 1693481692950, "trialdata": {"view_history": [{"page_index": 0, "viewing_time": 111317}, {"page_index": 1, "viewing_time": 21997}], "rt": 133315, "trial_id": "mouselab_instructions_2_control", "trial_type": "instructions", "trial_index": 5, "time_elapsed": 806372, "internal_node_id": "0.0-2.0-3.0"}}, {"uniqueid": "w56991682:a12860498", "current_trial": 6, "dateTime": 1693481761217, "trialdata": {"rt": 68259, "response": {"Q0": "The cost for clicking on nodes may vary between nodes.", "Q1": "The better I perform the higher my bonus will be.", "Q2": "No, the structure of the web will be different each time.", "Q3": "To click on the least number of nodes.", "Q4": "Only before moving the spider.", "Q5": "10 seconds"}, "question_order": [0, 1, 2, 3, 4, 5], "correct": {"Q0": "The cost for clicking on nodes may vary between nodes.", "Q1": "The better I perform the higher my bonus will be.", "Q2": "No, the amount of cash at each node of the web may be different each time.", "Q3": "To get the highest total score.", "Q4": "Only before moving the spider.", "Q5": "3 seconds"}, "trial_id": "mouselab_quiz_control", "trial_type": "survey-multi-choice", "trial_index": 6, "time_elapsed": 874639, "internal_node_id": "0.0-2.0-4.0"}}, {"uniqueid": "w56991682:a12860498", "current_trial": 7, "dateTime": 1693481773717, "trialdata": {"success": true, "trial_type": "fullscreen", "trial_index": 7, "time_elapsed": 887139, "internal_node_id": "0.0-2.1-0.1-0.1"}}, {"uniqueid": "w56991682:a12860498", "current_trial": 8, "dateTime": 1693481911662, "trialdata": {"view_history": [{"page_index": 0, "viewing_time": 50145}, {"page_index": 1, "viewing_time": 56419}, {"page_index": 2, "viewing_time": 10777}, {"page_index": 3, "viewing_time": 20596}], "rt": 137938, "trial_id": "mouselab_instructions_1_control", "trial_type": "instructions", "trial_index": 8, "time_elapsed": 1025084, "internal_node_id": "0.0-2.1-1.1"}}, {"uniqueid": "w56991682:a12860498", "current_trial": 9, "dateTime": 1693481993951, "trialdata": {"revealed_states": [], "clicked_states": ["1", "2", "3", "8", "11", "9", "10", "7", "4", "6", "5", "16", "15", "18", "17", "14", "19", "21", "20", "22", "13", "12", "23", "24", "28", "27", "26", "29", "25", "31", "30", "33", "32"], "num_clicks_accrued": [0, 0, 0, 0, 0, 0, 0, 0, 0, 0, 0, 0, 0], "stateRewards": ["", 10, -10, 10, -10, 10, -10, 10, -10, -10, -10, 10, 10, -10, -10, -10, -10, 10, -10, 10, -10, -10, -10, 10, 10, 10, 10, 10, 10, -10, 10, -10, 10, 10], "withholdReward": false, "trial_id": "practice_1", "block": "test", "trialIndex": 2, "score": -23, "costs": -16.5, "simulationMode": [null, null, null, null, null], "rewards": [10, -10, 10, -10, -10], "path": ["0", "0", "1", "2", "3", "8", "9"], "rt": [65611, 387, 583, 702, 964], "actions": ["up", "up", "up", "left", "up"], "actionTimes": [73842, 74749, 75829, 77050, 78526], "queries": {"click": {"state": {"target": ["1", "2", "3", "8", "11", "9", "10", "7", "4", "6", "5", "16", "15", "18", "17", "14", "19", "21", "20", "22", "13", "12", "23", "24", "28", "27", "26", "29", "25", "31", "30", "33", "32"], "time": [10667, 12329, 13938, 16460, 18132, 20108, 21875, 23996, 25373, 27074, 29325, 33737, 34867, 36277, 37460, 38517, 40147, 43009, 44790, 46212, 47711, 49617, 51606, 53441, 55158, 57278, 59085, 60391, 61855, 65162, 66272, 67493, 68836]}, "edge": {"target": [], "time": []}}, "mouseover": {"state": {"target": ["1", "2", "3", "10", "8", "11", "9", "8", "10", "7", "4", "6", "5", "3", "3", "18", "16", "16", "15", "18", "17", "14", "19", "21", "20", "20", "19", "22", "13", "12", "23", "24", "28", "27", "26", "29", "25", "31", "30", "33", "32"], "time": [9263, 11317, 13479, 15545, 16018, 17645, 19512, 21085, 21491, 23157, 24814, 26596, 28524, 30740, 31591, 31957, 32510, 33223, 34396, 35581, 36864, 38044, 39724, 42540, 43842, 44323, 45443, 45744, 47090, 48856, 50639, 52494, 54540, 56822, 58638, 59879, 61443, 64672, 65743, 66843, 68476]}, "edge": {"target": [], "time": []}}, "mouseout": {"state": {"target": ["22", "19", "22", "0", "1", "2", "3", "10", "8", "11", "8", "9", "8", "10", "7", "4", "6", "5", "3", "3", "18", "16", "16", "15", "18", "15", "17", "14", "19", "19", "21", "20", "20", "19", "22", "13", "12", "23", "24", "28", "27", "26", "29", "29", "25", "31", "30", "33"], "time": [1996, 7146, 7196, 9028, 11184, 13186, 15228, 15611, 17305, 19001, 19333, 20950, 21259, 22094, 24662, 26507, 28408, 30364, 31306, 31657, 32091, 32773, 34346, 35432, 36793, 36844, 37961, 39328, 40351, 41324, 43760, 43906, 45004, 45475, 46434, 48805, 49836, 51819, 54178, 56372, 58489, 59323, 60603, 61044, 62761, 65592, 66809, 68126]}, "edge": {"target": [], "time": []}}}, "displayed_time": "79.05", "trialTime": 81961, "trial_type": "mouselab-mdp", "trial_index": 9, "time_elapsed": 1107372, "internal_node_id": "0.0-2.1-2.1-0.1"}}, {"uniqueid": "w56991682:a12860498", "current_trial": 10, "dateTime": 1693482009589, "trialdata": {"revealed_states": [], "clicked_states": [], "num_clicks_accrued": [0, 0, 0, 0, 0, 0, 0, 0, 0, 0, 0, 0, 0], "stateRewards": ["", 10, 10, -10, -10, 10, -10, -10, 10, 10, 10, -10, -10, -10, -10, -10, -10, -10, 10, -10, -10, -10, -10, -10, 10, 10, 10, -10, -10, 10, -10, 10, -10, 10], "withholdReward": false, "trial_id": "practice_2", "block": "test", "trialIndex": 3, "score": -6.5, "costs": 0, "simulationMode": [null, null, null, null, null], "rewards": [10, 10, -10, -10, -10], "path": ["0", "0", "1", "2", "3", "4", "6"], "rt": [2961, 888, 875, 1200, 727], "actions": ["up", "up", "up", "right", "right"], "actionTimes": [7203, 8612, 9988, 11728, 12956], "queries": {"click": {"state": {"target": [], "time": []}, "edge": {"target": [], "time": []}}, "mouseover": {"state": {"target": ["1"], "time": [6122]}, "edge": {"target": [], "time": []}}, "mouseout": {"state": {"target": ["32", "31", "0", "1"], "time": [3053, 3153, 3536, 6302]}, "edge": {"target": [], "time": []}}}, "displayed_time": "13.48", "trialTime": 15349, "trial_type": "mouselab-mdp", "trial_index": 10, "time_elapsed": 1123010, "internal_node_id": "0.0-2.1-2.1-1.1"}}, {"uniqueid": "w56991682:a12860498", "current_trial": 11, "dateTime": 1693482019618, "trialdata": {"view_history": [{"page_index": 0, "viewing_time": 8006}, {"page_index": 1, "viewing_time": 2020}], "rt": 10027, "trial_id": "mouselab_instructions_2_control", "trial_type": "instructions", "trial_index": 11, "time_elapsed": 1133040, "internal_node_id": "0.0-2.1-3.1"}}, {"uniqueid": "w56991682:a12860498", "current_trial": 12, "dateTime": 1693482085762, "trialdata": {"rt": 66138, "response": {"Q0": "The cost for clicking on nodes may vary between nodes.", "Q1": "The better I perform the higher my bonus will be.", "Q2": "No, the amount of cash at each node of the web may be different each time.", "Q3": "To get the highest total score.", "Q4": "Only before moving the spider.", "Q5": "3 seconds"}, "question_order": [0, 1, 2, 3, 4, 5], "correct": {"Q0": "The cost for clicking on nodes may vary between nodes.", "Q1": "The better I perform the higher my bonus will be.", "Q2": "No, the amount of cash at each node of the web may be different each time.", "Q3": "To get the highest total score.", "Q4": "Only before moving the spider.", "Q5": "3 seconds"}, "trial_id": "mouselab_quiz_control", "trial_type": "survey-multi-choice", "trial_index": 12, "time_elapsed": 1199184, "internal_node_id": "0.0-2.1-4.1"}}, {"uniqueid": "w56991682:a12860498", "current_trial": 13, "dateTime": 1693482098827, "trialdata": {"rt": 13056, "response": {"Q0": "No"}, "question_order": [0], "trial_id": "repeat_check", "trial_type": "survey-multi-choice", "trial_index": 13, "time_elapsed": 1212249, "internal_node_id": "0.0-4.0-0.0"}}, {"uniqueid": "w56991682:a12860498", "current_trial": 14, "dateTime": 1693482113474, "trialdata": {"rt": 14639, "stimulus": "\n<h1> Get ready to start the game! </h1>\n\nThank you for reading the instructions. Get ready start with the 40 rounds of this game.\n<br><br>\nIf you need to take a break, feel free to take one after the end of a round, before continuing to the next one.\n<br><br>\nRemember, the more money the spider gets, the bigger your bonus will be!\n<br><br>\n<div style='text-align: center;'>Press <code>space</code> to begin.</div>\n\n<br><br>\n(If, at any point, the <code>space</code> key does not take you to the next page, click once on the text and try again.)", "response": " ", "trial_id": "mdp_ready", "trial_type": "html-keyboard-response", "trial_index": 14, "time_elapsed": 1226896, "internal_node_id": "0.0-6.0-0.0"}}, {"uniqueid": "w56991682:a12860498", "current_trial": 15, "dateTime": 1693482140726, "trialdata": {"revealed_states": [], "clicked_states": [], "num_clicks_accrued": [0, 0, 0, 0, 0, 0, 0, 0, 0, 0, 0, 0, 0], "stateRewards": ["", -1, -3, -7, -4, -85, -70, 79, 8, 84, -66, 42, 2, -2, -3, -16, -54, -66, 68, -3, 21, -14, 7, -2, -1, -3, -8, 75, 80, 86, -7, -84, 73, -16], "withholdReward": false, "trial_id": "mdp_trial_1", "block": "test", "trialIndex": 4, "score": 39, "costs": 0, "simulationMode": [null, null, null, null, null], "rewards": [-1, -3, -7, 8, 42], "path": ["0", "0", "1", "2", "3", "8", "11"], "rt": [10651, 633, 618, 455, 258], "actions": ["up", "up", "up", "left", "left"], "actionTimes": [18157, 19300, 20434, 21424, 22208], "queries": {"click": {"state": {"target": [], "time": []}, "edge": {"target": [], "time": []}}, "mouseover": {"state": {"target": ["12", "1"], "time": [9722, 11306]}, "edge": {"target": [], "time": []}}, "mouseout": {"state": {"target": ["12", "12"], "time": [3821, 10762]}, "edge": {"target": [], "time": []}}}, "displayed_time": "22.73", "trialTime": 26917, "trial_type": "mouselab-mdp", "trial_index": 15, "time_elapsed": 1254148, "internal_node_id": "0.0-6.0-1.0-0.0"}}, {"uniqueid": "w56991682:a12860498", "current_trial": 16, "dateTime": 1693482186835, "trialdata": {"revealed_states": [], "clicked_states": ["12", "13", "14", "15", "16", "23", "24", "25", "26", "28", "27", "1"], "num_clicks_accrued": [0, 0, 0, 0, 0, 0, 0, 0, 0, 0, 0, 0, 0], "stateRewards": ["", -1, -4, -3, 1, -45, -67, -24, 14, 32, 22, 22, -1, 1, -5, -7, 72, 84, -79, -5, 19, -40, -2, -1, -2, 8, -3, 84, -25, -28, 11, 64, -66, 77], "withholdReward": false, "trial_id": "mdp_trial_2", "block": "test", "trialIndex": 5, "score": 69.2, "costs": -16.8, "simulationMode": [null, null, null, null, null], "rewards": [-1, -2, 8, -3, 84], "path": ["0", "0", "23", "24", "25", "26", "27"], "rt": [33088, 289, 335, 521, 387], "actions": ["left", "left", "left", "up", "up"], "actionTimes": [36241, 37052, 37900, 38919, 39823], "queries": {"click": {"state": {"target": ["12", "13", "14", "15", "16", "23", "24", "25", "26", "28", "27", "1"], "time": [5439, 8141, 10973, 13573, 15333, 18399, 20592, 22259, 24668, 26848, 28454, 30410]}, "edge": {"target": [], "time": []}}, "mouseover": {"state": {"target": ["1", "13", "12", "13", "14", "14", "15", "16", "18", "0", "0", "23", "24", "25", "26", "28", "27", "2", "1", "1", "2", "10", "28", "23", "0"], "time": [3971, 4286, 4987, 6456, 8840, 10569, 11723, 14760, 16513, 16986, 17368, 17885, 19159, 21732, 23203, 26350, 27923, 29645, 29804, 29959, 31276, 33334, 33583, 34033, 34233]}, "edge": {"target": [], "time": []}}, "mouseout": {"state": {"target": ["1", "1", "13", "12", "13", "14", "14", "15", "16", "18", "0", "0", "23", "24", "25", "26", "28", "27", "2", "1", "1", "2", "10", "28", "23"], "time": [1369, 4186, 4669, 6405, 8707, 10269, 11605, 13779, 16413, 16574, 17087, 17468, 19105, 21575, 23073, 26251, 27646, 29223, 29671, 29830, 30616, 33300, 33355, 33951, 34100]}, "edge": {"target": [], "time": []}}}, "displayed_time": "40.34", "trialTime": 45807, "trial_type": "mouselab-mdp", "trial_index": 16, "time_elapsed": 1300256, "internal_node_id": "0.0-6.0-1.0-1.0"}}, {"uniqueid": "w56991682:a12860498", "current_trial": 17, "dateTime": 1693482226735, "trialdata": {"revealed_states": [], "clicked_states": ["1", "2", "3", "4", "6", "7", "5", "8", "9", "11", "10"], "num_clicks_accrued": [0, 0, 0, 0, 0, 0, 0, 0, 0, 0, 0, 0, 0], "stateRewards": ["", -1, 1, 8, -3, -24, 11, -65, -6, -77, 48, 44, -2, 1, -2, -7, -55, -35, 33, 8, -28, 19, -53, -1, -1, -5, -5, -70, 10, 44, 8, -58, -70, 51], "withholdReward": false, "trial_id": "mdp_trial_3", "block": "test", "trialIndex": 6, "score": 34.599999999999994, "costs": -15.400000000000002, "simulationMode": [null, null, null, null, null], "rewards": [-1, 1, 8, -6, 48], "path": ["0", "0", "1", "2", "3", "8", "10"], "rt": [29602, 248, 282, 777, 492], "actions": ["up", "up", "up", "left", "down"], "actionTimes": [31914, 32666, 33459, 34757, 35770], "queries": {"click": {"state": {"target": ["1", "2", "3", "4", "6", "7", "5", "8", "9", "11", "10"], "time": [4065, 7718, 9741, 11462, 13039, 15838, 17466, 19048, 21415, 23482, 25034]}, "edge": {"target": [], "time": []}}, "mouseover": {"state": {"target": ["1", "2", "3", "2", "3", "4", "6", "7", "4", "5", "8", "9", "11", "10", "2", "18"], "time": [3592, 4671, 6023, 6806, 8549, 10617, 12435, 14110, 16676, 16859, 18547, 19829, 22041, 24627, 25655, 26159]}, "edge": {"target": [], "time": []}}, "mouseout": {"state": {"target": ["0", "1", "2", "3", "2", "3", "4", "6", "7", "4", "5", "8", "9", "11", "10", "2"], "time": [3236, 4646, 5964, 6725, 7938, 10465, 12244, 13812, 16580, 16727, 18181, 19251, 21966, 24398, 25629, 25681]}, "edge": {"target": [], "time": []}}}, "displayed_time": "36.30", "trialTime": 39578, "trial_type": "mouselab-mdp", "trial_index": 17, "time_elapsed": 1340157, "internal_node_id": "0.0-6.0-1.0-2.0"}}, {"uniqueid": "w56991682:a12860498", "current_trial": 18, "dateTime": 1693482294025, "trialdata": {"revealed_states": [], "clicked_states": ["1", "2", "3", "4", "5", "6", "7", "23", "24", "28", "26", "27", "29", "25", "30", "31", "32", "33", "12", "13", "14", "15"], "num_clicks_accrued": [0, 0, 0, 0, 0, 0, 0, 0, 0, 0, 0, 0, 0], "stateRewards": ["", 1, 1, 7, -11, 80, -20, -53, -14, 3, 31, 27, 2, -1, -8, -10, 33, 41, 86, 9, 78, -37, -13, -1, -2, -6, -8, -80, 75, 4, -16, -49, -74, 24], "withholdReward": false, "trial_id": "mdp_trial_4", "block": "test", "trialIndex": 7, "score": 27.200000000000017, "costs": -30.799999999999986, "simulationMode": [null, null, null, null, null], "rewards": [-1, -2, -6, -8, 75], "path": ["0", "0", "23", "24", "25", "26", "28"], "rt": [54161, 79, 285, 392, 518], "actions": ["left", "left", "left", "up", "right"], "actionTimes": [57944, 58528, 59321, 60251, 61285], "queries": {"click": {"state": {"target": ["1", "2", "3", "4", "5", "6", "7", "23", "24", "28", "26", "27", "29", "25", "30", "31", "32", "33", "12", "13", "14", "15"], "time": [6253, 8461, 10845, 12462, 14537, 17090, 18793, 21666, 23930, 26106, 27749, 30039, 32384, 34653, 36930, 39565, 42131, 44354, 46259, 48327, 50414, 52848]}, "edge": {"target": [], "time": []}}, "mouseover": {"state": {"target": ["1", "2", "3", "4", "5", "6", "7", "2", "23", "23", "24", "28", "26", "27", "29", "25", "25", "30", "31", "32", "32", "33", "30", "0", "12", "13", "13", "12", "13", "14", "15", "16", "28", "12"], "time": [5717, 6845, 9370, 11917, 13247, 16662, 18299, 19657, 20365, 20830, 22567, 24925, 26972, 29395, 31661, 33715, 34095, 36412, 39144, 40301, 40537, 43099, 44938, 45041, 45098, 45138, 45364, 45732, 47082, 48991, 51141, 53703, 56709, 57176]}, "edge": {"target": [], "time": []}}, "mouseout": {"state": {"target": ["18", "12", "0", "1", "2", "3", "4", "5", "6", "7", "2", "23", "23", "24", "28", "26", "27", "29", "25", "25", "30", "31", "32", "32", "33", "30", "0", "12", "13", "13", "12", "13", "13", "14", "15", "16", "28"], "time": [1983, 2350, 5417, 6788, 9242, 11623, 13124, 15351, 18105, 19632, 19785, 20386, 22350, 24635, 26900, 27978, 31426, 33499, 33792, 36294, 37138, 40148, 40324, 42648, 44930, 44959, 45080, 45117, 45299, 45572, 47059, 48551, 48949, 51065, 53416, 55759, 56728]}, "edge": {"target": [], "time": []}}}, "displayed_time": "61.80", "trialTime": 66963, "trial_type": "mouselab-mdp", "trial_index": 18, "time_elapsed": 1407446, "internal_node_id": "0.0-6.0-1.0-3.0"}}, {"uniqueid": "w56991682:a12860498", "current_trial": 19, "dateTime": 1693482312927, "trialdata": {"revealed_states": [], "clicked_states": [], "num_clicks_accrued": [0, 0, 0, 0, 0, 0, 0, 0, 0, 0, 0, 0, 0], "stateRewards": ["", 1, -2, -8, -3, 31, -84, -55, -14, 15, -58, 17, -2, -3, 7, 7, -12, 48, 67, 4, -44, -68, 46, 2, 3, -5, -7, 76, 27, 5, 11, 57, 52, 59], "withholdReward": false, "trial_id": "mdp_trial_5", "block": "test", "trialIndex": 8, "score": -62, "costs": 0, "simulationMode": [null, null, null, null, null], "rewards": [-2, -3, 7, 4, -68], "path": ["0", "0", "12", "13", "14", "19", "21"], "rt": [1803, 806, 534, 406, 481], "actions": ["right", "right", "right", "down", "down"], "actionTimes": [3615, 4937, 5986, 6906, 7932], "queries": {"click": {"state": {"target": [], "time": []}, "edge": {"target": [], "time": []}}, "mouseover": {"state": {"target": [], "time": []}, "edge": {"target": [], "time": []}}, "mouseout": {"state": {"target": ["12"], "time": [989]}, "edge": {"target": [], "time": []}}}, "displayed_time": "15.82", "trialTime": 18581, "trial_type": "mouselab-mdp", "trial_index": 19, "time_elapsed": 1426349, "internal_node_id": "0.0-6.0-1.0-4.0"}}, {"uniqueid": "w56991682:a12860498", "current_trial": 20, "dateTime": 1693482440910, "trialdata": {"revealed_states": [], "clicked_states": ["23", "24", "25", "30", "32", "31", "33", "12", "13", "1", "2", "3", "4", "6", "7", "5", "8"], "num_clicks_accrued": [0, 0, 0, 0, 0, 0, 0, 0, 0, 0, 0, 0, 0], "stateRewards": ["", 1, -1, 8, 4, 76, -33, -17, -3, -1, -54, -74, -2, 2, -5, 13, -51, 63, 83, 1, 84, 29, -36, 2, -1, 7, -12, -10, -44, -43, -14, 8, -69, 19], "withholdReward": false, "trial_id": "mdp_trial_6", "block": "test", "trialIndex": 9, "score": 64.2, "costs": -23.799999999999994, "simulationMode": [null, null, null, null, null], "rewards": [1, -1, 8, 4, 76], "path": ["0", "0", "1", "2", "3", "4", "5"], "rt": [37116, 854, 283, 335, 362], "actions": ["up", "up", "up", "right", "up"], "actionTimes": [38667, 40025, 40821, 41679, 42550], "queries": {"click": {"state": {"target": ["23", "24", "25", "30", "32", "31", "33", "12", "13", "1", "2", "3", "4", "6", "7", "5", "8"], "time": [3672, 6539, 8233, 9836, 11473, 13815, 15748, 18258, 19829, 21965, 24073, 25604, 27792, 30033, 31616, 33601, 35264]}, "edge": {"target": [], "time": []}}, "mouseover": {"state": {"target": ["1", "0", "23", "24", "25", "25", "30", "32", "31", "30", "33", "24", "23", "0", "12", "13", "14", "15", "18", "1", "2", "3", "4", "6", "7", "4", "5", "5", "8"], "time": [2315, 3066, 3181, 4274, 7171, 7623, 9354, 10956, 12338, 14855, 15190, 17119, 17252, 17416, 17665, 19336, 20589, 20992, 21132, 21499, 22690, 24893, 26436, 28649, 31089, 32636, 32717, 33148, 34682]}, "edge": {"target": [], "time": []}}, "mouseout": {"state": {"target": ["0", "1", "0", "23", "24", "25", "25", "30", "30", "32", "31", "30", "33", "24", "23", "0", "12", "13", "14", "15", "18", "1", "2", "3", "4", "6", "6", "7", "4", "5", "5", "8", "5", "5", "3", "2"], "time": [1363, 2567, 3118, 4224, 7089, 7462, 9107, 10065, 10649, 12174, 14753, 15109, 16973, 17207, 17332, 17515, 19271, 20487, 20880, 21124, 21154, 22569, 24759, 25812, 28013, 30250, 30830, 32470, 32656, 32850, 34374, 36534, 37296, 37581, 123356, 123408]}, "edge": {"target": [], "time": []}}}, "displayed_time": "43.06", "trialTime": 127623, "trial_type": "mouselab-mdp", "trial_index": 20, "time_elapsed": 1554331, "internal_node_id": "0.0-6.0-1.0-5.0"}}, {"uniqueid": "w56991682:a12860498", "current_trial": 21, "dateTime": 1693482465721, "trialdata": {"revealed_states": [], "clicked_states": ["12", "1", "2", "3", "8", "11"], "num_clicks_accrued": [0, 0, 0, 0, 0, 0, 0, 0, 0, 0, 0, 0, 0], "stateRewards": ["", 2, 4, 4, -8, -36, -33, 38, 16, -51, 57, 57, 1, 3, 4, -6, 45, 68, 87, 1, 63, 24, -55, -2, 2, -6, -13, -63, -50, 8, 2, 80, 6, 60], "withholdReward": false, "trial_id": "mdp_trial_7", "block": "test", "trialIndex": 10, "score": 74.6, "costs": -8.4, "simulationMode": [null, null, null, null, null], "rewards": [2, 4, 4, 16, 57], "path": ["0", "0", "1", "2", "3", "8", "11"], "rt": [15523, 117, 184, 220, 76], "actions": ["up", "up", "up", "left", "left"], "actionTimes": [19229, 19860, 20543, 21264, 21867], "queries": {"click": {"state": {"target": ["12", "1", "2", "3", "8", "11"], "time": [5091, 6993, 9758, 11688, 14331, 16508]}, "edge": {"target": [], "time": []}}, "mouseover": {"state": {"target": ["12", "1", "2", "3", "8", "11"], "time": [4621, 6504, 8003, 11056, 13718, 15810]}, "edge": {"target": [], "time": []}}, "mouseout": {"state": {"target": ["12", "1", "2", "3", "8"], "time": [6040, 7710, 10691, 13686, 14557]}, "edge": {"target": [], "time": []}}}, "displayed_time": "22.38", "trialTime": 24464, "trial_type": "mouselab-mdp", "trial_index": 21, "time_elapsed": 1579142, "internal_node_id": "0.0-6.0-1.0-6.0"}}, {"uniqueid": "w56991682:a12860498", "current_trial": 22, "dateTime": 1693482498725, "trialdata": {"revealed_states": [], "clicked_states": ["1", "2", "3", "4", "6", "7", "5"], "num_clicks_accrued": [0, 0, 0, 0, 0, 0, 0, 0, 0, 0, 0, 0, 0], "stateRewards": ["", 2, -1, -1, -9, -81, -30, 55, -6, 78, 25, 62, 2, 4, -1, 9, -85, 1, -19, 1, -60, 12, -34, 1, 4, -1, -13, -24, -16, -83, -8, 16, 43, 9], "withholdReward": false, "trial_id": "mdp_trial_8", "block": "test", "trialIndex": 11, "score": 36.2, "costs": -9.8, "simulationMode": [null, null, null, null, null], "rewards": [2, -1, -1, -9, 55], "path": ["0", "0", "1", "2", "3", "4", "7"], "rt": [21363, 254, 454, 774, 515], "actions": ["up", "up", "up", "right", "down"], "actionTimes": [25223, 25977, 26945, 28248, 29291], "queries": {"click": {"state": {"target": ["1", "2", "3", "4", "6", "7", "5"], "time": [5936, 8269, 10401, 13284, 15811, 18700, 21554]}, "edge": {"target": [], "time": []}}, "mouseover": {"state": {"target": ["1", "2", "3", "4", "6", "7", "4", "5", "4"], "time": [5317, 6762, 9883, 12667, 15367, 17882, 19604, 19812, 23849]}, "edge": {"target": [], "time": []}}, "mouseout": {"state": {"target": ["11", "8", "2", "1", "1", "2", "3", "4", "6", "7", "4", "5", "4"], "time": [2499, 2599, 2666, 2938, 6472, 9604, 12467, 15304, 17766, 19553, 19623, 23616, 23916]}, "edge": {"target": [], "time": []}}}, "displayed_time": "29.82", "trialTime": 32670, "trial_type": "mouselab-mdp", "trial_index": 22, "time_elapsed": 1612147, "internal_node_id": "0.0-6.0-1.0-7.0"}}, {"uniqueid": "w56991682:a12860498", "current_trial": 23, "dateTime": 1693482534618, "trialdata": {"revealed_states": [], "clicked_states": ["23", "24", "25", "26", "27"], "num_clicks_accrued": [0, 0, 0, 0, 0, 0, 0, 0, 0, 0, 0, 0, 0], "stateRewards": ["", -2, -1, -6, -14, -55, 78, -13, 11, 14, -71, 59, 2, 2, 6, -6, 9, 38, 14, 7, 85, 11, 68, 1, -4, -1, -3, -63, -85, 9, -2, 63, -86, -10], "withholdReward": false, "trial_id": "mdp_trial_9", "block": "test", "trialIndex": 12, "score": -85, "costs": -7, "simulationMode": [null, null, null, null, null], "rewards": [-2, -1, -6, -14, -55], "path": ["0", "0", "1", "2", "3", "4", "5"], "rt": [13712, 168, 488, 1474, 1131], "actions": ["up", "up", "up", "right", "up"], "actionTimes": [25993, 26691, 27694, 29704, 31354], "queries": {"click": {"state": {"target": ["23", "24", "25", "26", "27"], "time": [13995, 16993, 18955, 20972, 22751]}, "edge": {"target": [], "time": []}}, "mouseover": {"state": {"target": ["1", "23", "24", "25", "24", "25", "26", "27"], "time": [13032, 13531, 14595, 15767, 16531, 17650, 19603, 22333]}, "edge": {"target": [], "time": []}}, "mouseout": {"state": {"target": ["16", "18", "1", "23", "24", "25", "24", "25", "26", "27", "26", "25", "12"], "time": [10731, 10765, 13414, 14553, 15442, 16465, 17607, 19520, 21770, 33098, 33196, 33296, 34413]}, "edge": {"target": [], "time": []}}}, "displayed_time": "31.86", "trialTime": 35530, "trial_type": "mouselab-mdp", "trial_index": 23, "time_elapsed": 1648040, "internal_node_id": "0.0-6.0-1.0-8.0"}}, {"uniqueid": "w56991682:a12860498", "current_trial": 24, "dateTime": 1693482561831, "trialdata": {"revealed_states": [], "clicked_states": ["1", "2", "3", "8", "11"], "num_clicks_accrued": [0, 0, 0, 0, 0, 0, 0, 0, 0, 0, 0, 0, 0], "stateRewards": ["", 2, -4, -8, -15, 71, -43, -41, 7, -17, 20, 67, -1, -1, -4, 6, 37, -24, -47, 9, 34, 57, 45, 1, 2, -4, -5, -23, 88, -5, 13, -40, 43, 44], "withholdReward": false, "trial_id": "mdp_trial_10", "block": "test", "trialIndex": 13, "score": 57, "costs": -7, "simulationMode": [null, null, null, null, null], "rewards": [2, -4, -8, 7, 67], "path": ["0", "0", "1", "2", "3", "8", "11"], "rt": [14173, 91, 329, 615, 579], "actions": ["up", "up", "up", "left", "left"], "actionTimes": [19547, 20176, 21018, 22154, 23255], "queries": {"click": {"state": {"target": ["1", "2", "3", "8", "11"], "time": [7081, 10123, 12120, 14303, 16256]}, "edge": {"target": [], "time": []}}, "mouseover": {"state": {"target": ["1", "2", "3", "2", "3", "8", "11", "9"], "time": [6332, 7454, 8832, 9632, 10666, 12693, 14916, 17302]}, "edge": {"target": [], "time": []}}, "mouseout": {"state": {"target": ["0", "1", "2", "3", "2", "3", "8", "11", "9", "3"], "time": [6083, 7420, 8591, 9588, 10586, 12646, 14790, 16893, 25266, 26166]}, "edge": {"target": [], "time": []}}}, "displayed_time": "23.79", "trialTime": 26846, "trial_type": "mouselab-mdp", "trial_index": 24, "time_elapsed": 1675252, "internal_node_id": "0.0-6.0-1.0-9.0"}}, {"uniqueid": "w56991682:a12860498", "current_trial": 25, "dateTime": 1693482583855, "trialdata": {"revealed_states": [], "clicked_states": [], "num_clicks_accrued": [0, 0, 0, 0, 0, 0, 0, 0, 0, 0, 0, 0, 0], "stateRewards": ["", -2, 3, 3, -14, 62, 36, 49, 16, 11, 17, -84, 2, -1, 6, 2, -82, -73, 49, -6, -87, 48, 50, -1, -2, -1, -16, -11, 37, -44, 4, 55, 73, -10], "withholdReward": false, "trial_id": "mdp_trial_11", "block": "test", "trialIndex": 14, "score": 39, "costs": 0, "simulationMode": [null, null, null, null, null], "rewards": [-2, 3, 3, -14, 49], "path": ["0", "0", "1", "2", "3", "4", "7"], "rt": [6007, 150, 105, 1145, 13], "actions": ["up", "up", "up", "right", "down"], "actionTimes": [8053, 8728, 9348, 11005, 11532], "queries": {"click": {"state": {"target": [], "time": []}, "edge": {"target": [], "time": []}}, "mouseover": {"state": {"target": ["12", "1", "1"], "time": [3803, 4219, 6502]}, "edge": {"target": [], "time": []}}, "mouseout": {"state": {"target": ["8", "1", "12", "0", "12", "1", "1", "2", "1"], "time": [935, 994, 1053, 3525, 4167, 5769, 17869, 18352, 18735]}, "edge": {"target": [], "time": []}}}, "displayed_time": "16.05", "trialTime": 21673, "trial_type": "mouselab-mdp", "trial_index": 25, "time_elapsed": 1697276, "internal_node_id": "0.0-6.0-1.0-10.0"}}, {"uniqueid": "w56991682:a12860498", "current_trial": 26, "dateTime": 1693482612998, "trialdata": {"revealed_states": [], "clicked_states": ["1", "2", "3", "8", "10", "9", "11", "4"], "num_clicks_accrued": [0, 0, 0, 0, 0, 0, 0, 0, 0, 0, 0, 0, 0], "stateRewards": ["", 1, -2, 4, 7, -43, -83, -60, -5, -86, -80, 83, -1, -2, 6, 11, -15, 21, 13, 9, 29, -49, 11, -1, 4, -6, -11, 87, 40, 63, -8, -39, -11, 62], "withholdReward": false, "trial_id": "mdp_trial_12", "block": "test", "trialIndex": 15, "score": 69.8, "costs": -11.200000000000001, "simulationMode": [null, null, null, null, null], "rewards": [1, -2, 4, -5, 83], "path": ["0", "0", "1", "2", "3", "8", "11"], "rt": [19467, 223, 301, 360, 441], "actions": ["up", "up", "up", "left", "left"], "actionTimes": [23124, 23866, 24689, 25568, 26518], "queries": {"click": {"state": {"target": ["1", "2", "3", "8", "10", "9", "11", "4"], "time": [5914, 8182, 10136, 12122, 14067, 16329, 18776, 20614]}, "edge": {"target": [], "time": []}}, "mouseover": {"state": {"target": ["12", "1", "2", "3", "8", "10", "9", "11", "4", "3", "8", "3", "2", "1"], "time": [4733, 5333, 6258, 8795, 11258, 12940, 15900, 18431, 20041, 21318, 21518, 22158, 22249, 22383]}, "edge": {"target": [], "time": []}}, "mouseout": {"state": {"target": ["12", "1", "2", "3", "3", "8", "10", "8", "9", "11", "4", "3", "8", "3", "2", "1", "18", "12"], "time": [5303, 6203, 8773, 10851, 11238, 12889, 15412, 15665, 18198, 19000, 21311, 21373, 21726, 22200, 22298, 27732, 28047, 28314]}, "edge": {"target": [], "time": []}}}, "displayed_time": "27.02", "trialTime": 28748, "trial_type": "mouselab-mdp", "trial_index": 26, "time_elapsed": 1726419, "internal_node_id": "0.0-6.0-1.0-11.0"}}, {"uniqueid": "w56991682:a12860498", "current_trial": 27, "dateTime": 1693482638587, "trialdata": {"revealed_states": [], "clicked_states": ["1", "2", "3", "4", "6", "7", "5"], "num_clicks_accrued": [0, 0, 0, 0, 0, 0, 0, 0, 0, 0, 0, 0, 0], "stateRewards": ["", 2, -1, 4, -9, -43, 7, 54, -13, 38, -40, -83, -1, 2, -8, -10, 34, -33, 11, -14, -79, 65, 26, 1, 2, 4, 10, 21, 1, 86, 4, -53, 28, -29], "withholdReward": false, "trial_id": "mdp_trial_13", "block": "test", "trialIndex": 16, "score": 40.2, "costs": -9.8, "simulationMode": [null, null, null, null, null, null], "rewards": [2, -1, 4, -9, 54], "path": ["0", "0", "1", "2", "3", "4", "7"], "rt": [16877, 641, 277, 30, 428, 548], "actions": ["up", "up", "up", "up", "right", "down"], "actionTimes": [18899, 19549, 20355, 20889, 21840, 22908], "queries": {"click": {"state": {"target": ["1", "2", "3", "4", "6", "7", "5"], "time": [4234, 6574, 9533, 11195, 13407, 15479, 17551]}, "edge": {"target": [], "time": []}}, "mouseover": {"state": {"target": ["1", "2", "3", "4", "3", "4", "6", "7", "5"], "time": [3736, 4893, 7105, 8803, 9071, 10122, 12199, 14433, 16240]}, "edge": {"target": [], "time": []}}, "mouseout": {"state": {"target": ["0", "1", "2", "3", "4", "3", "4", "6", "7"], "time": [3602, 4622, 6803, 8751, 9053, 10078, 12123, 14203, 16173]}, "edge": {"target": [], "time": []}}}, "displayed_time": "23.41", "trialTime": 25243, "trial_type": "mouselab-mdp", "trial_index": 27, "time_elapsed": 1752008, "internal_node_id": "0.0-6.0-1.0-12.0"}}, {"uniqueid": "w56991682:a12860498", "current_trial": 28, "dateTime": 1693482659058, "trialdata": {"revealed_states": [], "clicked_states": [], "num_clicks_accrued": [0, 0, 0, 0, 0, 0, 0, 0, 0, 0, 0, 0, 0], "stateRewards": ["", -1, 3, 8, 10, -86, 61, -36, 10, 17, -60, 24, -1, -3, 3, 11, 50, 60, 33, -3, -20, 58, -6, 1, -4, -4, 13, -70, -71, 43, 14, 52, 82, -11], "withholdReward": false, "trial_id": "mdp_trial_14", "block": "test", "trialIndex": 17, "score": 37, "costs": 0, "simulationMode": [null, null, null, null, null], "rewards": [-1, 3, 8, 10, 17], "path": ["0", "0", "1", "2", "3", "8", "9"], "rt": [1777, 278, 131, 483, 1212], "actions": ["up", "up", "up", "left", "up"], "actionTimes": [3889, 4671, 5309, 6315, 8031], "queries": {"click": {"state": {"target": [], "time": []}, "edge": {"target": [], "time": []}}, "mouseover": {"state": {"target": [], "time": []}, "edge": {"target": [], "time": []}}, "mouseout": {"state": {"target": ["5", "3", "2", "1"], "time": [940, 971, 1020, 1055]}, "edge": {"target": [], "time": []}}}, "displayed_time": "16.12", "trialTime": 20119, "trial_type": "mouselab-mdp", "trial_index": 28, "time_elapsed": 1772480, "internal_node_id": "0.0-6.0-1.0-13.0"}}, {"uniqueid": "w56991682:a12860498", "current_trial": 29, "dateTime": 1693482677493, "trialdata": {"revealed_states": [], "clicked_states": [], "num_clicks_accrued": [0, 0, 0, 0, 0, 0, 0, 0, 0, 0, 0, 0, 0], "stateRewards": ["", 2, -2, -3, 10, -4, -1, -11, -8, -9, -36, -78, 2, 1, 7, -7, 44, -1, -31, -1, 26, 47, 83, 2, -4, -4, -6, -52, -76, -81, -1, -59, 45, 67], "withholdReward": false, "trial_id": "mdp_trial_15", "block": "test", "trialIndex": 18, "score": 6, "costs": 0, "simulationMode": [null, null, null, null, null], "rewards": [2, -2, -3, 10, -1], "path": ["0", "0", "1", "2", "3", "4", "6"], "rt": [2627, 353, 13, 506, 2067], "actions": ["up", "up", "up", "right", "right"], "actionTimes": [4159, 5038, 5554, 6580, 9157], "queries": {"click": {"state": {"target": [], "time": []}, "edge": {"target": [], "time": []}}, "mouseover": {"state": {"target": [], "time": []}, "edge": {"target": [], "time": []}}, "mouseout": {"state": {"target": ["0", "0", "0"], "time": [498, 629, 2381]}, "edge": {"target": [], "time": []}}}, "displayed_time": "15.55", "trialTime": 18063, "trial_type": "mouselab-mdp", "trial_index": 29, "time_elapsed": 1790914, "internal_node_id": "0.0-6.0-1.0-14.0"}}, {"uniqueid": "w56991682:a12860498", "current_trial": 30, "dateTime": 1693482709257, "trialdata": {"revealed_states": [], "clicked_states": ["6", "11", "9", "5", "16", "21", "32", "27", "25"], "num_clicks_accrued": [0, 0, 0, 0, 0, 0, 0, 0, 0, 0, 0, 0, 0], "stateRewards": ["", -2, 1, -3, -16, -39, -52, 30, -7, -41, -59, 11, 2, 1, 8, 2, -11, -26, -42, -13, 87, -59, -48, -1, -1, -1, 16, -79, 31, 50, -1, -84, 34, -82], "withholdReward": false, "trial_id": "mdp_trial_16", "block": "test", "trialIndex": 19, "score": 17.4, "costs": -12.600000000000001, "simulationMode": [null, null, null, null, null], "rewards": [-1, -1, -1, -1, 34], "path": ["0", "0", "23", "24", "25", "30", "32"], "rt": [25209, 55, 578, 699, 132], "actions": ["left", "left", "left", "down", "down"], "actionTimes": [26994, 27565, 28692, 29893, 30528], "queries": {"click": {"state": {"target": ["6", "11", "9", "5", "16", "21", "32", "27", "25"], "time": [3119, 5551, 7958, 10119, 12266, 14709, 17588, 20547, 23247]}, "edge": {"target": [], "time": []}}, "mouseover": {"state": {"target": ["6", "6", "4", "3", "8", "11", "9", "5", "16", "15", "14", "19", "21", "32", "32", "30", "25", "26", "27", "26", "25"], "time": [2403, 2736, 3756, 3804, 3845, 4112, 7385, 9303, 11786, 12921, 13014, 13154, 13414, 16885, 17185, 19654, 19689, 19736, 20068, 22636, 22885]}, "edge": {"target": [], "time": []}}, "mouseout": {"state": {"target": ["0", "6", "6", "4", "3", "8", "11", "9", "5", "16", "15", "14", "19", "21", "32", "32", "30", "25", "26", "27", "26"], "time": [2336, 2437, 3332, 3797, 3825, 3957, 6808, 8724, 10878, 12863, 12975, 13085, 13272, 16552, 16905, 19636, 19669, 19723, 19885, 22602, 22719]}, "edge": {"target": [], "time": []}}}, "displayed_time": "31.05", "trialTime": 31370, "trial_type": "mouselab-mdp", "trial_index": 30, "time_elapsed": 1822678, "internal_node_id": "0.0-6.0-1.0-15.0"}}, {"uniqueid": "w56991682:a12860498", "current_trial": 31, "dateTime": 1693482753492, "trialdata": {"revealed_states": [], "clicked_states": ["27", "32", "21", "20", "14", "13", "19", "5", "6", "7", "9", "10", "2", "3"], "num_clicks_accrued": [0, 0, 0, 0, 0, 0, 0, 0, 0, 0, 0, 0, 0], "stateRewards": ["", -1, -3, -3, 1, -38, 2, -53, -2, -1, -81, 70, -1, 1, -5, -9, 46, 15, 35, -1, -22, 38, 59, -2, 4, -8, 13, 1, -83, -43, 4, 76, 13, 48], "withholdReward": false, "trial_id": "mdp_trial_17", "block": "test", "trialIndex": 20, "score": 12.400000000000002, "costs": -19.599999999999998, "simulationMode": [null, null, null, null, null], "rewards": [-1, 1, -5, -1, 38], "path": ["0", "0", "12", "13", "14", "19", "21"], "rt": [36141, 298, 535, 145, 78], "actions": ["right", "right", "right", "down", "down"], "actionTimes": [38929, 39739, 40790, 41466, 42067], "queries": {"click": {"state": {"target": ["27", "32", "21", "20", "14", "13", "19", "5", "6", "7", "9", "10", "2", "3"], "time": [4136, 6154, 8360, 12895, 15628, 18356, 20302, 23022, 25005, 27511, 30091, 32597, 35117, 37089]}, "edge": {"target": [], "time": []}}, "mouseover": {"state": {"target": ["28", "27", "26", "25", "30", "32", "21", "20", "20", "19", "14", "13", "19", "14", "7", "4", "5", "6", "4", "7", "3", "9", "8", "10", "2", "3"], "time": [3413, 3479, 4605, 4666, 4749, 4989, 7732, 9963, 11046, 14609, 15011, 17828, 19363, 21929, 22277, 22311, 22628, 23751, 26844, 27111, 29429, 29729, 32047, 32112, 34650, 36170]}, "edge": {"target": [], "time": []}}, "mouseout": {"state": {"target": ["25", "24", "23", "0", "28", "27", "26", "25", "30", "32", "21", "20", "20", "19", "14", "13", "19", "14", "13", "7", "4", "5", "6", "4", "7", "3", "9", "8", "10", "2", "3"], "time": [1428, 1462, 1545, 3380, 3431, 4582, 4639, 4707, 4923, 6858, 9851, 10248, 13107, 14945, 17696, 19034, 21767, 22028, 22195, 22297, 22346, 23588, 26795, 26944, 29328, 29462, 32014, 32067, 34579, 36053, 38147]}, "edge": {"target": [], "time": []}}}, "displayed_time": "42.62", "trialTime": 43868, "trial_type": "mouselab-mdp", "trial_index": 31, "time_elapsed": 1866913, "internal_node_id": "0.0-6.0-1.0-16.0"}}, {"uniqueid": "w56991682:a12860498", "current_trial": 32, "dateTime": 1693482782952, "trialdata": {"revealed_states": [], "clicked_states": ["5", "7", "6", "16", "17"], "num_clicks_accrued": [0, 0, 0, 0, 0, 0, 0, 0, 0, 0, 0, 0, 0], "stateRewards": ["", -2, 4, -7, -3, -76, 39, -28, 10, 14, 12, 60, 2, -3, 6, -10, 88, -34, -41, -3, 72, -13, -56, 1, 3, 2, 8, -51, 23, -57, 1, 14, -46, -16], "withholdReward": false, "trial_id": "mdp_trial_18", "block": "test", "trialIndex": 21, "score": 76, "costs": -7, "simulationMode": [null, null, null, null, null], "rewards": [2, -3, 6, -10, 88], "path": ["0", "0", "12", "13", "14", "15", "16"], "rt": [13264, 208, 447, 712, 367], "actions": ["right", "right", "right", "up", "up"], "actionTimes": [22547, 23275, 24259, 25483, 26375], "queries": {"click": {"state": {"target": ["5", "7", "6", "16", "17"], "time": [11548, 14128, 16046, 17713, 19254]}, "edge": {"target": [], "time": []}}, "mouseover": {"state": {"target": ["0", "1", "4", "5", "6", "7", "6", "16", "17", "15", "18", "1"], "time": [9797, 9997, 10962, 11045, 12341, 13646, 15063, 16759, 18635, 20416, 20465, 20846]}, "edge": {"target": [], "time": []}}, "mouseout": {"state": {"target": ["0", "0", "1", "4", "5", "6", "7", "6", "16", "17", "15", "18", "1"], "time": [8544, 9929, 10883, 10981, 12135, 13311, 14815, 16695, 18549, 20385, 20443, 20538, 20895]}, "edge": {"target": [], "time": []}}}, "displayed_time": "26.90", "trialTime": 29079, "trial_type": "mouselab-mdp", "trial_index": 32, "time_elapsed": 1896373, "internal_node_id": "0.0-6.0-1.0-17.0"}}, {"uniqueid": "w56991682:a12860498", "current_trial": 33, "dateTime": 1693482804518, "trialdata": {"revealed_states": [], "clicked_states": ["1", "2", "5", "6"], "num_clicks_accrued": [0, 0, 0, 0, 0, 0, 0, 0, 0, 0, 0, 0, 0], "stateRewards": ["", -1, 3, -4, -14, 78, 67, 2, 13, -32, 28, 39, -2, 1, -4, -4, -4, -42, -86, 11, 64, -29, -32, -1, -4, 2, -7, 5, 68, -61, 2, -21, 85, 50], "withholdReward": false, "trial_id": "mdp_trial_19", "block": "test", "trialIndex": 22, "score": 56.4, "costs": -5.6, "simulationMode": [null, null, null, null, null, null], "rewards": [-1, 3, -4, -14, 78], "path": ["0", "0", "1", "2", "3", "4", "5"], "rt": [9760, 409, 13, 866, 198, 259], "actions": ["up", "up", "up", "up", "right", "up"], "actionTimes": [15517, 15929, 16474, 17860, 18574, 19350], "queries": {"click": {"state": {"target": ["1", "2", "5", "6"], "time": [6886, 8624, 12091, 14064]}, "edge": {"target": [], "time": []}}, "mouseover": {"state": {"target": ["1", "2", "3", "5", "6", "4", "3"], "time": [6405, 7337, 10571, 11690, 12719, 14646, 14816]}, "edge": {"target": [], "time": []}}, "mouseout": {"state": {"target": ["0", "0", "0", "1", "2", "3", "5", "6", "4"], "time": [1709, 4754, 6364, 7101, 10339, 11388, 12610, 14621, 14764]}, "edge": {"target": [], "time": []}}}, "displayed_time": "19.86", "trialTime": 21172, "trial_type": "mouselab-mdp", "trial_index": 33, "time_elapsed": 1917939, "internal_node_id": "0.0-6.0-1.0-18.0"}}, {"uniqueid": "w56991682:a12860498", "current_trial": 34, "dateTime": 1693482823061, "trialdata": {"revealed_states": [], "clicked_states": [], "num_clicks_accrued": [0, 0, 0, 0, 0, 0, 0, 0, 0, 0, 0, 0, 0], "stateRewards": ["", 2, -3, -4, -1, 25, -16, 16, 10, -71, -20, -55, 1, 3, -4, -9, 1, 32, 11, -6, 32, -50, -41, -1, 4, 4, -8, 7, -81, 70, 2, -52, 45, -10], "withholdReward": false, "trial_id": "mdp_trial_20", "block": "test", "trialIndex": 23, "score": -50, "costs": 0, "simulationMode": [null, null, null, null, null], "rewards": [2, -3, -4, 10, -55], "path": ["0", "0", "1", "2", "3", "8", "11"], "rt": [2922, 604, 32, 569, 136], "actions": ["up", "up", "up", "left", "left"], "actionTimes": [4758, 5884, 6430, 7526, 8165], "queries": {"click": {"state": {"target": [], "time": []}, "edge": {"target": [], "time": []}}, "mouseover": {"state": {"target": [], "time": []}, "edge": {"target": [], "time": []}}, "mouseout": {"state": {"target": ["3", "2", "1", "0", "0"], "time": [521, 754, 787, 904, 12534]}, "edge": {"target": [], "time": []}}}, "displayed_time": "15.85", "trialTime": 18154, "trial_type": "mouselab-mdp", "trial_index": 34, "time_elapsed": 1936483, "internal_node_id": "0.0-6.0-1.0-19.0"}}, {"uniqueid": "w56991682:a12860498", "current_trial": 35, "dateTime": 1693482855132, "trialdata": {"revealed_states": [], "clicked_states": ["20", "21", "16", "17", "5", "9", "27", "29", "25"], "num_clicks_accrued": [0, 0, 0, 0, 0, 0, 0, 0, 0, 0, 0, 0, 0], "stateRewards": ["", -2, -4, 6, 14, -34, 49, 36, -8, -3, 32, -4, 1, -2, 1, -8, -20, -71, -57, -7, -86, -62, -16, -2, -3, -5, 11, 23, -21, 53, 5, -5, 85, 73], "withholdReward": false, "trial_id": "mdp_trial_21", "block": "test", "trialIndex": 24, "score": 41.4, "costs": -12.600000000000001, "simulationMode": [null, null, null, null, null], "rewards": [-2, -3, -5, 11, 53], "path": ["0", "0", "23", "24", "25", "26", "29"], "rt": [21900, 232, 47, 2311, 453], "actions": ["left", "left", "left", "up", "left"], "actionTimes": [23837, 24589, 25166, 27999, 28973], "queries": {"click": {"state": {"target": ["20", "21", "16", "17", "5", "9", "27", "29", "25"], "time": [3206, 5600, 7531, 9756, 11750, 13761, 16320, 18167, 20045]}, "edge": {"target": [], "time": []}}, "mouseover": {"state": {"target": ["13", "20", "20", "21", "19", "14", "15", "16", "17", "6", "5", "9", "11", "27", "29", "26", "25", "33", "32"], "time": [2448, 2564, 2798, 3835, 6342, 6382, 6414, 6650, 8162, 10721, 11101, 12656, 15430, 15879, 17066, 19089, 19431, 21846, 23111]}, "edge": {"target": [], "time": []}}, "mouseout": {"state": {"target": ["12", "0", "13", "20", "20", "21", "19", "14", "15", "16", "17", "16", "6", "5", "9", "11", "27", "29", "26", "25", "33"], "time": [831, 2415, 2464, 2584, 3808, 6307, 6373, 6407, 6466, 8013, 10425, 10496, 10800, 12338, 14953, 15530, 16879, 19045, 19254, 21586, 22955]}, "edge": {"target": [], "time": []}}}, "displayed_time": "29.50", "trialTime": 31669, "trial_type": "mouselab-mdp", "trial_index": 35, "time_elapsed": 1968553, "internal_node_id": "0.0-6.0-1.0-20.0"}}, {"uniqueid": "w56991682:a12860498", "current_trial": 36, "dateTime": 1693482878125, "trialdata": {"revealed_states": [], "clicked_states": ["1", "6", "17", "16", "21", "20"], "num_clicks_accrued": [0, 0, 0, 0, 0, 0, 0, 0, 0, 0, 0, 0, 0], "stateRewards": ["", 2, -1, -1, 7, 11, -40, -22, -2, 69, 37, 8, -2, 4, -8, -12, -2, -72, -3, -12, 17, 63, 12, 1, 3, -7, 6, 25, 61, 61, -9, 28, -17, 27], "withholdReward": false, "trial_id": "mdp_trial_22", "block": "test", "trialIndex": 25, "score": 36.6, "costs": -8.4, "simulationMode": [null, null, null, null, null], "rewards": [-2, 4, -8, -12, 63], "path": ["0", "0", "12", "13", "14", "19", "21"], "rt": [15341, 332, 363, 214, 98], "actions": ["right", "right", "right", "down", "down"], "actionTimes": [16985, 17826, 18696, 19411, 20026], "queries": {"click": {"state": {"target": ["1", "6", "17", "16", "21", "20"], "time": [3457, 6960, 8578, 10484, 13267, 15193]}, "edge": {"target": [], "time": []}}, "mouseover": {"state": {"target": ["1", "4", "5", "6", "16", "17", "16", "19", "21", "21", "20", "22", "0"], "time": [2864, 4064, 4423, 6653, 7545, 8017, 9457, 12503, 12569, 12886, 14211, 15725, 15911]}, "edge": {"target": [], "time": []}}, "mouseout": {"state": {"target": ["32", "31", "0", "1", "4", "5", "6", "6", "16", "17", "16", "19", "21", "21", "20", "22", "0"], "time": [447, 647, 1013, 4022, 4089, 6336, 7183, 7491, 7568, 8803, 11417, 12535, 12670, 14030, 15712, 15754, 21768]}, "edge": {"target": [], "time": []}}}, "displayed_time": "20.55", "trialTime": 22580, "trial_type": "mouselab-mdp", "trial_index": 36, "time_elapsed": 1991546, "internal_node_id": "0.0-6.0-1.0-21.0"}}, {"uniqueid": "w56991682:a12860498", "current_trial": 37, "dateTime": 1693482896230, "trialdata": {"revealed_states": [], "clicked_states": [], "num_clicks_accrued": [0, 0, 0, 0, 0, 0, 0, 0, 0, 0, 0, 0, 0], "stateRewards": ["", -2, 1, 6, -2, -10, -78, -69, 14, -15, 7, -1, 1, -1, -2, 13, 77, 32, 87, 5, -74, 30, -26, 1, 3, 4, 12, 39, 54, -43, 2, 10, 23, 13], "withholdReward": false, "trial_id": "mdp_trial_23", "block": "test", "trialIndex": 26, "score": 33, "costs": 0, "simulationMode": [null, null, null, null, null], "rewards": [1, 3, 4, 2, 23], "path": ["0", "0", "23", "24", "25", "30", "32"], "rt": [5995, 247, 440, 425, 897], "actions": ["left", "left", "left", "down", "down"], "actionTimes": [7907, 8684, 9630, 10567, 11989], "queries": {"click": {"state": {"target": [], "time": []}, "edge": {"target": [], "time": []}}, "mouseover": {"state": {"target": ["1"], "time": [6235]}, "edge": {"target": [], "time": []}}, "mouseout": {"state": {"target": ["0", "1", "15", "14", "22"], "time": [5983, 16951, 17134, 17207, 17283]}, "edge": {"target": [], "time": []}}}, "displayed_time": "15.92", "trialTime": 17703, "trial_type": "mouselab-mdp", "trial_index": 37, "time_elapsed": 2009652, "internal_node_id": "0.0-6.0-1.0-22.0"}}, {"uniqueid": "w56991682:a12860498", "current_trial": 38, "dateTime": 1693482923239, "trialdata": {"revealed_states": [], "clicked_states": ["16", "17", "5", "9", "27", "29", "28", "31"], "num_clicks_accrued": [0, 0, 0, 0, 0, 0, 0, 0, 0, 0, 0, 0, 0], "stateRewards": ["", 1, 1, -5, 8, -6, 45, 16, -6, -7, -22, -38, -1, -4, 8, -11, -16, 21, -45, -15, -59, -32, 42, -1, 3, 6, 11, -7, 34, -27, -8, 85, 43, -9], "withholdReward": false, "trial_id": "mdp_trial_24", "block": "test", "trialIndex": 27, "score": 73.8, "costs": -11.200000000000001, "simulationMode": [null, null, null, null, null], "rewards": [-1, 3, 6, -8, 85], "path": ["0", "0", "23", "24", "25", "30", "31"], "rt": [20237, 92, 260, 676, 64], "actions": ["left", "left", "left", "down", "right"], "actionTimes": [21880, 22498, 23264, 24470, 25035], "queries": {"click": {"state": {"target": ["16", "17", "5", "9", "27", "29", "28", "31"], "time": [3777, 5933, 8101, 10075, 11993, 14630, 16659, 18597]}, "edge": {"target": [], "time": []}}, "mouseover": {"state": {"target": ["1", "16", "16", "17", "6", "5", "9", "11", "27", "29", "26", "28", "24", "31", "32"], "time": [2449, 3166, 3483, 4594, 6813, 7003, 8991, 10638, 10788, 14125, 15429, 15728, 17319, 17525, 19472]}, "edge": {"target": [], "time": []}}, "mouseout": {"state": {"target": ["0", "1", "16", "16", "16", "17", "16", "6", "5", "9", "11", "27", "29", "26", "28", "24", "31", "32", "31"], "time": [2416, 2582, 3232, 3994, 4394, 6755, 6807, 6859, 8855, 10609, 10692, 13799, 15367, 15608, 17290, 17408, 19140, 20986, 21032]}, "edge": {"target": [], "time": []}}}, "displayed_time": "25.54", "trialTime": 26628, "trial_type": "mouselab-mdp", "trial_index": 38, "time_elapsed": 2036661, "internal_node_id": "0.0-6.0-1.0-23.0"}}, {"uniqueid": "w56991682:a12860498", "current_trial": 39, "dateTime": 1693482956186, "trialdata": {"revealed_states": [], "clicked_states": ["1", "17", "16", "6", "5", "9", "11", "7", "10"], "num_clicks_accrued": [0, 0, 0, 0, 0, 0, 0, 0, 0, 0, 0, 0, 0], "stateRewards": ["", -1, -3, -7, -7, -76, 30, -49, 11, -70, 56, 2, 1, 4, -3, -14, -59, -83, -25, -9, -21, -67, -73, -2, 4, 4, -9, -11, -32, 60, 9, -87, 22, -64], "withholdReward": false, "trial_id": "mdp_trial_25", "block": "test", "trialIndex": 28, "score": 43.4, "costs": -12.600000000000001, "simulationMode": [null, null, null, null, null], "rewards": [-1, -3, -7, 11, 56], "path": ["0", "0", "1", "2", "3", "8", "10"], "rt": [22430, 535, 2827, 343, 80], "actions": ["up", "up", "up", "left", "down"], "actionTimes": [24515, 25569, 28924, 29782, 30362], "queries": {"click": {"state": {"target": ["1", "17", "16", "6", "5", "9", "11", "7", "10"], "time": [3299, 6123, 8074, 10172, 12312, 14622, 17121, 19283, 21486]}, "edge": {"target": [], "time": []}}, "mouseover": {"state": {"target": ["1", "2", "18", "15", "17", "16", "18", "18", "6", "5", "9", "11", "8", "3", "7", "2", "10", "24", "31", "32", "24"], "time": [2939, 4445, 4893, 4945, 5678, 6761, 8769, 9230, 9593, 11005, 13645, 16704, 18118, 18256, 18570, 20449, 20972, 22464, 22606, 22864, 23655]}, "edge": {"target": [], "time": []}}, "mouseout": {"state": {"target": ["0", "1", "2", "18", "15", "17", "16", "18", "18", "6", "5", "9", "11", "8", "3", "7", "2", "10", "24", "31", "32", "24", "23"], "time": [2790, 4126, 4860, 4927, 5005, 6584, 8719, 8954, 9369, 10778, 12950, 16639, 18043, 18191, 18279, 20376, 20726, 22179, 22545, 22711, 23604, 23676, 31938]}, "edge": {"target": [], "time": []}}}, "displayed_time": "30.87", "trialTime": 32584, "trial_type": "mouselab-mdp", "trial_index": 39, "time_elapsed": 2069607, "internal_node_id": "0.0-6.0-1.0-24.0"}}, {"uniqueid": "w56991682:a12860498", "current_trial": 40, "dateTime": 1693482977553, "trialdata": {"revealed_states": [], "clicked_states": ["17"], "num_clicks_accrued": [0, 0, 0, 0, 0, 0, 0, 0, 0, 0, 0, 0, 0], "stateRewards": ["", 1, 2, -3, -6, 50, -7, 7, -7, -80, 21, -1, 2, 2, 4, -1, 33, 84, 1, 14, -53, 81, 6, -2, -2, -3, -9, -87, -38, -59, -5, -74, -3, -71], "withholdReward": false, "trial_id": "mdp_trial_26", "block": "test", "trialIndex": 29, "score": 89.6, "costs": -1.4, "simulationMode": [null, null, null, null, null], "rewards": [2, 2, 4, -1, 84], "path": ["0", "0", "12", "13", "14", "15", "17"], "rt": [5850, 346, 167, 559, 8], "actions": ["right", "right", "right", "up", "right"], "actionTimes": [12358, 13219, 13908, 14982, 15519], "queries": {"click": {"state": {"target": ["17"], "time": [8477]}, "edge": {"target": [], "time": []}}, "mouseover": {"state": {"target": ["1", "18", "15", "17", "17", "16", "15", "14"], "time": [7132, 7749, 7783, 7832, 8115, 9317, 11734, 11815]}, "edge": {"target": [], "time": []}}, "mouseout": {"state": {"target": ["0", "1", "18", "15", "17", "17", "16", "15"], "time": [7077, 7701, 7768, 7817, 7882, 9070, 11714, 11752]}, "edge": {"target": [], "time": []}}}, "displayed_time": "20.52", "trialTime": 20979, "trial_type": "mouselab-mdp", "trial_index": 40, "time_elapsed": 2090974, "internal_node_id": "0.0-6.0-1.0-25.0"}}, {"uniqueid": "w56991682:a12860498", "current_trial": 41, "dateTime": 1693482994616, "trialdata": {"revealed_states": [], "clicked_states": ["29", "27"], "num_clicks_accrued": [0, 0, 0, 0, 0, 0, 0, 0, 0, 0, 0, 0, 0], "stateRewards": ["", 2, -2, 7, -11, -76, -65, -23, 16, -58, 30, 81, 1, 2, 7, 14, 9, 55, -2, 6, 11, -15, 31, -1, -1, -3, 2, 15, 2, 46, 15, 18, 45, -34], "withholdReward": false, "trial_id": "mdp_trial_27", "block": "test", "trialIndex": 30, "score": 40.2, "costs": -2.8, "simulationMode": [null, null, null, null, null], "rewards": [-1, -1, -3, 2, 46], "path": ["0", "0", "23", "24", "25", "26", "29"], "rt": [7933, 89, 164, 814, 18], "actions": ["left", "left", "left", "up", "left"], "actionTimes": [9499, 10113, 10807, 12124, 12661], "queries": {"click": {"state": {"target": ["29", "27"], "time": [3868, 6427]}, "edge": {"target": [], "time": []}}, "mouseover": {"state": {"target": ["1", "29", "27", "26", "25", "33"], "time": [2116, 3416, 4513, 7296, 7485, 7712]}, "edge": {"target": [], "time": []}}, "mouseout": {"state": {"target": ["14", "22", "1", "29", "27", "26", "25", "33"], "time": [398, 482, 3200, 4386, 7226, 7399, 7549, 7734]}, "edge": {"target": [], "time": []}}}, "displayed_time": "15.57", "trialTime": 16610, "trial_type": "mouselab-mdp", "trial_index": 41, "time_elapsed": 2108037, "internal_node_id": "0.0-6.0-1.0-26.0"}}, {"uniqueid": "w56991682:a12860498", "current_trial": 42, "dateTime": 1693483012116, "trialdata": {"revealed_states": [], "clicked_states": [], "num_clicks_accrued": [0, 0, 0, 0, 0, 0, 0, 0, 0, 0, 0, 0, 0], "stateRewards": ["", 1, 4, 5, 8, -55, -11, 8, 16, -37, 77, -22, -2, 3, -8, -10, 45, 87, -67, 4, 17, -33, -22, -1, -3, 7, 6, -39, -85, 75, -1, 7, -48, 45], "withholdReward": false, "trial_id": "mdp_trial_28", "block": "test", "trialIndex": 31, "score": -37, "costs": 0, "simulationMode": [null, null, null, null, null], "rewards": [1, 4, 5, 8, -55], "path": ["0", "0", "1", "2", "3", "4", "5"], "rt": [7660, 150, 296, 241, 34], "actions": ["up", "up", "up", "right", "up"], "actionTimes": [9533, 10203, 11024, 11807, 12363], "queries": {"click": {"state": {"target": [], "time": []}, "edge": {"target": [], "time": []}}, "mouseover": {"state": {"target": ["1", "18", "15", "4", "5"], "time": [3174, 3424, 3507, 4240, 4557]}, "edge": {"target": [], "time": []}}, "mouseout": {"state": {"target": ["23", "12", "12", "0", "1", "18", "15", "4"], "time": [841, 890, 1156, 3057, 3357, 3457, 4107, 4323]}, "edge": {"target": [], "time": []}}}, "displayed_time": "15.88", "trialTime": 17052, "trial_type": "mouselab-mdp", "trial_index": 42, "time_elapsed": 2125537, "internal_node_id": "0.0-6.0-1.0-27.0"}}, {"uniqueid": "w56991682:a12860498", "current_trial": 43, "dateTime": 1693483029423, "trialdata": {"revealed_states": [], "clicked_states": ["1", "17"], "num_clicks_accrued": [0, 0, 0, 0, 0, 0, 0, 0, 0, 0, 0, 0, 0], "stateRewards": ["", -1, -3, 3, 5, 56, 39, 50, -1, -80, 33, -46, 1, -2, -6, -8, 87, 48, 54, -11, -20, -64, -54, -2, 3, -7, -3, 12, 88, 35, -16, -46, -70, -3], "withholdReward": false, "trial_id": "mdp_trial_29", "block": "test", "trialIndex": 32, "score": 30.2, "costs": -2.8, "simulationMode": [null, null, null, null, null], "rewards": [1, -2, -6, -8, 48], "path": ["0", "0", "12", "13", "14", "15", "17"], "rt": [8194, 277, 195, 495, 41], "actions": ["right", "right", "right", "up", "right"], "actionTimes": [10208, 11004, 11717, 12757, 13304], "queries": {"click": {"state": {"target": ["1", "17"], "time": [4974, 7264]}, "edge": {"target": [], "time": []}}, "mouseover": {"state": {"target": ["1", "18", "15", "17", "21"], "time": [4504, 5502, 5555, 5880, 8771]}, "edge": {"target": [], "time": []}}, "mouseout": {"state": {"target": ["5", "4", "1", "0", "1", "18", "15", "17", "21"], "time": [919, 953, 1152, 2553, 5428, 5549, 5593, 8325, 15952]}, "edge": {"target": [], "time": []}}}, "displayed_time": "16.03", "trialTime": 16890, "trial_type": "mouselab-mdp", "trial_index": 43, "time_elapsed": 2142844, "internal_node_id": "0.0-6.0-1.0-28.0"}}, {"uniqueid": "w56991682:a12860498", "current_trial": 44, "dateTime": 1693483051370, "trialdata": {"revealed_states": [], "clicked_states": ["1", "2", "5", "17", "33"], "num_clicks_accrued": [0, 0, 0, 0, 0, 0, 0, 0, 0, 0, 0, 0, 0], "stateRewards": ["", 2, -1, -3, 16, -3, -16, -62, -1, 13, -26, 43, -1, 4, 3, -9, -54, -37, -3, -12, -71, -68, -57, 1, -3, 2, -9, 2, -2, -9, -11, 84, -52, 55], "withholdReward": false, "trial_id": "mdp_trial_30", "block": "test", "trialIndex": 33, "score": 37, "costs": -7, "simulationMode": [null, null, null, null, null], "rewards": [1, -3, 2, -11, 55], "path": ["0", "0", "23", "24", "25", "30", "33"], "rt": [14645, 5, 579, 548, 182], "actions": ["left", "left", "left", "down", "left"], "actionTimes": [16774, 17276, 18400, 19471, 20162], "queries": {"click": {"state": {"target": ["1", "2", "5", "17", "33"], "time": [4153, 5788, 7520, 10129, 13444]}, "edge": {"target": [], "time": []}}, "mouseover": {"state": {"target": ["0", "1", "18", "7", "2", "3", "5", "6", "4", "7", "16", "17", "21", "24", "25", "25", "33", "32"], "time": [3219, 3620, 4973, 5254, 5399, 6407, 7163, 8416, 8745, 9030, 9280, 9679, 11746, 12413, 12446, 12779, 13062, 14821]}, "edge": {"target": [], "time": []}}, "mouseout": {"state": {"target": ["21", "12", "0", "0", "1", "18", "7", "2", "3", "5", "5", "6", "4", "7", "16", "17", "17", "21", "24", "25", "25", "33"], "time": [902, 1186, 2970, 3486, 4774, 5166, 5328, 6274, 6810, 7735, 8103, 8509, 8837, 9119, 9497, 10350, 10932, 12334, 12431, 12495, 12929, 14143]}, "edge": {"target": [], "time": []}}}, "displayed_time": "20.67", "trialTime": 21538, "trial_type": "mouselab-mdp", "trial_index": 44, "time_elapsed": 2164791, "internal_node_id": "0.0-6.0-1.0-29.0"}}, {"uniqueid": "w56991682:a12860498", "current_trial": 45, "dateTime": 1693483068385, "trialdata": {"revealed_states": [], "clicked_states": [], "num_clicks_accrued": [0, 0, 0, 0, 0, 0, 0, 0, 0, 0, 0, 0, 0], "stateRewards": ["", 2, 3, -2, -8, -8, -41, 74, 15, -23, -80, 1, 1, 3, 3, -15, -63, -78, 67, 13, 75, -41, 86, 2, -2, 6, -3, -8, -49, 50, -6, 83, 74, 80], "withholdReward": false, "trial_id": "mdp_trial_31", "block": "test", "trialIndex": 34, "score": -46, "costs": 0, "simulationMode": [null, null, null, null, null], "rewards": [2, -2, 6, -3, -49], "path": ["0", "0", "23", "24", "25", "26", "28"], "rt": [4834, 354, 544, 592, 10], "actions": ["left", "left", "left", "up", "right"], "actionTimes": [6805, 7683, 8725, 9840, 10376], "queries": {"click": {"state": {"target": [], "time": []}, "edge": {"target": [], "time": []}}, "mouseover": {"state": {"target": ["0", "12", "15", "17"], "time": [2892, 3409, 3757, 4208]}, "edge": {"target": [], "time": []}}, "mouseout": {"state": {"target": ["32", "0", "0", "12", "15", "17"], "time": [940, 2756, 3307, 3441, 3907, 5775]}, "edge": {"target": [], "time": []}}}, "displayed_time": "15.97", "trialTime": 16582, "trial_type": "mouselab-mdp", "trial_index": 45, "time_elapsed": 2181806, "internal_node_id": "0.0-6.0-1.0-30.0"}}, {"uniqueid": "w56991682:a12860498", "current_trial": 46, "dateTime": 1693483096868, "trialdata": {"revealed_states": [], "clicked_states": ["1", "17", "20", "33", "29"], "num_clicks_accrued": [0, 0, 0, 0, 0, 0, 0, 0, 0, 0, 0, 0, 0], "stateRewards": ["", -2, -3, 1, -7, 39, -67, 16, 5, -20, 73, 66, -1, 4, 5, -3, 23, -68, -87, -8, 3, -3, 17, 1, -4, -2, -13, -32, 34, 61, -5, -11, -18, 12], "withholdReward": false, "trial_id": "mdp_trial_32", "block": "test", "trialIndex": 35, "score": 36, "costs": -7, "simulationMode": [null, null, null, null, null], "rewards": [1, -4, -2, -13, 61], "path": ["0", "0", "23", "24", "25", "26", "29"], "rt": [14554, 230, 283, 739, 1390], "actions": ["left", "left", "left", "up", "left"], "actionTimes": [16503, 17243, 18041, 19277, 21178], "queries": {"click": {"state": {"target": ["1", "17", "20", "33", "29"], "time": [3405, 6295, 8699, 11458, 13655]}, "edge": {"target": [], "time": []}}, "mouseover": {"state": {"target": ["1", "17", "17", "20", "19", "22", "31", "30", "33", "29", "25", "30", "32", "30", "31"], "time": [2747, 4425, 5849, 7002, 9452, 9962, 10763, 10930, 11053, 12582, 14505, 14673, 14934, 15730, 15784]}, "edge": {"target": [], "time": []}}, "mouseout": {"state": {"target": ["0", "0", "1", "17", "17", "20", "19", "22", "31", "30", "33", "29", "25", "30", "32", "30", "31"], "time": [913, 2542, 4068, 5447, 6924, 8923, 9673, 10404, 10850, 10996, 12220, 14453, 14580, 14815, 15695, 15762, 15799]}, "edge": {"target": [], "time": []}}}, "displayed_time": "21.70", "trialTime": 28007, "trial_type": "mouselab-mdp", "trial_index": 46, "time_elapsed": 2210290, "internal_node_id": "0.0-6.0-1.0-31.0"}}, {"uniqueid": "w56991682:a12860498", "current_trial": 47, "dateTime": 1693483139090, "trialdata": {"revealed_states": [], "clicked_states": [], "num_clicks_accrued": [0, 0, 0, 0, 0, 0, 0, 0, 0, 0, 0, 0, 0], "stateRewards": ["", -1, 1, -1, 2, 19, 85, -18, 2, -3, -26, 36, 2, 4, 7, -9, -18, 70, 72, -5, 35, -20, -28, 1, -2, -4, -3, -59, -11, -63, -2, -72, 59, -69], "withholdReward": false, "trial_id": "mdp_trial_33", "block": "test", "trialIndex": 36, "score": -2, "costs": 0, "simulationMode": [null, null, null, null, null], "rewards": [-1, 1, -1, 2, -3], "path": ["0", "0", "1", "2", "3", "8", "9"], "rt": [7082, 246, 317, 474, 62], "actions": ["up", "up", "up", "left", "up"], "actionTimes": [33823, 34592, 35459, 36439, 37007], "queries": {"click": {"state": {"target": [], "time": []}, "edge": {"target": [], "time": []}}, "mouseover": {"state": {"target": ["1"], "time": [31003]}, "edge": {"target": [], "time": []}}, "mouseout": {"state": {"target": ["0"], "time": [30739]}, "edge": {"target": [], "time": []}}}, "displayed_time": "40.76", "trialTime": 41734, "trial_type": "mouselab-mdp", "trial_index": 47, "time_elapsed": 2252511, "internal_node_id": "0.0-6.0-1.0-32.0"}}, {"uniqueid": "w56991682:a12860498", "current_trial": 48, "dateTime": 1693483163014, "trialdata": {"revealed_states": [], "clicked_states": ["17", "21", "16", "5", "9"], "num_clicks_accrued": [0, 0, 0, 0, 0, 0, 0, 0, 0, 0, 0, 0, 0], "stateRewards": ["", -2, -2, -7, -13, -10, 49, -68, -1, 84, 70, 88, 1, 4, 4, 12, -57, 25, 30, 8, -1, -77, 57, 2, 3, 2, 3, -18, -80, 23, -15, -41, 70, 11], "withholdReward": false, "trial_id": "mdp_trial_34", "block": "test", "trialIndex": 37, "score": 65, "costs": -7, "simulationMode": [null, null, null, null, null], "rewards": [-2, -2, -7, -1, 84], "path": ["0", "0", "1", "2", "3", "8", "9"], "rt": [12866, 76, 250, 276, 563], "actions": ["up", "up", "up", "left", "up"], "actionTimes": [17537, 18119, 18878, 19668, 20736], "queries": {"click": {"state": {"target": ["17", "21", "16", "5", "9"], "time": [6400, 8227, 10424, 12629, 14724]}, "edge": {"target": [], "time": []}}, "mouseover": {"state": {"target": ["1", "18", "15", "17", "21", "19", "16", "4", "5", "9", "11"], "time": [5399, 5615, 5732, 5899, 7333, 8962, 9342, 11276, 11618, 13210, 16564]}, "edge": {"target": [], "time": []}}, "mouseout": {"state": {"target": ["1", "0", "1", "18", "15", "17", "17", "21", "19", "16", "4", "5", "9", "11"], "time": [403, 5346, 5464, 5664, 5815, 6660, 6946, 8887, 8993, 11132, 11446, 13074, 15817, 16651]}, "edge": {"target": [], "time": []}}}, "displayed_time": "21.24", "trialTime": 23471, "trial_type": "mouselab-mdp", "trial_index": 48, "time_elapsed": 2276435, "internal_node_id": "0.0-6.0-1.0-33.0"}}, {"uniqueid": "w56991682:a12860498", "current_trial": 49, "dateTime": 1693483180305, "trialdata": {"revealed_states": [], "clicked_states": ["32", "33", "27"], "num_clicks_accrued": [0, 0, 0, 0, 0, 0, 0, 0, 0, 0, 0, 0, 0], "stateRewards": ["", -2, -4, -8, 8, 63, -50, -19, -7, -17, -31, 31, 1, 3, -5, 12, -35, -63, -29, -4, -17, -75, -79, -2, -3, -2, 8, -3, -85, 10, -2, -82, -82, 56], "withholdReward": false, "trial_id": "mdp_trial_35", "block": "test", "trialIndex": 38, "score": 42.8, "costs": -4.199999999999999, "simulationMode": [null, null, null, null, null, null], "rewards": [-2, -3, -2, -2, 56], "path": ["0", "0", "23", "24", "25", "30", "33"], "rt": [7233, 244, 202, 161, 340, 23], "actions": ["left", "left", "left", "left", "down", "left"], "actionTimes": [8939, 9195, 9925, 10608, 11462, 11998], "queries": {"click": {"state": {"target": ["32", "33", "27"], "time": [4024, 6112, 8147]}, "edge": {"target": [], "time": []}}, "mouseover": {"state": {"target": ["23", "24", "25", "30", "30", "32", "33", "26", "11", "11", "27"], "time": [2448, 2514, 2947, 3181, 3413, 3600, 4954, 6579, 6637, 6818, 6998]}, "edge": {"target": [], "time": []}}, "mouseout": {"state": {"target": ["23", "24", "25", "30", "30", "32", "33", "26", "11", "11"], "time": [2480, 2882, 3148, 3214, 3531, 4623, 6547, 6610, 6702, 6872]}, "edge": {"target": [], "time": []}}}, "displayed_time": "15.71", "trialTime": 16863, "trial_type": "mouselab-mdp", "trial_index": 49, "time_elapsed": 2293726, "internal_node_id": "0.0-6.0-1.0-34.0"}}, {"uniqueid": "w56991682:a12860498", "current_trial": 50, "dateTime": 1693483196976, "trialdata": {"revealed_states": [], "clicked_states": ["5"], "num_clicks_accrued": [0, 0, 0, 0, 0, 0, 0, 0, 0, 0, 0, 0, 0], "stateRewards": ["", 2, -1, -4, -13, 74, 77, 3, 2, -43, -2, -11, 2, 3, 7, 11, -26, -29, -33, -3, -3, -13, -3, 1, 3, -7, 14, -59, 33, 9, -5, 34, 79, 68], "withholdReward": false, "trial_id": "mdp_trial_36", "block": "test", "trialIndex": 39, "score": 56.6, "costs": -1.4, "simulationMode": [null, null, null, null, null], "rewards": [2, -1, -4, -13, 74], "path": ["0", "0", "1", "2", "3", "4", "5"], "rt": [4135, 27, 5, 319, 368], "actions": ["up", "up", "up", "right", "up"], "actionTimes": [5744, 6328, 6873, 7772, 8642], "queries": {"click": {"state": {"target": ["5"], "time": [3105]}, "edge": {"target": [], "time": []}}, "mouseover": {"state": {"target": ["1", "2", "3", "5", "9"], "time": [2416, 2450, 2500, 2633, 3926]}, "edge": {"target": [], "time": []}}, "mouseout": {"state": {"target": ["27", "26", "28", "1", "2", "3", "5"], "time": [417, 549, 667, 2431, 2486, 2535, 3638]}, "edge": {"target": [], "time": []}}}, "displayed_time": "15.62", "trialTime": 16221, "trial_type": "mouselab-mdp", "trial_index": 50, "time_elapsed": 2310397, "internal_node_id": "0.0-6.0-1.0-35.0"}}, {"uniqueid": "w56991682:a12860498", "current_trial": 51, "dateTime": 1693483219393, "trialdata": {"revealed_states": [], "clicked_states": ["1", "5", "17", "29", "33"], "num_clicks_accrued": [0, 0, 0, 0, 0, 0, 0, 0, 0, 0, 0, 0, 0], "stateRewards": ["", -2, 2, -2, -7, -50, -62, -45, 7, 36, -24, -72, -1, -1, 8, -1, -67, 20, -52, 2, 35, -50, 80, -1, 1, 6, -6, -70, 6, 88, 8, -47, 74, -19], "withholdReward": false, "trial_id": "mdp_trial_37", "block": "test", "trialIndex": 40, "score": 81, "costs": -7, "simulationMode": [null, null, null, null, null, null], "rewards": [-1, 1, 6, -6, 88], "path": ["0", "0", "23", "24", "25", "26", "29"], "rt": [12659, 390, 371, 54, 444, 600], "actions": ["left", "left", "left", "left", "up", "left"], "actionTimes": [14533, 14928, 15836, 16420, 17436, 18558], "queries": {"click": {"state": {"target": ["1", "5", "17", "29", "33"], "time": [3190, 5611, 8376, 11304, 13566]}, "edge": {"target": [], "time": []}}, "mouseover": {"state": {"target": ["1", "2", "4", "5", "6", "16", "17", "15", "1", "26", "29", "29", "33"], "time": [2607, 3691, 3856, 4106, 6079, 6161, 6531, 9192, 10389, 10490, 10626, 11006, 12127]}, "edge": {"target": [], "time": []}}, "mouseout": {"state": {"target": ["9", "8", "0", "1", "2", "4", "5", "6", "16", "17", "15", "1", "26", "29", "29"], "time": [839, 889, 2533, 3656, 3772, 3889, 6047, 6128, 6212, 9125, 9376, 10426, 10623, 10659, 11926]}, "edge": {"target": [], "time": []}}}, "displayed_time": "19.08", "trialTime": 21964, "trial_type": "mouselab-mdp", "trial_index": 51, "time_elapsed": 2332814, "internal_node_id": "0.0-6.0-1.0-36.0"}}, {"uniqueid": "w56991682:a12860498", "current_trial": 52, "dateTime": 1693483237587, "trialdata": {"revealed_states": [], "clicked_states": ["17"], "num_clicks_accrued": [0, 0, 0, 0, 0, 0, 0, 0, 0, 0, 0, 0, 0], "stateRewards": ["", 2, -3, -8, 14, -7, -51, 73, 2, 36, 36, -43, -1, 3, -4, 1, 6, 87, -65, 15, 61, -42, -83, -1, 3, -2, -7, 30, -48, 35, 13, 26, 60, 78], "withholdReward": false, "trial_id": "mdp_trial_38", "block": "test", "trialIndex": 41, "score": -3.4000000000000004, "costs": -1.4, "simulationMode": [null, null, null, null, null], "rewards": [2, -3, -8, 14, -7], "path": ["0", "0", "1", "2", "3", "4", "5"], "rt": [4598, 2287, 304, 339, 1082], "actions": ["up", "up", "up", "right", "up"], "actionTimes": [6226, 9035, 9846, 10701, 12324], "queries": {"click": {"state": {"target": ["17"], "time": [3780]}, "edge": {"target": [], "time": []}}, "mouseover": {"state": {"target": ["1", "17", "20", "21"], "time": [2522, 3289, 4609, 4842]}, "edge": {"target": [], "time": []}}, "mouseout": {"state": {"target": ["33", "23", "0", "1", "17", "20", "21"], "time": [539, 671, 954, 3140, 4491, 4658, 17085]}, "edge": {"target": [], "time": []}}}, "displayed_time": "15.64", "trialTime": 17726, "trial_type": "mouselab-mdp", "trial_index": 52, "time_elapsed": 2351009, "internal_node_id": "0.0-6.0-1.0-37.0"}}, {"uniqueid": "w56991682:a12860498", "current_trial": 53, "dateTime": 1693483256884, "trialdata": {"revealed_states": [], "clicked_states": ["17", "16"], "num_clicks_accrued": [0, 0, 0, 0, 0, 0, 0, 0, 0, 0, 0, 0, 0], "stateRewards": ["", -1, -2, -8, 8, -27, -82, 19, -14, -62, 4, 1, -2, 2, 6, 10, 73, -51, -2, 2, 73, -48, 54, -1, 2, -4, 11, -25, 47, 86, 15, 33, 43, -42], "withholdReward": false, "trial_id": "mdp_trial_39", "block": "test", "trialIndex": 42, "score": 86.2, "costs": -2.8, "simulationMode": [null, null, null, null, null], "rewards": [-2, 2, 6, 10, 73], "path": ["0", "0", "12", "13", "14", "15", "16"], "rt": [6440, 208, 339, 141, 399], "actions": ["right", "right", "right", "up", "up"], "actionTimes": [8442, 9175, 10039, 10720, 11652], "queries": {"click": {"state": {"target": ["17", "16"], "time": [3288, 5312]}, "edge": {"target": [], "time": []}}, "mouseover": {"state": {"target": ["17", "16", "2", "27", "12", "13"], "time": [2725, 3960, 6113, 6865, 7860, 7917]}, "edge": {"target": [], "time": []}}, "mouseout": {"state": {"target": ["0", "17", "16", "2", "27", "12", "13", "13", "15", "18", "12"], "time": [2591, 3828, 6064, 6163, 7659, 7912, 16162, 17092, 17675, 18092, 18209]}, "edge": {"target": [], "time": []}}}, "displayed_time": "16.01", "trialTime": 18792, "trial_type": "mouselab-mdp", "trial_index": 53, "time_elapsed": 2370305, "internal_node_id": "0.0-6.0-1.0-38.0"}}, {"uniqueid": "w56991682:a12860498", "current_trial": 54, "dateTime": 1693483274518, "trialdata": {"revealed_states": [], "clicked_states": [], "num_clicks_accrued": [0, 0, 0, 0, 0, 0, 0, 0, 0, 0, 0, 0, 0], "stateRewards": ["", 2, 2, 3, -15, 23, -14, 73, -7, -32, -20, -6, 1, 1, -5, -12, 73, 6, -84, 11, -81, -57, 13, -2, -1, -4, -8, -52, -58, 49, 13, 5, -41, -41], "withholdReward": false, "trial_id": "mdp_trial_40", "block": "test", "trialIndex": 43, "score": -49, "costs": 0, "simulationMode": [null, null, null, null, null], "rewards": [1, 1, -5, 11, -57], "path": ["0", "0", "12", "13", "14", "19", "21"], "rt": [2129, 233, 49, 456, 146], "actions": ["right", "right", "right", "down", "down"], "actionTimes": [3404, 4151, 4718, 5719, 6387], "queries": {"click": {"state": {"target": [], "time": []}, "edge": {"target": [], "time": []}}, "mouseover": {"state": {"target": ["15", "17"], "time": [2177, 2560]}, "edge": {"target": [], "time": []}}, "mouseout": {"state": {"target": ["0", "15"], "time": [543, 2211]}, "edge": {"target": [], "time": []}}}, "displayed_time": "15.28", "trialTime": 17129, "trial_type": "mouselab-mdp", "trial_index": 54, "time_elapsed": 2387940, "internal_node_id": "0.0-6.0-1.0-39.0"}}, {"uniqueid": "w56991682:a12860498", "current_trial": 55, "dateTime": 1693483325209, "trialdata": {"rt": 50684, "response": {"Q0": "$-16 to 16", "Q1": "$-32 to $32", "Q2": "$-16 to $16", "Q3": "The cost for clicking on nodes varied between nodes.", "Q4": "Slightly motivated"}, "question_order": [0, 1, 2, 3, 4], "trial_id": "final_quiz_control", "trial_type": "survey-multi-choice", "trial_index": 55, "time_elapsed": 2438631, "internal_node_id": "0.0-6.0-2.0"}}, {"uniqueid": "w56991682:a12860498", "current_trial": 56, "dateTime": 1693483367818, "trialdata": {"rt": 42590, "response": {"Q0": "Check the end of the spide web", "Q1": "Yes, Checking the last web", "Q2": "The values kept changing"}, "trial_id": "self_report_control", "trial_type": "survey-text", "trial_index": 56, "time_elapsed": 2481240, "internal_node_id": "0.0-6.0-3.0"}}, {"uniqueid": "w56991682:a12860498", "current_trial": 57, "dateTime": 1693483386671, "trialdata": {"rt": 18846, "response": {"gender": "female", "age": "28", "colorblind": "0", "effort": "0"}, "trial_type": "survey-html-form", "trial_index": 57, "time_elapsed": 2500093, "internal_node_id": "0.0-6.0-4.0"}}, {"uniqueid": "w56991682:a12860498", "current_trial": 58, "dateTime": 1693483415337, "trialdata": {"rt": 28656, "response": {"Q0": "No", "Q1": "No", "Q2": "NA"}, "trial_type": "survey-text", "trial_index": 58, "time_elapsed": 2528758, "internal_node_id": "0.0-6.0-5.0"}}, {"uniqueid": "w56991682:a12860498", "current_trial": 59, "dateTime": 1693483423131, "trialdata": {"rt": 7784, "stimulus": "<h1>Completion Code Instructions (1/2)</h1>\n<br><br><br><br>\nYou have reached the end of the experiment! The completion code consists of two parts: (1) a code with 2 characters (2) a code with 6 characters. On this page, you will receive the second part of the code. The first part of the completion code will be on the next page.\n<br><br>\nThe second part of your completion code is: <b>EWEK22</b>\n<br><br>\nPlease note this down. Then, press 'Finish HIT' in order to find the first part of your completion code. Once the data has been saved, you will receive this code either in this window or in the original browser window where you started the experiment.\n", "response": 0, "trial_type": "html-button-response", "trial_index": 59, "time_elapsed": 2536553, "internal_node_id": "0.0-6.0-6.0"}}, {"uniqueid": "w56991682:a12860498", "current_trial": 60, "dateTime": 1693483424139, "trialdata": {"success": true, "trial_type": "fullscreen", "trial_index": 60, "time_elapsed": 2537560, "internal_node_id": "0.0-7.0"}}], "questiondata": {"params": {"CODE": "C6DMOQA6", "MIN_TIME": 14, "inspectCost": 1, "startTime": "Thu Aug 31 2023 13:21:24 GMT+0200 (South Africa Standard Time)", "bonusRate": 0.002, "variance": "1_2_4_8_44", "branching": "31123"}, "final_score": 1214.6}, "eventdata": [{"eventtype": "initialized", "value": null, "timestamp": 1693480883615, "interval": 0}, {"eventtype": "window_resize", "value": [1024, 654], "timestamp": 1693480883615, "interval": 0}, {"eventtype": "window_resize", "value": [1024, 654], "timestamp": 1693480884141, "interval": 526}, {"eventtype": "window_resize", "value": [1366, 768], "timestamp": 1693480895017, "interval": 10876}, {"eventtype": "focus", "value": "off", "timestamp": 1693481770327, "interval": 875310}, {"eventtype": "focus", "value": "on", "timestamp": 1693481770328, "interval": 1}, {"eventtype": "window_resize", "value": [1024, 654], "timestamp": 1693481770546, "interval": 218}, {"eventtype": "window_resize", "value": [1366, 768], "timestamp": 1693481772984, "interval": 2438}, {"eventtype": "window_resize", "value": [1024, 654], "timestamp": 1693483423417, "interval": 1650433}], "useragent": "Mozilla/5.0 (Windows NT 10.0; Win64; x64) AppleWebKit/537.36 (KHTML, like Gecko) Chrome/116.0.0.0 Safari/537.36", "mode": "live", "id": "w56991682:a12860498", "status": "user data saved", "Beginhit": "2023-08-31 11:21:17.406254", "Beginexp": "2023-08-31 11:21:33.974125", "Endhit": "2023-08-31 12:03:43.542077", "psiturkStatus": 3, "browser": "<redacted>", "platform": "windows", "language": "en-US"}