{"condition": 1, "counterbalance": 0, "assignmentId": "a14518424", "workerId": "w21827938", "hitId": "h39173957", "currenttrial": 56, "bonus": 0, "data": [{"uniqueid": "w21827938:a14518424", "current_trial": 0, "dateTime": 1691142214385, "trialdata": {"success": true, "trial_type": "fullscreen", "trial_index": 0, "time_elapsed": 65008, "internal_node_id": "0.0-0.0"}}, {"uniqueid": "w21827938:a14518424", "current_trial": 1, "dateTime": 1691142247273, "trialdata": {"view_history": [{"page_index": 0, "viewing_time": 32879}], "rt": 32880, "trial_id": "exp_instructions_misaligned", "trial_type": "instructions", "trial_index": 1, "time_elapsed": 97897, "internal_node_id": "0.0-1.0"}}, {"uniqueid": "w21827938:a14518424", "current_trial": 2, "dateTime": 1691142263103, "trialdata": {"success": true, "trial_type": "fullscreen", "trial_index": 2, "time_elapsed": 113727, "internal_node_id": "0.0-2.0-0.0"}}, {"uniqueid": "w21827938:a14518424", "current_trial": 3, "dateTime": 1691142607589, "trialdata": {"view_history": [{"page_index": 0, "viewing_time": 201385}, {"page_index": 1, "viewing_time": 76294}, {"page_index": 2, "viewing_time": 25534}, {"page_index": 3, "viewing_time": 41270}], "rt": 344483, "trial_id": "mouselab_instructions_1_misaligned", "trial_type": "instructions", "trial_index": 3, "time_elapsed": 458212, "internal_node_id": "0.0-2.0-1.0"}}, {"uniqueid": "w21827938:a14518424", "current_trial": 4, "dateTime": 1691142688120, "trialdata": {"revealed_states": [], "clicked_states": ["1", "12", "13", "14", "15", "16", "3", "2", "4", "7", "9", "5", "6", "8", "10", "11", "18", "17", "22", "19", "20"], "num_clicks_accrued": [0, 0, 0, 0, 0, 0, 0, 0, 0, 0, 0, 0, 0], "stateRewards": ["", -10, -10, -10, 10, -10, -10, -10, -10, 10, -10, 10, 10, 10, -10, 10, 10, -10, 10, -10, 10, 10, 10, -10, -10, 10, 10, 10, -10, 10, 10, -10, 10, 10], "withholdReward": false, "trial_id": "practice_1", "block": "test", "trialIndex": 0, "score": 23, "costs": -10.5, "simulationMode": [null, null, null, null, null, null], "rewards": [10, 10, -10, 10, 10], "path": ["0", "0", "12", "13", "14", "15", "16"], "rt": [47373, 675, 14841, 1489, 305, 114], "actions": ["right", "right", "right", "right", "up", "up"], "actionTimes": [50794, 51473, 66826, 68809, 69641, 70249], "queries": {"click": {"state": {"target": ["1", "12", "13", "14", "15", "16", "3", "2", "4", "7", "9", "5", "6", "8", "10", "11", "18", "17", "22", "19", "20"], "time": [8653, 10664, 13909, 17958, 19838, 21600, 23305, 24982, 26607, 28865, 30848, 32405, 33421, 35219, 36768, 38501, 40564, 42013, 45978, 47613, 49793]}, "edge": {"target": [], "time": []}}, "mouseover": {"state": {"target": ["1", "23", "1", "1", "12", "13", "14", "15", "16", "16", "3", "3", "3", "2", "4", "7", "9", "5", "5", "6", "4", "3", "8", "10", "11", "11", "23", "18", "15", "17", "17", "19", "14", "19", "22", "19", "20", "19", "20"], "time": [4448, 5217, 6918, 7901, 10202, 13553, 17535, 19048, 20349, 21384, 22465, 22649, 22985, 23933, 25649, 28402, 30549, 31932, 32148, 33132, 34049, 34598, 34765, 35749, 37216, 38135, 39233, 40352, 40799, 40916, 41802, 42966, 43199, 45635, 45818, 46283, 46916, 47149, 48049]}, "edge": {"target": [], "time": []}}, "mouseout": {"state": {"target": ["0", "1", "0", "1", "23", "1", "1", "12", "13", "13", "14", "15", "16", "16", "16", "3", "3", "3", "2", "3", "4", "4", "7", "4", "9", "5", "5", "6", "4", "3", "8", "10", "11", "10", "10", "11", "23", "18", "15", "17", "17", "19", "14", "19", "22", "19", "20", "19", "20", "20", "13", "13", "14", "19", "21", "22", "22", "0", "23", "0", "13", "1", "0", "23"], "time": [484, 2901, 4352, 5051, 5484, 7185, 9632, 13519, 15801, 17484, 18899, 19907, 20449, 21681, 22283, 22482, 22698, 23782, 25315, 25516, 26697, 27166, 30003, 30232, 31682, 32082, 32815, 33965, 34548, 34732, 35632, 37099, 37382, 37435, 38052, 38916, 39565, 40766, 40849, 41566, 42349, 43165, 45435, 45652, 46199, 46799, 47037, 47983, 49915, 51385, 52568, 54002, 55686, 55969, 57202, 57818, 57935, 57985, 59569, 59802, 62470, 62732, 63487, 67266]}, "edge": {"target": [], "time": []}}}, "displayed_time": "70.77", "trialTime": 79338, "trial_type": "mouselab-mdp", "trial_index": 4, "time_elapsed": 538743, "internal_node_id": "0.0-2.0-2.0-0.0"}}, {"uniqueid": "w21827938:a14518424", "current_trial": 5, "dateTime": 1691142741712, "trialdata": {"revealed_states": [], "clicked_states": ["1", "2", "3", "8", "4", "6", "7", "12", "13", "14", "23", "24", "25", "26", "27"], "num_clicks_accrued": [0, 0, 0, 0, 0, 0, 0, 0, 0, 0, 0, 0, 0], "stateRewards": ["", 10, 10, -10, 10, -10, -10, 10, -10, 10, 10, 10, -10, -10, 10, 10, 10, -10, -10, 10, -10, 10, -10, 10, -10, -10, -10, -10, 10, -10, 10, -10, -10, 10], "withholdReward": false, "trial_id": "practice_2", "block": "test", "trialIndex": 1, "score": 26, "costs": -7.5, "simulationMode": [null, null, null, null, null], "rewards": [10, 10, -10, 10, 10], "path": ["0", "0", "1", "2", "3", "4", "7"], "rt": [38795, 1005, 247, 169, 565], "actions": ["up", "up", "up", "right", "down"], "actionTimes": [42530, 44041, 44816, 45488, 46552], "queries": {"click": {"state": {"target": ["1", "2", "3", "8", "4", "6", "7", "12", "13", "14", "23", "24", "25", "26", "27"], "time": [6788, 10368, 13532, 16409, 18617, 20982, 22532, 26519, 28081, 30775, 32813, 34345, 35892, 37322, 38667]}, "edge": {"target": [], "time": []}}, "mouseover": {"state": {"target": ["0", "1", "2", "3", "3", "10", "8", "10", "4", "7", "12", "7", "6", "7", "12", "13", "14", "15", "18", "23", "25", "25", "24", "23", "24", "25", "26", "27", "28"], "time": [5952, 6299, 9316, 12035, 12335, 15601, 16102, 16999, 18419, 18949, 19082, 20516, 20802, 22151, 25652, 27516, 28649, 31266, 32053, 32100, 32150, 32370, 32434, 32584, 33183, 35183, 36567, 37851, 39500]}, "edge": {"target": [], "time": []}}, "mouseout": {"state": {"target": ["0", "0", "1", "1", "2", "3", "3", "3", "10", "8", "10", "4", "7", "12", "7", "6", "7", "7", "12", "13", "14", "15", "18", "23", "25", "25", "24", "23", "24", "25", "26", "27", "28", "2"], "time": [4951, 6151, 7416, 9185, 11049, 12119, 14316, 15418, 15918, 16883, 17066, 18899, 18982, 20252, 20618, 21416, 22625, 23183, 27316, 28616, 31066, 32036, 32068, 32117, 32167, 32404, 32500, 33100, 35100, 36467, 37750, 39151, 39883, 47470]}, "edge": {"target": [], "time": []}}}, "displayed_time": "47.05", "trialTime": 53296, "trial_type": "mouselab-mdp", "trial_index": 5, "time_elapsed": 592335, "internal_node_id": "0.0-2.0-2.0-1.0"}}, {"uniqueid": "w21827938:a14518424", "current_trial": 6, "dateTime": 1691142784729, "trialdata": {"view_history": [{"page_index": 0, "viewing_time": 30948}, {"page_index": 1, "viewing_time": 12064}], "rt": 43012, "trial_id": "mouselab_instructions_2_misaligned", "trial_type": "instructions", "trial_index": 6, "time_elapsed": 635353, "internal_node_id": "0.0-2.0-3.0"}}, {"uniqueid": "w21827938:a14518424", "current_trial": 7, "dateTime": 1691142839299, "trialdata": {"rt": 54566, "response": {"Q0": "The cost for clicking on nodes may vary between nodes.", "Q1": "The better I perform the higher my bonus will be.", "Q2": "No, the amount of cash at each node of the web may be different each time.", "Q3": "To get the highest total score.", "Q4": "Only before moving the spider.", "Q5": "3 seconds"}, "question_order": [0, 1, 2, 3, 4, 5], "correct": {"Q0": "The cost for clicking on nodes may vary between nodes.", "Q1": "The better I perform the higher my bonus will be.", "Q2": "No, the amount of cash at each node of the web may be different each time.", "Q3": "To get the highest total score.", "Q4": "Only before moving the spider.", "Q5": "3 seconds"}, "trial_id": "mouselab_quiz_misaligned", "trial_type": "survey-multi-choice", "trial_index": 7, "time_elapsed": 689923, "internal_node_id": "0.0-2.0-4.0"}}, {"uniqueid": "w21827938:a14518424", "current_trial": 8, "dateTime": 1691142849839, "trialdata": {"rt": 10532, "stimulus": "\n<h1> Get ready to start the game! </h1>\n\nThank you for reading the instructions. Get ready start with the 40 rounds of this game.\n<br><br>\nIf you need to take a break, feel free to take one after the end of a round, before continuing to the next one.\n<br><br>\nRemember, the more money the spider gets, the bigger your bonus will be!\n<br><br>\n<div style='text-align: center;'>Press <code>space</code> to begin.</div>\n\n<br><br>\n(If, at any point, the <code>space</code> key does not take you to the next page, click once on the text and try again.)", "response": " ", "trial_id": "mdp_ready", "trial_type": "html-keyboard-response", "trial_index": 8, "time_elapsed": 700463, "internal_node_id": "0.0-4.0-0.0"}}, {"uniqueid": "w21827938:a14518424", "current_trial": 9, "dateTime": 1691142892143, "trialdata": {"revealed_states": [], "clicked_states": ["1", "2", "7", "10", "8", "11", "9"], "num_clicks_accrued": [0, 0, 0, 0, 0, 0, 0, 0, 0, 0, 0, 0, 0], "stateRewards": ["", 1, -4, -6, 11, -20, 8, -30, 1, -38, 88, 42, 2, 3, 5, -12, -8, -74, 30, -8, 67, -19, 42, 2, -1, 4, 13, 50, -68, 2, -8, -15, 87, -46], "withholdReward": false, "trial_id": "mdp_trial_1", "block": "test", "trialIndex": 2, "score": 69.75, "costs": -10.25, "simulationMode": [null, null, null, null, null], "rewards": [1, -4, -6, 1, 88], "path": ["0", "0", "1", "2", "3", "8", "10"], "rt": [24612, 346, 5185, 701, 310], "actions": ["up", "up", "up", "left", "down"], "actionTimes": [26325, 27172, 32860, 34059, 34867], "queries": {"click": {"state": {"target": ["1", "2", "7", "10", "8", "11", "9"], "time": [3604, 6104, 7619, 11570, 16088, 18362, 21865]}, "edge": {"target": [], "time": []}}, "mouseover": {"state": {"target": ["1", "2", "7", "10", "23", "8", "3", "11", "9", "8"], "time": [2725, 4621, 6638, 9455, 12505, 15591, 16555, 18141, 20488, 22605]}, "edge": {"target": [], "time": []}}, "mouseout": {"state": {"target": ["1", "0", "1", "1", "2", "7", "10", "23", "10", "8", "3", "11", "9", "8", "3", "8", "11", "8", "10"], "time": [1072, 2624, 3921, 4538, 6588, 7988, 11938, 15475, 15558, 16505, 17791, 18688, 22338, 23672, 36741, 36825, 37824, 39508, 39791]}, "edge": {"target": [], "time": []}}}, "displayed_time": "35.37", "trialTime": 41996, "trial_type": "mouselab-mdp", "trial_index": 9, "time_elapsed": 742766, "internal_node_id": "0.0-4.0-1.0-0.0"}}, {"uniqueid": "w21827938:a14518424", "current_trial": 10, "dateTime": 1691142913606, "trialdata": {"revealed_states": [], "clicked_states": [], "num_clicks_accrued": [0, 0, 0, 0, 0, 0, 0, 0, 0, 0, 0, 0, 0], "stateRewards": ["", -2, 4, -7, -3, -76, 39, -28, 10, 14, 12, 60, 2, -3, 6, -10, 88, -34, -41, -3, 72, -13, -56, 1, 3, 2, 8, -51, 23, -57, 1, 14, -46, -16], "withholdReward": false, "trial_id": "mdp_trial_2", "block": "test", "trialIndex": 3, "score": -36, "costs": 0, "simulationMode": [null, null, null, null, null], "rewards": [-2, 4, -7, -3, -28], "path": ["0", "0", "1", "2", "3", "4", "7"], "rt": [9658, 2376, 710, 373, 298], "actions": ["up", "up", "up", "right", "down"], "actionTimes": [11844, 14739, 15955, 16835, 17626], "queries": {"click": {"state": {"target": [], "time": []}, "edge": {"target": [], "time": []}}, "mouseover": {"state": {"target": ["23", "23", "0", "1"], "time": [3145, 4278, 9178, 9411]}, "edge": {"target": [], "time": []}}, "mouseout": {"state": {"target": ["0", "23", "23", "0", "1", "1"], "time": [2959, 3494, 6878, 9261, 12375, 19812]}, "edge": {"target": [], "time": []}}}, "displayed_time": "18.16", "trialTime": 21162, "trial_type": "mouselab-mdp", "trial_index": 10, "time_elapsed": 764230, "internal_node_id": "0.0-4.0-1.0-1.0"}}, {"uniqueid": "w21827938:a14518424", "current_trial": 11, "dateTime": 1691142943974, "trialdata": {"revealed_states": [], "clicked_states": ["1", "12", "10", "7", "2"], "num_clicks_accrued": [0, 0, 0, 0, 0, 0, 0, 0, 0, 0, 0, 0, 0], "stateRewards": ["", -2, -1, -3, -1, -78, -6, 2, -1, 22, -88, 32, 2, 2, -7, -8, -51, -17, 54, 2, -44, 54, 75, 2, -2, -8, -15, -29, 12, -67, 15, -1, -47, -47], "withholdReward": false, "trial_id": "mdp_trial_3", "block": "test", "trialIndex": 4, "score": -66.15, "costs": -4.1499999999999995, "simulationMode": [null, null, null, null, null], "rewards": [2, 2, -7, -8, -51], "path": ["0", "0", "12", "13", "14", "15", "16"], "rt": [22436, 138, 178, 439, 577], "actions": ["right", "right", "right", "up", "up"], "actionTimes": [23733, 24365, 25037, 25980, 27053], "queries": {"click": {"state": {"target": ["1", "12", "10", "7", "2"], "time": [2633, 4599, 7308, 10930, 14168]}, "edge": {"target": [], "time": []}}, "mouseover": {"state": {"target": ["1", "2", "7", "12", "12", "2", "10", "2", "7", "2", "3", "12", "13"], "time": [2375, 3705, 3942, 4075, 4292, 5406, 5875, 8023, 10709, 13373, 14656, 20642, 22196]}, "edge": {"target": [], "time": []}}, "mouseout": {"state": {"target": ["1", "0", "1", "2", "7", "12", "12", "2", "10", "2", "7", "2", "3", "12", "13", "13"], "time": [540, 2275, 3439, 3722, 3959, 4122, 5139, 5825, 7939, 10542, 11289, 14572, 19872, 21489, 28737, 29159]}, "edge": {"target": [], "time": []}}}, "displayed_time": "27.56", "trialTime": 30060, "trial_type": "mouselab-mdp", "trial_index": 11, "time_elapsed": 794597, "internal_node_id": "0.0-4.0-1.0-2.0"}}, {"uniqueid": "w21827938:a14518424", "current_trial": 12, "dateTime": 1691142997965, "trialdata": {"revealed_states": [], "clicked_states": ["16", "6", "11", "27", "21", "29", "28", "31", "32", "33"], "num_clicks_accrued": [0, 0, 0, 0, 0, 0, 0, 0, 0, 0, 0, 0, 0], "stateRewards": ["", 1, -2, -3, 14, -42, -87, -37, -11, -50, 33, -44, -2, 4, -7, 13, 48, -75, -66, 12, 23, -2, 82, 1, -4, 3, 12, 51, -15, -26, -11, -52, -29, 82], "withholdReward": false, "trial_id": "mdp_trial_4", "block": "test", "trialIndex": 5, "score": 49.5, "costs": -21.499999999999996, "simulationMode": [null, null, null, null, null], "rewards": [1, -4, 3, -11, 82], "path": ["0", "0", "23", "24", "25", "30", "33"], "rt": [46689, 521, 394, 182, 322], "actions": ["left", "left", "left", "down", "left"], "actionTimes": [47925, 48948, 49836, 50524, 51348], "queries": {"click": {"state": {"target": ["16", "6", "11", "27", "21", "29", "28", "31", "32", "33"], "time": [4230, 8240, 12032, 15674, 19506, 23345, 27181, 31103, 34457, 37881]}, "edge": {"target": [], "time": []}}, "mouseover": {"state": {"target": ["0", "0", "13", "14", "15", "16", "13", "12", "7", "6", "7", "1", "11", "28", "26", "27", "28", "23", "22", "21", "20", "12", "0", "25", "29", "26", "28", "28", "24", "31", "30", "32", "33", "33", "23", "0", "20"], "time": [1826, 2192, 2743, 2876, 3057, 3576, 4823, 6157, 7626, 7926, 8656, 8773, 11743, 12673, 15243, 15409, 16106, 16156, 16323, 19159, 20273, 22759, 22780, 22822, 23092, 23723, 26542, 26826, 27723, 30693, 31590, 32323, 34923, 35223, 38373, 38410, 39590]}, "edge": {"target": [], "time": []}}, "mouseout": {"state": {"target": ["0", "0", "0", "13", "14", "15", "16", "13", "12", "7", "6", "7", "1", "11", "28", "26", "27", "28", "23", "22", "21", "20", "12", "0", "25", "29", "26", "28", "28", "24", "31", "30", "32", "33", "33", "23", "0", "20"], "time": [1659, 2026, 2326, 2806, 2891, 3526, 4707, 4856, 6440, 7660, 8607, 8724, 8790, 12373, 12907, 15276, 16056, 16123, 16173, 16773, 20206, 20289, 22776, 22790, 22839, 23675, 23773, 26562, 27690, 27806, 31556, 31640, 34544, 34956, 37952, 38407, 38440, 52676]}, "edge": {"target": [], "time": []}}}, "displayed_time": "51.84", "trialTime": 53668, "trial_type": "mouselab-mdp", "trial_index": 12, "time_elapsed": 848588, "internal_node_id": "0.0-4.0-1.0-3.0"}}, {"uniqueid": "w21827938:a14518424", "current_trial": 13, "dateTime": 1691143040838, "trialdata": {"revealed_states": [], "clicked_states": ["32", "21", "16", "5", "9", "11", "6"], "num_clicks_accrued": [0, 0, 0, 0, 0, 0, 0, 0, 0, 0, 0, 0, 0], "stateRewards": ["", -1, 2, 7, 8, 75, 67, -11, 6, 52, -17, 38, -1, 4, -8, 14, 74, -37, -17, -12, 52, 55, 71, -2, -1, -5, 2, 21, 6, -88, -14, 64, -61, -47], "withholdReward": false, "trial_id": "mdp_trial_5", "block": "test", "trialIndex": 6, "score": 75.95, "costs": -15.05, "simulationMode": [null, null, null, null, null], "rewards": [-1, 2, 7, 8, 75], "path": ["0", "0", "1", "2", "3", "4", "5"], "rt": [33450, 13, 338, 103, 120], "actions": ["up", "up", "up", "right", "up"], "actionTimes": [34989, 35523, 36364, 36964, 37580], "queries": {"click": {"state": {"target": ["32", "21", "16", "5", "9", "11", "6"], "time": [2718, 6149, 10616, 15330, 18791, 22365, 25673]}, "edge": {"target": [], "time": []}}, "mouseover": {"state": {"target": ["32", "21", "21", "19", "19", "14", "15", "16", "17", "6", "5", "6", "4", "9", "11", "8", "3", "4", "6", "16", "17", "17"], "time": [2376, 3306, 3656, 6672, 6739, 10160, 10194, 10256, 11089, 14659, 14925, 16272, 17622, 18091, 22090, 22741, 22773, 22810, 22857, 26378, 27057, 33077]}, "edge": {"target": [], "time": []}}, "mouseout": {"state": {"target": ["20", "13", "12", "0", "32", "21", "21", "19", "19", "14", "15", "16", "17", "6", "5", "6", "4", "9", "9", "11", "8", "3", "4", "6", "16", "17", "17", "17", "19"], "time": [740, 806, 938, 2056, 3173, 3456, 6606, 6706, 10142, 10190, 10208, 10989, 14309, 14692, 15906, 16706, 17773, 19375, 21976, 22723, 22758, 22807, 22840, 26307, 26391, 32277, 34010, 41493, 41693]}, "edge": {"target": [], "time": []}}}, "displayed_time": "38.08", "trialTime": 42540, "trial_type": "mouselab-mdp", "trial_index": 13, "time_elapsed": 891461, "internal_node_id": "0.0-4.0-1.0-4.0"}}, {"uniqueid": "w21827938:a14518424", "current_trial": 14, "dateTime": 1691143097524, "trialdata": {"revealed_states": [], "clicked_states": ["32", "21", "16", "5", "6", "17", "20", "27", "9", "11", "29", "33"], "num_clicks_accrued": [0, 0, 0, 0, 0, 0, 0, 0, 0, 0, 0, 0, 0], "stateRewards": ["", -2, -3, 4, 1, 33, -53, 15, 9, -12, 61, -6, -2, 4, 6, -11, 47, -43, -7, -11, 46, 23, -28, -1, -1, 3, -10, 11, 76, -76, 10, 18, -38, 87], "withholdReward": false, "trial_id": "mdp_trial_6", "block": "test", "trialIndex": 7, "score": 72.2, "costs": -25.799999999999994, "simulationMode": [null, null, null, null, null], "rewards": [-1, -1, 3, 10, 87], "path": ["0", "0", "23", "24", "25", "30", "33"], "rt": [48764, 149, 100, 27, 222], "actions": ["left", "left", "left", "down", "left"], "actionTimes": [51076, 51739, 52339, 52866, 53611], "queries": {"click": {"state": {"target": ["32", "21", "16", "5", "6", "17", "20", "27", "9", "11", "29", "33"], "time": [3475, 6850, 10392, 14349, 17938, 21372, 24717, 30227, 34033, 37558, 41889, 45181]}, "edge": {"target": [], "time": []}}, "mouseover": {"state": {"target": ["32", "21", "21", "20", "15", "16", "6", "5", "5", "6", "6", "16", "17", "20", "19", "22", "31", "30", "25", "27", "9", "8", "11", "11", "10", "10", "26", "29", "33", "25", "24", "28", "0"], "time": [3072, 4719, 4986, 8103, 8286, 8452, 13870, 13920, 14176, 14736, 16536, 18353, 18503, 22020, 25753, 26119, 29503, 29536, 29686, 30053, 33756, 34436, 37122, 37356, 38003, 40755, 41389, 41556, 42236, 45603, 45720, 45920, 49286]}, "edge": {"target": [], "time": []}}, "mouseout": {"state": {"target": ["0", "32", "21", "21", "20", "15", "16", "16", "6", "5", "5", "5", "6", "16", "16", "6", "16", "17", "20", "19", "22", "31", "30", "25", "27", "27", "9", "8", "11", "11", "10", "10", "26", "29", "33", "25", "24", "28", "0", "0"], "time": [2436, 3836, 4752, 7352, 8186, 8336, 10819, 13839, 13887, 14115, 14445, 14703, 14754, 15236, 16353, 18303, 18419, 21903, 25670, 25920, 29421, 29519, 29653, 29703, 30297, 30686, 34403, 34453, 37222, 37936, 38069, 41256, 41439, 42122, 45486, 45653, 45736, 48923, 50539, 55639]}, "edge": {"target": [], "time": []}}}, "displayed_time": "54.12", "trialTime": 56339, "trial_type": "mouselab-mdp", "trial_index": 14, "time_elapsed": 948148, "internal_node_id": "0.0-4.0-1.0-5.0"}}, {"uniqueid": "w21827938:a14518424", "current_trial": 15, "dateTime": 1691143179803, "trialdata": {"revealed_states": [], "clicked_states": ["21", "16", "20", "22", "17", "18", "11", "9", "6", "5", "7", "10", "27", "29", "28", "31", "32", "33"], "num_clicks_accrued": [0, 0, 0, 0, 0, 0, 0, 0, 0, 0, 0, 0, 0], "stateRewards": ["", 1, 4, -8, -5, -15, -7, 21, 13, -30, 40, -65, 1, 1, 5, -14, 35, 27, -38, -11, 36, -58, -47, -2, 4, -3, 13, -16, -49, 22, 15, -56, -44, -10], "withholdReward": false, "trial_id": "mdp_trial_7", "block": "test", "trialIndex": 8, "score": -18.69999999999999, "costs": -38.69999999999999, "simulationMode": [null, null, null, null, null], "rewards": [1, 1, 5, -14, 27], "path": ["0", "0", "12", "13", "14", "15", "17"], "rt": [71191, 91, 140, 139, 321], "actions": ["right", "right", "right", "up", "right"], "actionTimes": [72408, 72998, 73630, 74278, 75094], "queries": {"click": {"state": {"target": ["21", "16", "20", "22", "17", "18", "11", "9", "6", "5", "7", "10", "27", "29", "28", "31", "32", "33"], "time": [2228, 6161, 10074, 13680, 17237, 20870, 24929, 28684, 32181, 35731, 38974, 42331, 46737, 50005, 53307, 57579, 60959, 64375]}, "edge": {"target": [], "time": []}}, "mouseover": {"state": {"target": ["21", "19", "14", "15", "16", "16", "17", "20", "19", "22", "14", "17", "17", "15", "18", "18", "12", "23", "31", "32", "33", "29", "11", "10", "2", "7", "6", "9", "9", "6", "5", "4", "7", "7", "2", "10", "27", "26", "25", "29", "26", "28", "24", "24", "31", "24", "31", "32", "33", "23", "12", "12", "15", "6", "6"], "time": [1986, 2621, 2652, 2703, 2802, 3069, 9262, 9572, 10570, 10619, 14270, 14320, 15586, 17653, 17719, 20629, 21236, 21303, 21603, 21936, 24089, 24186, 24453, 25372, 26720, 26753, 26819, 28204, 28507, 29853, 32886, 36003, 36070, 36803, 39303, 39370, 46506, 47053, 47253, 49353, 50337, 50470, 53870, 56557, 56770, 56987, 57223, 60556, 61454, 64804, 64837, 65203, 67923, 68723, 69140]}, "edge": {"target": [], "time": []}}, "mouseout": {"state": {"target": ["0", "21", "19", "14", "15", "16", "16", "17", "20", "19", "22", "14", "17", "17", "15", "18", "18", "12", "23", "31", "32", "33", "29", "11", "10", "2", "7", "6", "9", "9", "6", "5", "4", "7", "7", "2", "10", "27", "27", "26", "25", "29", "26", "28", "24", "24", "31", "24", "31", "32", "33", "23", "12", "12", "15", "6", "6", "6"], "time": [1720, 2570, 2636, 2686, 2752, 3021, 6653, 9455, 10553, 10603, 14220, 14286, 14339, 17636, 17687, 17802, 21136, 21253, 21553, 21686, 24039, 24107, 24236, 25320, 25388, 26736, 26769, 28139, 28220, 29053, 32257, 35986, 36037, 36220, 39270, 39336, 42787, 46786, 47003, 47136, 49103, 50303, 50420, 53737, 54353, 56707, 56939, 57173, 57953, 61370, 64442, 64821, 64870, 67740, 68040, 68821, 70323, 79890]}, "edge": {"target": [], "time": []}}}, "displayed_time": "75.59", "trialTime": 81934, "trial_type": "mouselab-mdp", "trial_index": 15, "time_elapsed": 1030426, "internal_node_id": "0.0-4.0-1.0-6.0"}}, {"uniqueid": "w21827938:a14518424", "current_trial": 16, "dateTime": 1691143201628, "trialdata": {"revealed_states": [], "clicked_states": ["21", "20"], "num_clicks_accrued": [0, 0, 0, 0, 0, 0, 0, 0, 0, 0, 0, 0, 0], "stateRewards": ["", 2, 4, 7, 7, -79, -2, -21, -5, -53, 47, -21, 1, -3, -1, 7, 83, 7, 84, -7, 80, -37, 69, 2, -4, 5, 2, 4, -20, -30, 7, 71, 44, -81], "withholdReward": false, "trial_id": "mdp_trial_8", "block": "test", "trialIndex": 9, "score": 65.7, "costs": -4.3, "simulationMode": [null, null, null, null, null], "rewards": [1, -3, -1, -7, 80], "path": ["0", "0", "12", "13", "14", "19", "20"], "rt": [12926, 451, 237, 143, 254], "actions": ["right", "right", "right", "down", "right"], "actionTimes": [14328, 15303, 16039, 16695, 17455], "queries": {"click": {"state": {"target": ["21", "20"], "time": [2222, 5548]}, "edge": {"target": [], "time": []}}, "mouseover": {"state": {"target": ["19", "21", "20", "19", "22", "14", "15", "16", "15", "14"], "time": [1801, 1999, 2782, 6233, 6332, 12952, 12999, 13099, 13861, 13887]}, "edge": {"target": [], "time": []}}, "mouseout": {"state": {"target": ["16", "18", "12", "0", "19", "21", "20", "19", "22", "14", "15", "16", "15", "14"], "time": [531, 597, 714, 1718, 1866, 2699, 6199, 6266, 12885, 12970, 13049, 13836, 13884, 15919]}, "edge": {"target": [], "time": []}}}, "displayed_time": "17.95", "trialTime": 21504, "trial_type": "mouselab-mdp", "trial_index": 16, "time_elapsed": 1052252, "internal_node_id": "0.0-4.0-1.0-7.0"}}, {"uniqueid": "w21827938:a14518424", "current_trial": 17, "dateTime": 1691143232380, "trialdata": {"revealed_states": [], "clicked_states": ["32", "33", "31", "16", "18", "17"], "num_clicks_accrued": [0, 0, 0, 0, 0, 0, 0, 0, 0, 0, 0, 0, 0], "stateRewards": ["", -2, 2, 5, -14, -56, 64, 84, -5, 52, 39, 85, -2, 1, 7, 8, 21, 29, -78, -9, -10, -69, 10, -2, -1, -7, 15, 72, 20, 41, -2, 52, 80, 22], "withholdReward": false, "trial_id": "mdp_trial_9", "block": "test", "trialIndex": 10, "score": 55.1, "costs": -12.9, "simulationMode": [null, null, null, null, null], "rewards": [-2, -1, -7, -2, 80], "path": ["0", "0", "23", "24", "25", "30", "32"], "rt": [24048, 276, 221, 104, 512], "actions": ["left", "left", "left", "down", "down"], "actionTimes": [25462, 26261, 26973, 27573, 28581], "queries": {"click": {"state": {"target": ["32", "33", "31", "16", "18", "17"], "time": [2819, 5991, 9412, 14074, 17775, 20993]}, "edge": {"target": [], "time": []}}, "mouseover": {"state": {"target": ["23", "31", "32", "33", "31", "19", "14", "15", "16", "15", "18", "15", "17"], "time": [2218, 2336, 2566, 3449, 7032, 13535, 13615, 13665, 13765, 14549, 17535, 18032, 18116]}, "edge": {"target": [], "time": []}}, "mouseout": {"state": {"target": ["17", "15", "0", "23", "31", "32", "33", "31", "19", "14", "15", "16", "15", "18", "15", "17", "17", "17", "14", "22"], "time": [750, 783, 2119, 2285, 2353, 3332, 6466, 10382, 13582, 13649, 13699, 14449, 14649, 18016, 18082, 21666, 25037, 29952, 30169, 30266]}, "edge": {"target": [], "time": []}}}, "displayed_time": "29.09", "trialTime": 30423, "trial_type": "mouselab-mdp", "trial_index": 17, "time_elapsed": 1083004, "internal_node_id": "0.0-4.0-1.0-8.0"}}, {"uniqueid": "w21827938:a14518424", "current_trial": 18, "dateTime": 1691143268508, "trialdata": {"revealed_states": [], "clicked_states": ["9", "5", "6", "7", "17", "16"], "num_clicks_accrued": [0, 0, 0, 0, 0, 0, 0, 0, 0, 0, 0, 0, 0], "stateRewards": ["", 1, -3, -2, 14, 49, -40, -39, 2, 26, -61, 73, 1, -4, -8, 12, 79, 29, -65, -13, 55, -26, 27, -1, 3, 3, 9, -17, -60, -18, -8, 35, -88, 69], "withholdReward": false, "trial_id": "mdp_trial_10", "block": "test", "trialIndex": 11, "score": 67.1, "costs": -12.9, "simulationMode": [null, null, null, null, null], "rewards": [1, -4, -8, 12, 79], "path": ["0", "0", "12", "13", "14", "15", "16"], "rt": [24661, 444, 324, 139, 170], "actions": ["right", "right", "right", "up", "up"], "actionTimes": [25966, 26909, 27733, 28365, 29029], "queries": {"click": {"state": {"target": ["9", "5", "6", "7", "17", "16"], "time": [2729, 6028, 10009, 13334, 17218, 20695]}, "edge": {"target": [], "time": []}}, "mouseover": {"state": {"target": ["10", "8", "9", "9", "9", "5", "5", "7", "6", "7", "16", "15", "16", "17", "19", "15", "16", "18"], "time": [1992, 2023, 2106, 2309, 2483, 3190, 5141, 7006, 9659, 10323, 13760, 15040, 15673, 16840, 18706, 20130, 20459, 23809]}, "edge": {"target": [], "time": []}}, "mouseout": {"state": {"target": ["0", "10", "8", "9", "9", "9", "5", "5", "7", "6", "7", "16", "15", "16", "17", "19", "15", "16", "16", "18", "15", "15", "12"], "time": [1911, 2010, 2072, 2173, 2409, 3106, 3889, 6340, 9443, 10257, 13657, 13775, 15590, 16726, 17456, 19106, 20360, 21406, 22373, 24859, 30877, 32359, 32626]}, "edge": {"target": [], "time": []}}}, "displayed_time": "29.53", "trialTime": 35789, "trial_type": "mouselab-mdp", "trial_index": 18, "time_elapsed": 1119131, "internal_node_id": "0.0-4.0-1.0-9.0"}}, {"uniqueid": "w21827938:a14518424", "current_trial": 19, "dateTime": 1691143297476, "trialdata": {"revealed_states": [], "clicked_states": ["21", "32", "11", "6", "17"], "num_clicks_accrued": [0, 0, 0, 0, 0, 0, 0, 0, 0, 0, 0, 0, 0], "stateRewards": ["", 2, -3, -8, 14, -7, -51, 73, 2, 36, 36, -43, -1, 3, -4, 1, 6, 87, -65, 15, 61, -42, -83, -1, 3, -2, -7, 30, -48, 35, 13, 26, 60, 78], "withholdReward": false, "trial_id": "mdp_trial_11", "block": "test", "trialIndex": 12, "score": 75.25, "costs": -10.75, "simulationMode": [null, null, null, null, null], "rewards": [-1, 3, -4, 1, 87], "path": ["0", "0", "12", "13", "14", "15", "17"], "rt": [21367, 54, 137, 151, 124], "actions": ["right", "right", "right", "up", "right"], "actionTimes": [22682, 23233, 23881, 24529, 25169], "queries": {"click": {"state": {"target": ["21", "32", "11", "6", "17"], "time": [2288, 5714, 11360, 14608, 18091]}, "edge": {"target": [], "time": []}}, "mouseover": {"state": {"target": ["0", "22", "19", "21", "32", "31", "30", "33", "29", "33", "29", "27", "11", "11", "8", "3", "4", "6", "17", "17", "16"], "time": [1595, 1708, 1728, 2127, 3392, 8978, 9009, 9091, 9544, 9878, 10459, 10609, 10944, 11161, 11608, 11642, 11675, 11725, 15158, 15975, 18458]}, "edge": {"target": [], "time": []}}, "mouseout": {"state": {"target": ["0", "0", "22", "19", "21", "32", "31", "30", "33", "29", "33", "29", "27", "11", "11", "8", "3", "4", "6", "17", "17", "16", "18", "12"], "time": [776, 1658, 1725, 1741, 2825, 6242, 8994, 9041, 9108, 9744, 10361, 10492, 10677, 11028, 11592, 11625, 11658, 11692, 14959, 15292, 18375, 26711, 26776, 27245]}, "edge": {"target": [], "time": []}}}, "displayed_time": "25.68", "trialTime": 28625, "trial_type": "mouselab-mdp", "trial_index": 19, "time_elapsed": 1148099, "internal_node_id": "0.0-4.0-1.0-10.0"}}, {"uniqueid": "w21827938:a14518424", "current_trial": 20, "dateTime": 1691143324284, "trialdata": {"revealed_states": [], "clicked_states": ["21", "32", "9"], "num_clicks_accrued": [0, 0, 0, 0, 0, 0, 0, 0, 0, 0, 0, 0, 0], "stateRewards": ["", -1, 1, -6, -1, 80, 23, 2, -11, 73, -81, 59, 1, 3, 5, -1, -26, 28, -3, 16, -59, -13, -50, -2, -2, 2, 15, -50, 86, 17, -4, 37, 35, 44], "withholdReward": false, "trial_id": "mdp_trial_12", "block": "test", "trialIndex": 13, "score": 49.55, "costs": -6.449999999999999, "simulationMode": [null, null, null, null, null], "rewards": [-1, 1, -6, -11, 73], "path": ["0", "0", "1", "2", "3", "8", "9"], "rt": [18385, 301, 261, 86, 182], "actions": ["up", "up", "up", "left", "up"], "actionTimes": [20108, 20931, 21691, 22315, 22995], "queries": {"click": {"state": {"target": ["21", "32", "9"], "time": [2594, 6392, 10683]}, "edge": {"target": [], "time": []}}, "mouseover": {"state": {"target": ["22", "19", "21", "20", "20", "16", "18", "12", "32", "0", "10", "8", "9", "9", "5", "6"], "time": [2195, 2219, 2345, 2993, 3543, 3977, 5810, 5843, 5943, 9662, 9760, 9910, 10083, 10426, 11126, 17776]}, "edge": {"target": [], "time": []}}, "mouseout": {"state": {"target": ["0", "0", "0", "22", "19", "21", "20", "20", "16", "18", "12", "32", "0", "10", "8", "9", "9", "5", "6", "7", "1", "0"], "time": [927, 1042, 2146, 2213, 2234, 2893, 3043, 3559, 5779, 5827, 5860, 6710, 9677, 9827, 10063, 10111, 11010, 17713, 25013, 25466, 25629, 26111]}, "edge": {"target": [], "time": []}}}, "displayed_time": "23.50", "trialTime": 26467, "trial_type": "mouselab-mdp", "trial_index": 20, "time_elapsed": 1174907, "internal_node_id": "0.0-4.0-1.0-11.0"}}, {"uniqueid": "w21827938:a14518424", "current_trial": 21, "dateTime": 1691143399699, "trialdata": {"revealed_states": [], "clicked_states": ["21", "20", "16", "6", "7", "5", "11", "10", "9", "29", "28", "27", "33", "32", "31", "18", "17", "22"], "num_clicks_accrued": [0, 0, 0, 0, 0, 0, 0, 0, 0, 0, 0, 0, 0], "stateRewards": ["", -1, -3, -7, -7, -76, 30, -49, 11, -70, 56, 2, 1, 4, -3, -14, -59, -83, -25, -9, -21, -67, -73, -2, 4, 4, -9, -11, -32, 60, 9, -87, 22, -64], "withholdReward": false, "trial_id": "mdp_trial_13", "block": "test", "trialIndex": 14, "score": 18.30000000000001, "costs": -38.69999999999999, "simulationMode": [null, null, null, null, null], "rewards": [-2, 4, 4, -9, 60], "path": ["0", "0", "23", "24", "25", "26", "29"], "rt": [66948, 475, 451, 63, 127], "actions": ["left", "left", "left", "up", "left"], "actionTimes": [68904, 69903, 70847, 71407, 72071], "queries": {"click": {"state": {"target": ["21", "20", "16", "6", "7", "5", "11", "10", "9", "29", "28", "27", "33", "32", "31", "18", "17", "22"], "time": [2786, 6371, 10125, 13658, 16957, 20279, 23954, 27163, 30472, 34287, 37692, 41006, 44575, 47844, 51295, 55770, 59048, 62370]}, "edge": {"target": [], "time": []}}, "mouseover": {"state": {"target": ["21", "20", "17", "17", "16", "17", "18", "6", "18", "18", "7", "15", "5", "5", "4", "3", "9", "11", "10", "8", "9", "8", "29", "26", "28", "27", "26", "25", "30", "33", "32", "31", "0", "18", "15", "17", "17", "14", "22", "22"], "time": [2593, 5943, 6757, 7274, 9960, 10658, 12524, 13393, 14041, 15708, 16158, 17657, 18008, 18824, 20924, 23344, 23391, 23761, 24357, 27608, 27924, 30908, 34027, 34575, 34624, 38524, 41291, 41341, 41425, 42292, 45308, 48325, 55242, 55578, 56042, 56078, 56742, 60428, 60462, 61275]}, "edge": {"target": [], "time": []}}, "mouseout": {"state": {"target": ["0", "21", "20", "17", "17", "16", "16", "17", "18", "6", "18", "18", "7", "15", "5", "5", "5", "4", "3", "9", "11", "11", "10", "8", "9", "8", "29", "26", "28", "27", "26", "25", "30", "33", "32", "31", "31", "0", "18", "15", "17", "17", "14", "22", "22"], "time": [2327, 5877, 6641, 6924, 9794, 10219, 10524, 10874, 13177, 13941, 14158, 15824, 17308, 17841, 18074, 20356, 20641, 21708, 23361, 23424, 24013, 24260, 27558, 27625, 30841, 30958, 34524, 34591, 38041, 41241, 41325, 41391, 41441, 45075, 48196, 52675, 55211, 55259, 56009, 56058, 56109, 60375, 60448, 60475, 62791]}, "edge": {"target": [], "time": []}}}, "displayed_time": "72.58", "trialTime": 75079, "trial_type": "mouselab-mdp", "trial_index": 21, "time_elapsed": 1250322, "internal_node_id": "0.0-4.0-1.0-12.0"}}, {"uniqueid": "w21827938:a14518424", "current_trial": 22, "dateTime": 1691143478259, "trialdata": {"revealed_states": [], "clicked_states": ["21", "20"], "num_clicks_accrued": [0, 0, 0, 0, 0, 0, 0, 0, 0, 0, 0, 0, 0], "stateRewards": ["", 1, -1, 4, 5, -32, 18, 20, 6, -88, -74, 9, -2, 1, -2, -14, 34, -77, -38, -1, 80, -36, 73, 2, 3, -8, 10, -48, -73, -71, -11, -22, 20, 54], "withholdReward": false, "trial_id": "mdp_trial_14", "block": "test", "trialIndex": 15, "score": 71.7, "costs": -4.3, "simulationMode": [null, null, null, null, null], "rewards": [-2, 1, -2, -1, 80], "path": ["0", "0", "12", "13", "14", "19", "20"], "rt": [8864, 235, 190, 699, 491], "actions": ["right", "right", "right", "down", "right"], "actionTimes": [10469, 11236, 11924, 13116, 14108], "queries": {"click": {"state": {"target": ["21", "20"], "time": [2415, 5654]}, "edge": {"target": [], "time": []}}, "mouseover": {"state": {"target": ["22", "21", "20", "20", "20", "17", "15", "16", "15"], "time": [1984, 2248, 2775, 3014, 3264, 6018, 7266, 7631, 8952]}, "edge": {"target": [], "time": []}}, "mouseout": {"state": {"target": ["0", "22", "21", "20", "20", "20", "17", "15", "16", "15", "19", "22"], "time": [1884, 2001, 2698, 2798, 3098, 5881, 7098, 7481, 8934, 8965, 19318, 19601]}, "edge": {"target": [], "time": []}}}, "displayed_time": "15.61", "trialTime": 78212, "trial_type": "mouselab-mdp", "trial_index": 22, "time_elapsed": 1328882, "internal_node_id": "0.0-4.0-1.0-13.0"}}, {"uniqueid": "w21827938:a14518424", "current_trial": 23, "dateTime": 1691143541347, "trialdata": {"revealed_states": [], "clicked_states": ["21", "16", "22", "20", "18", "17", "9", "11", "6", "5", "29", "28", "33", "32"], "num_clicks_accrued": [0, 0, 0, 0, 0, 0, 0, 0, 0, 0, 0, 0, 0], "stateRewards": ["", -2, -4, 6, 14, -34, 49, 36, -8, -3, 32, -4, 1, -2, 1, -8, -20, -71, -57, -7, -86, -62, -16, -2, -3, -5, 11, 23, -21, 53, 5, -5, 85, 73], "withholdReward": false, "trial_id": "mdp_trial_15", "block": "test", "trialIndex": 16, "score": 49.900000000000006, "costs": -30.09999999999999, "simulationMode": [null, null, null, null, null], "rewards": [-2, -3, -5, 5, 85], "path": ["0", "0", "23", "24", "25", "30", "32"], "rt": [51801, 746, 288, 232, 162], "actions": ["left", "left", "left", "down", "down"], "actionTimes": [53249, 54516, 55324, 56052, 56732], "queries": {"click": {"state": {"target": ["21", "16", "22", "20", "18", "17", "9", "11", "6", "5", "29", "28", "33", "32"], "time": [2830, 6079, 9334, 12816, 16238, 19431, 22719, 26049, 29229, 32470, 36260, 40525, 44098, 48507]}, "edge": {"target": [], "time": []}}, "mouseover": {"state": {"target": ["22", "21", "21", "22", "13", "16", "13", "22", "19", "20", "19", "19", "18", "15", "17", "13", "12", "0", "24", "28", "8", "9", "9", "5", "8", "11", "11", "8", "7", "6", "5", "3", "2", "10", "29", "26", "28", "28", "27", "27", "28", "28", "25", "30", "32", "33", "32", "31"], "time": [2152, 2186, 2569, 3299, 4816, 4933, 6450, 6566, 9599, 9666, 13482, 15233, 15950, 16499, 16566, 19700, 19743, 19761, 20216, 20286, 20433, 20649, 21016, 23350, 25566, 25586, 25934, 26383, 26467, 27433, 29616, 32917, 32950, 35736, 35953, 36550, 36633, 39687, 39833, 39933, 40216, 40300, 40837, 40916, 41834, 43884, 44884, 49017]}, "edge": {"target": [], "time": []}}, "mouseout": {"state": {"target": ["0", "22", "21", "21", "22", "13", "16", "16", "13", "22", "19", "20", "19", "19", "18", "15", "17", "13", "12", "0", "24", "28", "8", "9", "9", "5", "8", "11", "11", "11", "8", "7", "6", "5", "3", "2", "10", "29", "26", "28", "28", "27", "27", "28", "28", "25", "30", "32", "33", "32", "31", "31"], "time": [2102, 2170, 2269, 3133, 4783, 4852, 6110, 6316, 6499, 9566, 9633, 13033, 13749, 15267, 16466, 16533, 19616, 19720, 19758, 19772, 20268, 20316, 20616, 20666, 23016, 25516, 25583, 25616, 26060, 26366, 26400, 27250, 29566, 32867, 32934, 35670, 35769, 36500, 36600, 36817, 39770, 39899, 40150, 40266, 40750, 40854, 40966, 43720, 44366, 48850, 52520, 58487]}, "edge": {"target": [], "time": []}}}, "displayed_time": "57.24", "trialTime": 62717, "trial_type": "mouselab-mdp", "trial_index": 23, "time_elapsed": 1391970, "internal_node_id": "0.0-4.0-1.0-14.0"}}, {"uniqueid": "w21827938:a14518424", "current_trial": 24, "dateTime": 1691143565595, "trialdata": {"revealed_states": [], "clicked_states": ["32", "29", "27"], "num_clicks_accrued": [0, 0, 0, 0, 0, 0, 0, 0, 0, 0, 0, 0, 0], "stateRewards": ["", 2, -1, 5, 6, 10, 86, 55, 10, -45, 63, -71, 1, -2, 5, -8, -50, -72, 36, 15, 61, 12, 33, -1, -4, 6, 5, 79, -56, -21, -16, -87, 60, -81], "withholdReward": false, "trial_id": "mdp_trial_16", "block": "test", "trialIndex": 17, "score": 78.55, "costs": -6.449999999999999, "simulationMode": [null, null, null, null, null], "rewards": [-1, -4, 6, 5, 79], "path": ["0", "0", "23", "24", "25", "26", "27"], "rt": [14024, 131, 258, 116, 171], "actions": ["left", "left", "left", "up", "up"], "actionTimes": [15337, 15985, 16745, 17353, 18025], "queries": {"click": {"state": {"target": ["32", "29", "27"], "time": [2145, 5895, 9124]}, "edge": {"target": [], "time": []}}, "mouseover": {"state": {"target": ["31", "32", "30", "29", "25", "26", "27", "26", "25", "31"], "time": [1670, 1984, 3184, 5636, 7034, 7350, 8267, 9351, 9401, 9601]}, "edge": {"target": [], "time": []}}, "mouseout": {"state": {"target": ["0", "31", "32", "30", "29", "25", "26", "27", "26", "25", "31", "31", "32"], "time": [1604, 1689, 2951, 3217, 6134, 7170, 7434, 9334, 9384, 9434, 14754, 19621, 20087]}, "edge": {"target": [], "time": []}}}, "displayed_time": "18.54", "trialTime": 23881, "trial_type": "mouselab-mdp", "trial_index": 24, "time_elapsed": 1416218, "internal_node_id": "0.0-4.0-1.0-15.0"}}, {"uniqueid": "w21827938:a14518424", "current_trial": 25, "dateTime": 1691143597408, "trialdata": {"revealed_states": [], "clicked_states": ["9", "5", "6", "18", "16"], "num_clicks_accrued": [0, 0, 0, 0, 0, 0, 0, 0, 0, 0, 0, 0, 0], "stateRewards": ["", -2, 2, 8, -6, -25, 3, 87, 2, -62, -2, 74, -2, -1, 2, -1, 79, 49, -37, -14, 5, 67, -9, -1, 2, -2, 5, 15, 38, 32, -14, -38, -38, 30], "withholdReward": false, "trial_id": "mdp_trial_17", "block": "test", "trialIndex": 18, "score": 66.25, "costs": -10.75, "simulationMode": [null, null, null, null, null], "rewards": [-2, -1, 2, -1, 79], "path": ["0", "0", "12", "13", "14", "15", "16"], "rt": [22123, 504, 220, 203, 71], "actions": ["right", "right", "right", "up", "up"], "actionTimes": [23146, 24161, 24896, 25592, 26160], "queries": {"click": {"state": {"target": ["9", "5", "6", "18", "16"], "time": [1897, 5071, 8811, 12397, 15603]}, "edge": {"target": [], "time": []}}, "mouseover": {"state": {"target": ["1", "2", "9", "3", "7", "16", "16", "6", "5", "6", "16", "18", "15", "15", "16", "17", "17", "20"], "time": [1472, 1511, 1552, 2239, 2271, 3486, 3671, 4436, 4552, 5319, 9319, 12170, 13836, 14386, 14636, 15853, 18152, 22655]}, "edge": {"target": [], "time": []}}, "mouseout": {"state": {"target": ["0", "1", "2", "9", "3", "7", "16", "16", "6", "5", "6", "16", "18", "18", "15", "15", "16", "17", "17", "20", "19", "14"], "time": [1422, 1505, 1526, 2202, 2257, 2369, 3519, 4370, 4453, 5219, 9253, 10003, 13153, 13802, 13869, 14486, 15786, 15886, 22302, 25405, 29356, 30906]}, "edge": {"target": [], "time": []}}}, "displayed_time": "26.69", "trialTime": 31464, "trial_type": "mouselab-mdp", "trial_index": 25, "time_elapsed": 1448032, "internal_node_id": "0.0-4.0-1.0-16.0"}}, {"uniqueid": "w21827938:a14518424", "current_trial": 26, "dateTime": 1691143617930, "trialdata": {"revealed_states": [], "clicked_states": ["32", "21", "33"], "num_clicks_accrued": [0, 0, 0, 0, 0, 0, 0, 0, 0, 0, 0, 0, 0], "stateRewards": ["", -2, -1, -2, -15, 87, 57, 29, -10, 77, -80, -7, 1, -3, 6, 14, -11, 87, -59, 4, -71, 16, -11, 2, 2, -7, 2, -47, 61, 50, 14, -20, 17, 81], "withholdReward": false, "trial_id": "mdp_trial_18", "block": "test", "trialIndex": 19, "score": 85.55, "costs": -6.449999999999999, "simulationMode": [null, null, null, null, null], "rewards": [2, 2, -7, 14, 81], "path": ["0", "0", "23", "24", "25", "30", "33"], "rt": [11824, 135, 151, 109, 349], "actions": ["left", "left", "left", "down", "left"], "actionTimes": [13116, 13747, 14395, 15003, 15843], "queries": {"click": {"state": {"target": ["32", "21", "33"], "time": [2505, 5747, 8922]}, "edge": {"target": [], "time": []}}, "mouseover": {"state": {"target": ["0", "31", "30", "32", "21", "21", "30", "33", "30", "31"], "time": [1577, 1960, 1991, 2177, 3508, 3824, 6274, 6308, 9210, 9324]}, "edge": {"target": [], "time": []}}, "mouseout": {"state": {"target": ["13", "0", "0", "31", "30", "32", "21", "21", "30", "33", "30", "31"], "time": [589, 1411, 1595, 1978, 2107, 2580, 3541, 6174, 6291, 9191, 9258, 19344]}, "edge": {"target": [], "time": []}}}, "displayed_time": "16.34", "trialTime": 20139, "trial_type": "mouselab-mdp", "trial_index": 26, "time_elapsed": 1468553, "internal_node_id": "0.0-4.0-1.0-17.0"}}, {"uniqueid": "w21827938:a14518424", "current_trial": 27, "dateTime": 1691143686169, "trialdata": {"revealed_states": [], "clicked_states": ["32", "21", "33", "17", "20", "22", "31", "29", "18", "16", "27", "28", "11", "6", "7", "5", "10"], "num_clicks_accrued": [0, 0, 0, 0, 0, 0, 0, 0, 0, 0, 0, 0, 0], "stateRewards": ["", -1, 4, -6, -5, -22, -38, -38, -2, -56, 88, 14, -1, -1, -7, -6, 61, -60, 21, 11, 57, 31, -30, -2, -2, 6, -9, -44, -70, -44, -15, 34, 16, -78], "withholdReward": false, "trial_id": "mdp_trial_19", "block": "test", "trialIndex": 20, "score": 46.45000000000001, "costs": -36.54999999999999, "simulationMode": [null, null, null, null, null], "rewards": [-1, 4, -6, -2, 88], "path": ["0", "0", "1", "2", "3", "8", "10"], "rt": [59783, 139, 330, 217, 153], "actions": ["up", "up", "up", "left", "down"], "actionTimes": [60876, 61515, 62339, 63059, 63731], "queries": {"click": {"state": {"target": ["32", "21", "33", "17", "20", "22", "31", "29", "18", "16", "27", "28", "11", "6", "7", "5", "10"], "time": [1904, 5233, 8955, 12613, 15801, 19147, 22421, 25774, 29496, 32382, 36767, 40004, 43211, 46429, 49670, 52913, 56234]}, "edge": {"target": [], "time": []}}, "mouseover": {"state": {"target": ["31", "30", "32", "21", "20", "20", "19", "22", "31", "30", "33", "33", "30", "31", "14", "13", "14", "17", "20", "19", "22", "22", "31", "29", "29", "27", "27", "1", "18", "16", "7", "2", "10", "27", "27", "28", "28", "28", "9", "11", "8", "6", "4", "6", "7", "4", "5", "3", "8", "10", "8", "9"], "time": [1508, 1532, 1655, 2522, 5656, 5972, 6856, 6875, 6972, 7006, 7056, 8760, 9206, 9240, 10656, 11356, 12176, 12425, 12972, 16089, 16157, 17639, 19632, 22973, 23306, 26173, 26456, 27528, 27789, 29998, 35990, 36023, 36224, 36356, 36625, 37123, 37423, 37555, 40756, 42023, 43539, 43722, 45256, 45490, 46840, 49990, 50356, 53256, 53322, 53372, 56490, 56623]}, "edge": {"target": [], "time": []}}, "mouseout": {"state": {"target": ["0", "31", "30", "32", "21", "20", "20", "19", "22", "31", "30", "33", "33", "30", "31", "14", "13", "14", "17", "20", "19", "22", "22", "31", "29", "29", "27", "27", "1", "18", "16", "16", "7", "2", "10", "27", "27", "28", "28", "28", "9", "11", "8", "6", "4", "6", "7", "4", "5", "5", "3", "8", "10", "8", "9", "1", "0"], "time": [1442, 1526, 1542, 2089, 5605, 5772, 6840, 6872, 6889, 6990, 7022, 7906, 9172, 9223, 9256, 11206, 11882, 12223, 12856, 16056, 16142, 16189, 19456, 22656, 23122, 26039, 26206, 27423, 27545, 29923, 32446, 35926, 36006, 36209, 36242, 36373, 36989, 37173, 37456, 40289, 41722, 43472, 43556, 45206, 45439, 46722, 49940, 50056, 52973, 53173, 53273, 53340, 56456, 56540, 64609, 66959, 67090]}, "edge": {"target": [], "time": []}}}, "displayed_time": "64.23", "trialTime": 67860, "trial_type": "mouselab-mdp", "trial_index": 27, "time_elapsed": 1536793, "internal_node_id": "0.0-4.0-1.0-18.0"}}, {"uniqueid": "w21827938:a14518424", "current_trial": 28, "dateTime": 1691143716432, "trialdata": {"revealed_states": [], "clicked_states": ["32", "33", "31", "22", "21", "20"], "num_clicks_accrued": [0, 0, 0, 0, 0, 0, 0, 0, 0, 0, 0, 0, 0], "stateRewards": ["", 1, -1, 8, 4, 76, -33, -17, -3, -1, -54, -74, -2, 2, -5, 13, -51, 63, 83, 1, 84, 29, -36, 2, -1, 7, -12, -10, -44, -43, -14, 8, -69, 19], "withholdReward": false, "trial_id": "mdp_trial_20", "block": "test", "trialIndex": 21, "score": 67.1, "costs": -12.9, "simulationMode": [null, null, null, null, null], "rewards": [-2, 2, -5, 1, 84], "path": ["0", "0", "12", "13", "14", "19", "20"], "rt": [22647, 413, 314, 321, 248], "actions": ["right", "right", "right", "down", "right"], "actionTimes": [24568, 25479, 26295, 27135, 27879], "queries": {"click": {"state": {"target": ["32", "33", "31", "22", "21", "20"], "time": [2940, 6126, 9382, 13056, 16223, 19455]}, "edge": {"target": [], "time": []}}, "mouseover": {"state": {"target": ["32", "31", "11", "25", "33", "33", "30", "31", "31", "32", "22", "21", "20", "15", "15", "17", "17"], "time": [2714, 3328, 3428, 4328, 4378, 4628, 6395, 6778, 7961, 11712, 12830, 13561, 16545, 19928, 20331, 20411, 20845]}, "edge": {"target": [], "time": []}}, "mouseout": {"state": {"target": ["0", "32", "31", "11", "25", "33", "33", "30", "31", "31", "32", "22", "21", "20", "15", "15", "17"], "time": [2364, 3245, 3347, 3445, 4361, 4411, 6378, 6428, 7228, 9695, 11912, 13395, 16278, 19518, 20011, 20347, 20478]}, "edge": {"target": [], "time": []}}}, "displayed_time": "28.38", "trialTime": 29911, "trial_type": "mouselab-mdp", "trial_index": 28, "time_elapsed": 1567055, "internal_node_id": "0.0-4.0-1.0-19.0"}}, {"uniqueid": "w21827938:a14518424", "current_trial": 29, "dateTime": 1691143786010, "trialdata": {"revealed_states": [], "clicked_states": ["32", "27", "29", "28", "31", "33", "20", "21", "22", "18", "16", "17", "7", "10", "6", "11", "9", "5"], "num_clicks_accrued": [0, 0, 0, 0, 0, 0, 0, 0, 0, 0, 0, 0, 0], "stateRewards": ["", -2, -1, 3, -3, 71, -58, -21, 7, -10, -75, -37, 2, 4, -1, -12, -79, -29, -48, 3, -41, -10, -30, -1, -2, 1, -15, 13, 66, 22, -1, -42, -86, -55], "withholdReward": false, "trial_id": "mdp_trial_21", "block": "test", "trialIndex": 22, "score": 29.30000000000001, "costs": -38.69999999999999, "simulationMode": [null, null, null, null, null], "rewards": [-2, -1, 3, -3, 71], "path": ["0", "0", "1", "2", "3", "4", "5"], "rt": [60929, 318, 166, 139, 154], "actions": ["up", "up", "up", "right", "up"], "actionTimes": [62652, 63467, 64131, 64787, 65435], "queries": {"click": {"state": {"target": ["32", "27", "29", "28", "31", "33", "20", "21", "22", "18", "16", "17", "7", "10", "6", "11", "9", "5"], "time": [2514, 5654, 8782, 11941, 15322, 18517, 21897, 25066, 28320, 31593, 34947, 38250, 41945, 45142, 48571, 51789, 55056, 58285]}, "edge": {"target": [], "time": []}}, "mouseover": {"state": {"target": ["0", "31", "32", "26", "11", "27", "29", "27", "26", "26", "29", "26", "28", "28", "24", "31", "30", "33", "30", "12", "13", "14", "20", "21", "22", "13", "18", "18", "18", "15", "16", "17", "15", "7", "11", "10", "10", "3", "6", "5", "9", "11", "9", "9", "5", "3"], "time": [1793, 2179, 2244, 2927, 3127, 4327, 4644, 4844, 6377, 6494, 7394, 9060, 9110, 9894, 12194, 12260, 15627, 15694, 18794, 18877, 18897, 18914, 19327, 22344, 25427, 28578, 28627, 29028, 29677, 31894, 32263, 35327, 41495, 41764, 42411, 42844, 43011, 45529, 45894, 48945, 49311, 49594, 52312, 53661, 55512, 58761]}, "edge": {"target": [], "time": []}}, "mouseout": {"state": {"target": ["17", "15", "12", "0", "0", "31", "32", "26", "11", "27", "29", "27", "26", "26", "29", "26", "28", "28", "24", "31", "30", "33", "30", "12", "13", "14", "20", "21", "22", "13", "18", "18", "18", "15", "16", "16", "17", "15", "7", "11", "10", "10", "3", "6", "5", "9", "11", "9", "9", "5", "3"], "time": [545, 578, 744, 1278, 2113, 2198, 2727, 2994, 4110, 4360, 4810, 6094, 6410, 6511, 9043, 9094, 9160, 12161, 12227, 15610, 15660, 18777, 18811, 18894, 18911, 18944, 22144, 25294, 28529, 28594, 28644, 29394, 31827, 31911, 35004, 35228, 41464, 41528, 42328, 42428, 42927, 45193, 45578, 48844, 48978, 49445, 51850, 52428, 55378, 58678, 58845]}, "edge": {"target": [], "time": []}}}, "displayed_time": "65.95", "trialTime": 69220, "trial_type": "mouselab-mdp", "trial_index": 29, "time_elapsed": 1636633, "internal_node_id": "0.0-4.0-1.0-20.0"}}, {"uniqueid": "w21827938:a14518424", "current_trial": 30, "dateTime": 1691143806402, "trialdata": {"revealed_states": [], "clicked_states": ["5"], "num_clicks_accrued": [0, 0, 0, 0, 0, 0, 0, 0, 0, 0, 0, 0, 0], "stateRewards": ["", 2, 4, -5, 7, 81, 35, 6, 11, 14, -72, 42, -1, 2, 3, -7, -77, -44, -40, -15, -85, 51, -32, -2, -1, -5, 7, -74, 47, 52, 16, -49, 48, -46], "withholdReward": false, "trial_id": "mdp_trial_22", "block": "test", "trialIndex": 23, "score": 86.85, "costs": -2.15, "simulationMode": [null, null, null, null, null], "rewards": [2, 4, -5, 7, 81], "path": ["0", "0", "1", "2", "3", "4", "5"], "rt": [5292, 216, 346, 65, 353], "actions": ["up", "up", "up", "right", "up"], "actionTimes": [6806, 7517, 8381, 8949, 9821], "queries": {"click": {"state": {"target": ["5"], "time": [2446]}, "edge": {"target": [], "time": []}}, "mouseover": {"state": {"target": ["1", "2", "4", "5", "4", "7", "1", "1"], "time": [1932, 1981, 2081, 2198, 2734, 2799, 2998, 3932]}, "edge": {"target": [], "time": []}}, "mouseout": {"state": {"target": ["3", "1", "0", "1", "2", "4", "5", "4", "7", "1", "1", "7", "5", "5", "4", "12", "7"], "time": [699, 933, 1897, 1965, 1998, 2114, 2715, 2770, 2848, 3015, 3982, 12601, 13101, 13934, 13968, 14868, 16335]}, "edge": {"target": [], "time": []}}}, "displayed_time": "15.52", "trialTime": 19998, "trial_type": "mouselab-mdp", "trial_index": 30, "time_elapsed": 1657025, "internal_node_id": "0.0-4.0-1.0-21.0"}}, {"uniqueid": "w21827938:a14518424", "current_trial": 31, "dateTime": 1691143834745, "trialdata": {"revealed_states": [], "clicked_states": ["6", "16", "5", "7", "10"], "num_clicks_accrued": [0, 0, 0, 0, 0, 0, 0, 0, 0, 0, 0, 0, 0], "stateRewards": ["", -2, 4, 3, 5, -61, 4, 30, 1, -47, 83, 10, 1, 4, 7, -14, 19, -74, -83, 6, -2, -2, -65, -1, -2, 4, -11, 12, -1, -68, 11, -38, -28, 66], "withholdReward": false, "trial_id": "mdp_trial_23", "block": "test", "trialIndex": 24, "score": 78.25, "costs": -10.75, "simulationMode": [null, null, null, null, null], "rewards": [-2, 4, 3, 1, 83], "path": ["0", "0", "1", "2", "3", "8", "10"], "rt": [19635, 170, 296, 208, 179], "actions": ["up", "up", "up", "left", "down"], "actionTimes": [21125, 21796, 22604, 23316, 24020], "queries": {"click": {"state": {"target": ["6", "16", "5", "7", "10"], "time": [2300, 6067, 9557, 12793, 16612]}, "edge": {"target": [], "time": []}}, "mouseover": {"state": {"target": ["1", "7", "6", "7", "0", "15", "16", "15", "18", "4", "5", "6", "7", "16", "10"], "time": [1908, 1991, 2174, 2642, 3272, 5522, 5889, 6522, 8772, 9291, 9356, 10022, 11805, 15991, 16508]}, "edge": {"target": [], "time": []}}, "mouseout": {"state": {"target": ["12", "0", "1", "7", "6", "6", "7", "0", "15", "16", "15", "18", "4", "5", "5", "6", "7", "16", "10", "10", "10", "1", "0"], "time": [737, 1555, 1942, 2009, 2379, 2588, 2658, 5375, 5538, 6355, 6605, 8855, 9324, 9572, 9922, 10055, 13072, 16022, 16670, 19758, 20408, 26625, 26758]}, "edge": {"target": [], "time": []}}}, "displayed_time": "24.52", "trialTime": 27964, "trial_type": "mouselab-mdp", "trial_index": 31, "time_elapsed": 1685368, "internal_node_id": "0.0-4.0-1.0-22.0"}}, {"uniqueid": "w21827938:a14518424", "current_trial": 32, "dateTime": 1691143907920, "trialdata": {"revealed_states": [], "clicked_states": ["32", "33", "31", "28", "29", "27", "11", "10", "9", "5", "6", "7", "16", "17", "22", "20", "21", "18"], "num_clicks_accrued": [0, 0, 0, 0, 0, 0, 0, 0, 0, 0, 0, 0, 0], "stateRewards": ["", -2, 3, -1, 2, -72, 63, 20, -1, 62, -66, 39, -2, 3, -6, 14, 22, 47, 1, 8, -49, -1, -41, 2, 2, -6, -16, -64, -60, -34, 16, 54, 22, -7], "withholdReward": false, "trial_id": "mdp_trial_24", "block": "test", "trialIndex": 25, "score": 26.30000000000001, "costs": -38.69999999999999, "simulationMode": [null, null, null, null, null], "rewards": [-2, 3, -1, 2, 63], "path": ["0", "0", "1", "2", "3", "4", "6"], "rt": [65042, 136, 382, 115, 826], "actions": ["up", "up", "up", "right", "right"], "actionTimes": [66197, 66828, 67724, 68340, 69684], "queries": {"click": {"state": {"target": ["32", "33", "31", "28", "29", "27", "11", "10", "9", "5", "6", "7", "16", "17", "22", "20", "21", "18"], "time": [2107, 5729, 9196, 13283, 16885, 20254, 24670, 28279, 32719, 36007, 39311, 42702, 46157, 49313, 52479, 55814, 59034, 62278]}, "edge": {"target": [], "time": []}}, "mouseover": {"state": {"target": ["32", "33", "30", "31", "31", "23", "28", "26", "29", "26", "27", "26", "24", "31", "21", "19", "18", "7", "3", "8", "11", "8", "3", "9", "8", "10", "10", "8", "9", "9", "5", "5", "6", "7", "16", "15", "17", "19", "22", "13", "18", "13", "22", "19", "20", "20", "21", "19", "14", "13", "18", "14"], "time": [1890, 5457, 6026, 6104, 8924, 12556, 13021, 16458, 16538, 17554, 20074, 20587, 20688, 20738, 23857, 23904, 23987, 24038, 24087, 24324, 24360, 24938, 25155, 27504, 27809, 27854, 28088, 31438, 31488, 31908, 33188, 34238, 36538, 39788, 45925, 46521, 48088, 49971, 50289, 50688, 50855, 51222, 51405, 52789, 52838, 55607, 56205, 59321, 59405, 59905, 60138, 65558]}, "edge": {"target": [], "time": []}}, "mouseout": {"state": {"target": ["0", "32", "33", "30", "31", "31", "23", "28", "26", "29", "26", "27", "26", "24", "31", "21", "19", "18", "7", "3", "8", "11", "11", "8", "3", "9", "8", "10", "10", "8", "9", "9", "5", "5", "6", "7", "16", "15", "17", "19", "22", "13", "18", "13", "22", "19", "20", "20", "20", "21", "19", "14", "13", "18", "14", "14", "22"], "time": [1171, 2721, 5971, 6062, 7037, 10604, 12807, 13788, 16488, 17404, 19974, 20554, 20605, 20721, 20838, 23874, 23938, 24004, 24054, 24188, 24342, 24718, 24921, 24988, 27027, 27790, 27827, 27904, 31408, 31472, 31672, 33121, 33205, 36340, 39538, 45488, 46438, 46538, 49588, 50122, 50621, 50755, 51205, 51255, 52755, 52822, 52988, 55878, 56156, 59272, 59372, 59488, 60089, 65492, 70925, 71875, 71989]}, "edge": {"target": [], "time": []}}}, "displayed_time": "70.19", "trialTime": 72789, "trial_type": "mouselab-mdp", "trial_index": 32, "time_elapsed": 1758543, "internal_node_id": "0.0-4.0-1.0-23.0"}}, {"uniqueid": "w21827938:a14518424", "current_trial": 33, "dateTime": 1691143946080, "trialdata": {"revealed_states": [], "clicked_states": ["32", "27", "31", "28", "33", "29", "22", "21"], "num_clicks_accrued": [0, 0, 0, 0, 0, 0, 0, 0, 0, 0, 0, 0, 0], "stateRewards": ["", -1, 4, 3, 12, -27, 34, -33, 3, -63, 1, 6, 2, 2, -6, -11, -77, -85, 68, -6, 51, 81, -60, -2, -2, 1, 15, 20, 15, 68, -10, -14, 6, -4], "withholdReward": false, "trial_id": "mdp_trial_25", "block": "test", "trialIndex": 26, "score": 55.8, "costs": -17.2, "simulationMode": [null, null, null, null, null], "rewards": [2, 2, -6, -6, 81], "path": ["0", "0", "12", "13", "14", "19", "21"], "rt": [30872, 54, 144, 1123, 228], "actions": ["right", "right", "right", "down", "down"], "actionTimes": [32025, 32616, 33272, 34920, 35656], "queries": {"click": {"state": {"target": ["32", "27", "31", "28", "33", "29", "22", "21"], "time": [2285, 6074, 9984, 13467, 17047, 20253, 24061, 27241]}, "edge": {"target": [], "time": []}}, "mouseover": {"state": {"target": ["31", "30", "32", "32", "30", "33", "25", "27", "28", "24", "24", "31", "22", "24", "28", "24", "31", "30", "33", "33", "29", "26", "14", "20", "20", "22", "21", "20"], "time": [1411, 1495, 1644, 1930, 4275, 4408, 5530, 5845, 6461, 6525, 9311, 9661, 11259, 13178, 13294, 13763, 16529, 16555, 16578, 16745, 17859, 20542, 20675, 20709, 21092, 21675, 24525, 27580]}, "edge": {"target": [], "time": []}}, "mouseout": {"state": {"target": ["0", "31", "30", "32", "32", "30", "33", "25", "27", "28", "24", "24", "31", "22", "24", "28", "24", "31", "30", "33", "33", "29", "26", "14", "20", "20", "22", "21", "20"], "time": [1167, 1477, 1558, 1678, 2609, 4342, 5512, 5548, 6375, 6475, 7642, 9376, 10208, 11276, 13225, 13708, 13799, 16548, 16567, 16625, 17375, 20525, 20559, 20692, 20742, 21150, 24359, 27476, 32696]}, "edge": {"target": [], "time": []}}}, "displayed_time": "36.18", "trialTime": 37784, "trial_type": "mouselab-mdp", "trial_index": 33, "time_elapsed": 1796703, "internal_node_id": "0.0-4.0-1.0-24.0"}}, {"uniqueid": "w21827938:a14518424", "current_trial": 34, "dateTime": 1691143974432, "trialdata": {"revealed_states": [], "clicked_states": ["32", "21", "22", "31"], "num_clicks_accrued": [0, 0, 0, 0, 0, 0, 0, 0, 0, 0, 0, 0, 0], "stateRewards": ["", 1, -1, 1, 13, 31, -56, 72, 2, 41, 5, 63, -2, -3, -2, 3, -71, -26, 52, 13, -31, 24, -67, 2, -2, 5, 4, 66, 43, 72, 9, 86, -26, 44], "withholdReward": false, "trial_id": "mdp_trial_26", "block": "test", "trialIndex": 27, "score": 91.4, "costs": -8.6, "simulationMode": [null, null, null, null, null], "rewards": [2, -2, 5, 9, 86], "path": ["0", "0", "23", "24", "25", "30", "31"], "rt": [16850, 140, 171, 135, 196], "actions": ["left", "left", "left", "down", "right"], "actionTimes": [18307, 18962, 19626, 20275, 20971], "queries": {"click": {"state": {"target": ["32", "21", "22", "31"], "time": [2503, 5920, 9492, 13797]}, "edge": {"target": [], "time": []}}, "mouseover": {"state": {"target": ["32", "32", "21", "22", "20", "15", "16", "16", "16", "18", "0", "23", "30", "33", "33", "31", "30"], "time": [2070, 2288, 5302, 7486, 9986, 10952, 11036, 12236, 12335, 12620, 12670, 12691, 12752, 12952, 13338, 13605, 16936]}, "edge": {"target": [], "time": []}}, "mouseout": {"state": {"target": ["0", "32", "32", "21", "22", "20", "15", "16", "16", "16", "18", "0", "23", "30", "33", "33", "31", "30", "31"], "time": [1939, 2087, 2769, 6870, 9736, 10752, 11002, 11069, 12255, 12352, 12637, 12687, 12703, 12869, 12985, 13555, 14302, 17136, 17373]}, "edge": {"target": [], "time": []}}}, "displayed_time": "21.47", "trialTime": 27963, "trial_type": "mouselab-mdp", "trial_index": 34, "time_elapsed": 1825055, "internal_node_id": "0.0-4.0-1.0-25.0"}}, {"uniqueid": "w21827938:a14518424", "current_trial": 35, "dateTime": 1691144003703, "trialdata": {"revealed_states": [], "clicked_states": ["27", "16", "21", "20", "18"], "num_clicks_accrued": [0, 0, 0, 0, 0, 0, 0, 0, 0, 0, 0, 0, 0], "stateRewards": ["", -1, -2, -8, 8, -27, -82, 19, -14, -62, 4, 1, -2, 2, 6, 10, 73, -51, -2, 2, 73, -48, 54, -1, 2, -4, 11, -25, 47, 86, 15, 33, 43, -42], "withholdReward": false, "trial_id": "mdp_trial_27", "block": "test", "trialIndex": 28, "score": 70.25, "costs": -10.75, "simulationMode": [null, null, null, null, null], "rewards": [-2, 2, 6, 2, 73], "path": ["0", "0", "12", "13", "14", "19", "20"], "rt": [21013, 134, 263, 152, 197], "actions": ["right", "right", "right", "down", "right"], "actionTimes": [22091, 22722, 23482, 24138, 24834], "queries": {"click": {"state": {"target": ["27", "16", "21", "20", "18"], "time": [2055, 5211, 10824, 14274, 17906]}, "edge": {"target": [], "time": []}}, "mouseover": {"state": {"target": ["27", "26", "15", "16", "17", "21", "21", "20", "19", "22", "13", "18", "15", "17"], "time": [1834, 2285, 2617, 2866, 5600, 10350, 10551, 14170, 14700, 14917, 15100, 15483, 18384, 18484]}, "edge": {"target": [], "time": []}}, "mouseout": {"state": {"target": ["0", "27", "26", "15", "16", "16", "17", "21", "21", "20", "19", "22", "13", "18", "15", "17", "17", "14"], "time": [1419, 2233, 2307, 2667, 5280, 5467, 10303, 10367, 13886, 14650, 14774, 15067, 15134, 18350, 18434, 25520, 25836, 26903]}, "edge": {"target": [], "time": []}}}, "displayed_time": "25.34", "trialTime": 28899, "trial_type": "mouselab-mdp", "trial_index": 35, "time_elapsed": 1854327, "internal_node_id": "0.0-4.0-1.0-26.0"}}, {"uniqueid": "w21827938:a14518424", "current_trial": 36, "dateTime": 1691144059575, "trialdata": {"revealed_states": [], "clicked_states": ["32", "33", "31", "21", "22", "20", "16", "17", "18", "6", "5", "9", "11"], "num_clicks_accrued": [0, 0, 0, 0, 0, 0, 0, 0, 0, 0, 0, 0, 0], "stateRewards": ["", -2, -3, 8, 14, -73, 73, 84, -12, -2, -50, -17, 2, 1, -2, -9, -44, -27, -33, 16, -63, -47, -66, -2, 1, 4, -5, -33, -11, 50, 9, 38, -79, 31], "withholdReward": false, "trial_id": "mdp_trial_28", "block": "test", "trialIndex": 29, "score": 62.05000000000001, "costs": -27.949999999999992, "simulationMode": [null, null, null, null, null], "rewards": [-2, -3, 8, 14, 73], "path": ["0", "0", "1", "2", "3", "4", "6"], "rt": [46690, 108, 173, 138, 113], "actions": ["up", "up", "up", "right", "right"], "actionTimes": [48212, 48827, 49491, 50123, 50732], "queries": {"click": {"state": {"target": ["32", "33", "31", "21", "22", "20", "16", "17", "18", "6", "5", "9", "11"], "time": [2502, 5758, 9401, 12836, 15980, 19092, 22778, 25962, 29268, 32808, 37582, 40865, 44227]}, "edge": {"target": [], "time": []}}, "mouseover": {"state": {"target": ["31", "32", "33", "33", "29", "29", "25", "31", "31", "21", "21", "22", "19", "20", "14", "18", "18", "16", "17", "15", "18", "6", "7", "7", "5", "4", "7", "7", "2", "10", "11", "9", "8", "11", "10"], "time": [2034, 2317, 3114, 3498, 6148, 6797, 8953, 8983, 9250, 9848, 10431, 13182, 16249, 16365, 19632, 19948, 20148, 22634, 23148, 26232, 26282, 32668, 34682, 36868, 37268, 37899, 38115, 38749, 38798, 38949, 39715, 40649, 41265, 41815, 44566]}, "edge": {"target": [], "time": []}}, "mouseout": {"state": {"target": ["0", "0", "31", "32", "33", "33", "29", "29", "25", "31", "31", "31", "21", "21", "22", "19", "20", "14", "18", "18", "16", "17", "15", "18", "6", "7", "7", "5", "5", "4", "7", "7", "2", "10", "11", "9", "8", "11", "10", "10"], "time": [732, 1968, 2067, 3081, 3131, 5998, 6198, 8934, 8979, 9018, 9471, 9698, 9865, 13115, 16232, 16281, 19565, 19782, 19965, 21365, 23048, 26215, 26265, 32418, 33082, 36586, 36883, 37643, 37882, 37915, 38165, 38766, 38915, 38966, 40350, 41182, 41298, 44516, 46682, 52102]}, "edge": {"target": [], "time": []}}}, "displayed_time": "51.23", "trialTime": 55468, "trial_type": "mouselab-mdp", "trial_index": 36, "time_elapsed": 1910199, "internal_node_id": "0.0-4.0-1.0-27.0"}}, {"uniqueid": "w21827938:a14518424", "current_trial": 37, "dateTime": 1691144094679, "trialdata": {"revealed_states": [], "clicked_states": ["32", "33", "31", "29", "28", "27", "21", "20"], "num_clicks_accrued": [0, 0, 0, 0, 0, 0, 0, 0, 0, 0, 0, 0, 0], "stateRewards": ["", 1, 2, -3, -6, 50, -7, 7, -7, -80, 21, -1, 2, 2, 4, -1, 33, 84, 1, 14, -53, 81, 6, -2, -2, -3, -9, -87, -38, -59, -5, -74, -3, -71], "withholdReward": false, "trial_id": "mdp_trial_29", "block": "test", "trialIndex": 30, "score": 85.8, "costs": -17.2, "simulationMode": [null, null, null, null, null], "rewards": [2, 2, 4, 14, 81], "path": ["0", "0", "12", "13", "14", "19", "21"], "rt": [28034, 502, 183, 84, 60], "actions": ["right", "right", "right", "down", "down"], "actionTimes": [29458, 30465, 31146, 31729, 32305], "queries": {"click": {"state": {"target": ["32", "33", "31", "29", "28", "27", "21", "20"], "time": [2430, 5753, 9061, 13229, 16699, 19924, 23054, 26211]}, "edge": {"target": [], "time": []}}, "mouseover": {"state": {"target": ["32", "31", "30", "33", "30", "31", "30", "29", "29", "26", "28", "27", "12", "13", "20", "21", "21", "20", "20"], "time": [2194, 4925, 5075, 5225, 6109, 6192, 12262, 12325, 12695, 15175, 15592, 17397, 20276, 20296, 20326, 20692, 21625, 23409, 23576]}, "edge": {"target": [], "time": []}}, "mouseout": {"state": {"target": ["0", "32", "31", "30", "33", "30", "31", "30", "29", "29", "26", "28", "27", "12", "13", "20", "21", "21", "20", "20", "20", "21"], "time": [1845, 2885, 4975, 5142, 6042, 6158, 9558, 12294, 12395, 15125, 15242, 17209, 20209, 20293, 20312, 20344, 20826, 23293, 23476, 26266, 26759, 33462]}, "edge": {"target": [], "time": []}}}, "displayed_time": "32.85", "trialTime": 34697, "trial_type": "mouselab-mdp", "trial_index": 37, "time_elapsed": 1945302, "internal_node_id": "0.0-4.0-1.0-28.0"}}, {"uniqueid": "w21827938:a14518424", "current_trial": 38, "dateTime": 1691144123279, "trialdata": {"revealed_states": [], "clicked_states": ["32", "16", "21", "31", "33", "29"], "num_clicks_accrued": [0, 0, 0, 0, 0, 0, 0, 0, 0, 0, 0, 0, 0], "stateRewards": ["", -1, -3, 1, 13, -64, -29, 12, -4, -33, 50, 56, 2, -3, 4, 11, -64, -58, -55, 12, 47, 38, -25, -2, 2, 5, -15, 85, 7, 84, 10, 8, 57, 26], "withholdReward": false, "trial_id": "mdp_trial_30", "block": "test", "trialIndex": 31, "score": 61.1, "costs": -12.9, "simulationMode": [null, null, null, null, null], "rewards": [-2, 2, 5, -15, 84], "path": ["0", "0", "23", "24", "25", "26", "29"], "rt": [21791, 69, 151, 125, 172], "actions": ["left", "left", "left", "up", "left"], "actionTimes": [23178, 23753, 24433, 25057, 25721], "queries": {"click": {"state": {"target": ["32", "16", "21", "31", "33", "29"], "time": [2344, 5848, 9243, 12427, 15648, 18829]}, "edge": {"target": [], "time": []}}, "mouseover": {"state": {"target": ["31", "32", "0", "7", "16", "16", "15", "14", "19", "21", "31", "30", "33", "25", "26", "27", "29", "27", "27", "28"], "time": [1863, 2131, 2696, 2829, 3496, 5443, 6180, 6246, 8279, 9048, 11430, 12813, 12963, 16046, 16113, 16163, 16413, 19129, 19796, 20429]}, "edge": {"target": [], "time": []}}, "mouseout": {"state": {"target": ["0", "31", "32", "0", "7", "16", "16", "15", "14", "19", "21", "31", "30", "33", "25", "26", "27", "29", "27", "27"], "time": [1765, 1896, 2596, 2713, 2979, 4046, 6163, 6213, 6263, 8915, 10046, 12746, 12863, 15949, 16096, 16146, 16363, 18996, 19196, 19880]}, "edge": {"target": [], "time": []}}}, "displayed_time": "26.22", "trialTime": 28217, "trial_type": "mouselab-mdp", "trial_index": 38, "time_elapsed": 1973902, "internal_node_id": "0.0-4.0-1.0-29.0"}}, {"uniqueid": "w21827938:a14518424", "current_trial": 39, "dateTime": 1691144193080, "trialdata": {"revealed_states": [], "clicked_states": ["11", "6", "7", "10", "5", "9", "16", "18", "20", "17", "22", "21", "32", "31", "33", "29", "27", "28"], "num_clicks_accrued": [0, 0, 0, 0, 0, 0, 0, 0, 0, 0, 0, 0, 0], "stateRewards": ["", -2, -4, -8, 8, 63, -50, -19, -7, -17, -31, 31, 1, 3, -5, 12, -35, -63, -29, -4, -17, -75, -79, -2, -3, -2, 8, -3, -85, 10, -2, -82, -82, 56], "withholdReward": false, "trial_id": "mdp_trial_31", "block": "test", "trialIndex": 32, "score": -76.69999999999999, "costs": -38.69999999999999, "simulationMode": [null, null, null, null, null], "rewards": [-2, -4, -8, -7, -17], "path": ["0", "0", "1", "2", "3", "8", "9"], "rt": [62180, 158, 188, 201, 597], "actions": ["up", "up", "up", "left", "up"], "actionTimes": [63322, 63977, 64657, 65353, 66449], "queries": {"click": {"state": {"target": ["11", "6", "7", "10", "5", "9", "16", "18", "20", "17", "22", "21", "32", "31", "33", "29", "27", "28"], "time": [1849, 5070, 8290, 11444, 14607, 17712, 21257, 24543, 27705, 30950, 33985, 37454, 41199, 44487, 47727, 51874, 55433, 58670]}, "edge": {"target": [], "time": []}}, "mouseover": {"state": {"target": ["11", "2", "7", "6", "7", "1", "10", "3", "5", "9", "3", "16", "17", "16", "17", "17", "17", "15", "18", "14", "20", "20", "17", "14", "22", "21", "30", "32", "31", "31", "33", "33", "25", "26", "29", "26", "27", "26", "28", "25"], "time": [1599, 2259, 2432, 2849, 6365, 8883, 8933, 11799, 12216, 15082, 18070, 18132, 19015, 21115, 21665, 22031, 23282, 24048, 24148, 24782, 24832, 25248, 28399, 31349, 31565, 34498, 40818, 41182, 41682, 44301, 45133, 45483, 51152, 51482, 51685, 55069, 55249, 55749, 55783, 61987]}, "edge": {"target": [], "time": []}}, "mouseout": {"state": {"target": ["28", "23", "0", "11", "2", "7", "6", "6", "7", "1", "10", "3", "5", "9", "3", "16", "17", "16", "16", "17", "17", "17", "15", "18", "14", "20", "20", "17", "14", "22", "21", "30", "32", "31", "31", "31", "33", "33", "25", "26", "29", "26", "27", "26", "28", "25", "30", "32"], "time": [150, 564, 1157, 2132, 2299, 2482, 5140, 5532, 8600, 8900, 11715, 11816, 14832, 18045, 18091, 18148, 20965, 21338, 21549, 21698, 22298, 23348, 24098, 24765, 24799, 24915, 28048, 31282, 31365, 34415, 38687, 40935, 41565, 41782, 44782, 45116, 45150, 47794, 51385, 51636, 52249, 55116, 55666, 55766, 59016, 67752, 67849, 67966]}, "edge": {"target": [], "time": []}}}, "displayed_time": "66.95", "trialTime": 69387, "trial_type": "mouselab-mdp", "trial_index": 39, "time_elapsed": 2043703, "internal_node_id": "0.0-4.0-1.0-30.0"}}, {"uniqueid": "w21827938:a14518424", "current_trial": 40, "dateTime": 1691144216919, "trialdata": {"revealed_states": [], "clicked_states": ["32", "33", "31"], "num_clicks_accrued": [0, 0, 0, 0, 0, 0, 0, 0, 0, 0, 0, 0, 0], "stateRewards": ["", 1, 2, -5, 14, 54, -14, -25, 16, -5, -87, 78, -1, 1, 3, -3, 52, 53, 53, -10, 73, -69, -48, 2, 3, 1, 8, -62, -7, 85, 7, 82, 52, -28], "withholdReward": false, "trial_id": "mdp_trial_32", "block": "test", "trialIndex": 33, "score": 88.55, "costs": -6.449999999999999, "simulationMode": [null, null, null, null, null], "rewards": [2, 3, 1, 7, 82], "path": ["0", "0", "23", "24", "25", "30", "31"], "rt": [12723, 43, 118, 852, 381], "actions": ["left", "left", "left", "down", "right"], "actionTimes": [13748, 14319, 14956, 16324, 17204], "queries": {"click": {"state": {"target": ["32", "33", "31"], "time": [1917, 5578, 8933]}, "edge": {"target": [], "time": []}}, "mouseover": {"state": {"target": ["32", "30", "33", "30", "31", "31", "24", "28"], "time": [1634, 5288, 5336, 5836, 5902, 8753, 11019, 11185]}, "edge": {"target": [], "time": []}}, "mouseout": {"state": {"target": ["0", "32", "30", "33", "30", "31", "32", "31", "31", "24", "28", "24", "24", "24"], "time": [1487, 3702, 5319, 5802, 5885, 6586, 7219, 9036, 9285, 11052, 12769, 14219, 18808, 21389]}, "edge": {"target": [], "time": []}}}, "displayed_time": "17.70", "trialTime": 23428, "trial_type": "mouselab-mdp", "trial_index": 40, "time_elapsed": 2067542, "internal_node_id": "0.0-4.0-1.0-31.0"}}, {"uniqueid": "w21827938:a14518424", "current_trial": 41, "dateTime": 1691144282733, "trialdata": {"revealed_states": [], "clicked_states": ["20", "22", "21", "16", "18", "17", "32", "33", "31", "28", "29", "27", "9", "6", "5", "7", "10"], "num_clicks_accrued": [0, 0, 0, 0, 0, 0, 0, 0, 0, 0, 0, 0, 0], "stateRewards": ["", -2, -4, 4, -11, -63, -60, -7, 2, -14, 81, -43, -1, -1, -5, 7, 10, 69, 40, 8, -83, 52, 60, 1, 2, 5, -5, 16, 64, 14, -3, 29, 7, -51], "withholdReward": false, "trial_id": "mdp_trial_33", "block": "test", "trialIndex": 34, "score": 44.45000000000001, "costs": -36.54999999999999, "simulationMode": [null, null, null, null, null], "rewards": [-2, -4, 4, 2, 81], "path": ["0", "0", "1", "2", "3", "8", "10"], "rt": [59102, 94, 278, 95, 174], "actions": ["up", "up", "up", "left", "down"], "actionTimes": [60039, 60631, 61431, 62031, 62711], "queries": {"click": {"state": {"target": ["20", "22", "21", "16", "18", "17", "32", "33", "31", "28", "29", "27", "9", "6", "5", "7", "10"], "time": [1848, 5115, 8503, 11921, 15060, 18217, 23795, 27178, 30326, 33560, 36780, 39935, 43106, 46272, 49457, 52601, 55694]}, "edge": {"target": [], "time": []}}, "mouseover": {"state": {"target": ["22", "19", "20", "22", "21", "21", "19", "16", "18", "15", "17", "17", "15", "7", "6", "7", "1", "23", "31", "32", "33", "30", "31", "24", "31", "26", "28", "26", "29", "27", "27", "11", "9", "8", "10", "6", "5", "5", "4", "7", "2", "10", "11"], "time": [1367, 1401, 1633, 2733, 5483, 5783, 8817, 9112, 12433, 15317, 15361, 15766, 21790, 21833, 22186, 22534, 23253, 23300, 23334, 23553, 26987, 27467, 27567, 27985, 28334, 30784, 31117, 33851, 34000, 37184, 37550, 40284, 40733, 43383, 43450, 44483, 46684, 46933, 49800, 49900, 52952, 53050, 56400]}, "edge": {"target": [], "time": []}}, "mouseout": {"state": {"target": ["0", "22", "19", "20", "22", "21", "21", "19", "16", "18", "15", "17", "17", "15", "7", "6", "7", "1", "23", "31", "32", "33", "30", "31", "24", "31", "26", "28", "26", "29", "27", "27", "11", "9", "8", "10", "6", "5", "5", "5", "4", "7", "2", "10", "11", "10", "23"], "time": [1302, 1384, 1586, 2116, 5416, 5616, 8767, 8834, 12217, 15300, 15355, 15390, 21770, 21809, 21850, 22470, 23236, 23268, 23317, 23367, 26920, 27417, 27517, 27936, 28300, 30667, 31034, 33801, 33917, 37084, 37234, 40184, 40367, 43283, 43417, 44040, 46617, 46717, 49522, 49750, 49867, 52917, 53002, 56107, 59137, 64700, 64817]}, "edge": {"target": [], "time": []}}}, "displayed_time": "63.20", "trialTime": 65407, "trial_type": "mouselab-mdp", "trial_index": 41, "time_elapsed": 2133357, "internal_node_id": "0.0-4.0-1.0-32.0"}}, {"uniqueid": "w21827938:a14518424", "current_trial": 42, "dateTime": 1691144355125, "trialdata": {"revealed_states": [], "clicked_states": ["32", "33", "21", "22", "20", "17", "18", "16", "7", "6", "5", "9", "11", "10", "28", "29", "27", "31"], "num_clicks_accrued": [0, 0, 0, 0, 0, 0, 0, 0, 0, 0, 0, 0, 0], "stateRewards": ["", -1, 2, -2, 13, -56, -28, 10, 14, 53, -80, -29, 1, -3, -3, -14, 14, 9, -40, -9, 18, 18, 48, 1, 1, 1, -9, 64, -39, -9, 7, -52, -78, 7], "withholdReward": false, "trial_id": "mdp_trial_34", "block": "test", "trialIndex": 35, "score": -83.69999999999999, "costs": -38.69999999999999, "simulationMode": [null, null, null, null, null], "rewards": [1, 1, 1, -9, -39], "path": ["0", "0", "23", "24", "25", "26", "28"], "rt": [64416, 62, 88, 127, 104], "actions": ["left", "left", "left", "up", "right"], "actionTimes": [65731, 66314, 66938, 67578, 68204], "queries": {"click": {"state": {"target": ["32", "33", "21", "22", "20", "17", "18", "16", "7", "6", "5", "9", "11", "10", "28", "29", "27", "31"], "time": [2299, 5937, 9516, 12825, 16092, 19309, 22476, 25710, 29023, 32172, 35203, 38338, 41603, 44898, 48100, 51315, 54571, 58498]}, "edge": {"target": [], "time": []}}, "mouseover": {"state": {"target": ["32", "31", "23", "23", "24", "33", "33", "25", "31", "21", "22", "22", "19", "20", "17", "15", "18", "16", "7", "6", "5", "5", "9", "9", "8", "11", "11", "10", "28", "27", "29", "27", "28", "24", "31", "23"], "time": [2135, 2814, 3751, 5433, 5482, 5548, 5833, 7481, 8181, 9217, 10264, 12769, 13248, 13330, 19051, 19564, 19648, 23098, 26798, 29565, 32548, 32748, 35631, 36015, 38747, 38898, 39898, 42164, 47767, 48548, 49231, 53098, 57667, 57801, 58098, 65034]}, "edge": {"target": [], "time": []}}, "mouseout": {"state": {"target": ["0", "0", "32", "31", "23", "23", "24", "33", "33", "25", "31", "21", "22", "22", "19", "20", "17", "15", "18", "16", "7", "6", "5", "5", "9", "9", "8", "11", "11", "10", "10", "28", "27", "29", "27", "28", "24", "31"], "time": [631, 1733, 2681, 2847, 3814, 5465, 5514, 5581, 6247, 8114, 8214, 10048, 12467, 13198, 13307, 17097, 19531, 19614, 22546, 26131, 29381, 32464, 32598, 35549, 35764, 38648, 38765, 39031, 41948, 44913, 47448, 48116, 49048, 51388, 54998, 57734, 58034, 62268]}, "edge": {"target": [], "time": []}}}, "displayed_time": "68.70", "trialTime": 71978, "trial_type": "mouselab-mdp", "trial_index": 42, "time_elapsed": 2205748, "internal_node_id": "0.0-4.0-1.0-33.0"}}, {"uniqueid": "w21827938:a14518424", "current_trial": 43, "dateTime": 1691144401020, "trialdata": {"revealed_states": [], "clicked_states": ["32", "31", "33", "29", "28", "27", "10", "11", "9", "5", "6"], "num_clicks_accrued": [0, 0, 0, 0, 0, 0, 0, 0, 0, 0, 0, 0, 0], "stateRewards": ["", 2, -3, -2, 14, -4, 85, 46, 15, -28, 41, 31, -1, -1, -1, 5, 62, 79, 57, 12, -73, -64, 86, -1, 1, -3, -5, 68, 11, -32, 8, -80, -21, -56], "withholdReward": false, "trial_id": "mdp_trial_35", "block": "test", "trialIndex": 36, "score": 72.35000000000001, "costs": -23.649999999999995, "simulationMode": [null, null, null, null, null], "rewards": [2, -3, -2, 14, 85], "path": ["0", "0", "1", "2", "3", "4", "6"], "rt": [39464, 455, 243, 36, 70], "actions": ["up", "up", "up", "right", "right"], "actionTimes": [40645, 41620, 42356, 42916, 43516], "queries": {"click": {"state": {"target": ["32", "31", "33", "29", "28", "27", "10", "11", "9", "5", "6"], "time": [2218, 5633, 9075, 12161, 15342, 18526, 22921, 26027, 29795, 32931, 36165]}, "edge": {"target": [], "time": []}}, "mouseover": {"state": {"target": ["31", "32", "31", "31", "30", "33", "33", "26", "26", "29", "26", "28", "28", "27", "9", "8", "10", "11", "9", "9", "5", "4", "6", "7", "7"], "time": [1795, 2045, 3326, 5479, 6463, 7293, 8445, 10093, 10860, 11043, 12444, 12494, 12893, 15794, 18993, 19177, 19560, 23261, 26633, 29296, 30444, 33390, 34210, 36478, 36744]}, "edge": {"target": [], "time": []}}, "mouseout": {"state": {"target": ["23", "0", "31", "32", "31", "31", "30", "33", "33", "33", "26", "26", "29", "26", "28", "28", "27", "9", "8", "10", "11", "9", "9", "5", "4", "6", "7", "7", "12"], "time": [260, 1696, 1910, 3018, 4026, 6126, 6743, 7326, 9260, 9660, 10462, 10926, 12410, 12477, 12527, 15560, 18877, 19127, 19210, 23160, 26377, 26744, 30077, 33294, 33944, 36428, 36561, 43861, 44628]}, "edge": {"target": [], "time": []}}}, "displayed_time": "44.01", "trialTime": 45452, "trial_type": "mouselab-mdp", "trial_index": 43, "time_elapsed": 2251643, "internal_node_id": "0.0-4.0-1.0-34.0"}}, {"uniqueid": "w21827938:a14518424", "current_trial": 44, "dateTime": 1691144429524, "trialdata": {"revealed_states": [], "clicked_states": ["32", "33", "31", "28", "29", "27"], "num_clicks_accrued": [0, 0, 0, 0, 0, 0, 0, 0, 0, 0, 0, 0, 0], "stateRewards": ["", -1, 1, 6, -6, 70, 66, 67, -16, -75, -35, 37, -1, 4, 4, -6, 47, -9, 63, 15, 21, -63, 13, 1, 3, -6, 10, 79, -29, 18, -15, 9, -67, -19], "withholdReward": false, "trial_id": "mdp_trial_36", "block": "test", "trialIndex": 37, "score": 74.1, "costs": -12.9, "simulationMode": [null, null, null, null, null], "rewards": [1, 3, -6, 10, 79], "path": ["0", "0", "23", "24", "25", "26", "27"], "rt": [21538, 141, 188, 193, 76], "actions": ["left", "left", "left", "up", "up"], "actionTimes": [22861, 23517, 24197, 24885, 25501], "queries": {"click": {"state": {"target": ["32", "33", "31", "28", "29", "27"], "time": [2140, 5298, 8490, 11692, 14822, 18049]}, "edge": {"target": [], "time": []}}, "mouseover": {"state": {"target": ["31", "32", "33", "30", "31", "24", "28", "26", "29", "27", "10"], "time": [1758, 1855, 4139, 5574, 5639, 8756, 8939, 11973, 12056, 16339, 19406]}, "edge": {"target": [], "time": []}}, "mouseout": {"state": {"target": ["0", "31", "32", "33", "30", "31", "24", "28", "26", "29", "27", "10", "23"], "time": [1692, 1780, 2639, 5518, 5606, 8656, 8806, 11939, 12022, 15273, 18422, 26508, 27476]}, "edge": {"target": [], "time": []}}}, "displayed_time": "25.99", "trialTime": 28101, "trial_type": "mouselab-mdp", "trial_index": 44, "time_elapsed": 2280147, "internal_node_id": "0.0-4.0-1.0-35.0"}}, {"uniqueid": "w21827938:a14518424", "current_trial": 45, "dateTime": 1691144449972, "trialdata": {"revealed_states": [], "clicked_states": ["32", "31", "33", "28"], "num_clicks_accrued": [0, 0, 0, 0, 0, 0, 0, 0, 0, 0, 0, 0, 0], "stateRewards": ["", -2, 2, 3, -7, -31, -33, 29, -8, -57, 50, -83, -1, -1, 5, 13, -23, -62, 25, 5, -66, -85, 14, 1, -2, -1, 16, 71, 33, -19, -14, 5, -43, 79], "withholdReward": false, "trial_id": "mdp_trial_37", "block": "test", "trialIndex": 38, "score": 54.4, "costs": -8.6, "simulationMode": [null, null, null, null, null], "rewards": [1, -2, -1, -14, 79], "path": ["0", "0", "23", "24", "25", "30", "33"], "rt": [13534, 141, 141, 347, 449], "actions": ["left", "left", "left", "down", "left"], "actionTimes": [14714, 15378, 16010, 16850, 17802], "queries": {"click": {"state": {"target": ["32", "31", "33", "28"], "time": [2009, 5213, 8324, 11430]}, "edge": {"target": [], "time": []}}, "mouseover": {"state": {"target": ["0", "32", "21", "22", "31", "30", "33", "33", "25", "28", "24"], "time": [1586, 1752, 2966, 3249, 3383, 5433, 5500, 5866, 8649, 9066, 12383]}, "edge": {"target": [], "time": []}}, "mouseout": {"state": {"target": ["0", "0", "32", "21", "22", "31", "30", "33", "33", "25", "28", "24"], "time": [450, 1608, 2216, 3216, 3266, 5400, 5483, 5516, 8583, 8749, 11900, 12400]}, "edge": {"target": [], "time": []}}}, "displayed_time": "18.31", "trialTime": 20042, "trial_type": "mouselab-mdp", "trial_index": 45, "time_elapsed": 2300595, "internal_node_id": "0.0-4.0-1.0-36.0"}}, {"uniqueid": "w21827938:a14518424", "current_trial": 46, "dateTime": 1691144519908, "trialdata": {"revealed_states": [], "clicked_states": ["21", "20", "22", "32", "31", "33", "28", "29", "27", "18", "17", "16", "7", "6", "5", "9", "10", "11"], "num_clicks_accrued": [0, 0, 0, 0, 0, 0, 0, 0, 0, 0, 0, 0, 0], "stateRewards": ["", 2, -4, 4, 9, 69, 9, -75, 12, -86, 66, 25, -1, 3, 2, -13, -88, -3, 1, 4, -69, 49, -84, 2, -1, 4, 2, -18, -81, -52, -15, -69, -54, 25], "withholdReward": false, "trial_id": "mdp_trial_38", "block": "test", "trialIndex": 39, "score": 41.30000000000001, "costs": -38.69999999999999, "simulationMode": [null, null, null, null, null], "rewards": [2, -4, 4, 9, 69], "path": ["0", "0", "1", "2", "3", "4", "5"], "rt": [62850, 529, 264, 81, 185], "actions": ["up", "up", "up", "right", "up"], "actionTimes": [64145, 65168, 65936, 66536, 67240], "queries": {"click": {"state": {"target": ["21", "20", "22", "32", "31", "33", "28", "29", "27", "18", "17", "16", "7", "6", "5", "9", "10", "11"], "time": [2157, 5401, 8936, 12211, 15342, 18595, 21871, 25091, 28429, 32176, 35385, 38834, 42406, 45791, 49273, 53329, 56570, 60010]}, "edge": {"target": [], "time": []}}, "mouseover": {"state": {"target": ["22", "19", "21", "20", "19", "22", "32", "31", "30", "33", "30", "26", "28", "29", "27", "1", "18", "15", "18", "15", "17", "16", "15", "7", "6", "7", "4", "5", "4", "3", "9", "8", "10", "11", "8"], "time": [1701, 1734, 2020, 3135, 8588, 8633, 10914, 12558, 15601, 15702, 19068, 19802, 20018, 22618, 25502, 28835, 28869, 31686, 31938, 32519, 32669, 38602, 39302, 42102, 45554, 48923, 48971, 49019, 49755, 52869, 53002, 53668, 54735, 59385, 60469]}, "edge": {"target": [], "time": []}}, "mouseout": {"state": {"target": ["0", "22", "19", "21", "20", "19", "22", "22", "32", "31", "30", "33", "30", "26", "28", "29", "27", "1", "18", "15", "18", "15", "17", "17", "16", "16", "15", "7", "7", "6", "7", "4", "5", "5", "4", "3", "9", "8", "10", "11", "8", "10", "23", "0"], "time": [1652, 1718, 1751, 2951, 7335, 8610, 8954, 9618, 12280, 15552, 15668, 19019, 19102, 19882, 22218, 25352, 28752, 28852, 28886, 31751, 32485, 32584, 36286, 38520, 38855, 39169, 41993, 42836, 45385, 46135, 48957, 48987, 49333, 49569, 50302, 52887, 53569, 54341, 56868, 60352, 60519, 68686, 68805, 68905]}, "edge": {"target": [], "time": []}}}, "displayed_time": "67.74", "trialTime": 69512, "trial_type": "mouselab-mdp", "trial_index": 46, "time_elapsed": 2370531, "internal_node_id": "0.0-4.0-1.0-37.0"}}, {"uniqueid": "w21827938:a14518424", "current_trial": 47, "dateTime": 1691144544356, "trialdata": {"revealed_states": [], "clicked_states": ["32", "31", "33"], "num_clicks_accrued": [0, 0, 0, 0, 0, 0, 0, 0, 0, 0, 0, 0, 0], "stateRewards": ["", -1, 2, -6, 6, -82, -19, -39, -16, -83, 11, -33, -2, -2, 4, -6, -82, -1, -19, -6, -10, -67, -41, -2, 1, -7, 16, -23, -78, -52, 14, 31, -71, 74], "withholdReward": false, "trial_id": "mdp_trial_39", "block": "test", "trialIndex": 40, "score": 73.55, "costs": -6.449999999999999, "simulationMode": [null, null, null, null, null], "rewards": [-2, 1, -7, 14, 74], "path": ["0", "0", "23", "24", "25", "30", "33"], "rt": [14018, 75, 149, 651, 317], "actions": ["left", "left", "left", "down", "left"], "actionTimes": [15123, 15699, 16355, 17507, 18323], "queries": {"click": {"state": {"target": ["32", "31", "33"], "time": [1944, 5209, 8270]}, "edge": {"target": [], "time": []}}, "mouseover": {"state": {"target": ["0", "31", "32", "31", "30", "33", "21", "19", "22", "24", "25", "29", "29", "26", "23"], "time": [1121, 1587, 1654, 3570, 5487, 5853, 13057, 13207, 13287, 13520, 13922, 13961, 14186, 14286, 14403]}, "edge": {"target": [], "time": []}}, "mouseout": {"state": {"target": ["0", "0", "31", "32", "31", "30", "33", "33", "21", "19", "22", "24", "25", "29", "29", "26", "23"], "time": [621, 1506, 1604, 2587, 5420, 5587, 8903, 11557, 13121, 13240, 13356, 13687, 13956, 13977, 14240, 14337, 14453]}, "edge": {"target": [], "time": []}}}, "displayed_time": "18.82", "trialTime": 24011, "trial_type": "mouselab-mdp", "trial_index": 47, "time_elapsed": 2394979, "internal_node_id": "0.0-4.0-1.0-38.0"}}, {"uniqueid": "w21827938:a14518424", "current_trial": 48, "dateTime": 1691144580764, "trialdata": {"revealed_states": [], "clicked_states": ["32", "31", "33", "21", "22", "20", "17", "18"], "num_clicks_accrued": [0, 0, 0, 0, 0, 0, 0, 0, 0, 0, 0, 0, 0], "stateRewards": ["", 1, -1, 4, -2, -75, -75, 84, -9, -60, -79, 59, 2, -4, 8, 9, -17, -82, 80, 14, -4, 49, 49, -1, 3, 6, -11, -33, 34, 55, 9, -57, 5, 59], "withholdReward": false, "trial_id": "mdp_trial_40", "block": "test", "trialIndex": 41, "score": 77.8, "costs": -17.2, "simulationMode": [null, null, null, null, null], "rewards": [2, -4, 8, 9, 80], "path": ["0", "0", "12", "13", "14", "15", "18"], "rt": [27822, 50, 123, 81, 26], "actions": ["right", "right", "right", "up", "left"], "actionTimes": [28887, 29454, 30110, 30702, 31230], "queries": {"click": {"state": {"target": ["32", "31", "33", "21", "22", "20", "17", "18"], "time": [1968, 5156, 8333, 11810, 15007, 18221, 21505, 24619]}, "edge": {"target": [], "time": []}}, "mouseover": {"state": {"target": ["0", "32", "31", "33", "30", "21", "22", "19", "20", "17", "17", "15", "18", "16"], "time": [1436, 1802, 4100, 5967, 8737, 9250, 13405, 15318, 15384, 18618, 19084, 21835, 22334, 24985]}, "edge": {"target": [], "time": []}}, "mouseout": {"state": {"target": ["0", "0", "32", "31", "33", "30", "21", "22", "19", "20", "17", "17", "15", "18", "16", "18", "12", "0"], "time": [734, 1500, 2417, 5451, 8734, 8756, 12104, 15286, 15351, 18275, 18635, 21801, 21884, 24918, 32104, 33168, 33334, 33368]}, "edge": {"target": [], "time": []}}}, "displayed_time": "31.72", "trialTime": 35982, "trial_type": "mouselab-mdp", "trial_index": 48, "time_elapsed": 2431387, "internal_node_id": "0.0-4.0-1.0-39.0"}}, {"uniqueid": "w21827938:a14518424", "current_trial": 49, "dateTime": 1691144657366, "trialdata": {"rt": 76593, "response": {"Q0": "$-2 to $2", "Q1": "$-16 to $16", "Q2": "$-88 to $88", "Q3": "The cost for clicking on nodes varied between nodes.", "Q4": "Very motivated"}, "question_order": [0, 1, 2, 3, 4], "trial_id": "final_quiz_control", "trial_type": "survey-multi-choice", "trial_index": 49, "time_elapsed": 2507989, "internal_node_id": "0.0-4.0-2.0"}}, {"uniqueid": "w21827938:a14518424", "current_trial": 50, "dateTime": 1691144794233, "trialdata": {"rt": 136858, "response": {"Q0": "To see each value at the end of each rout and planning accordingly", "Q1": "Im not sure if it improved but it was a solid strategy ", "Q2": "Not sure . The only difficulty was weighting the node reveal against the sum of the amount "}, "trial_id": "self_report_control", "trial_type": "survey-text", "trial_index": 50, "time_elapsed": 2644857, "internal_node_id": "0.0-4.0-3.0"}}, {"uniqueid": "w21827938:a14518424", "current_trial": 51, "dateTime": 1691144891073, "trialdata": {"rt": 96835, "response": {"Q0": "Neither disagree nor agree", "Q1": "Disagree", "Q2": "Agree", "Q3": "Strongly agree", "Q4": "Disagree", "Q5": "Agree", "Q6": "Disagree"}, "question_order": [0, 1, 2, 3, 4, 5, 6], "trial_id": "self_report_2", "trial_type": "survey-multi-choice", "trial_index": 51, "time_elapsed": 2741696, "internal_node_id": "0.0-4.0-4.0"}}, {"uniqueid": "w21827938:a14518424", "current_trial": 52, "dateTime": 1691144940564, "trialdata": {"rt": 49486, "response": {"gender": "male", "age": "30", "colorblind": "0", "effort": "0"}, "trial_type": "survey-html-form", "trial_index": 52, "time_elapsed": 2791187, "internal_node_id": "0.0-4.0-5.0"}}, {"uniqueid": "w21827938:a14518424", "current_trial": 53, "dateTime": 1691145005755, "trialdata": {"rt": 65185, "response": {"Q0": "nope", "Q1": "I do not remember taking part in this study before today", "Q2": "It was a fun little game "}, "trial_type": "survey-text", "trial_index": 53, "time_elapsed": 2856379, "internal_node_id": "0.0-4.0-6.0"}}, {"uniqueid": "w21827938:a14518424", "current_trial": 54, "dateTime": 1691145011100, "trialdata": {"rt": 5340, "stimulus": "Press 'Finish HIT' in order to reach the completion code. Once the data has been saved, you will receive the code either in this window or in the original browser window where you started the experiment.\n", "response": 0, "trial_type": "html-button-response", "trial_index": 54, "time_elapsed": 2861724, "internal_node_id": "0.0-5.0"}}, {"uniqueid": "w21827938:a14518424", "current_trial": 55, "dateTime": 1691145012105, "trialdata": {"success": true, "trial_type": "fullscreen", "trial_index": 55, "time_elapsed": 2862729, "internal_node_id": "0.0-6.0"}}], "questiondata": {"params": {"CODE": "C6DMOQA6", "MIN_TIME": 14, "inspectCost": 1, "startTime": "Fri Aug 04 2023 11:42:26 GMT+0200 (South Africa Standard Time)", "bonusRate": 0.002, "variance": "1_2_4_8_44", "branching": "31123"}, "final_score": 1956.25}, "eventdata": [{"eventtype": "initialized", "value": null, "timestamp": 1691142145832, "interval": 0}, {"eventtype": "window_resize", "value": [1024, 654], "timestamp": 1691142145832, "interval": 0}, {"eventtype": "window_resize", "value": [1024, 654], "timestamp": 1691142146380, "interval": 548}, {"eventtype": "window_resize", "value": [1366, 768], "timestamp": 1691142213606, "interval": 67226}, {"eventtype": "window_resize", "value": [1024, 654], "timestamp": 1691145011339, "interval": 2797733}], "useragent": "Mozilla/5.0 (Windows NT 10.0; Win64; x64) AppleWebKit/537.36 (KHTML, like Gecko) Chrome/115.0.0.0 Safari/537.36", "mode": "live", "id": "w21827938:a14518424", "status": "user data saved", "Beginhit": "2023-08-04 09:42:20.555535", "Beginexp": "2023-08-04 09:43:33.116771", "Endhit": "2023-08-04 10:30:11.962815", "psiturkStatus": 3, "browser": "<redacted>", "platform": "windows", "language": "en-US"}