{"condition": 1, "counterbalance": 0, "assignmentId": "a56115071", "workerId": "w76261230", "hitId": "h36876118", "currenttrial": 11, "bonus": 0, "data": [{"uniqueid": "w76261230:a56115071", "current_trial": 0, "dateTime": 1691070840641, "trialdata": {"success": true, "trial_type": "fullscreen", "trial_index": 0, "time_elapsed": 16048, "internal_node_id": "0.0-0.0"}}, {"uniqueid": "w76261230:a56115071", "current_trial": 1, "dateTime": 1691070858679, "trialdata": {"view_history": [{"page_index": 0, "viewing_time": 17992}], "rt": 17997, "trial_id": "exp_instructions_misaligned", "trial_type": "instructions", "trial_index": 1, "time_elapsed": 34087, "internal_node_id": "0.0-1.0"}}, {"uniqueid": "w76261230:a56115071", "current_trial": 2, "dateTime": 1691070864958, "trialdata": {"success": true, "trial_type": "fullscreen", "trial_index": 2, "time_elapsed": 40366, "internal_node_id": "0.0-2.0-0.0"}}, {"uniqueid": "w76261230:a56115071", "current_trial": 3, "dateTime": 1691071133276, "trialdata": {"view_history": [{"page_index": 0, "viewing_time": 147085}, {"page_index": 1, "viewing_time": 90448}, {"page_index": 2, "viewing_time": 15492}, {"page_index": 1, "viewing_time": 7169}, {"page_index": 2, "viewing_time": 4564}, {"page_index": 3, "viewing_time": 3538}], "rt": 268299, "trial_id": "mouselab_instructions_1_misaligned", "trial_type": "instructions", "trial_index": 3, "time_elapsed": 308684, "internal_node_id": "0.0-2.0-1.0"}}, {"uniqueid": "w76261230:a56115071", "current_trial": 4, "dateTime": 1691071338294, "trialdata": {"revealed_states": [], "clicked_states": ["12", "13", "1", "2", "24", "23", "4", "11", "10", "7", "15", "22", "19", "21", "20", "17", "16", "18", "14", "26", "28", "27", "29", "31", "25", "30", "33"], "num_clicks_accrued": [0, 0, 0, 0, 0, 0, 0, 0, 0, 0, 0, 0, 0], "stateRewards": ["", 10, -10, 10, -10, -10, 10, 10, -10, 10, -10, -10, -10, -10, -10, -10, -10, 10, -10, 10, -10, -10, 10, 10, 10, -10, -10, -10, -10, -10, -10, -10, -10, -10], "withholdReward": false, "trial_id": "practice_1", "block": "test", "trialIndex": 0, "score": -60, "costs": -13.5, "simulationMode": [null, null, null, null, null], "rewards": [-10, -10, -10, -10, -10], "path": ["0", "0", "12", "13", "14", "15", "16"], "rt": [91251, 1015, 1088, 2975, 268], "actions": ["right", "right", "right", "up", "up"], "actionTimes": [103627, 105232, 106860, 110414, 111216], "queries": {"click": {"state": {"target": ["12", "13", "1", "2", "24", "23", "4", "11", "10", "7", "15", "22", "19", "21", "20", "17", "16", "18", "14", "26", "28", "27", "29", "31", "25", "30", "33"], "time": [12541, 20392, 24942, 29252, 32344, 34973, 37542, 40752, 43549, 46280, 51425, 55304, 57455, 60902, 62770, 64315, 65624, 66955, 68434, 70893, 72197, 74517, 75607, 77803, 79253, 80481, 82138]}, "edge": {"target": [], "time": []}}, "mouseover": {"state": {"target": ["12", "13", "1", "2", "24", "23", "20", "4", "3", "11", "8", "2", "10", "10", "2", "7", "2", "28", "1", "18", "15", "18", "12", "22", "19", "21", "20", "17", "16", "18", "15", "14", "1", "28", "26", "28", "27", "27", "27", "29", "25", "31", "25", "30", "33", "33", "32", "32", "31"], "time": [12451, 17062, 23620, 28719, 31581, 33982, 36458, 36966, 39588, 39846, 41842, 42198, 42306, 42645, 44754, 45215, 48153, 48268, 49134, 50517, 50899, 52866, 54115, 54535, 56582, 59467, 62311, 63724, 65055, 66419, 67682, 67850, 69330, 69733, 70472, 71606, 72789, 73647, 73980, 75105, 76172, 77315, 78536, 80001, 81213, 97532, 97781, 97897, 102330]}, "edge": {"target": [], "time": []}}, "mouseout": {"state": {"target": ["11", "10", "1", "0", "12", "13", "1", "1", "2", "2", "24", "23", "20", "4", "3", "11", "8", "2", "10", "10", "2", "7", "2", "28", "1", "18", "15", "18", "12", "22", "19", "21", "20", "17", "16", "18", "15", "14", "1", "28", "26", "28", "27", "27", "27", "29", "25", "31", "25", "25", "30", "33", "33", "32", "32", "31"], "time": [936, 8845, 8966, 9483, 16848, 22698, 27480, 28183, 29404, 30784, 33849, 35913, 36515, 37748, 39703, 40811, 41979, 42256, 42429, 44572, 44953, 48099, 48186, 49002, 50449, 50642, 52606, 53683, 54285, 56451, 59114, 61924, 63456, 64920, 66171, 67621, 67756, 69195, 69648, 70062, 71451, 72644, 72912, 73833, 74934, 76101, 77068, 78380, 79385, 79852, 80609, 82272, 97572, 97821, 102245, 102369]}, "edge": {"target": [], "time": []}}}, "displayed_time": "111.76", "trialTime": 199866, "trial_type": "mouselab-mdp", "trial_index": 4, "time_elapsed": 513698, "internal_node_id": "0.0-2.0-2.0-0.0"}}, {"uniqueid": "w76261230:a56115071", "current_trial": 5, "dateTime": 1691071372019, "trialdata": {"revealed_states": [], "clicked_states": [], "num_clicks_accrued": [0, 0, 0, 0, 0, 0, 0, 0, 0, 0, 0, 0, 0], "stateRewards": ["", -10, -10, 10, -10, -10, 10, 10, -10, 10, -10, 10, 10, -10, 10, -10, -10, -10, -10, -10, -10, 10, -10, 10, 10, -10, -10, -10, 10, -10, 10, -10, 10, -10], "withholdReward": false, "trial_id": "practice_2", "block": "test", "trialIndex": 1, "score": -6.5, "costs": 0, "simulationMode": [null, null, null, null, null], "rewards": [10, -10, 10, -10, -10], "path": ["0", "0", "12", "13", "14", "15", "16"], "rt": [3153, 9210, 1348, 1041, 982], "actions": ["right", "right", "right", "up", "up"], "actionTimes": [9736, 19526, 21419, 23020, 24529], "queries": {"click": {"state": {"target": [], "time": []}, "edge": {"target": [], "time": []}}, "mouseover": {"state": {"target": ["12"], "time": [6656]}, "edge": {"target": [], "time": []}}, "mouseout": {"state": {"target": ["23", "23", "12", "13", "13", "12"], "time": [223, 2489, 2602, 2686, 3041, 6734]}, "edge": {"target": [], "time": []}}}, "displayed_time": "25.06", "trialTime": 31472, "trial_type": "mouselab-mdp", "trial_index": 5, "time_elapsed": 547422, "internal_node_id": "0.0-2.0-2.0-1.0"}}, {"uniqueid": "w76261230:a56115071", "current_trial": 6, "dateTime": 1691071435820, "trialdata": {"view_history": [{"page_index": 0, "viewing_time": 40662}, {"page_index": 1, "viewing_time": 23103}], "rt": 63766, "trial_id": "mouselab_instructions_2_misaligned", "trial_type": "instructions", "trial_index": 6, "time_elapsed": 611229, "internal_node_id": "0.0-2.0-3.0"}}, {"uniqueid": "w76261230:a56115071", "current_trial": 7, "dateTime": 1691071506774, "trialdata": {"rt": 70925, "response": {"Q0": "The cost for clicking on nodes may vary between nodes.", "Q1": "The better I perform the higher my bonus will be.", "Q2": "No, the structure of the web will be different each time.", "Q3": "To get the highest total score.", "Q4": "Only after moving the spider.", "Q5": "10 seconds"}, "question_order": [0, 1, 2, 3, 4, 5], "correct": {"Q0": "The cost for clicking on nodes may vary between nodes.", "Q1": "The better I perform the higher my bonus will be.", "Q2": "No, the amount of cash at each node of the web may be different each time.", "Q3": "To get the highest total score.", "Q4": "Only before moving the spider.", "Q5": "3 seconds"}, "trial_id": "mouselab_quiz_misaligned", "trial_type": "survey-multi-choice", "trial_index": 7, "time_elapsed": 682183, "internal_node_id": "0.0-2.0-4.0"}}, {"uniqueid": "w76261230:a56115071", "current_trial": 8, "dateTime": 1691071522318, "trialdata": {"success": true, "trial_type": "fullscreen", "trial_index": 8, "time_elapsed": 697725, "internal_node_id": "0.0-2.1-0.1"}}, {"uniqueid": "w76261230:a56115071", "current_trial": 9, "dateTime": 1691071586416, "trialdata": {"view_history": [{"page_index": 0, "viewing_time": 40008}, {"page_index": 1, "viewing_time": 7320}, {"page_index": 2, "viewing_time": 9482}, {"page_index": 3, "viewing_time": 7254}], "rt": 64069, "trial_id": "mouselab_instructions_1_misaligned", "trial_type": "instructions", "trial_index": 9, "time_elapsed": 761824, "internal_node_id": "0.0-2.1-1.1"}}, {"uniqueid": "w76261230:a56115071", "current_trial": 10, "dateTime": 1691071604985, "trialdata": {"revealed_states": [], "clicked_states": [], "num_clicks_accrued": [0, 0, 0, 0, 0, 0, 0, 0, 0, 0, 0, 0, 0], "stateRewards": ["", 10, -10, 10, -10, -10, 10, 10, -10, 10, -10, -10, -10, -10, -10, -10, -10, 10, -10, 10, -10, -10, 10, 10, 10, -10, -10, -10, -10, -10, -10, -10, -10, -10], "withholdReward": false, "trial_id": "practice_1", "block": "test", "trialIndex": 2, "score": -46.5, "costs": 0, "simulationMode": [null, null, null, null, null], "rewards": [-10, -10, -10, -10, -10], "path": ["0", "0", "12", "13", "14", "15", "16"], "rt": [1753, 231, 519, 1094, 148], "actions": ["right", "right", "right", "up", "up"], "actionTimes": [8350, 9167, 10219, 11848, 12525], "queries": {"click": {"state": {"target": [], "time": []}, "edge": {"target": [], "time": []}}, "mouseover": {"state": {"target": [], "time": []}, "edge": {"target": [], "time": []}}, "mouseout": {"state": {"target": ["0"], "time": [4534]}, "edge": {"target": [], "time": []}}}, "displayed_time": "13.11", "trialTime": 15991, "trial_type": "mouselab-mdp", "trial_index": 10, "time_elapsed": 780393, "internal_node_id": "0.0-2.1-2.1-0.1"}}], "questiondata": {"params": {"CODE": "C6DMOQA6", "MIN_TIME": 14, "inspectCost": 1, "startTime": "Thu Aug 03 2023 15:53:39 GMT+0200 (South Africa Standard Time)", "bonusRate": 0.002, "variance": "1_2_4_8_44", "branching": "31123"}}, "eventdata": [{"eventtype": "initialized", "value": null, "timestamp": 1691070814211, "interval": 0}, {"eventtype": "window_resize", "value": [1024, 654], "timestamp": 1691070814211, "interval": 0}, {"eventtype": "window_resize", "value": [1024, 654], "timestamp": 1691070815797, "interval": 1586}, {"eventtype": "focus", "value": "off", "timestamp": 1691070833019, "interval": 17222}, {"eventtype": "focus", "value": "on", "timestamp": 1691070834819, "interval": 1800}, {"eventtype": "window_resize", "value": [1366, 768], "timestamp": 1691070840056, "interval": 5237}, {"eventtype": "focus", "value": "off", "timestamp": 1691070868598, "interval": 28542}, {"eventtype": "window_resize", "value": [1366, 767], "timestamp": 1691070868851, "interval": 253}, {"eventtype": "focus", "value": "on", "timestamp": 1691070872073, "interval": 3222}, {"eventtype": "window_resize", "value": [1366, 768], "timestamp": 1691070872338, "interval": 265}, {"eventtype": "focus", "value": "off", "timestamp": 1691071518752, "interval": 646414}, {"eventtype": "focus", "value": "on", "timestamp": 1691071518756, "interval": 4}, {"eventtype": "window_resize", "value": [1024, 654], "timestamp": 1691071519079, "interval": 323}, {"eventtype": "window_resize", "value": [1366, 768], "timestamp": 1691071521805, "interval": 2726}], "useragent": "Mozilla/5.0 (Windows NT 10.0; Win64; x64) AppleWebKit/537.36 (KHTML, like Gecko) Chrome/115.0.0.0 Safari/537.36", "mode": "live", "id": "w76261230:a56115071", "status": "user data saved", "Beginhit": "2023-08-03 13:53:27.794768", "Beginexp": "2023-08-03 13:54:01.425694", "Endhit": null, "psiturkStatus": 2, "browser": "<redacted>", "platform": "windows", "language": "en-GB", "excludeReason": "quizfail"}