{"condition": 1, "counterbalance": 0, "assignmentId": "a63677032", "workerId": "w50052836", "hitId": "h97097419", "currenttrial": 62, "bonus": 0, "data": [{"uniqueid": "w50052836:a63677032", "current_trial": 0, "dateTime": 1693480750554, "trialdata": {"success": true, "trial_type": "fullscreen", "trial_index": 0, "time_elapsed": 4789, "internal_node_id": "0.0-0.0"}}, {"uniqueid": "w50052836:a63677032", "current_trial": 1, "dateTime": 1693480764070, "trialdata": {"view_history": [{"page_index": 0, "viewing_time": 13510}], "rt": 13513, "trial_id": "exp_instructions_misaligned", "trial_type": "instructions", "trial_index": 1, "time_elapsed": 18305, "internal_node_id": "0.0-1.0"}}, {"uniqueid": "w50052836:a63677032", "current_trial": 2, "dateTime": 1693481021133, "trialdata": {"view_history": [{"page_index": 0, "viewing_time": 80487}, {"page_index": 1, "viewing_time": 89919}, {"page_index": 2, "viewing_time": 30301}, {"page_index": 3, "viewing_time": 56349}], "rt": 257058, "trial_id": "mouselab_instructions_1_misaligned", "trial_type": "instructions", "trial_index": 2, "time_elapsed": 275368, "internal_node_id": "0.0-2.0-1.0"}}, {"uniqueid": "w50052836:a63677032", "current_trial": 3, "dateTime": 1693481051971, "trialdata": {"revealed_states": [], "clicked_states": [], "num_clicks_accrued": [0, 0, 0, 0, 0, 0, 0, 0, 0, 0, 0, 0, 0], "stateRewards": ["", -10, -10, -10, -10, -10, -10, 10, 10, 10, 10, 10, 10, 10, -10, 10, 10, -10, 10, 10, 10, -10, 10, -10, 10, 10, -10, 10, 10, -10, 10, -10, 10, 10], "withholdReward": false, "trial_id": "practice_1", "block": "test", "trialIndex": 0, "score": 13.5, "costs": 0, "simulationMode": [null, null, null, null, null], "rewards": [-10, 10, 10, -10, 10], "path": ["0", "0", "23", "24", "25", "26", "27"], "rt": [4357, 354, 1326, 553, 1995], "actions": ["left", "left", "left", "up", "up"], "actionTimes": [17618, 18467, 20287, 21331, 23838], "queries": {"click": {"state": {"target": [], "time": []}, "edge": {"target": [], "time": []}}, "mouseover": {"state": {"target": [], "time": []}, "edge": {"target": [], "time": []}}, "mouseout": {"state": {"target": ["12", "0", "0", "28", "27"], "time": [681, 897, 21893, 21942, 22217]}, "edge": {"target": [], "time": []}}}, "displayed_time": "24.34", "trialTime": 29976, "trial_type": "mouselab-mdp", "trial_index": 3, "time_elapsed": 306205, "internal_node_id": "0.0-2.0-2.0-0.0"}}, {"uniqueid": "w50052836:a63677032", "current_trial": 4, "dateTime": 1693481066239, "trialdata": {"revealed_states": [], "clicked_states": [], "num_clicks_accrued": [0, 0, 0, 0, 0, 0, 0, 0, 0, 0, 0, 0, 0], "stateRewards": ["", -10, 10, -10, -10, -10, 10, 10, 10, -10, 10, -10, -10, 10, -10, -10, 10, 10, 10, -10, 10, -10, -10, -10, -10, 10, 10, -10, 10, -10, -10, 10, -10, -10], "withholdReward": false, "trial_id": "practice_2", "block": "test", "trialIndex": 1, "score": -6.5, "costs": 0, "simulationMode": [null, null, null, null, null], "rewards": [-10, 10, -10, -10, 10], "path": ["0", "0", "12", "13", "14", "15", "16"], "rt": [2352, 1206, 318, 300, 72], "actions": ["right", "right", "right", "up", "up"], "actionTimes": [6604, 8309, 9142, 9937, 10526], "queries": {"click": {"state": {"target": [], "time": []}, "edge": {"target": [], "time": []}}, "mouseover": {"state": {"target": [], "time": []}, "edge": {"target": [], "time": []}}, "mouseout": {"state": {"target": ["26", "23", "0"], "time": [3351, 3584, 3839]}, "edge": {"target": [], "time": []}}}, "displayed_time": "11.02", "trialTime": 14053, "trial_type": "mouselab-mdp", "trial_index": 4, "time_elapsed": 320472, "internal_node_id": "0.0-2.0-2.0-1.0"}}, {"uniqueid": "w50052836:a63677032", "current_trial": 5, "dateTime": 1693481105143, "trialdata": {"view_history": [{"page_index": 0, "viewing_time": 27558}, {"page_index": 1, "viewing_time": 11342}], "rt": 38900, "trial_id": "mouselab_instructions_2_misaligned", "trial_type": "instructions", "trial_index": 5, "time_elapsed": 359378, "internal_node_id": "0.0-2.0-3.0"}}, {"uniqueid": "w50052836:a63677032", "current_trial": 6, "dateTime": 1693481145038, "trialdata": {"rt": 39888, "response": {"Q0": "The cost for clicking on nodes may vary between nodes.", "Q1": "The better I perform the higher my bonus will be.", "Q2": "No, the structure of the web will be different each time.", "Q3": "To get the highest total score.", "Q4": "Only before moving the spider.", "Q5": "3 seconds"}, "question_order": [0, 1, 2, 3, 4, 5], "correct": {"Q0": "The cost for clicking on nodes may vary between nodes.", "Q1": "The better I perform the higher my bonus will be.", "Q2": "No, the amount of cash at each node of the web may be different each time.", "Q3": "To get the highest total score.", "Q4": "Only before moving the spider.", "Q5": "3 seconds"}, "trial_id": "mouselab_quiz_misaligned", "trial_type": "survey-multi-choice", "trial_index": 6, "time_elapsed": 399273, "internal_node_id": "0.0-2.0-4.0"}}, {"uniqueid": "w50052836:a63677032", "current_trial": 7, "dateTime": 1693481178974, "trialdata": {"success": true, "trial_type": "fullscreen", "trial_index": 7, "time_elapsed": 433209, "internal_node_id": "0.0-2.1-0.1-0.1"}}, {"uniqueid": "w50052836:a63677032", "current_trial": 8, "dateTime": 1693481329104, "trialdata": {"view_history": [{"page_index": 0, "viewing_time": 77645}, {"page_index": 1, "viewing_time": 37362}, {"page_index": 2, "viewing_time": 10235}, {"page_index": 3, "viewing_time": 24884}], "rt": 150126, "trial_id": "mouselab_instructions_1_misaligned", "trial_type": "instructions", "trial_index": 8, "time_elapsed": 583339, "internal_node_id": "0.0-2.1-1.1"}}, {"uniqueid": "w50052836:a63677032", "current_trial": 9, "dateTime": 1693481349287, "trialdata": {"revealed_states": [], "clicked_states": ["23", "24", "25", "26", "27"], "num_clicks_accrued": [0, 0, 0, 0, 0, 0, 0, 0, 0, 0, 0, 0, 0], "stateRewards": ["", -10, -10, -10, -10, -10, -10, 10, 10, 10, 10, 10, 10, 10, -10, 10, 10, -10, 10, 10, 10, -10, 10, -10, 10, 10, -10, 10, 10, -10, 10, -10, 10, 10], "withholdReward": false, "trial_id": "practice_1", "block": "test", "trialIndex": 2, "score": 11, "costs": -2.5, "simulationMode": [null, null, null, null, null], "rewards": [-10, 10, 10, -10, 10], "path": ["0", "0", "23", "24", "25", "26", "27"], "rt": [12883, 308, 130, 90, 118], "actions": ["left", "left", "left", "up", "up"], "actionTimes": [15070, 15869, 16508, 17117, 17730], "queries": {"click": {"state": {"target": ["23", "24", "25", "26", "27"], "time": [3252, 5480, 7860, 8903, 10776]}, "edge": {"target": [], "time": []}}, "mouseover": {"state": {"target": ["23", "24", "25", "26", "27", "23", "28"], "time": [2914, 4898, 6093, 8493, 9792, 12397, 12696]}, "edge": {"target": [], "time": []}}, "mouseout": {"state": {"target": ["0", "23", "24", "25", "26", "27", "27", "23", "28", "27", "28", "23"], "time": [1347, 4226, 6028, 8426, 9726, 10981, 12047, 12562, 12744, 14262, 19147, 19176]}, "edge": {"target": [], "time": []}}}, "displayed_time": "18.25", "trialTime": 19964, "trial_type": "mouselab-mdp", "trial_index": 9, "time_elapsed": 603521, "internal_node_id": "0.0-2.1-2.1-0.1"}}, {"uniqueid": "w50052836:a63677032", "current_trial": 10, "dateTime": 1693481409527, "trialdata": {"revealed_states": [], "clicked_states": ["23", "24", "25", "26", "27"], "num_clicks_accrued": [0, 0, 0, 0, 0, 0, 0, 0, 0, 0, 0, 0, 0], "stateRewards": ["", -10, 10, -10, -10, -10, 10, 10, 10, -10, 10, -10, -10, 10, -10, -10, 10, 10, 10, -10, 10, -10, -10, -10, -10, 10, 10, -10, 10, -10, -10, 10, -10, -10], "withholdReward": false, "trial_id": "practice_2", "block": "test", "trialIndex": 3, "score": -9, "costs": -2.5, "simulationMode": [null, null, null, null, null, null], "rewards": [-10, -10, 10, 10, -10], "path": ["0", "0", "23", "24", "25", "26", "27"], "rt": [10636, 215, 240, 137, 1339, 140], "actions": ["left", "left", "left", "left", "up", "up"], "actionTimes": [25323, 25541, 26299, 26928, 28763, 29414], "queries": {"click": {"state": {"target": ["23", "24", "25", "26", "27"], "time": [18908, 20302, 21791, 23339, 24458]}, "edge": {"target": [], "time": []}}, "mouseover": {"state": {"target": ["0", "0", "23", "24", "25", "26", "27"], "time": [15539, 18142, 18643, 19305, 20904, 22321, 23821]}, "edge": {"target": [], "time": []}}, "mouseout": {"state": {"target": ["12", "0", "0", "0", "23", "24", "25", "26", "27"], "time": [2989, 11591, 15571, 18321, 19116, 20871, 22255, 23804, 24592]}, "edge": {"target": [], "time": []}}}, "displayed_time": "29.93", "trialTime": 60033, "trial_type": "mouselab-mdp", "trial_index": 10, "time_elapsed": 663761, "internal_node_id": "0.0-2.1-2.1-1.1"}}, {"uniqueid": "w50052836:a63677032", "current_trial": 11, "dateTime": 1693481422136, "trialdata": {"view_history": [{"page_index": 0, "viewing_time": 10173}, {"page_index": 1, "viewing_time": 2427}], "rt": 12601, "trial_id": "mouselab_instructions_2_misaligned", "trial_type": "instructions", "trial_index": 11, "time_elapsed": 676370, "internal_node_id": "0.0-2.1-3.1"}}, {"uniqueid": "w50052836:a63677032", "current_trial": 12, "dateTime": 1693481446495, "trialdata": {"rt": 24356, "response": {"Q0": "The cost for clicking on nodes may vary between nodes.", "Q1": "The better I perform the higher my bonus will be.", "Q2": "No, the amount of cash at each node of the web may be different each time.", "Q3": "To get the highest total score.", "Q4": "Only before moving the spider.", "Q5": "3 seconds"}, "question_order": [0, 1, 2, 3, 4, 5], "correct": {"Q0": "The cost for clicking on nodes may vary between nodes.", "Q1": "The better I perform the higher my bonus will be.", "Q2": "No, the amount of cash at each node of the web may be different each time.", "Q3": "To get the highest total score.", "Q4": "Only before moving the spider.", "Q5": "3 seconds"}, "trial_id": "mouselab_quiz_misaligned", "trial_type": "survey-multi-choice", "trial_index": 12, "time_elapsed": 700730, "internal_node_id": "0.0-2.1-4.1"}}, {"uniqueid": "w50052836:a63677032", "current_trial": 13, "dateTime": 1693481453069, "trialdata": {"rt": 6557, "response": {"Q0": "No"}, "question_order": [0], "trial_id": "repeat_check", "trial_type": "survey-multi-choice", "trial_index": 13, "time_elapsed": 707303, "internal_node_id": "0.0-4.0-0.0"}}, {"uniqueid": "w50052836:a63677032", "current_trial": 14, "dateTime": 1693481468622, "trialdata": {"rt": 15539, "stimulus": "\n<h1> Get ready to start the game! </h1>\n\nThank you for reading the instructions. Get ready start with the 40 rounds of this game.\n<br><br>\nIf you need to take a break, feel free to take one after the end of a round, before continuing to the next one.\n<br><br>\nRemember, the more money the spider gets, the bigger your bonus will be!\n<br><br>\n<div style='text-align: center;'>Press <code>space</code> to begin.</div>\n\n<br><br>\n(If, at any point, the <code>space</code> key does not take you to the next page, click once on the text and try again.)", "response": " ", "trial_id": "mdp_ready", "trial_type": "html-keyboard-response", "trial_index": 14, "time_elapsed": 722857, "internal_node_id": "0.0-6.0-0.0"}}, {"uniqueid": "w50052836:a63677032", "current_trial": 15, "dateTime": 1693481488710, "trialdata": {"revealed_states": [], "clicked_states": ["1", "2", "3", "4", "5", "6"], "num_clicks_accrued": [0, 0, 0, 0, 0, 0, 0, 0, 0, 0, 0, 0, 0], "stateRewards": ["", 2, 4, 7, 7, -79, -2, -21, -5, -53, 47, -21, 1, -3, -1, 7, 83, 7, 84, -7, 80, -37, 69, 2, -4, 5, 2, 4, -20, -30, 7, 71, 44, -81], "withholdReward": false, "trial_id": "mdp_trial_1", "block": "test", "trialIndex": 4, "score": -19.9, "costs": -6.9, "simulationMode": [null, null, null, null, null], "rewards": [2, 4, 7, -5, -21], "path": ["0", "0", "1", "2", "3", "8", "11"], "rt": [12339, 288, 103, 76, 38], "actions": ["up", "up", "up", "left", "left"], "actionTimes": [14842, 15642, 16255, 16825, 17355], "queries": {"click": {"state": {"target": ["1", "2", "3", "4", "5", "6"], "time": [3899, 4656, 5493, 6968, 7773, 11236]}, "edge": {"target": [], "time": []}}, "mouseover": {"state": {"target": ["1", "2", "1", "2", "3", "4", "5", "6", "7", "3", "8"], "time": [3216, 3315, 3670, 4398, 5182, 6115, 7565, 10953, 11949, 12349, 12699]}, "edge": {"target": [], "time": []}}, "mouseout": {"state": {"target": ["0", "1", "2", "1", "2", "3", "4", "5", "6", "7", "3"], "time": [3168, 3233, 3534, 4108, 5098, 6048, 7415, 10819, 11883, 11999, 12366]}, "edge": {"target": [], "time": []}}}, "displayed_time": "17.85", "trialTime": 19863, "trial_type": "mouselab-mdp", "trial_index": 15, "time_elapsed": 742944, "internal_node_id": "0.0-6.0-1.0-0.0"}}, {"uniqueid": "w50052836:a63677032", "current_trial": 16, "dateTime": 1693481507129, "trialdata": {"revealed_states": [], "clicked_states": [], "num_clicks_accrued": [0, 0, 0, 0, 0, 0, 0, 0, 0, 0, 0, 0, 0], "stateRewards": ["", -2, 2, -2, -7, -50, -62, -45, 7, 36, -24, -72, -1, -1, 8, -1, -67, 20, -52, 2, 35, -50, 80, -1, 1, 6, -6, -70, 6, 88, 8, -47, 74, -19], "withholdReward": false, "trial_id": "mdp_trial_2", "block": "test", "trialIndex": 5, "score": -71, "costs": 0, "simulationMode": [null, null, null, null, null], "rewards": [-2, 2, -2, -7, -62], "path": ["0", "0", "1", "2", "3", "4", "6"], "rt": [1491, 449, 972, 1, 221], "actions": ["up", "up", "up", "right", "right"], "actionTimes": [3726, 4690, 6180, 6693, 7447], "queries": {"click": {"state": {"target": [], "time": []}, "edge": {"target": [], "time": []}}, "mouseover": {"state": {"target": [], "time": []}, "edge": {"target": [], "time": []}}, "mouseout": {"state": {"target": ["8", "10", "13", "15", "6", "5", "5", "4", "6", "6", "6", "18", "16", "16", "18"], "time": [1488, 1524, 10679, 10944, 11634, 12043, 13426, 14026, 14090, 14224, 14909, 15125, 15754, 16387, 16725]}, "edge": {"target": [], "time": []}}}, "displayed_time": "16.24", "trialTime": 18054, "trial_type": "mouselab-mdp", "trial_index": 16, "time_elapsed": 761362, "internal_node_id": "0.0-6.0-1.0-1.0"}}, {"uniqueid": "w50052836:a63677032", "current_trial": 17, "dateTime": 1693481530524, "trialdata": {"revealed_states": [], "clicked_states": ["12", "13", "14", "15", "17", "24", "25", "30", "32", "26"], "num_clicks_accrued": [0, 0, 0, 0, 0, 0, 0, 0, 0, 0, 0, 0, 0], "stateRewards": ["", -2, -4, -2, 10, -8, -15, -47, 7, -84, 53, 5, -1, 2, -7, 3, 83, 31, 47, -1, 30, -8, 69, 2, -4, -1, 8, -7, 12, -8, -8, -13, 30, -84], "withholdReward": false, "trial_id": "mdp_trial_3", "block": "test", "trialIndex": 6, "score": 7.699999999999999, "costs": -11.3, "simulationMode": [null, null, null, null, null], "rewards": [2, -4, -1, -8, 30], "path": ["0", "0", "23", "24", "25", "30", "32"], "rt": [16237, 295, 236, 119, 186], "actions": ["left", "left", "left", "down", "down"], "actionTimes": [18242, 19033, 19788, 20421, 21105], "queries": {"click": {"state": {"target": ["12", "13", "14", "15", "17", "24", "25", "30", "32", "26"], "time": [3555, 4622, 5295, 6578, 7267, 10745, 12189, 12927, 13674, 16820]}, "edge": {"target": [], "time": []}}, "mouseover": {"state": {"target": ["12", "12", "13", "14", "15", "17", "16", "18", "1", "24", "24", "25", "30", "32", "24", "26", "25", "26", "27", "28"], "time": [2622, 2872, 4033, 5099, 6217, 7050, 7867, 9067, 9783, 9833, 10491, 11955, 12667, 13485, 14467, 15333, 16249, 16482, 17600, 17732]}, "edge": {"target": [], "time": []}}, "mouseout": {"state": {"target": ["0", "12", "12", "13", "14", "15", "17", "16", "18", "1", "24", "24", "25", "25", "30", "32", "25", "24", "26", "25", "26", "27", "28", "23"], "time": [1423, 2685, 3983, 5033, 6000, 6983, 7800, 8568, 9767, 9800, 9866, 10945, 12405, 12633, 13383, 13891, 14267, 15300, 16184, 16449, 17044, 17717, 17766, 22520]}, "edge": {"target": [], "time": []}}}, "displayed_time": "21.60", "trialTime": 23078, "trial_type": "mouselab-mdp", "trial_index": 17, "time_elapsed": 784758, "internal_node_id": "0.0-6.0-1.0-2.0"}}, {"uniqueid": "w50052836:a63677032", "current_trial": 18, "dateTime": 1693481547317, "trialdata": {"revealed_states": [], "clicked_states": [], "num_clicks_accrued": [0, 0, 0, 0, 0, 0, 0, 0, 0, 0, 0, 0, 0], "stateRewards": ["", 2, 4, -5, 7, 81, 35, 6, 11, 14, -72, 42, -1, 2, 3, -7, -77, -44, -40, -15, -85, 51, -32, -2, -1, -5, 7, -74, 47, 52, 16, -49, 48, -46], "withholdReward": false, "trial_id": "mdp_trial_4", "block": "test", "trialIndex": 7, "score": -41, "costs": 0, "simulationMode": [null, null, null, null, null], "rewards": [-2, -1, -5, 16, -49], "path": ["0", "0", "23", "24", "25", "30", "31"], "rt": [1928, 102, 50, 39, 507], "actions": ["left", "left", "left", "down", "right"], "actionTimes": [3171, 3779, 4343, 4899, 5916], "queries": {"click": {"state": {"target": [], "time": []}, "edge": {"target": [], "time": []}}, "mouseover": {"state": {"target": ["0", "23", "24"], "time": [1761, 1810, 2226]}, "edge": {"target": [], "time": []}}, "mouseout": {"state": {"target": ["0", "0", "23"], "time": [1663, 1797, 2213]}, "edge": {"target": [], "time": []}}}, "displayed_time": "15.25", "trialTime": 16546, "trial_type": "mouselab-mdp", "trial_index": 18, "time_elapsed": 801551, "internal_node_id": "0.0-6.0-1.0-3.0"}}, {"uniqueid": "w50052836:a63677032", "current_trial": 19, "dateTime": 1693481565426, "trialdata": {"revealed_states": [], "clicked_states": [], "num_clicks_accrued": [0, 0, 0, 0, 0, 0, 0, 0, 0, 0, 0, 0, 0], "stateRewards": ["", -1, 4, -3, 3, 57, -61, 5, -11, 23, -1, 34, -2, -4, -1, -13, 27, 38, -36, 4, -45, 21, 88, 1, -2, -1, 1, -69, -5, -78, -12, -9, 38, -54], "withholdReward": false, "trial_id": "mdp_trial_5", "block": "test", "trialIndex": 8, "score": 18, "costs": 0, "simulationMode": [null, null, null, null, null], "rewards": [-2, -4, -1, 4, 21], "path": ["0", "0", "12", "13", "14", "19", "21"], "rt": [1374, 279, 79, 26, 253], "actions": ["right", "right", "right", "down", "down"], "actionTimes": [3866, 4666, 5267, 5812, 6556], "queries": {"click": {"state": {"target": [], "time": []}, "edge": {"target": [], "time": []}}, "mouseover": {"state": {"target": [], "time": []}, "edge": {"target": [], "time": []}}, "mouseout": {"state": {"target": ["24", "23"], "time": [1468, 1550]}, "edge": {"target": [], "time": []}}}, "displayed_time": "16.49", "trialTime": 17865, "trial_type": "mouselab-mdp", "trial_index": 19, "time_elapsed": 819659, "internal_node_id": "0.0-6.0-1.0-4.0"}}, {"uniqueid": "w50052836:a63677032", "current_trial": 20, "dateTime": 1693481582580, "trialdata": {"revealed_states": [], "clicked_states": ["1"], "num_clicks_accrued": [0, 0, 0, 0, 0, 0, 0, 0, 0, 0, 0, 0, 0], "stateRewards": ["", 2, -2, -3, 10, -4, -1, -11, -8, -9, -36, -78, 2, 1, 7, -7, 44, -1, -31, -1, 26, 47, 83, 2, -4, -4, -6, -52, -76, -81, -1, -59, 45, 67], "withholdReward": false, "trial_id": "mdp_trial_6", "block": "test", "trialIndex": 9, "score": -46.75, "costs": 0.25, "simulationMode": [null, null, null, null, null], "rewards": [2, -2, -3, -8, -36], "path": ["0", "0", "1", "2", "3", "8", "10"], "rt": [3240, 2981, 497, 18, 76], "actions": ["up", "up", "up", "left", "down"], "actionTimes": [4605, 8095, 9112, 9647, 10240], "queries": {"click": {"state": {"target": ["1"], "time": [3314]}, "edge": {"target": [], "time": []}}, "mouseover": {"state": {"target": ["0", "1"], "time": [2534, 2862]}, "edge": {"target": [], "time": []}}, "mouseout": {"state": {"target": ["0", "0", "1", "2", "1"], "time": [1175, 2750, 5571, 7228, 7534]}, "edge": {"target": [], "time": []}}}, "displayed_time": "15.37", "trialTime": 16897, "trial_type": "mouselab-mdp", "trial_index": 20, "time_elapsed": 836814, "internal_node_id": "0.0-6.0-1.0-5.0"}}, {"uniqueid": "w50052836:a63677032", "current_trial": 21, "dateTime": 1693481601442, "trialdata": {"revealed_states": [], "clicked_states": ["12", "13", "23"], "num_clicks_accrued": [0, 0, 0, 0, 0, 0, 0, 0, 0, 0, 0, 0, 0], "stateRewards": ["", -1, -3, -7, -4, -85, -70, 79, 8, 84, -66, 42, 2, -2, -3, -16, -54, -66, 68, -3, 21, -14, 7, -2, -1, -3, -8, 75, 80, 86, -7, -84, 73, -16], "withholdReward": false, "trial_id": "mdp_trial_7", "block": "test", "trialIndex": 10, "score": 15.15, "costs": 0.15000000000000002, "simulationMode": [null, null, null, null, null], "rewards": [2, -2, -3, -3, 21], "path": ["0", "0", "12", "13", "14", "19", "20"], "rt": [5213, 450, 220, 188, 69], "actions": ["right", "right", "right", "down", "right"], "actionTimes": [6516, 7479, 8213, 8916, 9494], "queries": {"click": {"state": {"target": ["12", "13", "23"], "time": [2383, 3132, 4733]}, "edge": {"target": [], "time": []}}, "mouseover": {"state": {"target": ["12", "13", "14", "23", "0"], "time": [1896, 2908, 3675, 4497, 5857]}, "edge": {"target": [], "time": []}}, "mouseout": {"state": {"target": ["2", "0", "12", "13", "14", "23", "0"], "time": [645, 1746, 2842, 3625, 4077, 4948, 18079]}, "edge": {"target": [], "time": []}}}, "displayed_time": "15.30", "trialTime": 18606, "trial_type": "mouselab-mdp", "trial_index": 21, "time_elapsed": 855676, "internal_node_id": "0.0-6.0-1.0-6.0"}}, {"uniqueid": "w50052836:a63677032", "current_trial": 22, "dateTime": 1693481622079, "trialdata": {"revealed_states": [], "clicked_states": ["1"], "num_clicks_accrued": [0, 0, 0, 0, 0, 0, 0, 0, 0, 0, 0, 0, 0], "stateRewards": ["", 2, 3, 6, -5, -74, -53, 17, -12, 46, 44, 18, -2, 4, 1, -8, 22, -23, -49, 9, -45, 55, 81, 1, -1, -7, -16, -83, -71, -45, 2, 51, 82, 61], "withholdReward": false, "trial_id": "mdp_trial_8", "block": "test", "trialIndex": 11, "score": 17.25, "costs": 0.25, "simulationMode": [null, null, null, null, null], "rewards": [2, 3, 6, -12, 18], "path": ["0", "0", "1", "2", "3", "8", "11"], "rt": [2907, 1976, 71, 493, 812], "actions": ["up", "up", "up", "left", "left"], "actionTimes": [6507, 9003, 9581, 10586, 11905], "queries": {"click": {"state": {"target": ["1"], "time": [5484]}, "edge": {"target": [], "time": []}}, "mouseover": {"state": {"target": ["1"], "time": [4374]}, "edge": {"target": [], "time": []}}, "mouseout": {"state": {"target": ["0", "1", "2"], "time": [4247, 7757, 7908]}, "edge": {"target": [], "time": []}}}, "displayed_time": "17.60", "trialTime": 20379, "trial_type": "mouselab-mdp", "trial_index": 22, "time_elapsed": 876313, "internal_node_id": "0.0-6.0-1.0-7.0"}}, {"uniqueid": "w50052836:a63677032", "current_trial": 23, "dateTime": 1693481640191, "trialdata": {"revealed_states": [], "clicked_states": ["12"], "num_clicks_accrued": [0, 0, 0, 0, 0, 0, 0, 0, 0, 0, 0, 0, 0], "stateRewards": ["", -1, 1, 6, -6, 70, 66, 67, -16, -75, -35, 37, -1, 4, 4, -6, 47, -9, 63, 15, 21, -63, 13, 1, 3, -6, 10, 79, -29, 18, -15, 9, -67, -19], "withholdReward": false, "trial_id": "mdp_trial_9", "block": "test", "trialIndex": 12, "score": 43.25, "costs": 0.25, "simulationMode": [null, null, null, null, null], "rewards": [-1, 4, 4, 15, 21], "path": ["0", "0", "12", "13", "14", "19", "20"], "rt": [3022, 50, 22, 61, 296], "actions": ["right", "right", "right", "down", "right"], "actionTimes": [5667, 6238, 6774, 7332, 8136], "queries": {"click": {"state": {"target": ["12"], "time": [4551]}, "edge": {"target": [], "time": []}}, "mouseover": {"state": {"target": ["12", "13"], "time": [4309, 5085]}, "edge": {"target": [], "time": []}}, "mouseout": {"state": {"target": ["2", "1", "0", "12"], "time": [1917, 2068, 3203, 5036]}, "edge": {"target": [], "time": []}}}, "displayed_time": "16.65", "trialTime": 17850, "trial_type": "mouselab-mdp", "trial_index": 23, "time_elapsed": 894424, "internal_node_id": "0.0-6.0-1.0-8.0"}}, {"uniqueid": "w50052836:a63677032", "current_trial": 24, "dateTime": 1693481657653, "trialdata": {"revealed_states": [], "clicked_states": [], "num_clicks_accrued": [0, 0, 0, 0, 0, 0, 0, 0, 0, 0, 0, 0, 0], "stateRewards": ["", 2, -1, 5, 8, 75, -35, -77, 1, -9, -81, -58, 1, 2, -7, 5, 77, -16, 19, 16, -10, -18, 40, -2, 3, 7, -5, 64, 1, -62, 10, 27, 10, 65], "withholdReward": false, "trial_id": "mdp_trial_10", "block": "test", "trialIndex": 13, "score": 4, "costs": 0, "simulationMode": [null, null, null, null, null], "rewards": [-2, 3, 7, -5, 1], "path": ["0", "0", "23", "24", "25", "26", "28"], "rt": [1681, 61, 57, 1689, 74], "actions": ["left", "left", "left", "up", "right"], "actionTimes": [3329, 3906, 4453, 6653, 7238], "queries": {"click": {"state": {"target": [], "time": []}, "edge": {"target": [], "time": []}}, "mouseover": {"state": {"target": ["12"], "time": [2331]}, "edge": {"target": [], "time": []}}, "mouseout": {"state": {"target": ["13", "0", "12"], "time": [415, 1247, 2361]}, "edge": {"target": [], "time": []}}}, "displayed_time": "15.65", "trialTime": 17171, "trial_type": "mouselab-mdp", "trial_index": 24, "time_elapsed": 911887, "internal_node_id": "0.0-6.0-1.0-9.0"}}, {"uniqueid": "w50052836:a63677032", "current_trial": 25, "dateTime": 1693481688213, "trialdata": {"revealed_states": [], "clicked_states": [], "num_clicks_accrued": [0, 0, 0, 0, 0, 0, 0, 0, 0, 0, 0, 0, 0], "stateRewards": ["", 1, -3, 4, 13, -72, 52, 5, 5, -58, 5, 14, 2, 1, 3, -14, -86, -4, 73, 6, -58, -50, 49, 2, -3, -4, 2, 33, -41, 42, -11, 81, 45, 53], "withholdReward": false, "trial_id": "mdp_trial_11", "block": "test", "trialIndex": 14, "score": 39, "costs": 0, "simulationMode": [null, null, null, null, null], "rewards": [2, -3, -4, 2, 42], "path": ["0", "0", "23", "24", "25", "26", "29"], "rt": [2807, 37, 32, 720, 251], "actions": ["left", "left", "left", "up", "left"], "actionTimes": [4669, 5222, 5764, 6986, 7750], "queries": {"click": {"state": {"target": [], "time": []}, "edge": {"target": [], "time": []}}, "mouseover": {"state": {"target": [], "time": []}, "edge": {"target": [], "time": []}}, "mouseout": {"state": {"target": [], "time": []}, "edge": {"target": [], "time": []}}}, "displayed_time": "15.88", "trialTime": 30268, "trial_type": "mouselab-mdp", "trial_index": 25, "time_elapsed": 942447, "internal_node_id": "0.0-6.0-1.0-10.0"}}, {"uniqueid": "w50052836:a63677032", "current_trial": 26, "dateTime": 1693481710013, "trialdata": {"revealed_states": [], "clicked_states": [], "num_clicks_accrued": [0, 0, 0, 0, 0, 0, 0, 0, 0, 0, 0, 0, 0], "stateRewards": ["", -1, -4, 8, 8, -68, 47, 24, -7, -61, 49, -69, -1, -1, 8, -7, 42, 1, -45, -11, 10, -63, -6, 1, 4, 6, -16, 79, -37, -58, -12, 81, 18, -53], "withholdReward": false, "trial_id": "mdp_trial_12", "block": "test", "trialIndex": 15, "score": 35, "costs": 0, "simulationMode": [null, null, null, null, null], "rewards": [-1, -4, 8, 8, 24], "path": ["0", "0", "1", "2", "3", "4", "7"], "rt": [2684, 478, 88, 3, 176], "actions": ["up", "up", "up", "right", "down"], "actionTimes": [6671, 7665, 8274, 8789, 9479], "queries": {"click": {"state": {"target": [], "time": []}, "edge": {"target": [], "time": []}}, "mouseover": {"state": {"target": ["1", "20"], "time": [5805, 6185]}, "edge": {"target": [], "time": []}}, "mouseout": {"state": {"target": ["0", "0", "0", "1"], "time": [2623, 3069, 3502, 6124]}, "edge": {"target": [], "time": []}}}, "displayed_time": "17.99", "trialTime": 21522, "trial_type": "mouselab-mdp", "trial_index": 26, "time_elapsed": 964247, "internal_node_id": "0.0-6.0-1.0-11.0"}}, {"uniqueid": "w50052836:a63677032", "current_trial": 27, "dateTime": 1693481729619, "trialdata": {"revealed_states": [], "clicked_states": [], "num_clicks_accrued": [0, 0, 0, 0, 0, 0, 0, 0, 0, 0, 0, 0, 0], "stateRewards": ["", 2, 1, -3, 7, 46, 11, -36, 16, 71, 5, 1, 2, -2, -8, -3, -4, 6, 55, 7, 68, -54, 2, 1, 1, 6, -6, 42, -4, -84, -11, -65, 63, 25], "withholdReward": false, "trial_id": "mdp_trial_13", "block": "test", "trialIndex": 16, "score": -55, "costs": 0, "simulationMode": [null, null, null, null, null], "rewards": [2, -2, -8, 7, -54], "path": ["0", "0", "12", "13", "14", "19", "21"], "rt": [2785, 423, 55, 91, 890], "actions": ["right", "right", "right", "down", "down"], "actionTimes": [5463, 6403, 6967, 7586, 8969], "queries": {"click": {"state": {"target": [], "time": []}, "edge": {"target": [], "time": []}}, "mouseover": {"state": {"target": [], "time": []}, "edge": {"target": [], "time": []}}, "mouseout": {"state": {"target": ["20", "19", "22", "0"], "time": [1568, 1662, 1728, 2164]}, "edge": {"target": [], "time": []}}}, "displayed_time": "16.68", "trialTime": 19173, "trial_type": "mouselab-mdp", "trial_index": 27, "time_elapsed": 983853, "internal_node_id": "0.0-6.0-1.0-12.0"}}, {"uniqueid": "w50052836:a63677032", "current_trial": 28, "dateTime": 1693481759687, "trialdata": {"revealed_states": [], "clicked_states": [], "num_clicks_accrued": [0, 0, 0, 0, 0, 0, 0, 0, 0, 0, 0, 0, 0], "stateRewards": ["", 2, 3, -6, -5, -3, 55, 40, 11, 61, 11, 51, 2, -4, -6, 9, -25, 29, -15, -6, 7, -77, -2, -2, -4, 1, 14, -43, -1, 56, -12, -54, 41, -74], "withholdReward": false, "trial_id": "mdp_trial_14", "block": "test", "trialIndex": 17, "score": 30, "costs": 0, "simulationMode": [null, null, null, null, null], "rewards": [2, -4, -6, 9, 29], "path": ["0", "0", "12", "13", "14", "15", "17"], "rt": [6156, 1404, 341, 595, 183], "actions": ["right", "right", "right", "up", "right"], "actionTimes": [19800, 21713, 22569, 23699, 24393], "queries": {"click": {"state": {"target": [], "time": []}, "edge": {"target": [], "time": []}}, "mouseover": {"state": {"target": ["12", "0"], "time": [14461, 14677]}, "edge": {"target": [], "time": []}}, "mouseout": {"state": {"target": ["0", "12", "0"], "time": [14145, 14642, 14690]}, "edge": {"target": [], "time": []}}}, "displayed_time": "27.65", "trialTime": 29601, "trial_type": "mouselab-mdp", "trial_index": 28, "time_elapsed": 1013920, "internal_node_id": "0.0-6.0-1.0-13.0"}}, {"uniqueid": "w50052836:a63677032", "current_trial": 29, "dateTime": 1693481782769, "trialdata": {"revealed_states": [], "clicked_states": [], "num_clicks_accrued": [0, 0, 0, 0, 0, 0, 0, 0, 0, 0, 0, 0, 0], "stateRewards": ["", -1, 1, -2, 5, 73, 15, 61, 8, 7, 38, 76, 2, 2, -4, -6, -6, -26, 43, -5, -45, -85, -35, -2, 1, -4, 15, -10, 69, 72, -11, 84, -49, -38], "withholdReward": false, "trial_id": "mdp_trial_15", "block": "test", "trialIndex": 18, "score": 13, "costs": 0, "simulationMode": [null, null, null, null, null], "rewards": [-1, 1, -2, 8, 7], "path": ["0", "0", "1", "2", "3", "8", "9"], "rt": [1225, 62, 645, 14, 403], "actions": ["up", "up", "up", "left", "up"], "actionTimes": [8876, 9438, 10603, 11106, 12044], "queries": {"click": {"state": {"target": [], "time": []}, "edge": {"target": [], "time": []}}, "mouseover": {"state": {"target": [], "time": []}, "edge": {"target": [], "time": []}}, "mouseout": {"state": {"target": ["0", "0"], "time": [5206, 5456]}, "edge": {"target": [], "time": []}}}, "displayed_time": "21.65", "trialTime": 22785, "trial_type": "mouselab-mdp", "trial_index": 29, "time_elapsed": 1037003, "internal_node_id": "0.0-6.0-1.0-14.0"}}, {"uniqueid": "w50052836:a63677032", "current_trial": 30, "dateTime": 1693481799682, "trialdata": {"revealed_states": [], "clicked_states": [], "num_clicks_accrued": [0, 0, 0, 0, 0, 0, 0, 0, 0, 0, 0, 0, 0], "stateRewards": ["", 1, -3, -2, 14, 49, -40, -39, 2, 26, -61, 73, 1, -4, -8, 12, 79, 29, -65, -13, 55, -26, 27, -1, 3, 3, 9, -17, -60, -18, -8, 35, -88, 69], "withholdReward": false, "trial_id": "mdp_trial_16", "block": "test", "trialIndex": 19, "score": 31, "costs": 0, "simulationMode": [null, null, null, null, null], "rewards": [1, -4, -8, -13, 55], "path": ["0", "0", "12", "13", "14", "19", "20"], "rt": [1003, 361, 47, 65, 58], "actions": ["right", "right", "right", "down", "right"], "actionTimes": [2677, 3574, 4141, 4730, 5288], "queries": {"click": {"state": {"target": [], "time": []}, "edge": {"target": [], "time": []}}, "mouseover": {"state": {"target": ["0"], "time": [1768]}, "edge": {"target": [], "time": []}}, "mouseout": {"state": {"target": ["0", "0"], "time": [1367, 2194]}, "edge": {"target": [], "time": []}}}, "displayed_time": "15.68", "trialTime": 16585, "trial_type": "mouselab-mdp", "trial_index": 30, "time_elapsed": 1053916, "internal_node_id": "0.0-6.0-1.0-15.0"}}, {"uniqueid": "w50052836:a63677032", "current_trial": 31, "dateTime": 1693481817052, "trialdata": {"revealed_states": [], "clicked_states": [], "num_clicks_accrued": [0, 0, 0, 0, 0, 0, 0, 0, 0, 0, 0, 0, 0], "stateRewards": ["", 2, 3, 3, 10, 19, -21, 6, 9, 54, 68, 16, 2, 2, -6, -8, 40, -2, -75, -2, -42, 55, 59, -1, 2, 4, -14, 11, -34, -30, -6, 61, -53, 13], "withholdReward": false, "trial_id": "mdp_trial_17", "block": "test", "trialIndex": 20, "score": 33, "costs": 0, "simulationMode": [null, null, null, null, null], "rewards": [2, 3, 3, 9, 16], "path": ["0", "0", "1", "2", "3", "8", "11"], "rt": [738, 323, 65, 35, 52], "actions": ["up", "up", "up", "left", "left"], "actionTimes": [2478, 3324, 3898, 4433, 5001], "queries": {"click": {"state": {"target": [], "time": []}, "edge": {"target": [], "time": []}}, "mouseover": {"state": {"target": [], "time": []}, "edge": {"target": [], "time": []}}, "mouseout": {"state": {"target": ["0"], "time": [1537]}, "edge": {"target": [], "time": []}}}, "displayed_time": "15.74", "trialTime": 17091, "trial_type": "mouselab-mdp", "trial_index": 31, "time_elapsed": 1071286, "internal_node_id": "0.0-6.0-1.0-16.0"}}, {"uniqueid": "w50052836:a63677032", "current_trial": 32, "dateTime": 1693481835459, "trialdata": {"revealed_states": [], "clicked_states": [], "num_clicks_accrued": [0, 0, 0, 0, 0, 0, 0, 0, 0, 0, 0, 0, 0], "stateRewards": ["", 1, -3, -1, 9, -34, -40, 22, -7, 45, 53, -11, 2, 4, 5, 15, 21, 37, -49, -3, 80, -28, -34, 1, -3, 1, 1, -40, -6, -5, -16, -85, -86, 59], "withholdReward": false, "trial_id": "mdp_trial_18", "block": "test", "trialIndex": 21, "score": 35, "costs": 0, "simulationMode": [null, null, null, null, null], "rewards": [1, -3, -1, -7, 45], "path": ["0", "0", "1", "2", "3", "8", "9"], "rt": [1706, 502, 2, 48, 1341], "actions": ["up", "up", "up", "left", "up"], "actionTimes": [4147, 5167, 5683, 6245, 8106], "queries": {"click": {"state": {"target": [], "time": []}, "edge": {"target": [], "time": []}}, "mouseover": {"state": {"target": ["1", "7", "7"], "time": [2984, 3012, 3218]}, "edge": {"target": [], "time": []}}, "mouseout": {"state": {"target": ["0", "0", "1", "7", "7"], "time": [590, 2968, 2996, 3062, 3313]}, "edge": {"target": [], "time": []}}}, "displayed_time": "16.44", "trialTime": 18100, "trial_type": "mouselab-mdp", "trial_index": 32, "time_elapsed": 1089693, "internal_node_id": "0.0-6.0-1.0-17.0"}}, {"uniqueid": "w50052836:a63677032", "current_trial": 33, "dateTime": 1693481903520, "trialdata": {"revealed_states": [], "clicked_states": [], "num_clicks_accrued": [0, 0, 0, 0, 0, 0, 0, 0, 0, 0, 0, 0, 0], "stateRewards": ["", 2, -1, -1, -9, -81, -30, 55, -6, 78, 25, 62, 2, 4, -1, 9, -85, 1, -19, 1, -60, 12, -34, 1, 4, -1, -13, -24, -16, -83, -8, 16, 43, 9], "withholdReward": false, "trial_id": "mdp_trial_19", "block": "test", "trialIndex": 22, "score": 15, "costs": 0, "simulationMode": [null, null, null, null, null], "rewards": [2, 4, -1, 9, 1], "path": ["0", "0", "12", "13", "14", "15", "17"], "rt": [1635, 109, 91, 497, 267], "actions": ["right", "right", "right", "up", "right"], "actionTimes": [3696, 4323, 4921, 5929, 6714], "queries": {"click": {"state": {"target": [], "time": []}, "edge": {"target": [], "time": []}}, "mouseover": {"state": {"target": [], "time": []}, "edge": {"target": [], "time": []}}, "mouseout": {"state": {"target": ["0", "0"], "time": [1315, 1532]}, "edge": {"target": [], "time": []}}}, "displayed_time": "16.06", "trialTime": 67779, "trial_type": "mouselab-mdp", "trial_index": 33, "time_elapsed": 1157755, "internal_node_id": "0.0-6.0-1.0-18.0"}}, {"uniqueid": "w50052836:a63677032", "current_trial": 34, "dateTime": 1693481922085, "trialdata": {"revealed_states": [], "clicked_states": [], "num_clicks_accrued": [0, 0, 0, 0, 0, 0, 0, 0, 0, 0, 0, 0, 0], "stateRewards": ["", 1, 2, 3, 16, 63, -25, 16, -4, -14, 82, -66, -1, -3, -3, -11, -14, 19, 46, 3, -34, -82, 66, -2, -3, 4, -5, -63, 77, -37, -1, -45, -41, 84], "withholdReward": false, "trial_id": "mdp_trial_20", "block": "test", "trialIndex": 23, "score": -12, "costs": 0, "simulationMode": [null, null, null, null, null], "rewards": [1, 2, 3, -4, -14], "path": ["0", "0", "1", "2", "3", "8", "9"], "rt": [813, 32, 20, 31, 715], "actions": ["up", "up", "up", "left", "up"], "actionTimes": [2950, 3499, 4054, 4581, 5815], "queries": {"click": {"state": {"target": [], "time": []}, "edge": {"target": [], "time": []}}, "mouseover": {"state": {"target": [], "time": []}, "edge": {"target": [], "time": []}}, "mouseout": {"state": {"target": ["0"], "time": [17905]}, "edge": {"target": [], "time": []}}}, "displayed_time": "16.14", "trialTime": 18262, "trial_type": "mouselab-mdp", "trial_index": 34, "time_elapsed": 1176319, "internal_node_id": "0.0-6.0-1.0-19.0"}}, {"uniqueid": "w50052836:a63677032", "current_trial": 35, "dateTime": 1693481950875, "trialdata": {"revealed_states": [], "clicked_states": [], "num_clicks_accrued": [0, 0, 0, 0, 0, 0, 0, 0, 0, 0, 0, 0, 0], "stateRewards": ["", -1, -3, -6, -2, -7, 80, -45, -3, -38, -72, 76, 2, 1, 7, 4, -62, 14, -74, 14, -87, -21, -88, -2, 1, -7, -10, 66, 56, -76, 10, -29, -72, -70], "withholdReward": false, "trial_id": "mdp_trial_21", "block": "test", "trialIndex": 24, "score": 48, "costs": 0, "simulationMode": [null, null, null, null, null], "rewards": [-2, 1, -7, -10, 66], "path": ["0", "0", "23", "24", "25", "26", "27"], "rt": [3259, 218, 2, 1021, 207], "actions": ["left", "left", "left", "up", "up"], "actionTimes": [7078, 7818, 8318, 9870, 10589], "queries": {"click": {"state": {"target": [], "time": []}, "edge": {"target": [], "time": []}}, "mouseover": {"state": {"target": ["1", "1", "0", "0"], "time": [5186, 5753, 5780, 6051]}, "edge": {"target": [], "time": []}}, "mouseout": {"state": {"target": ["0", "1", "1", "0", "0"], "time": [5052, 5370, 5766, 5797, 6064]}, "edge": {"target": [], "time": []}}}, "displayed_time": "17.82", "trialTime": 28467, "trial_type": "mouselab-mdp", "trial_index": 35, "time_elapsed": 1205109, "internal_node_id": "0.0-6.0-1.0-20.0"}}, {"uniqueid": "w50052836:a63677032", "current_trial": 36, "dateTime": 1693481972900, "trialdata": {"revealed_states": [], "clicked_states": [], "num_clicks_accrued": [0, 0, 0, 0, 0, 0, 0, 0, 0, 0, 0, 0, 0], "stateRewards": ["", 2, -2, -8, 9, -20, 55, -58, 14, 42, 2, 36, 1, -3, -5, 5, -58, 57, 60, 16, 57, 30, -70, -2, 1, 3, 10, 59, 23, 77, -13, -26, 88, -72], "withholdReward": false, "trial_id": "mdp_trial_22", "block": "test", "trialIndex": 25, "score": 56, "costs": 0, "simulationMode": [null, null, null, null, null], "rewards": [2, -2, -8, 9, 55], "path": ["0", "0", "1", "2", "3", "4", "6"], "rt": [1362, 476, 506, 248, 314], "actions": ["up", "up", "up", "right", "right"], "actionTimes": [3102, 4093, 5089, 5848, 6664], "queries": {"click": {"state": {"target": [], "time": []}, "edge": {"target": [], "time": []}}, "mouseover": {"state": {"target": ["1"], "time": [2386]}, "edge": {"target": [], "time": []}}, "mouseout": {"state": {"target": ["1", "23", "0"], "time": [435, 567, 865]}, "edge": {"target": [], "time": []}}}, "displayed_time": "15.74", "trialTime": 21729, "trial_type": "mouselab-mdp", "trial_index": 36, "time_elapsed": 1227135, "internal_node_id": "0.0-6.0-1.0-21.0"}}, {"uniqueid": "w50052836:a63677032", "current_trial": 37, "dateTime": 1693481992917, "trialdata": {"revealed_states": [], "clicked_states": [], "num_clicks_accrued": [0, 0, 0, 0, 0, 0, 0, 0, 0, 0, 0, 0, 0], "stateRewards": ["", -2, -4, -2, -13, -15, 87, -19, -6, -80, 30, 12, 1, 1, -8, 2, 55, 56, 15, 11, -68, -7, 55, -2, 3, -3, -3, 48, 62, 4, 1, -3, 69, -33], "withholdReward": false, "trial_id": "mdp_trial_23", "block": "test", "trialIndex": 26, "score": 66, "costs": 0, "simulationMode": [null, null, null, null, null], "rewards": [-2, -4, -2, -13, 87], "path": ["0", "0", "1", "2", "3", "4", "6"], "rt": [1797, 437, 97, 553, 237], "actions": ["up", "up", "up", "right", "right"], "actionTimes": [4545, 5503, 6096, 7150, 7902], "queries": {"click": {"state": {"target": [], "time": []}, "edge": {"target": [], "time": []}}, "mouseover": {"state": {"target": [], "time": []}, "edge": {"target": [], "time": []}}, "mouseout": {"state": {"target": ["1"], "time": [1847]}, "edge": {"target": [], "time": []}}}, "displayed_time": "16.75", "trialTime": 19708, "trial_type": "mouselab-mdp", "trial_index": 37, "time_elapsed": 1247151, "internal_node_id": "0.0-6.0-1.0-22.0"}}, {"uniqueid": "w50052836:a63677032", "current_trial": 38, "dateTime": 1693482011928, "trialdata": {"revealed_states": [], "clicked_states": [], "num_clicks_accrued": [0, 0, 0, 0, 0, 0, 0, 0, 0, 0, 0, 0, 0], "stateRewards": ["", -1, 4, -5, 9, 29, -75, -42, -16, 24, -28, -41, 2, -3, 1, 10, 60, 47, 55, -1, -53, 22, -40, 2, -3, -6, 4, -26, 44, 54, 15, -76, 42, 14], "withholdReward": false, "trial_id": "mdp_trial_24", "block": "test", "trialIndex": 27, "score": 6, "costs": 0, "simulationMode": [null, null, null, null, null], "rewards": [-1, 4, -5, -16, 24], "path": ["0", "0", "1", "2", "3", "8", "9"], "rt": [2775, 62, 141, 465, 1175], "actions": ["up", "up", "up", "left", "up"], "actionTimes": [6809, 7384, 8014, 8994, 10665], "queries": {"click": {"state": {"target": [], "time": []}, "edge": {"target": [], "time": []}}, "mouseover": {"state": {"target": [], "time": []}, "edge": {"target": [], "time": []}}, "mouseout": {"state": {"target": [], "time": []}, "edge": {"target": [], "time": []}}}, "displayed_time": "18.04", "trialTime": 18681, "trial_type": "mouselab-mdp", "trial_index": 38, "time_elapsed": 1266163, "internal_node_id": "0.0-6.0-1.0-23.0"}}, {"uniqueid": "w50052836:a63677032", "current_trial": 39, "dateTime": 1693482029677, "trialdata": {"revealed_states": [], "clicked_states": [], "num_clicks_accrued": [0, 0, 0, 0, 0, 0, 0, 0, 0, 0, 0, 0, 0], "stateRewards": ["", 1, -2, -3, 14, -42, -87, -37, -11, -50, 33, -44, -2, 4, -7, 13, 48, -75, -66, 12, 23, -2, 82, 1, -4, 3, 12, 51, -15, -26, -11, -52, -29, 82], "withholdReward": false, "trial_id": "mdp_trial_25", "block": "test", "trialIndex": 28, "score": 30, "costs": 0, "simulationMode": [null, null, null, null, null], "rewards": [-2, 4, -7, 12, 23], "path": ["0", "0", "12", "13", "14", "19", "20"], "rt": [1631, 373, 66, 175, 197], "actions": ["right", "right", "right", "down", "right"], "actionTimes": [3744, 4623, 5199, 5891, 6598], "queries": {"click": {"state": {"target": [], "time": []}, "edge": {"target": [], "time": []}}, "mouseover": {"state": {"target": [], "time": []}, "edge": {"target": [], "time": []}}, "mouseout": {"state": {"target": [], "time": []}, "edge": {"target": [], "time": []}}}, "displayed_time": "16.11", "trialTime": 17440, "trial_type": "mouselab-mdp", "trial_index": 39, "time_elapsed": 1283912, "internal_node_id": "0.0-6.0-1.0-24.0"}}, {"uniqueid": "w50052836:a63677032", "current_trial": 40, "dateTime": 1693482049332, "trialdata": {"revealed_states": [], "clicked_states": [], "num_clicks_accrued": [0, 0, 0, 0, 0, 0, 0, 0, 0, 0, 0, 0, 0], "stateRewards": ["", -1, 3, 1, -7, 56, 76, 57, 3, 11, -9, 14, 1, -2, 2, 8, -77, -3, 79, -5, 88, 24, -66, -2, -1, 7, -7, -30, 14, -76, 11, -36, 28, -6], "withholdReward": false, "trial_id": "mdp_trial_26", "block": "test", "trialIndex": 29, "score": 20, "costs": 0, "simulationMode": [null, null, null, null, null], "rewards": [1, -2, 2, -5, 24], "path": ["0", "0", "12", "13", "14", "19", "21"], "rt": [1638, 25, 106, 54, 69], "actions": ["right", "right", "right", "down", "down"], "actionTimes": [5983, 6530, 7136, 7683, 8280], "queries": {"click": {"state": {"target": [], "time": []}, "edge": {"target": [], "time": []}}, "mouseover": {"state": {"target": [], "time": []}, "edge": {"target": [], "time": []}}, "mouseout": {"state": {"target": [], "time": []}, "edge": {"target": [], "time": []}}}, "displayed_time": "18.35", "trialTime": 19324, "trial_type": "mouselab-mdp", "trial_index": 40, "time_elapsed": 1303566, "internal_node_id": "0.0-6.0-1.0-25.0"}}, {"uniqueid": "w50052836:a63677032", "current_trial": 41, "dateTime": 1693482066661, "trialdata": {"revealed_states": [], "clicked_states": [], "num_clicks_accrued": [0, 0, 0, 0, 0, 0, 0, 0, 0, 0, 0, 0, 0], "stateRewards": ["", 2, 2, 3, -15, 23, -14, 73, -7, -32, -20, -6, 1, 1, -5, -12, 73, 6, -84, 11, -81, -57, 13, -2, -1, -4, -8, -52, -58, 49, 13, 5, -41, -41], "withholdReward": false, "trial_id": "mdp_trial_27", "block": "test", "trialIndex": 30, "score": -73, "costs": 0, "simulationMode": [null, null, null, null, null], "rewards": [-2, -1, -4, -8, -58], "path": ["0", "0", "23", "24", "25", "26", "28"], "rt": [1311, 346, 24, 317, 285], "actions": ["left", "left", "left", "up", "right"], "actionTimes": [3146, 4003, 4550, 5379, 6157], "queries": {"click": {"state": {"target": [], "time": []}, "edge": {"target": [], "time": []}}, "mouseover": {"state": {"target": [], "time": []}, "edge": {"target": [], "time": []}}, "mouseout": {"state": {"target": [], "time": []}, "edge": {"target": [], "time": []}}}, "displayed_time": "15.84", "trialTime": 16998, "trial_type": "mouselab-mdp", "trial_index": 41, "time_elapsed": 1320896, "internal_node_id": "0.0-6.0-1.0-26.0"}}, {"uniqueid": "w50052836:a63677032", "current_trial": 42, "dateTime": 1693482097110, "trialdata": {"revealed_states": [], "clicked_states": [], "num_clicks_accrued": [0, 0, 0, 0, 0, 0, 0, 0, 0, 0, 0, 0, 0], "stateRewards": ["", -1, -1, 7, -15, -43, -21, -84, -9, -45, -66, 2, 1, -2, 2, 8, -27, 44, -52, -5, -84, 11, 53, 1, 4, -4, 16, 83, -82, -15, -16, 68, -43, 81], "withholdReward": false, "trial_id": "mdp_trial_28", "block": "test", "trialIndex": 31, "score": 49, "costs": 0, "simulationMode": [null, null, null, null, null], "rewards": [1, -2, 2, -5, 53], "path": ["0", "0", "12", "13", "14", "19", "22"], "rt": [1785, 124, 155, 74, 160], "actions": ["right", "right", "right", "down", "left"], "actionTimes": [3356, 3990, 4653, 5239, 5910], "queries": {"click": {"state": {"target": [], "time": []}, "edge": {"target": [], "time": []}}, "mouseover": {"state": {"target": [], "time": []}, "edge": {"target": [], "time": []}}, "mouseout": {"state": {"target": ["0", "0", "0"], "time": [583, 701, 1166]}, "edge": {"target": [], "time": []}}}, "displayed_time": "15.57", "trialTime": 30124, "trial_type": "mouselab-mdp", "trial_index": 42, "time_elapsed": 1351345, "internal_node_id": "0.0-6.0-1.0-27.0"}}, {"uniqueid": "w50052836:a63677032", "current_trial": 43, "dateTime": 1693482120568, "trialdata": {"revealed_states": [], "clicked_states": [], "num_clicks_accrued": [0, 0, 0, 0, 0, 0, 0, 0, 0, 0, 0, 0, 0], "stateRewards": ["", -1, 1, 8, -8, -49, 62, -78, 16, 28, -81, 78, -2, -3, -1, -4, 67, 49, -2, -13, -16, -39, 83, 1, -4, 4, -5, -20, 7, 84, 7, -32, -59, 19], "withholdReward": false, "trial_id": "mdp_trial_29", "block": "test", "trialIndex": 32, "score": -35, "costs": 0, "simulationMode": [null, null, null, null, null], "rewards": [-2, -3, -1, -13, -16], "path": ["0", "0", "12", "13", "14", "19", "20"], "rt": [1226, 579, 227, 99, 209], "actions": ["right", "right", "right", "down", "right"], "actionTimes": [8899, 9999, 10733, 11343, 12046], "queries": {"click": {"state": {"target": [], "time": []}, "edge": {"target": [], "time": []}}, "mouseover": {"state": {"target": ["12", "13", "14"], "time": [8208, 8236, 8270]}, "edge": {"target": [], "time": []}}, "mouseout": {"state": {"target": ["12", "13"], "time": [8223, 8268]}, "edge": {"target": [], "time": []}}}, "displayed_time": "21.68", "trialTime": 23136, "trial_type": "mouselab-mdp", "trial_index": 43, "time_elapsed": 1374801, "internal_node_id": "0.0-6.0-1.0-28.0"}}, {"uniqueid": "w50052836:a63677032", "current_trial": 44, "dateTime": 1693482137891, "trialdata": {"revealed_states": [], "clicked_states": [], "num_clicks_accrued": [0, 0, 0, 0, 0, 0, 0, 0, 0, 0, 0, 0, 0], "stateRewards": ["", -2, -4, 2, 10, -17, 18, 73, 11, -32, 23, -13, -2, -4, 7, 12, -25, 66, -23, 15, 40, -76, -9, 1, 2, -7, -5, -20, 24, 3, -5, 16, -73, 70], "withholdReward": false, "trial_id": "mdp_trial_30", "block": "test", "trialIndex": 33, "score": -6, "costs": 0, "simulationMode": [null, null, null, null, null], "rewards": [-2, -4, 2, 11, -13], "path": ["0", "0", "1", "2", "3", "8", "11"], "rt": [1063, 363, 148, 452, 557], "actions": ["up", "up", "up", "left", "left"], "actionTimes": [2659, 3519, 4184, 5140, 6210], "queries": {"click": {"state": {"target": [], "time": []}, "edge": {"target": [], "time": []}}, "mouseover": {"state": {"target": [], "time": []}, "edge": {"target": [], "time": []}}, "mouseout": {"state": {"target": ["14", "13", "0"], "time": [541, 600, 2007]}, "edge": {"target": [], "time": []}}}, "displayed_time": "15.60", "trialTime": 17009, "trial_type": "mouselab-mdp", "trial_index": 44, "time_elapsed": 1392125, "internal_node_id": "0.0-6.0-1.0-29.0"}}, {"uniqueid": "w50052836:a63677032", "current_trial": 45, "dateTime": 1693482155427, "trialdata": {"revealed_states": [], "clicked_states": [], "num_clicks_accrued": [0, 0, 0, 0, 0, 0, 0, 0, 0, 0, 0, 0, 0], "stateRewards": ["", 1, -1, 4, 5, -32, 18, 20, 6, -88, -74, 9, -2, 1, -2, -14, 34, -77, -38, -1, 80, -36, 73, 2, 3, -8, 10, -48, -73, -71, -11, -22, 20, 54], "withholdReward": false, "trial_id": "mdp_trial_31", "block": "test", "trialIndex": 34, "score": 27, "costs": 0, "simulationMode": [null, null, null, null, null], "rewards": [1, -1, 4, 5, 18], "path": ["0", "0", "1", "2", "3", "4", "6"], "rt": [826, 32, 248, 56, 632], "actions": ["up", "up", "up", "right", "right"], "actionTimes": [2582, 3134, 3917, 4491, 5637], "queries": {"click": {"state": {"target": [], "time": []}, "edge": {"target": [], "time": []}}, "mouseover": {"state": {"target": [], "time": []}, "edge": {"target": [], "time": []}}, "mouseout": {"state": {"target": ["0"], "time": [16452]}, "edge": {"target": [], "time": []}}}, "displayed_time": "15.76", "trialTime": 17195, "trial_type": "mouselab-mdp", "trial_index": 45, "time_elapsed": 1409661, "internal_node_id": "0.0-6.0-1.0-30.0"}}, {"uniqueid": "w50052836:a63677032", "current_trial": 46, "dateTime": 1693482177298, "trialdata": {"revealed_states": [], "clicked_states": [], "num_clicks_accrued": [0, 0, 0, 0, 0, 0, 0, 0, 0, 0, 0, 0, 0], "stateRewards": ["", -1, -3, 4, -10, -5, 79, -87, -2, 53, 29, -20, -2, -1, -5, 10, 27, 86, 46, -16, -29, 40, 3, 2, 4, -1, -6, 37, 79, -29, 7, 86, -62, 29], "withholdReward": false, "trial_id": "mdp_trial_32", "block": "test", "trialIndex": 35, "score": 98, "costs": 0, "simulationMode": [null, null, null, null, null], "rewards": [2, 4, -1, 7, 86], "path": ["0", "0", "23", "24", "25", "30", "31"], "rt": [1930, 56, 132, 514, 173], "actions": ["left", "left", "left", "down", "right"], "actionTimes": [3278, 3843, 4485, 5517, 6210], "queries": {"click": {"state": {"target": [], "time": []}, "edge": {"target": [], "time": []}}, "mouseover": {"state": {"target": [], "time": []}, "edge": {"target": [], "time": []}}, "mouseout": {"state": {"target": ["18", "18", "12", "0"], "time": [407, 505, 539, 987]}, "edge": {"target": [], "time": []}}}, "displayed_time": "15.35", "trialTime": 21533, "trial_type": "mouselab-mdp", "trial_index": 46, "time_elapsed": 1431531, "internal_node_id": "0.0-6.0-1.0-31.0"}}, {"uniqueid": "w50052836:a63677032", "current_trial": 47, "dateTime": 1693482205172, "trialdata": {"revealed_states": [], "clicked_states": [], "num_clicks_accrued": [0, 0, 0, 0, 0, 0, 0, 0, 0, 0, 0, 0, 0], "stateRewards": ["", 2, -3, 5, 11, -79, 54, 11, -9, -78, 33, 22, -2, -1, 2, 14, 43, 34, 1, 10, 49, -65, 39, -1, 1, -1, 3, -16, -2, 11, 2, 12, 48, -65], "withholdReward": false, "trial_id": "mdp_trial_33", "block": "test", "trialIndex": 36, "score": 69, "costs": 0, "simulationMode": [null, null, null, null, null], "rewards": [2, -3, 5, 11, 54], "path": ["0", "0", "1", "2", "3", "4", "6"], "rt": [1217, 401, 95, 158, 94], "actions": ["up", "up", "up", "right", "right"], "actionTimes": [6219, 7140, 7750, 8397, 8999], "queries": {"click": {"state": {"target": [], "time": []}, "edge": {"target": [], "time": []}}, "mouseover": {"state": {"target": [], "time": []}, "edge": {"target": [], "time": []}}, "mouseout": {"state": {"target": ["0", "0", "18", "13", "12", "0", "7"], "time": [1297, 3724, 3855, 4073, 4089, 4189, 19923]}, "edge": {"target": [], "time": []}}}, "displayed_time": "19.00", "trialTime": 27525, "trial_type": "mouselab-mdp", "trial_index": 47, "time_elapsed": 1459406, "internal_node_id": "0.0-6.0-1.0-32.0"}}, {"uniqueid": "w50052836:a63677032", "current_trial": 48, "dateTime": 1693482228193, "trialdata": {"revealed_states": [], "clicked_states": [], "num_clicks_accrued": [0, 0, 0, 0, 0, 0, 0, 0, 0, 0, 0, 0, 0], "stateRewards": ["", -2, -3, -5, 8, 27, 11, 43, -6, -24, -87, 69, -2, 1, 1, 9, 19, 48, -37, 9, -14, 45, 62, 1, 2, 1, 16, -81, -41, 22, 4, -6, -63, 47], "withholdReward": false, "trial_id": "mdp_trial_34", "block": "test", "trialIndex": 37, "score": 53, "costs": 0, "simulationMode": [null, null, null, null, null], "rewards": [-2, -3, -5, -6, 69], "path": ["0", "0", "1", "2", "3", "8", "11"], "rt": [2059, 80, 18, 281, 271], "actions": ["up", "up", "up", "left", "left"], "actionTimes": [4238, 4831, 5368, 6147, 6941], "queries": {"click": {"state": {"target": [], "time": []}, "edge": {"target": [], "time": []}}, "mouseover": {"state": {"target": [], "time": []}, "edge": {"target": [], "time": []}}, "mouseout": {"state": {"target": ["7", "1", "0"], "time": [1369, 1398, 2585]}, "edge": {"target": [], "time": []}}}, "displayed_time": "16.18", "trialTime": 22676, "trial_type": "mouselab-mdp", "trial_index": 48, "time_elapsed": 1482428, "internal_node_id": "0.0-6.0-1.0-33.0"}}, {"uniqueid": "w50052836:a63677032", "current_trial": 49, "dateTime": 1693482246135, "trialdata": {"revealed_states": [], "clicked_states": [], "num_clicks_accrued": [0, 0, 0, 0, 0, 0, 0, 0, 0, 0, 0, 0, 0], "stateRewards": ["", -1, 1, -1, 2, 19, 85, -18, 2, -3, -26, 36, 2, 4, 7, -9, -18, 70, 72, -5, 35, -20, -28, 1, -2, -4, -3, -59, -11, -63, -2, -72, 59, -69], "withholdReward": false, "trial_id": "mdp_trial_35", "block": "test", "trialIndex": 38, "score": -14, "costs": 0, "simulationMode": [null, null, null, null, null], "rewards": [2, 4, 7, -9, -18], "path": ["0", "0", "12", "13", "14", "15", "16"], "rt": [1237, 122, 9, 405, 420], "actions": ["right", "right", "right", "up", "up"], "actionTimes": [3748, 4366, 4886, 5815, 6731], "queries": {"click": {"state": {"target": [], "time": []}, "edge": {"target": [], "time": []}}, "mouseover": {"state": {"target": ["7"], "time": [2930]}, "edge": {"target": [], "time": []}}, "mouseout": {"state": {"target": ["7", "12"], "time": [2964, 13242]}, "edge": {"target": [], "time": []}}}, "displayed_time": "16.51", "trialTime": 17596, "trial_type": "mouselab-mdp", "trial_index": 49, "time_elapsed": 1500370, "internal_node_id": "0.0-6.0-1.0-34.0"}}, {"uniqueid": "w50052836:a63677032", "current_trial": 50, "dateTime": 1693482262881, "trialdata": {"revealed_states": [], "clicked_states": [], "num_clicks_accrued": [0, 0, 0, 0, 0, 0, 0, 0, 0, 0, 0, 0, 0], "stateRewards": ["", 1, 2, 2, -15, -84, 28, -26, 13, 31, 86, 30, -2, 1, -1, -8, 66, -40, -1, -10, -32, 57, -17, 1, 2, -2, 9, -23, 77, 85, 12, -32, -62, -35], "withholdReward": false, "trial_id": "mdp_trial_36", "block": "test", "trialIndex": 39, "score": -13, "costs": 0, "simulationMode": [null, null, null, null, null], "rewards": [1, 2, -2, 9, -23], "path": ["0", "0", "23", "24", "25", "26", "27"], "rt": [1447, 56, 414, 1141, 43], "actions": ["left", "left", "left", "up", "up"], "actionTimes": [3255, 3829, 4737, 6381, 6933], "queries": {"click": {"state": {"target": [], "time": []}, "edge": {"target": [], "time": []}}, "mouseover": {"state": {"target": [], "time": []}, "edge": {"target": [], "time": []}}, "mouseout": {"state": {"target": ["0"], "time": [2310]}, "edge": {"target": [], "time": []}}}, "displayed_time": "15.81", "trialTime": 16337, "trial_type": "mouselab-mdp", "trial_index": 50, "time_elapsed": 1517115, "internal_node_id": "0.0-6.0-1.0-35.0"}}, {"uniqueid": "w50052836:a63677032", "current_trial": 51, "dateTime": 1693482282692, "trialdata": {"revealed_states": [], "clicked_states": [], "num_clicks_accrued": [0, 0, 0, 0, 0, 0, 0, 0, 0, 0, 0, 0, 0], "stateRewards": ["", -2, -3, -7, 7, -54, -69, -4, -14, -77, 22, 40, -2, -1, 5, 6, -35, 50, -60, 10, -28, 75, 57, 1, -4, -2, 2, 68, 34, -18, 12, 3, -21, -43], "withholdReward": false, "trial_id": "mdp_trial_37", "block": "test", "trialIndex": 40, "score": 87, "costs": 0, "simulationMode": [null, null, null, null, null], "rewards": [-2, -1, 5, 10, 75], "path": ["0", "0", "12", "13", "14", "19", "21"], "rt": [1274, 3, 557, 426, 271], "actions": ["right", "right", "right", "down", "down"], "actionTimes": [5264, 5783, 6850, 7786, 8589], "queries": {"click": {"state": {"target": [], "time": []}, "edge": {"target": [], "time": []}}, "mouseover": {"state": {"target": [], "time": []}, "edge": {"target": [], "time": []}}, "mouseout": {"state": {"target": ["0", "1", "2", "3", "4", "18", "13", "22", "15", "18", "1", "4", "16", "12", "12", "12"], "time": [4546, 14343, 14407, 14507, 14589, 14741, 14824, 15525, 15711, 16044, 16410, 16474, 16762, 18092, 18394, 18860]}, "edge": {"target": [], "time": []}}}, "displayed_time": "17.99", "trialTime": 19468, "trial_type": "mouselab-mdp", "trial_index": 51, "time_elapsed": 1536925, "internal_node_id": "0.0-6.0-1.0-36.0"}}, {"uniqueid": "w50052836:a63677032", "current_trial": 52, "dateTime": 1693482299863, "trialdata": {"revealed_states": [], "clicked_states": [], "num_clicks_accrued": [0, 0, 0, 0, 0, 0, 0, 0, 0, 0, 0, 0, 0], "stateRewards": ["", -1, -3, -5, -14, -13, -47, 79, 8, -60, -64, 41, -1, 2, 3, 13, -46, 61, -79, -11, -64, -65, 23, 1, -2, 6, -14, 46, 32, 21, 7, 75, -66, 15], "withholdReward": false, "trial_id": "mdp_trial_38", "block": "test", "trialIndex": 41, "score": -29, "costs": 0, "simulationMode": [null, null, null, null, null], "rewards": [-1, 2, 3, 13, -46], "path": ["0", "0", "12", "13", "14", "15", "16"], "rt": [3596, 235, 572, 9, 12], "actions": ["right", "right", "right", "up", "up"], "actionTimes": [5005, 5751, 6839, 7341, 7877], "queries": {"click": {"state": {"target": [], "time": []}, "edge": {"target": [], "time": []}}, "mouseover": {"state": {"target": ["0"], "time": [2448]}, "edge": {"target": [], "time": []}}, "mouseout": {"state": {"target": ["0", "0"], "time": [1984, 2514]}, "edge": {"target": [], "time": []}}}, "displayed_time": "15.41", "trialTime": 16829, "trial_type": "mouselab-mdp", "trial_index": 52, "time_elapsed": 1554096, "internal_node_id": "0.0-6.0-1.0-37.0"}}, {"uniqueid": "w50052836:a63677032", "current_trial": 53, "dateTime": 1693482319396, "trialdata": {"revealed_states": [], "clicked_states": [], "num_clicks_accrued": [0, 0, 0, 0, 0, 0, 0, 0, 0, 0, 0, 0, 0], "stateRewards": ["", -2, 1, -7, -8, -37, -76, -87, 11, 30, -63, 80, -1, 4, 2, -1, 42, 17, 52, -3, -75, -80, -68, 2, -3, -5, -15, -48, 82, 24, -7, 5, -22, -71], "withholdReward": false, "trial_id": "mdp_trial_39", "block": "test", "trialIndex": 42, "score": 33, "costs": 0, "simulationMode": [null, null, null, null, null], "rewards": [-2, 1, -7, 11, 30], "path": ["0", "0", "1", "2", "3", "8", "9"], "rt": [1102, 403, 89, 526, 131], "actions": ["up", "up", "up", "left", "up"], "actionTimes": [2638, 3551, 4154, 5191, 5829], "queries": {"click": {"state": {"target": [], "time": []}, "edge": {"target": [], "time": []}}, "mouseover": {"state": {"target": [], "time": []}, "edge": {"target": [], "time": []}}, "mouseout": {"state": {"target": ["0", "21"], "time": [8266, 8516]}, "edge": {"target": [], "time": []}}}, "displayed_time": "15.54", "trialTime": 19178, "trial_type": "mouselab-mdp", "trial_index": 53, "time_elapsed": 1573630, "internal_node_id": "0.0-6.0-1.0-38.0"}}, {"uniqueid": "w50052836:a63677032", "current_trial": 54, "dateTime": 1693482337127, "trialdata": {"revealed_states": [], "clicked_states": [], "num_clicks_accrued": [0, 0, 0, 0, 0, 0, 0, 0, 0, 0, 0, 0, 0], "stateRewards": ["", -2, 2, 3, -7, -31, -33, 29, -8, -57, 50, -83, -1, -1, 5, 13, -23, -62, 25, 5, -66, -85, 14, 1, -2, -1, 16, 71, 33, -19, -14, 5, -43, 79], "withholdReward": false, "trial_id": "mdp_trial_40", "block": "test", "trialIndex": 43, "score": -77, "costs": 0, "simulationMode": [null, null, null, null, null], "rewards": [-1, -1, 5, 5, -85], "path": ["0", "0", "12", "13", "14", "19", "21"], "rt": [1147, 51, 655, 513, 281], "actions": ["right", "right", "right", "down", "down"], "actionTimes": [3410, 3973, 5143, 6168, 6953], "queries": {"click": {"state": {"target": [], "time": []}, "edge": {"target": [], "time": []}}, "mouseover": {"state": {"target": [], "time": []}, "edge": {"target": [], "time": []}}, "mouseout": {"state": {"target": ["22", "13", "12", "0", "12", "22", "21"], "time": [490, 890, 1023, 2752, 15406, 15503, 16652]}, "edge": {"target": [], "time": []}}}, "displayed_time": "16.26", "trialTime": 17383, "trial_type": "mouselab-mdp", "trial_index": 54, "time_elapsed": 1591361, "internal_node_id": "0.0-6.0-1.0-39.0"}}, {"uniqueid": "w50052836:a63677032", "current_trial": 55, "dateTime": 1693482454221, "trialdata": {"rt": 117081, "response": {"Q0": "$-2 to $2", "Q1": "$-32 to $32", "Q2": "$-88 to $88", "Q3": "The cost for clicking on nodes varied between nodes.", "Q4": "Neither motivated nor unmotivated"}, "question_order": [0, 1, 2, 3, 4], "trial_id": "final_quiz_control", "trial_type": "survey-multi-choice", "trial_index": 55, "time_elapsed": 1708455, "internal_node_id": "0.0-6.0-2.0"}}, {"uniqueid": "w50052836:a63677032", "current_trial": 56, "dateTime": 1693482542514, "trialdata": {"rt": 88219, "response": {"Q0": "I moved to a different section of nodes in each round.", "Q1": "No", "Q2": "Not knowing the value of each and every node made it difficult."}, "trial_id": "self_report_control", "trial_type": "survey-text", "trial_index": 56, "time_elapsed": 1796749, "internal_node_id": "0.0-6.0-3.0"}}, {"uniqueid": "w50052836:a63677032", "current_trial": 57, "dateTime": 1693482618256, "trialdata": {"rt": 75738, "response": {"Q0": "Agree", "Q1": "Disagree", "Q2": "Agree", "Q3": "Agree", "Q4": "Agree", "Q5": "Agree", "Q6": "Disagree"}, "question_order": [0, 1, 2, 3, 4, 5, 6], "trial_id": "self_report_2", "trial_type": "survey-multi-choice", "trial_index": 57, "time_elapsed": 1872491, "internal_node_id": "0.0-6.0-4.0"}}, {"uniqueid": "w50052836:a63677032", "current_trial": 58, "dateTime": 1693482640149, "trialdata": {"rt": 21885, "response": {"gender": "female", "age": "45", "colorblind": "0", "effort": "1"}, "trial_type": "survey-html-form", "trial_index": 58, "time_elapsed": 1894384, "internal_node_id": "0.0-6.0-5.0"}}, {"uniqueid": "w50052836:a63677032", "current_trial": 59, "dateTime": 1693482669964, "trialdata": {"rt": 29808, "response": {"Q0": "No", "Q1": "No", "Q2": ""}, "trial_type": "survey-text", "trial_index": 59, "time_elapsed": 1924199, "internal_node_id": "0.0-6.0-6.0"}}, {"uniqueid": "w50052836:a63677032", "current_trial": 60, "dateTime": 1693482683983, "trialdata": {"rt": 14007, "stimulus": "<h1>Completion Code Instructions (1/2)</h1>\n<br><br><br><br>\nYou have reached the end of the experiment! The completion code consists of two parts: (1) a code with 2 characters (2) a code with 6 characters. On this page, you will receive the second part of the code. The first part of the completion code will be on the next page.\n<br><br>\nThe second part of your completion code is: <b>EWEK22</b>\n<br><br>\nPlease note this down. Then, press 'Finish HIT' in order to find the first part of your completion code. Once the data has been saved, you will receive this code either in this window or in the original browser window where you started the experiment.\n", "response": 0, "trial_type": "html-button-response", "trial_index": 60, "time_elapsed": 1938217, "internal_node_id": "0.0-6.0-7.0"}}, {"uniqueid": "w50052836:a63677032", "current_trial": 61, "dateTime": 1693482684991, "trialdata": {"success": true, "trial_type": "fullscreen", "trial_index": 61, "time_elapsed": 1939225, "internal_node_id": "0.0-7.0"}}], "questiondata": {"params": {"CODE": "C6DMOQA6", "MIN_TIME": 14, "inspectCost": 1, "startTime": "Thu Aug 31 2023 13:19:03 GMT+0200 (South Africa Standard Time)", "bonusRate": 0.002, "variance": "1_2_4_8_44", "branching": "31123"}, "final_score": 485.7}, "eventdata": [{"eventtype": "initialized", "value": null, "timestamp": 1693480743160, "interval": 0}, {"eventtype": "window_resize", "value": [1028, 744], "timestamp": 1693480743160, "interval": 0}, {"eventtype": "window_resize", "value": [1028, 744], "timestamp": 1693480743651, "interval": 491}, {"eventtype": "window_resize", "value": [1536, 864], "timestamp": 1693480749796, "interval": 6145}, {"eventtype": "focus", "value": "off", "timestamp": 1693481166040, "interval": 416244}, {"eventtype": "focus", "value": "on", "timestamp": 1693481166040, "interval": 0}, {"eventtype": "window_resize", "value": [1028, 744], "timestamp": 1693481166250, "interval": 210}, {"eventtype": "window_resize", "value": [1536, 864], "timestamp": 1693481178234, "interval": 11984}, {"eventtype": "window_resize", "value": [1028, 744], "timestamp": 1693482684223, "interval": 1505989}], "useragent": "Mozilla/5.0 (Windows NT 10.0; Win64; x64) AppleWebKit/537.36 (KHTML, like Gecko) Chrome/116.0.0.0 Safari/537.36", "mode": "live", "id": "w50052836:a63677032", "status": "user data saved", "Beginhit": "2023-08-31 11:19:02.539307", "Beginexp": "2023-08-31 11:19:12.76106", "Endhit": "2023-08-31 11:51:28.559936", "psiturkStatus": 3, "browser": "<redacted>", "platform": "windows", "language": "en-ZA"}