{"condition": 1, "counterbalance": 0, "assignmentId": "a89363496", "workerId": "w71155327", "hitId": "h90094230", "currenttrial": 62, "bonus": 0, "data": [{"uniqueid": "w71155327:a89363496", "current_trial": 0, "dateTime": 1693388928602, "trialdata": {"success": true, "trial_type": "fullscreen", "trial_index": 0, "time_elapsed": 24989, "internal_node_id": "0.0-0.0"}}, {"uniqueid": "w71155327:a89363496", "current_trial": 1, "dateTime": 1693388986351, "trialdata": {"view_history": [{"page_index": 0, "viewing_time": 57737}], "rt": 57737, "trial_id": "exp_instructions_misaligned", "trial_type": "instructions", "trial_index": 1, "time_elapsed": 82739, "internal_node_id": "0.0-1.0"}}, {"uniqueid": "w71155327:a89363496", "current_trial": 2, "dateTime": 1693389278908, "trialdata": {"view_history": [{"page_index": 0, "viewing_time": 106734}, {"page_index": 1, "viewing_time": 127713}, {"page_index": 2, "viewing_time": 42431}, {"page_index": 3, "viewing_time": 15672}], "rt": 292550, "trial_id": "mouselab_instructions_1_misaligned", "trial_type": "instructions", "trial_index": 2, "time_elapsed": 375296, "internal_node_id": "0.0-2.0-1.0"}}, {"uniqueid": "w71155327:a89363496", "current_trial": 3, "dateTime": 1693389405173, "trialdata": {"revealed_states": [], "clicked_states": ["23", "24", "26", "27", "25", "30", "31", "1", "2", "7", "3", "4", "5", "6", "9", "8", "10", "11", "12", "13", "14", "15", "16", "17", "18", "19", "20", "21", "29", "28", "32", "33", "22"], "num_clicks_accrued": [0, 0, 0, 0, 0, 0, 0, 0, 0, 0, 0, 0, 0], "stateRewards": ["", -10, 10, 10, 10, -10, 10, -10, 10, -10, -10, 10, -10, -10, -10, 10, -10, -10, 10, 10, 10, 10, -10, 10, -10, -10, 10, 10, 10, 10, -10, 10, -10, -10], "withholdReward": false, "trial_id": "practice_1", "block": "test", "trialIndex": 0, "score": -3, "costs": -16.5, "simulationMode": [null, null, null, null, null], "rewards": [-10, 10, 10, 10, -10], "path": ["0", "0", "1", "2", "3", "4", "5"], "rt": [104004, 1662, 992, 869, 1658], "actions": ["up", "up", "up", "right", "up"], "actionTimes": [110363, 112531, 114027, 115387, 117547], "queries": {"click": {"state": {"target": ["23", "24", "26", "27", "25", "30", "31", "1", "2", "7", "3", "4", "5", "6", "9", "8", "10", "11", "12", "13", "14", "15", "16", "17", "18", "19", "20", "21", "29", "28", "32", "33", "22"], "time": [12740, 16072, 19915, 22020, 27612, 28945, 30092, 34684, 37515, 39015, 40851, 42196, 43958, 45348, 47460, 49245, 50476, 53101, 57029, 58301, 59804, 60877, 62116, 64075, 65366, 67168, 69270, 70487, 72935, 74062, 75398, 78523, 86341]}, "edge": {"target": [], "time": []}}, "mouseover": {"state": {"target": ["23", "24", "23", "24", "25", "25", "26", "27", "28", "23", "13", "12", "23", "25", "30", "25", "30", "31", "32", "23", "0", "0", "12", "1", "2", "3", "2", "7", "2", "7", "3", "4", "5", "6", "4", "9", "8", "10", "11", "1", "11", "8", "2", "18", "20", "14", "13", "12", "13", "14", "15", "16", "17", "17", "18", "14", "19", "20", "21", "22", "31", "25", "26", "29", "26", "28", "24", "31", "32", "33", "30", "31", "0", "23", "0", "12", "22", "0", "1", "2", "3", "2", "1", "0", "1", "1", "0", "0", "1", "1"], "time": [10920, 11298, 11829, 14636, 16682, 19251, 19597, 21387, 24135, 24302, 25601, 25671, 26369, 26603, 26785, 27251, 27982, 29582, 32368, 32572, 32587, 33053, 33564, 34367, 35232, 35799, 36418, 36703, 37058, 38580, 40339, 41699, 43468, 44766, 46568, 46997, 48602, 50084, 51165, 52047, 52585, 55042, 55131, 55253, 56019, 56071, 56197, 56595, 57481, 58736, 60232, 61963, 62848, 63485, 64699, 66429, 66665, 68602, 70069, 71183, 72218, 72418, 72498, 72685, 73300, 73448, 74502, 74651, 74949, 77571, 81115, 81171, 81498, 83618, 84537, 85104, 86002, 91138, 91753, 92339, 92870, 93763, 93863, 93963, 95102, 96827, 97603, 105669, 107902, 109783]}, "edge": {"target": [], "time": []}}, "mouseout": {"state": {"target": ["32", "12", "18", "0", "23", "24", "23", "24", "25", "25", "26", "27", "28", "23", "13", "12", "23", "25", "30", "25", "30", "30", "31", "32", "31", "23", "0", "0", "12", "1", "2", "3", "2", "7", "2", "7", "3", "3", "4", "5", "4", "6", "4", "9", "9", "8", "8", "10", "11", "10", "1", "10", "11", "8", "2", "18", "20", "14", "13", "12", "12", "13", "14", "15", "16", "17", "17", "15", "18", "14", "19", "20", "21", "22", "31", "25", "26", "29", "26", "28", "24", "31", "32", "33", "30", "31", "0", "23", "0", "12", "22", "0", "1", "2", "3", "2", "1", "0", "1", "1", "0", "0", "1", "1"], "time": [2868, 4485, 4534, 5236, 11198, 11766, 14369, 16499, 18831, 19468, 21252, 24002, 24171, 24320, 25652, 25732, 26568, 26680, 27169, 27882, 29086, 29515, 32035, 32501, 32552, 32583, 32616, 33436, 34115, 35067, 35765, 36340, 36518, 36935, 38187, 40184, 40964, 41550, 43262, 44317, 44516, 46452, 46602, 47596, 48283, 49365, 49581, 50596, 51814, 51964, 52081, 52421, 54504, 55084, 55149, 55272, 56037, 56090, 56586, 57124, 57335, 58599, 60133, 61034, 62769, 62931, 64499, 64632, 66334, 66465, 68398, 69832, 70620, 72053, 72283, 72454, 72515, 73042, 73348, 74433, 74549, 74782, 76464, 81080, 81152, 81184, 82817, 84438, 84556, 85937, 87719, 91352, 92020, 92605, 93684, 93797, 93882, 94066, 96183, 97436, 97771, 105812, 108903, 109803]}, "edge": {"target": [], "time": []}}}, "displayed_time": "118.06", "trialTime": 124676, "trial_type": "mouselab-mdp", "trial_index": 3, "time_elapsed": 501559, "internal_node_id": "0.0-2.0-2.0-0.0"}}, {"uniqueid": "w71155327:a89363496", "current_trial": 4, "dateTime": 1693389434004, "trialdata": {"revealed_states": [], "clicked_states": ["12", "13"], "num_clicks_accrued": [0, 0, 0, 0, 0, 0, 0, 0, 0, 0, 0, 0, 0], "stateRewards": ["", 10, -10, 10, -10, 10, -10, 10, -10, -10, 10, -10, 10, 10, -10, 10, 10, 10, -10, 10, -10, 10, 10, 10, -10, -10, -10, -10, 10, -10, 10, -10, -10, -10], "withholdReward": false, "trial_id": "practice_2", "block": "test", "trialIndex": 1, "score": 32.5, "costs": -1, "simulationMode": [null, null, null, null, null], "rewards": [10, 10, -10, 10, 10], "path": ["0", "0", "12", "13", "14", "15", "17"], "rt": [14003, 435, 1576, 773, 2001], "actions": ["right", "right", "right", "up", "right"], "actionTimes": [20007, 20964, 23036, 24316, 26828], "queries": {"click": {"state": {"target": ["12", "13"], "time": [8820, 11711]}, "edge": {"target": [], "time": []}}, "mouseover": {"state": {"target": ["0", "12", "13", "14", "12"], "time": [6644, 8090, 9176, 12908, 18407]}, "edge": {"target": [], "time": []}}, "mouseout": {"state": {"target": ["1", "27", "0", "12", "13", "14", "12"], "time": [3964, 4007, 7829, 9093, 12771, 16645, 18512]}, "edge": {"target": [], "time": []}}}, "displayed_time": "27.33", "trialTime": 28532, "trial_type": "mouselab-mdp", "trial_index": 4, "time_elapsed": 530390, "internal_node_id": "0.0-2.0-2.0-1.0"}}, {"uniqueid": "w71155327:a89363496", "current_trial": 5, "dateTime": 1693389482911, "trialdata": {"view_history": [{"page_index": 0, "viewing_time": 27626}, {"page_index": 1, "viewing_time": 21272}], "rt": 48898, "trial_id": "mouselab_instructions_2_misaligned", "trial_type": "instructions", "trial_index": 5, "time_elapsed": 579299, "internal_node_id": "0.0-2.0-3.0"}}, {"uniqueid": "w71155327:a89363496", "current_trial": 6, "dateTime": 1693389560007, "trialdata": {"rt": 77093, "response": {"Q0": "The cost is always $2.", "Q1": "The better I perform the higher my bonus will be.", "Q2": "No, the amount of cash at each node of the web may be different each time.", "Q3": "To get the highest total score.", "Q4": "Only before moving the spider.", "Q5": "3 seconds"}, "question_order": [0, 1, 2, 3, 4, 5], "correct": {"Q0": "The cost for clicking on nodes may vary between nodes.", "Q1": "The better I perform the higher my bonus will be.", "Q2": "No, the amount of cash at each node of the web may be different each time.", "Q3": "To get the highest total score.", "Q4": "Only before moving the spider.", "Q5": "3 seconds"}, "trial_id": "mouselab_quiz_misaligned", "trial_type": "survey-multi-choice", "trial_index": 6, "time_elapsed": 656395, "internal_node_id": "0.0-2.0-4.0"}}, {"uniqueid": "w71155327:a89363496", "current_trial": 7, "dateTime": 1693389569471, "trialdata": {"success": true, "trial_type": "fullscreen", "trial_index": 7, "time_elapsed": 665859, "internal_node_id": "0.0-2.1-0.1-0.1"}}, {"uniqueid": "w71155327:a89363496", "current_trial": 8, "dateTime": 1693389786486, "trialdata": {"view_history": [{"page_index": 0, "viewing_time": 45834}, {"page_index": 1, "viewing_time": 54720}, {"page_index": 2, "viewing_time": 33800}, {"page_index": 3, "viewing_time": 82656}], "rt": 217009, "trial_id": "mouselab_instructions_1_misaligned", "trial_type": "instructions", "trial_index": 8, "time_elapsed": 882874, "internal_node_id": "0.0-2.1-1.1"}}, {"uniqueid": "w71155327:a89363496", "current_trial": 9, "dateTime": 1693389816620, "trialdata": {"revealed_states": [], "clicked_states": ["6", "5", "3", "24", "25"], "num_clicks_accrued": [0, 0, 0, 0, 0, 0, 0, 0, 0, 0, 0, 0, 0], "stateRewards": ["", -10, 10, 10, 10, -10, 10, -10, 10, -10, -10, 10, -10, -10, -10, 10, -10, -10, 10, 10, 10, 10, -10, 10, -10, -10, 10, 10, 10, 10, -10, 10, -10, -10], "withholdReward": false, "trial_id": "practice_1", "block": "test", "trialIndex": 2, "score": -29, "costs": -2.5, "simulationMode": [null, null, null, null, null], "rewards": [-10, -10, -10, 10, -10], "path": ["0", "0", "12", "13", "14", "19", "22"], "rt": [18855, 508, 317, 462, 958], "actions": ["right", "right", "right", "down", "left"], "actionTimes": [20971, 21995, 22802, 23763, 25226], "queries": {"click": {"state": {"target": ["6", "5", "3", "24", "25"], "time": [5541, 7365, 11036, 12843, 13958]}, "edge": {"target": [], "time": []}}, "mouseover": {"state": {"target": ["1", "2", "7", "6", "5", "9", "2", "3", "2", "1", "24", "24", "25", "23", "0", "12", "13", "20", "23", "0"], "time": [3717, 4134, 5021, 5236, 6731, 9035, 10415, 10666, 11501, 11902, 12282, 12433, 13652, 15365, 15467, 15519, 15600, 17505, 18272, 19091]}, "edge": {"target": [], "time": []}}, "mouseout": {"state": {"target": ["0", "1", "2", "7", "6", "5", "5", "9", "2", "3", "2", "1", "24", "24", "25", "23", "0", "12", "13", "20", "23", "0", "23", "0", "15", "16", "18"], "time": [3532, 3928, 4939, 5054, 6433, 7542, 8668, 10234, 10538, 11370, 11800, 11938, 12404, 13399, 14333, 15431, 15516, 15566, 15841, 17534, 18349, 19134, 27091, 27108, 27123, 27421, 28939]}, "edge": {"target": [], "time": []}}}, "displayed_time": "25.72", "trialTime": 29891, "trial_type": "mouselab-mdp", "trial_index": 9, "time_elapsed": 913007, "internal_node_id": "0.0-2.1-2.1-0.1"}}, {"uniqueid": "w71155327:a89363496", "current_trial": 10, "dateTime": 1693389844557, "trialdata": {"revealed_states": [], "clicked_states": ["27", "29", "31", "33", "21", "20", "17"], "num_clicks_accrued": [0, 0, 0, 0, 0, 0, 0, 0, 0, 0, 0, 0, 0], "stateRewards": ["", 10, -10, 10, -10, 10, -10, 10, -10, -10, 10, -10, 10, 10, -10, 10, 10, 10, -10, 10, -10, 10, 10, 10, -10, -10, -10, -10, 10, -10, 10, -10, -10, -10], "withholdReward": false, "trial_id": "practice_2", "block": "test", "trialIndex": 3, "score": 10, "costs": -3.5, "simulationMode": [null, null, null, null, null], "rewards": [10, -10, 10, -10, 10], "path": ["0", "0", "1", "2", "3", "8", "10"], "rt": [14783, 257, 307, 146, 609], "actions": ["up", "up", "up", "left", "down"], "actionTimes": [16439, 17220, 18019, 18660, 19771], "queries": {"click": {"state": {"target": ["27", "29", "31", "33", "21", "20", "17"], "time": [3839, 6437, 8215, 9752, 11046, 12507, 13560]}, "edge": {"target": [], "time": []}}, "mouseover": {"state": {"target": ["28", "26", "27", "26", "25", "30", "32", "30", "29", "26", "28", "24", "31", "32", "33", "30", "21", "22", "19", "20", "17", "16", "6", "8"], "time": [2859, 2942, 3248, 4925, 5009, 5125, 5564, 5661, 5948, 6810, 6911, 7575, 7741, 8628, 9291, 10138, 10644, 11460, 12108, 12259, 13327, 13976, 14716, 15043]}, "edge": {"target": [], "time": []}}, "mouseout": {"state": {"target": ["1", "28", "26", "27", "26", "25", "30", "32", "30", "29", "29", "26", "28", "24", "31", "32", "33", "30", "21", "22", "19", "20", "17", "16", "6", "8", "1", "13", "14", "15", "16", "20"], "time": [1059, 2894, 2993, 4893, 4991, 5076, 5159, 5612, 5778, 6544, 6729, 6880, 7525, 7692, 8495, 9182, 10111, 10161, 11180, 11977, 12242, 13043, 13686, 14393, 14733, 21782, 22082, 22128, 22145, 23444, 23959, 26926]}, "edge": {"target": [], "time": []}}}, "displayed_time": "20.26", "trialTime": 27637, "trial_type": "mouselab-mdp", "trial_index": 10, "time_elapsed": 940944, "internal_node_id": "0.0-2.1-2.1-1.1"}}, {"uniqueid": "w71155327:a89363496", "current_trial": 11, "dateTime": 1693389895766, "trialdata": {"view_history": [{"page_index": 0, "viewing_time": 47719}, {"page_index": 1, "viewing_time": 3480}], "rt": 51199, "trial_id": "mouselab_instructions_2_misaligned", "trial_type": "instructions", "trial_index": 11, "time_elapsed": 992154, "internal_node_id": "0.0-2.1-3.1"}}, {"uniqueid": "w71155327:a89363496", "current_trial": 12, "dateTime": 1693389956663, "trialdata": {"rt": 60894, "response": {"Q0": "The cost for clicking on nodes may vary between nodes.", "Q1": "The better I perform the higher my bonus will be.", "Q2": "No, the amount of cash at each node of the web may be different each time.", "Q3": "To get the highest total score.", "Q4": "Only before moving the spider.", "Q5": "3 seconds"}, "question_order": [0, 1, 2, 3, 4, 5], "correct": {"Q0": "The cost for clicking on nodes may vary between nodes.", "Q1": "The better I perform the higher my bonus will be.", "Q2": "No, the amount of cash at each node of the web may be different each time.", "Q3": "To get the highest total score.", "Q4": "Only before moving the spider.", "Q5": "3 seconds"}, "trial_id": "mouselab_quiz_misaligned", "trial_type": "survey-multi-choice", "trial_index": 12, "time_elapsed": 1053051, "internal_node_id": "0.0-2.1-4.1"}}, {"uniqueid": "w71155327:a89363496", "current_trial": 13, "dateTime": 1693389971607, "trialdata": {"rt": 14938, "response": {"Q0": "No"}, "question_order": [0], "trial_id": "repeat_check", "trial_type": "survey-multi-choice", "trial_index": 13, "time_elapsed": 1067994, "internal_node_id": "0.0-4.0-0.0"}}, {"uniqueid": "w71155327:a89363496", "current_trial": 14, "dateTime": 1693390008603, "trialdata": {"rt": 36990, "stimulus": "\n<h1> Get ready to start the game! </h1>\n\nThank you for reading the instructions. Get ready start with the 40 rounds of this game.\n<br><br>\nIf you need to take a break, feel free to take one after the end of a round, before continuing to the next one.\n<br><br>\nRemember, the more money the spider gets, the bigger your bonus will be!\n<br><br>\n<div style='text-align: center;'>Press <code>space</code> to begin.</div>\n\n<br><br>\n(If, at any point, the <code>space</code> key does not take you to the next page, click once on the text and try again.)", "response": " ", "trial_id": "mdp_ready", "trial_type": "html-keyboard-response", "trial_index": 14, "time_elapsed": 1104991, "internal_node_id": "0.0-6.0-0.0"}}, {"uniqueid": "w71155327:a89363496", "current_trial": 15, "dateTime": 1693390046637, "trialdata": {"revealed_states": [], "clicked_states": [], "num_clicks_accrued": [0, 0, 0, 0, 0, 0, 0, 0, 0, 0, 0, 0, 0], "stateRewards": ["", 2, -1, -2, -5, -47, -57, -33, -11, 31, -18, -72, -2, 1, -4, -8, -46, -53, -50, 15, -85, -9, 39, -2, -2, 1, 14, -1, -8, 53, -12, -41, -74, 62], "withholdReward": false, "trial_id": "mdp_trial_1", "block": "test", "trialIndex": 4, "score": 47, "costs": 0, "simulationMode": [null, null, null, null, null], "rewards": [-2, -2, 1, -12, 62], "path": ["0", "0", "23", "24", "25", "30", "33"], "rt": [18504, 404, 303, 983, 2667], "actions": ["left", "left", "left", "down", "left"], "actionTimes": [23007, 23925, 24740, 26220, 29388], "queries": {"click": {"state": {"target": [], "time": []}, "edge": {"target": [], "time": []}}, "mouseover": {"state": {"target": ["23", "26", "29", "26", "28", "0", "12"], "time": [8339, 10350, 12486, 14168, 14318, 14850, 19452]}, "edge": {"target": [], "time": []}}, "mouseout": {"state": {"target": ["11", "8", "12", "0", "23", "26", "29", "26", "28", "0", "12", "12", "13"], "time": [687, 902, 2170, 3580, 8365, 12292, 14107, 14269, 14769, 19252, 19486, 32140, 32244]}, "edge": {"target": [], "time": []}}}, "displayed_time": "29.89", "trialTime": 37709, "trial_type": "mouselab-mdp", "trial_index": 15, "time_elapsed": 1143024, "internal_node_id": "0.0-6.0-1.0-0.0"}}, {"uniqueid": "w71155327:a89363496", "current_trial": 16, "dateTime": 1693390071557, "trialdata": {"revealed_states": [], "clicked_states": ["3", "6"], "num_clicks_accrued": [0, 0, 0, 0, 0, 0, 0, 0, 0, 0, 0, 0, 0], "stateRewards": ["", -2, -3, -3, 9, 79, 67, 22, -15, -56, 27, -85, -2, 4, -4, -15, -20, -32, 60, 15, 71, 57, 17, 1, 2, -8, 15, -37, -81, 82, 15, 21, -3, 2], "withholdReward": false, "trial_id": "mdp_trial_2", "block": "test", "trialIndex": 5, "score": 64.9, "costs": -3.0999999999999996, "simulationMode": [null, null, null, null, null], "rewards": [-2, -3, -3, 9, 67], "path": ["0", "0", "1", "2", "3", "4", "6"], "rt": [8243, 7, 151, 430, 471], "actions": ["up", "up", "up", "right", "right"], "actionTimes": [12157, 12681, 13337, 14273, 15258], "queries": {"click": {"state": {"target": ["3", "6"], "time": [5318, 7621]}, "edge": {"target": [], "time": []}}, "mouseover": {"state": {"target": ["1", "2", "8", "3", "7", "18", "6", "12"], "time": [4423, 4587, 4791, 4969, 6476, 6685, 7335, 11470]}, "edge": {"target": [], "time": []}}, "mouseout": {"state": {"target": ["13", "12", "1", "1", "2", "8", "3", "7", "18", "6", "12", "0", "23"], "time": [1351, 1503, 2405, 4521, 4671, 4853, 6402, 6497, 7173, 8069, 21641, 21920, 22153]}, "edge": {"target": [], "time": []}}}, "displayed_time": "17.92", "trialTime": 24579, "trial_type": "mouselab-mdp", "trial_index": 16, "time_elapsed": 1167944, "internal_node_id": "0.0-6.0-1.0-1.0"}}, {"uniqueid": "w71155327:a89363496", "current_trial": 17, "dateTime": 1693390093533, "trialdata": {"revealed_states": [], "clicked_states": ["13", "15", "17"], "num_clicks_accrued": [0, 0, 0, 0, 0, 0, 0, 0, 0, 0, 0, 0, 0], "stateRewards": ["", 1, 2, 2, -15, -84, 28, -26, 13, 31, 86, 30, -2, 1, -1, -8, 66, -40, -1, -10, -32, 57, -17, 1, 2, -2, 9, -23, 77, 85, 12, -32, -62, -35], "withholdReward": false, "trial_id": "mdp_trial_3", "block": "test", "trialIndex": 6, "score": -98.05, "costs": -4.05, "simulationMode": [null, null, null, null, null, null], "rewards": [1, 2, 2, -15, -84], "path": ["0", "0", "1", "2", "3", "4", "5"], "rt": [7870, 2287, 141, 163, 429, 290], "actions": ["right", "up", "up", "up", "right", "up"], "actionTimes": [10312, 12603, 13267, 13923, 14875, 15682], "queries": {"click": {"state": {"target": ["13", "15", "17"], "time": [4278, 5750, 7625]}, "edge": {"target": [], "time": []}}, "mouseover": {"state": {"target": ["12", "13", "13", "15", "17"], "time": [3482, 3592, 4029, 4941, 6407]}, "edge": {"target": [], "time": []}}, "mouseout": {"state": {"target": ["28", "8", "2", "12", "12", "12", "13", "13", "15", "17", "17"], "time": [1040, 1376, 1424, 1527, 1843, 3511, 3642, 4390, 6191, 7764, 8191]}, "edge": {"target": [], "time": []}}}, "displayed_time": "16.45", "trialTime": 21643, "trial_type": "mouselab-mdp", "trial_index": 17, "time_elapsed": 1189919, "internal_node_id": "0.0-6.0-1.0-2.0"}}, {"uniqueid": "w71155327:a89363496", "current_trial": 18, "dateTime": 1693390113056, "trialdata": {"revealed_states": [], "clicked_states": [], "num_clicks_accrued": [0, 0, 0, 0, 0, 0, 0, 0, 0, 0, 0, 0, 0], "stateRewards": ["", -1, 1, -1, 2, 19, 85, -18, 2, -3, -26, 36, 2, 4, 7, -9, -18, 70, 72, -5, 35, -20, -28, 1, -2, -4, -3, -59, -11, -63, -2, -72, 59, -69], "withholdReward": false, "trial_id": "mdp_trial_4", "block": "test", "trialIndex": 7, "score": -76, "costs": 0, "simulationMode": [null, null, null, null, null], "rewards": [1, -2, -4, -2, -69], "path": ["0", "0", "23", "24", "25", "30", "33"], "rt": [1285, 200, 133, 461, 374], "actions": ["left", "left", "left", "down", "left"], "actionTimes": [3525, 4245, 4877, 5838, 6717], "queries": {"click": {"state": {"target": [], "time": []}, "edge": {"target": [], "time": []}}, "mouseover": {"state": {"target": [], "time": []}, "edge": {"target": [], "time": []}}, "mouseout": {"state": {"target": ["22", "12", "0", "26"], "time": [1310, 1564, 1866, 18642]}, "edge": {"target": [], "time": []}}}, "displayed_time": "16.24", "trialTime": 19198, "trial_type": "mouselab-mdp", "trial_index": 18, "time_elapsed": 1209441, "internal_node_id": "0.0-6.0-1.0-3.0"}}, {"uniqueid": "w71155327:a89363496", "current_trial": 19, "dateTime": 1693390133813, "trialdata": {"revealed_states": [], "clicked_states": ["1"], "num_clicks_accrued": [0, 0, 0, 0, 0, 0, 0, 0, 0, 0, 0, 0, 0], "stateRewards": ["", -2, 2, -1, -6, 22, 6, 6, -5, 70, -42, 65, 1, 3, 5, -6, -67, -9, 3, 14, 7, -62, -13, -2, 4, 1, 16, 42, -21, -52, -8, 32, 53, 81], "withholdReward": false, "trial_id": "mdp_trial_5", "block": "test", "trialIndex": 8, "score": -0.75, "costs": 0.25, "simulationMode": [null, null, null, null, null], "rewards": [-2, 2, -1, -6, 6], "path": ["0", "0", "1", "2", "3", "4", "6"], "rt": [3982, 339, 246, 247, 543], "actions": ["up", "up", "up", "right", "right"], "actionTimes": [5720, 6574, 7318, 8095, 9150], "queries": {"click": {"state": {"target": ["1"], "time": [4147]}, "edge": {"target": [], "time": []}}, "mouseover": {"state": {"target": ["1"], "time": [3454]}, "edge": {"target": [], "time": []}}, "mouseout": {"state": {"target": ["1", "10", "0"], "time": [4384, 11582, 19649]}, "edge": {"target": [], "time": []}}}, "displayed_time": "15.74", "trialTime": 20415, "trial_type": "mouselab-mdp", "trial_index": 19, "time_elapsed": 1230200, "internal_node_id": "0.0-6.0-1.0-4.0"}}, {"uniqueid": "w71155327:a89363496", "current_trial": 20, "dateTime": 1693390168136, "trialdata": {"revealed_states": [], "clicked_states": [], "num_clicks_accrued": [0, 0, 0, 0, 0, 0, 0, 0, 0, 0, 0, 0, 0], "stateRewards": ["", -2, -3, 1, -7, 39, -67, 16, 5, -20, 73, 66, -1, 4, 5, -3, 23, -68, -87, -8, 3, -3, 17, 1, -4, -2, -13, -32, 34, 61, -5, -11, -18, 12], "withholdReward": false, "trial_id": "mdp_trial_6", "block": "test", "trialIndex": 9, "score": 28, "costs": 0, "simulationMode": [null, null, null, null, null], "rewards": [-1, 4, 5, -3, 23], "path": ["0", "0", "12", "13", "14", "15", "16"], "rt": [1431, 607, 251, 421, 729], "actions": ["right", "right", "right", "up", "up"], "actionTimes": [12449, 13570, 14313, 15249, 16490], "queries": {"click": {"state": {"target": [], "time": []}, "edge": {"target": [], "time": []}}, "mouseover": {"state": {"target": [], "time": []}, "edge": {"target": [], "time": []}}, "mouseout": {"state": {"target": ["31", "19", "20", "14", "18", "14", "13", "12", "0", "25", "24", "23", "0", "12", "13", "3"], "time": [2294, 3322, 3508, 4897, 7810, 9693, 9894, 10258, 11497, 18975, 19043, 19092, 19146, 27340, 27374, 31823]}, "edge": {"target": [], "time": []}}}, "displayed_time": "25.02", "trialTime": 33984, "trial_type": "mouselab-mdp", "trial_index": 20, "time_elapsed": 1264524, "internal_node_id": "0.0-6.0-1.0-5.0"}}, {"uniqueid": "w71155327:a89363496", "current_trial": 21, "dateTime": 1693390189197, "trialdata": {"revealed_states": [], "clicked_states": [], "num_clicks_accrued": [0, 0, 0, 0, 0, 0, 0, 0, 0, 0, 0, 0, 0], "stateRewards": ["", 1, 1, -5, 8, -6, 45, 16, -6, -7, -22, -38, -1, -4, 8, -11, -16, 21, -45, -15, -59, -32, 42, -1, 3, 6, 11, -7, 34, -27, -8, 85, 43, -9], "withholdReward": false, "trial_id": "mdp_trial_7", "block": "test", "trialIndex": 10, "score": 53, "costs": 0, "simulationMode": [null, null, null, null, null], "rewards": [-1, 3, 6, 11, 34], "path": ["0", "0", "23", "24", "25", "26", "28"], "rt": [1539, 1432, 423, 268, 305], "actions": ["left", "left", "left", "up", "right"], "actionTimes": [4727, 6654, 7576, 8344, 9144], "queries": {"click": {"state": {"target": [], "time": []}, "edge": {"target": [], "time": []}}, "mouseover": {"state": {"target": [], "time": []}, "edge": {"target": [], "time": []}}, "mouseout": {"state": {"target": ["33", "30", "31", "0", "0", "27", "11", "8", "3"], "time": [1716, 1766, 1833, 2282, 12148, 12249, 12669, 12717, 13002]}, "edge": {"target": [], "time": []}}}, "displayed_time": "17.20", "trialTime": 20601, "trial_type": "mouselab-mdp", "trial_index": 21, "time_elapsed": 1285583, "internal_node_id": "0.0-6.0-1.0-6.0"}}, {"uniqueid": "w71155327:a89363496", "current_trial": 22, "dateTime": 1693390222665, "trialdata": {"revealed_states": [], "clicked_states": [], "num_clicks_accrued": [0, 0, 0, 0, 0, 0, 0, 0, 0, 0, 0, 0, 0], "stateRewards": ["", 1, 4, -4, 14, 35, 51, 19, -13, 54, 78, -74, -2, -1, -3, 13, -11, -42, -73, -15, -24, -3, -69, 2, -1, 5, 16, -27, 73, 58, 9, -60, 5, -60], "withholdReward": false, "trial_id": "mdp_trial_8", "block": "test", "trialIndex": 11, "score": 34, "costs": 0, "simulationMode": [null, null, null, null, null], "rewards": [1, 4, -4, 14, 19], "path": ["0", "0", "1", "2", "3", "4", "7"], "rt": [2694, 177, 230, 347, 319], "actions": ["up", "up", "up", "right", "down"], "actionTimes": [5807, 6502, 7238, 8094, 8910], "queries": {"click": {"state": {"target": [], "time": []}, "edge": {"target": [], "time": []}}, "mouseover": {"state": {"target": [], "time": []}, "edge": {"target": [], "time": []}}, "mouseout": {"state": {"target": ["3", "4", "7", "0", "1", "2"], "time": [1662, 2055, 2121, 26506, 26604, 32751]}, "edge": {"target": [], "time": []}}}, "displayed_time": "17.11", "trialTime": 33090, "trial_type": "mouselab-mdp", "trial_index": 22, "time_elapsed": 1319051, "internal_node_id": "0.0-6.0-1.0-7.0"}}, {"uniqueid": "w71155327:a89363496", "current_trial": 23, "dateTime": 1693390246256, "trialdata": {"revealed_states": [], "clicked_states": [], "num_clicks_accrued": [0, 0, 0, 0, 0, 0, 0, 0, 0, 0, 0, 0, 0], "stateRewards": ["", -2, 4, 3, 5, -61, 4, 30, 1, -47, 83, 10, 1, 4, 7, -14, 19, -74, -83, 6, -2, -2, -65, -1, -2, 4, -11, 12, -1, -68, 11, -38, -28, 66], "withholdReward": false, "trial_id": "mdp_trial_9", "block": "test", "trialIndex": 12, "score": -76, "costs": 0, "simulationMode": [null, null, null, null, null], "rewards": [1, 4, 7, -14, -74], "path": ["0", "0", "12", "13", "14", "15", "17"], "rt": [3309, 419, 166, 725, 225], "actions": ["right", "right", "right", "up", "right"], "actionTimes": [9054, 10003, 10675, 11922, 12651], "queries": {"click": {"state": {"target": [], "time": []}, "edge": {"target": [], "time": []}}, "mouseover": {"state": {"target": [], "time": []}, "edge": {"target": [], "time": []}}, "mouseout": {"state": {"target": ["12", "0", "0"], "time": [4624, 5944, 22059]}, "edge": {"target": [], "time": []}}}, "displayed_time": "19.75", "trialTime": 23203, "trial_type": "mouselab-mdp", "trial_index": 23, "time_elapsed": 1342643, "internal_node_id": "0.0-6.0-1.0-8.0"}}, {"uniqueid": "w71155327:a89363496", "current_trial": 24, "dateTime": 1693390263794, "trialdata": {"revealed_states": [], "clicked_states": [], "num_clicks_accrued": [0, 0, 0, 0, 0, 0, 0, 0, 0, 0, 0, 0, 0], "stateRewards": ["", 2, -3, 5, 11, -79, 54, 11, -9, -78, 33, 22, -2, -1, 2, 14, 43, 34, 1, 10, 49, -65, 39, -1, 1, -1, 3, -16, -2, 11, 2, 12, 48, -65], "withholdReward": false, "trial_id": "mdp_trial_10", "block": "test", "trialIndex": 13, "score": -64, "costs": 0, "simulationMode": [null, null, null, null, null], "rewards": [2, -3, 5, 11, -79], "path": ["0", "0", "1", "2", "3", "4", "5"], "rt": [2397, 135, 108, 361, 144], "actions": ["up", "up", "up", "right", "up"], "actionTimes": [3386, 4033, 4656, 5513, 6176], "queries": {"click": {"state": {"target": [], "time": []}, "edge": {"target": [], "time": []}}, "mouseover": {"state": {"target": [], "time": []}, "edge": {"target": [], "time": []}}, "mouseout": {"state": {"target": ["0"], "time": [12670]}, "edge": {"target": [], "time": []}}}, "displayed_time": "14.99", "trialTime": 17130, "trial_type": "mouselab-mdp", "trial_index": 24, "time_elapsed": 1360180, "internal_node_id": "0.0-6.0-1.0-9.0"}}, {"uniqueid": "w71155327:a89363496", "current_trial": 25, "dateTime": 1693390283815, "trialdata": {"revealed_states": [], "clicked_states": [], "num_clicks_accrued": [0, 0, 0, 0, 0, 0, 0, 0, 0, 0, 0, 0, 0], "stateRewards": ["", -1, -3, -6, 14, 41, 18, 63, -14, 80, 21, 17, -2, -4, -2, -5, 13, 70, 8, -4, -64, -10, -20, 2, -1, 4, -1, -17, -55, 42, -7, 47, 54, 15], "withholdReward": false, "trial_id": "mdp_trial_11", "block": "test", "trialIndex": 14, "score": -51, "costs": 0, "simulationMode": [null, null, null, null, null], "rewards": [2, -1, 4, -1, -55], "path": ["0", "0", "23", "24", "25", "26", "28"], "rt": [9428, 643, 101, 590, 1060], "actions": ["left", "left", "left", "up", "right"], "actionTimes": [11535, 12699, 13291, 14379, 15940], "queries": {"click": {"state": {"target": [], "time": []}, "edge": {"target": [], "time": []}}, "mouseover": {"state": {"target": ["12", "28", "0"], "time": [2652, 4614, 9638]}, "edge": {"target": [], "time": []}}, "mouseout": {"state": {"target": ["12", "12", "28", "0"], "time": [1479, 2893, 6819, 10653]}, "edge": {"target": [], "time": []}}}, "displayed_time": "16.44", "trialTime": 19620, "trial_type": "mouselab-mdp", "trial_index": 25, "time_elapsed": 1380201, "internal_node_id": "0.0-6.0-1.0-10.0"}}, {"uniqueid": "w71155327:a89363496", "current_trial": 26, "dateTime": 1693390307575, "trialdata": {"revealed_states": [], "clicked_states": [], "num_clicks_accrued": [0, 0, 0, 0, 0, 0, 0, 0, 0, 0, 0, 0, 0], "stateRewards": ["", 1, -4, -6, -1, -21, 17, -72, 10, 77, 67, -46, -1, 4, -2, 14, -66, -49, -45, -15, -52, 23, -67, 2, -2, -2, 15, -3, 45, -64, 5, -44, 83, 61], "withholdReward": false, "trial_id": "mdp_trial_12", "block": "test", "trialIndex": 15, "score": -45, "costs": 0, "simulationMode": [null, null, null, null, null], "rewards": [1, -4, -6, 10, -46], "path": ["0", "0", "1", "2", "3", "8", "11"], "rt": [8818, 591, 340, 315, 38], "actions": ["up", "up", "up", "left", "left"], "actionTimes": [11830, 12922, 13770, 14578, 15121], "queries": {"click": {"state": {"target": [], "time": []}, "edge": {"target": [], "time": []}}, "mouseover": {"state": {"target": ["5", "9", "3", "4"], "time": [7601, 7965, 10893, 10961]}, "edge": {"target": [], "time": []}}, "mouseout": {"state": {"target": ["0", "0", "5", "9", "3", "4"], "time": [2111, 3934, 7626, 9415, 10943, 10993]}, "edge": {"target": [], "time": []}}}, "displayed_time": "17.01", "trialTime": 23387, "trial_type": "mouselab-mdp", "trial_index": 26, "time_elapsed": 1403961, "internal_node_id": "0.0-6.0-1.0-11.0"}}, {"uniqueid": "w71155327:a89363496", "current_trial": 27, "dateTime": 1693390331399, "trialdata": {"revealed_states": [], "clicked_states": [], "num_clicks_accrued": [0, 0, 0, 0, 0, 0, 0, 0, 0, 0, 0, 0, 0], "stateRewards": ["", 2, -4, 7, 3, 23, -42, 4, 7, -81, -33, 7, -2, -4, 5, -1, 50, -57, -14, -13, -14, 44, 55, -2, -2, 5, -2, 33, 1, 57, -13, -7, 58, 87], "withholdReward": false, "trial_id": "mdp_trial_13", "block": "test", "trialIndex": 16, "score": -69, "costs": 0, "simulationMode": [null, null, null, null, null], "rewards": [2, -4, 7, 7, -81], "path": ["0", "0", "1", "2", "3", "8", "9"], "rt": [4525, 83, 14, 354, 112], "actions": ["up", "up", "up", "left", "up"], "actionTimes": [6884, 7487, 7998, 8872, 9479], "queries": {"click": {"state": {"target": [], "time": []}, "edge": {"target": [], "time": []}}, "mouseover": {"state": {"target": ["1", "9"], "time": [2981, 5416]}, "edge": {"target": [], "time": []}}, "mouseout": {"state": {"target": ["14", "13", "12", "1", "9"], "time": [1199, 1348, 1430, 3134, 6088]}, "edge": {"target": [], "time": []}}}, "displayed_time": "16.36", "trialTime": 23432, "trial_type": "mouselab-mdp", "trial_index": 27, "time_elapsed": 1427785, "internal_node_id": "0.0-6.0-1.0-12.0"}}, {"uniqueid": "w71155327:a89363496", "current_trial": 28, "dateTime": 1693390354645, "trialdata": {"revealed_states": [], "clicked_states": ["17", "16", "18"], "num_clicks_accrued": [0, 0, 0, 0, 0, 0, 0, 0, 0, 0, 0, 0, 0], "stateRewards": ["", -2, 4, -3, -13, 63, -36, 62, 11, 78, 34, -51, 2, -2, 8, -6, -40, -18, 31, 9, 64, 39, 79, 1, 4, -4, 15, -12, 76, 73, -10, -77, 86, -4], "withholdReward": false, "trial_id": "mdp_trial_14", "block": "test", "trialIndex": 17, "score": 26.55, "costs": -6.449999999999999, "simulationMode": [null, null, null, null, null], "rewards": [2, -2, 8, -6, 31], "path": ["0", "0", "12", "13", "14", "15", "18"], "rt": [12558, 519, 102, 318, 318], "actions": ["right", "right", "right", "up", "left"], "actionTimes": [14655, 15685, 16285, 17117, 17933], "queries": {"click": {"state": {"target": ["17", "16", "18"], "time": [4360, 7791, 10674]}, "edge": {"target": [], "time": []}}, "mouseover": {"state": {"target": ["12", "13", "15", "17", "15", "16", "15", "18", "14"], "time": [3181, 3329, 3663, 4081, 6947, 7485, 8630, 10396, 13841]}, "edge": {"target": [], "time": []}}, "mouseout": {"state": {"target": ["9", "2", "1", "0", "12", "13", "15", "17", "15", "16", "16", "15", "18", "14", "18", "1"], "time": [941, 958, 974, 2284, 3262, 3429, 3867, 5279, 7047, 7940, 8513, 9596, 11580, 14251, 20262, 21749]}, "edge": {"target": [], "time": []}}}, "displayed_time": "18.43", "trialTime": 22485, "trial_type": "mouselab-mdp", "trial_index": 28, "time_elapsed": 1451031, "internal_node_id": "0.0-6.0-1.0-13.0"}}, {"uniqueid": "w71155327:a89363496", "current_trial": 29, "dateTime": 1693390377096, "trialdata": {"revealed_states": [], "clicked_states": ["26", "29", "27", "28"], "num_clicks_accrued": [0, 0, 0, 0, 0, 0, 0, 0, 0, 0, 0, 0, 0], "stateRewards": ["", -1, -1, 7, -15, -43, -21, -84, -9, -45, -66, 2, 1, -2, 2, 8, -27, 44, -52, -5, -84, 11, 53, 1, 4, -4, 16, 83, -82, -15, -16, 68, -43, 81], "withholdReward": false, "trial_id": "mdp_trial_15", "block": "test", "trialIndex": 18, "score": 92, "costs": -8, "simulationMode": [null, null, null, null, null, null], "rewards": [1, 4, -4, 16, 83], "path": ["0", "0", "23", "24", "25", "26", "27"], "rt": [12132, 493, 469, 72, 503, 239], "actions": ["left", "left", "left", "left", "up", "up"], "actionTimes": [13734, 14232, 15216, 15790, 16784, 17520], "queries": {"click": {"state": {"target": ["26", "29", "27", "28"], "time": [3835, 5289, 8292, 11131]}, "edge": {"target": [], "time": []}}, "mouseover": {"state": {"target": ["0", "24", "25", "26", "29", "27", "28", "24", "24"], "time": [2449, 2768, 2812, 3116, 4845, 6096, 8798, 11862, 12961]}, "edge": {"target": [], "time": []}}, "mouseout": {"state": {"target": ["1", "1", "0", "0", "24", "25", "26", "29", "27", "28", "24", "24", "24", "23", "0"], "time": [495, 614, 1963, 2579, 2789, 2846, 4479, 5433, 8730, 11729, 12754, 12978, 20800, 20846, 21315]}, "edge": {"target": [], "time": []}}}, "displayed_time": "18.03", "trialTime": 22038, "trial_type": "mouselab-mdp", "trial_index": 29, "time_elapsed": 1473484, "internal_node_id": "0.0-6.0-1.0-14.0"}}, {"uniqueid": "w71155327:a89363496", "current_trial": 30, "dateTime": 1693390401523, "trialdata": {"revealed_states": [], "clicked_states": ["5", "6", "7"], "num_clicks_accrued": [0, 0, 0, 0, 0, 0, 0, 0, 0, 0, 0, 0, 0], "stateRewards": ["", -1, -3, 1, 13, -64, -29, 12, -4, -33, 50, 56, 2, -3, 4, 11, -64, -58, -55, 12, 47, 38, -25, -2, 2, 5, -15, 85, 7, 84, 10, 8, 57, 26], "withholdReward": false, "trial_id": "mdp_trial_16", "block": "test", "trialIndex": 19, "score": 15.55, "costs": -6.449999999999999, "simulationMode": [null, null, null, null, null], "rewards": [-1, -3, 1, 13, 12], "path": ["0", "0", "1", "2", "3", "4", "7"], "rt": [13709, 64, 117, 329, 183], "actions": ["up", "up", "up", "right", "down"], "actionTimes": [16126, 16699, 17324, 18170, 18858], "queries": {"click": {"state": {"target": ["5", "6", "7"], "time": [4768, 7756, 11473]}, "edge": {"target": [], "time": []}}, "mouseover": {"state": {"target": ["1", "2", "3", "5", "5", "6", "7", "4", "7", "3", "9", "9"], "time": [3471, 3614, 3698, 3816, 4199, 5465, 8688, 8966, 9732, 13434, 14083, 15220]}, "edge": {"target": [], "time": []}}, "mouseout": {"state": {"target": ["27", "28", "23", "0", "12", "0", "1", "2", "3", "5", "5", "6", "6", "7", "4", "7", "3", "9", "9"], "time": [888, 997, 1136, 1185, 1435, 1465, 3566, 3664, 3768, 3835, 5232, 7927, 8415, 8866, 9632, 13367, 13617, 14901, 22167]}, "edge": {"target": [], "time": []}}}, "displayed_time": "19.36", "trialTime": 24082, "trial_type": "mouselab-mdp", "trial_index": 30, "time_elapsed": 1497909, "internal_node_id": "0.0-6.0-1.0-15.0"}}, {"uniqueid": "w71155327:a89363496", "current_trial": 31, "dateTime": 1693390429083, "trialdata": {"revealed_states": [], "clicked_states": ["21", "20", "22", "19"], "num_clicks_accrued": [0, 0, 0, 0, 0, 0, 0, 0, 0, 0, 0, 0, 0], "stateRewards": ["", 1, 4, 5, 8, -55, -11, 8, 16, -37, 77, -22, -2, 3, -8, -10, 45, 87, -67, 4, 17, -33, -22, -1, -3, 7, 6, -39, -85, 75, -1, 7, -48, 45], "withholdReward": false, "trial_id": "mdp_trial_17", "block": "test", "trialIndex": 20, "score": 6, "costs": -7.999999999999999, "simulationMode": [null, null, null, null, null], "rewards": [-2, 3, -8, 4, 17], "path": ["0", "0", "12", "13", "14", "19", "20"], "rt": [14026, 715, 218, 300, 252], "actions": ["right", "right", "right", "down", "right"], "actionTimes": [17643, 18850, 19585, 20401, 21153], "queries": {"click": {"state": {"target": ["21", "20", "22", "19"], "time": [6301, 10064, 13072, 16089]}, "edge": {"target": [], "time": []}}, "mouseover": {"state": {"target": ["0", "21", "20", "22", "19"], "time": [5309, 5776, 7165, 11234, 14048]}, "edge": {"target": [], "time": []}}, "mouseout": {"state": {"target": ["0", "21", "20", "22", "19", "19", "12", "1", "28", "23", "0"], "time": [5333, 6948, 10665, 13258, 16831, 23779, 23816, 23851, 24331, 24870, 25316]}, "edge": {"target": [], "time": []}}}, "displayed_time": "21.65", "trialTime": 27185, "trial_type": "mouselab-mdp", "trial_index": 31, "time_elapsed": 1525469, "internal_node_id": "0.0-6.0-1.0-16.0"}}, {"uniqueid": "w71155327:a89363496", "current_trial": 32, "dateTime": 1693390447946, "trialdata": {"revealed_states": [], "clicked_states": [], "num_clicks_accrued": [0, 0, 0, 0, 0, 0, 0, 0, 0, 0, 0, 0, 0], "stateRewards": ["", 1, -3, -1, 9, -34, -40, 22, -7, 45, 53, -11, 2, 4, 5, 15, 21, 37, -49, -3, 80, -28, -34, 1, -3, 1, 1, -40, -6, -5, -16, -85, -86, 59], "withholdReward": false, "trial_id": "mdp_trial_18", "block": "test", "trialIndex": 21, "score": 42, "costs": 0, "simulationMode": [null, null, null, null, null], "rewards": [1, -3, 1, -16, 59], "path": ["0", "0", "23", "24", "25", "30", "33"], "rt": [1391, 381, 1185, 660, 359], "actions": ["left", "left", "left", "down", "left"], "actionTimes": [2755, 3658, 5362, 6522, 7402], "queries": {"click": {"state": {"target": [], "time": []}, "edge": {"target": [], "time": []}}, "mouseover": {"state": {"target": [], "time": []}, "edge": {"target": [], "time": []}}, "mouseout": {"state": {"target": ["1", "0", "12"], "time": [791, 8995, 15398]}, "edge": {"target": [], "time": []}}}, "displayed_time": "15.37", "trialTime": 18442, "trial_type": "mouselab-mdp", "trial_index": 32, "time_elapsed": 1544333, "internal_node_id": "0.0-6.0-1.0-17.0"}}, {"uniqueid": "w71155327:a89363496", "current_trial": 33, "dateTime": 1693390475722, "trialdata": {"revealed_states": [], "clicked_states": [], "num_clicks_accrued": [0, 0, 0, 0, 0, 0, 0, 0, 0, 0, 0, 0, 0], "stateRewards": ["", -1, 4, 3, 12, -27, 34, -33, 3, -63, 1, 6, 2, 2, -6, -11, -77, -85, 68, -6, 51, 81, -60, -2, -2, 1, 15, 20, 15, 68, -10, -14, 6, -4], "withholdReward": false, "trial_id": "mdp_trial_19", "block": "test", "trialIndex": 22, "score": -15, "costs": 0, "simulationMode": [null, null, null, null, null], "rewards": [-1, 4, 3, 12, -33], "path": ["0", "0", "1", "2", "3", "4", "7"], "rt": [1840, 534, 98, 233, 358], "actions": ["up", "up", "up", "right", "down"], "actionTimes": [4312, 5360, 5941, 6679, 7534], "queries": {"click": {"state": {"target": [], "time": []}, "edge": {"target": [], "time": []}}, "mouseover": {"state": {"target": [], "time": []}, "edge": {"target": [], "time": []}}, "mouseout": {"state": {"target": ["0", "12", "0", "1", "10"], "time": [20107, 20891, 21179, 21379, 23229]}, "edge": {"target": [], "time": []}}}, "displayed_time": "16.46", "trialTime": 27343, "trial_type": "mouselab-mdp", "trial_index": 33, "time_elapsed": 1572108, "internal_node_id": "0.0-6.0-1.0-18.0"}}, {"uniqueid": "w71155327:a89363496", "current_trial": 34, "dateTime": 1693390498978, "trialdata": {"revealed_states": [], "clicked_states": [], "num_clicks_accrued": [0, 0, 0, 0, 0, 0, 0, 0, 0, 0, 0, 0, 0], "stateRewards": ["", 1, 4, 7, -16, -84, -6, -46, -12, -7, -49, -26, -1, 2, -4, 2, 22, 37, -64, 1, 88, -13, -10, 1, -4, -2, 5, 2, -10, -34, 9, 66, 55, 38], "withholdReward": false, "trial_id": "mdp_trial_20", "block": "test", "trialIndex": 23, "score": -49, "costs": 0, "simulationMode": [null, null, null, null, null], "rewards": [1, 4, 7, -12, -49], "path": ["0", "0", "1", "2", "3", "8", "10"], "rt": [1091, 628, 126, 198, 458], "actions": ["up", "up", "up", "left", "down"], "actionTimes": [3530, 4666, 5297, 5985, 6945], "queries": {"click": {"state": {"target": [], "time": []}, "edge": {"target": [], "time": []}}, "mouseover": {"state": {"target": ["1"], "time": [2940]}, "edge": {"target": [], "time": []}}, "mouseout": {"state": {"target": ["11", "10", "1"], "time": [1084, 1233, 13387]}, "edge": {"target": [], "time": []}}}, "displayed_time": "16.44", "trialTime": 22810, "trial_type": "mouselab-mdp", "trial_index": 34, "time_elapsed": 1595364, "internal_node_id": "0.0-6.0-1.0-19.0"}}, {"uniqueid": "w71155327:a89363496", "current_trial": 35, "dateTime": 1693390537346, "trialdata": {"revealed_states": [], "clicked_states": ["32", "33", "27", "28"], "num_clicks_accrued": [0, 0, 0, 0, 0, 0, 0, 0, 0, 0, 0, 0, 0], "stateRewards": ["", 1, -1, 8, -3, 38, 85, -20, -4, 8, 23, 73, 2, -4, 6, -13, 44, 7, -28, -11, -77, 45, -69, 1, -1, -7, -11, 75, -51, -87, 7, 36, -53, -26], "withholdReward": false, "trial_id": "mdp_trial_21", "block": "test", "trialIndex": 24, "score": 48.4, "costs": -8.6, "simulationMode": [null, null, null, null, null, null], "rewards": [1, -1, -7, -11, 75], "path": ["0", "0", "23", "24", "25", "26", "27"], "rt": [14777, 512, 733, 38, 241, 139], "actions": ["left", "left", "left", "left", "up", "up"], "actionTimes": [30016, 30531, 31780, 32316, 33069, 33701], "queries": {"click": {"state": {"target": ["32", "33", "27", "28"], "time": [17336, 20488, 24993, 28921]}, "edge": {"target": [], "time": []}}, "mouseover": {"state": {"target": ["0", "23", "31", "32", "33", "29", "29", "27", "29", "26", "28"], "time": [16465, 16498, 16664, 17031, 18060, 21159, 21509, 24614, 25978, 27909, 27975]}, "edge": {"target": [], "time": []}}, "mouseout": {"state": {"target": ["10", "0", "0", "23", "31", "32", "33", "29", "29", "27", "29", "26", "28"], "time": [14001, 14420, 16494, 16542, 16828, 17809, 20618, 21176, 23648, 25760, 27857, 27942, 29146]}, "edge": {"target": [], "time": []}}}, "displayed_time": "34.21", "trialTime": 37909, "trial_type": "mouselab-mdp", "trial_index": 35, "time_elapsed": 1633732, "internal_node_id": "0.0-6.0-1.0-20.0"}}, {"uniqueid": "w71155327:a89363496", "current_trial": 36, "dateTime": 1693390561466, "trialdata": {"revealed_states": [], "clicked_states": ["17", "16", "18", "5"], "num_clicks_accrued": [0, 0, 0, 0, 0, 0, 0, 0, 0, 0, 0, 0, 0], "stateRewards": ["", 1, -2, -2, 10, -31, -77, 35, 9, -47, 8, 48, -2, 1, -4, -3, -26, -50, 43, -11, 76, -38, 17, 1, -1, 6, 10, 15, -9, 12, -8, 85, 11, -55], "withholdReward": false, "trial_id": "mdp_trial_22", "block": "test", "trialIndex": 25, "score": 26.4, "costs": -8.6, "simulationMode": [null, null, null, null, null], "rewards": [-2, 1, -4, -3, 43], "path": ["0", "0", "12", "13", "14", "15", "18"], "rt": [14009, 414, 377, 261, 125], "actions": ["right", "right", "right", "up", "left"], "actionTimes": [15451, 16376, 17257, 18040, 18704], "queries": {"click": {"state": {"target": ["17", "16", "18", "5"], "time": [2908, 6129, 9251, 12252]}, "edge": {"target": [], "time": []}}, "mouseover": {"state": {"target": ["12", "15", "17", "15", "16", "18", "6", "5", "6"], "time": [2098, 2260, 2361, 3496, 3777, 7212, 10476, 10826, 13060]}, "edge": {"target": [], "time": []}}, "mouseout": {"state": {"target": ["2", "1", "12", "15", "17", "15", "16", "18", "6", "5", "6"], "time": [613, 725, 2145, 2343, 3333, 3581, 6578, 10360, 10493, 12910, 13679]}, "edge": {"target": [], "time": []}}}, "displayed_time": "19.19", "trialTime": 23697, "trial_type": "mouselab-mdp", "trial_index": 36, "time_elapsed": 1657853, "internal_node_id": "0.0-6.0-1.0-21.0"}}, {"uniqueid": "w71155327:a89363496", "current_trial": 37, "dateTime": 1693390580414, "trialdata": {"revealed_states": [], "clicked_states": ["21", "9"], "num_clicks_accrued": [0, 0, 0, 0, 0, 0, 0, 0, 0, 0, 0, 0, 0], "stateRewards": ["", -2, -4, 4, -11, -63, -60, -7, 2, -14, 81, -43, -1, -1, -5, 7, 10, 69, 40, 8, -83, 52, 60, 1, 2, 5, -5, 16, 64, 14, -3, 29, 7, -51], "withholdReward": false, "trial_id": "mdp_trial_23", "block": "test", "trialIndex": 26, "score": 48.7, "costs": -4.3, "simulationMode": [null, null, null, null, null, null], "rewards": [-1, -1, -5, 8, 52], "path": ["0", "0", "12", "13", "14", "19", "21"], "rt": [5788, 844, 5, 331, 192, 566], "actions": ["right", "right", "right", "right", "down", "down"], "actionTimes": [8049, 8898, 9437, 10275, 10971, 12027], "queries": {"click": {"state": {"target": ["21", "9"], "time": [3537, 6838]}, "edge": {"target": [], "time": []}}, "mouseover": {"state": {"target": ["12", "22", "21", "21", "22", "5", "9", "8"], "time": [2731, 2845, 2994, 3260, 4109, 4594, 4977, 7244]}, "edge": {"target": [], "time": []}}, "mouseout": {"state": {"target": ["26", "24", "23", "0", "12", "22", "21", "21", "22", "5", "9", "8", "2", "6", "6", "9"], "time": [730, 776, 809, 1442, 2811, 2876, 3061, 3894, 4126, 4628, 7210, 7277, 14927, 16177, 16928, 16960]}, "edge": {"target": [], "time": []}}}, "displayed_time": "16.26", "trialTime": 18528, "trial_type": "mouselab-mdp", "trial_index": 37, "time_elapsed": 1676801, "internal_node_id": "0.0-6.0-1.0-22.0"}}, {"uniqueid": "w71155327:a89363496", "current_trial": 38, "dateTime": 1693390598862, "trialdata": {"revealed_states": [], "clicked_states": ["11"], "num_clicks_accrued": [0, 0, 0, 0, 0, 0, 0, 0, 0, 0, 0, 0, 0], "stateRewards": ["", -2, 3, -1, 2, -72, 63, 20, -1, 62, -66, 39, -2, 3, -6, 14, 22, 47, 1, 8, -49, -1, -41, 2, 2, -6, -16, -64, -60, -34, 16, 54, 22, -7], "withholdReward": false, "trial_id": "mdp_trial_24", "block": "test", "trialIndex": 27, "score": 35.85, "costs": -2.15, "simulationMode": [null, null, null, null, null], "rewards": [-2, 3, -1, -1, 39], "path": ["0", "0", "1", "2", "3", "8", "11"], "rt": [6523, 686, 82, 323, 228], "actions": ["up", "up", "up", "left", "left"], "actionTimes": [8660, 9861, 10444, 11268, 11989], "queries": {"click": {"state": {"target": ["11"], "time": [4228]}, "edge": {"target": [], "time": []}}, "mouseover": {"state": {"target": ["1", "7", "3", "8", "11", "9", "4", "6"], "time": [2991, 3330, 3514, 3556, 3641, 5073, 6060, 6376]}, "edge": {"target": [], "time": []}}, "mouseout": {"state": {"target": ["32", "12", "1", "7", "3", "8", "11", "11", "9", "4", "6", "4", "7"], "time": [640, 1092, 3158, 3393, 3534, 3576, 4369, 4894, 5865, 6209, 7724, 16731, 16949]}, "edge": {"target": [], "time": []}}}, "displayed_time": "16.14", "trialTime": 18029, "trial_type": "mouselab-mdp", "trial_index": 38, "time_elapsed": 1695248, "internal_node_id": "0.0-6.0-1.0-23.0"}}, {"uniqueid": "w71155327:a89363496", "current_trial": 39, "dateTime": 1693390619775, "trialdata": {"revealed_states": [], "clicked_states": ["29", "28"], "num_clicks_accrued": [0, 0, 0, 0, 0, 0, 0, 0, 0, 0, 0, 0, 0], "stateRewards": ["", -2, 4, -7, -3, -76, 39, -28, 10, 14, 12, 60, 2, -3, 6, -10, 88, -34, -41, -3, 72, -13, -56, 1, 3, 2, 8, -51, 23, -57, 1, 14, -46, -16], "withholdReward": false, "trial_id": "mdp_trial_25", "block": "test", "trialIndex": 28, "score": 32.7, "costs": -4.3, "simulationMode": [null, null, null, null, null], "rewards": [1, 3, 2, 8, 23], "path": ["0", "0", "23", "24", "25", "26", "28"], "rt": [10182, 184, 605, 146, 245], "actions": ["left", "left", "left", "up", "right"], "actionTimes": [12594, 13296, 14400, 15057, 15808], "queries": {"click": {"state": {"target": ["29", "28"], "time": [4643, 8491]}, "edge": {"target": [], "time": []}}, "mouseover": {"state": {"target": ["12", "23", "24", "25", "29", "25", "30", "33", "28", "27", "26", "27"], "time": [3281, 3427, 3477, 3730, 4096, 5343, 5476, 7026, 8099, 9596, 11159, 11563]}, "edge": {"target": [], "time": []}}, "mouseout": {"state": {"target": ["12", "22", "12", "23", "24", "25", "29", "25", "30", "33", "29", "28", "27", "26", "27", "28", "23"], "time": [691, 945, 3385, 3443, 3629, 3757, 5193, 5442, 5561, 7059, 7578, 9226, 10909, 11397, 11793, 11843, 17714]}, "edge": {"target": [], "time": []}}}, "displayed_time": "16.41", "trialTime": 20025, "trial_type": "mouselab-mdp", "trial_index": 39, "time_elapsed": 1716162, "internal_node_id": "0.0-6.0-1.0-24.0"}}, {"uniqueid": "w71155327:a89363496", "current_trial": 40, "dateTime": 1693390645531, "trialdata": {"revealed_states": [], "clicked_states": ["11", "32", "31", "33"], "num_clicks_accrued": [0, 0, 0, 0, 0, 0, 0, 0, 0, 0, 0, 0, 0], "stateRewards": ["", -2, 2, 3, -7, -31, -33, 29, -8, -57, 50, -83, -1, -1, 5, 13, -23, -62, 25, 5, -66, -85, 14, 1, -2, -1, 16, 71, 33, -19, -14, 5, -43, 79], "withholdReward": false, "trial_id": "mdp_trial_26", "block": "test", "trialIndex": 29, "score": 54.4, "costs": -8.6, "simulationMode": [null, null, null, null, null], "rewards": [1, -2, -1, -14, 79], "path": ["0", "0", "23", "24", "25", "30", "33"], "rt": [16261, 618, 132, 388, 358], "actions": ["left", "left", "left", "down", "left"], "actionTimes": [18666, 19814, 20439, 21327, 22199], "queries": {"click": {"state": {"target": ["11", "32", "31", "33"], "time": [4597, 8115, 11300, 14564]}, "edge": {"target": [], "time": []}}, "mouseover": {"state": {"target": ["0", "14", "16", "3", "8", "11", "8", "3", "4", "1", "32", "31", "30", "33", "30", "20"], "time": [2915, 3113, 3427, 3979, 4142, 4327, 5036, 5108, 5710, 6675, 7275, 8759, 11692, 11876, 15039, 15722]}, "edge": {"target": [], "time": []}}, "mouseout": {"state": {"target": ["23", "23", "0", "0", "0", "14", "16", "3", "8", "11", "8", "3", "4", "1", "32", "31", "30", "33", "30", "31", "20"], "time": [646, 909, 975, 1224, 2942, 3144, 3461, 4076, 4296, 4719, 5086, 5195, 5926, 6693, 8237, 11626, 11775, 15023, 15074, 15106, 18043]}, "edge": {"target": [], "time": []}}}, "displayed_time": "22.69", "trialTime": 25264, "trial_type": "mouselab-mdp", "trial_index": 40, "time_elapsed": 1741917, "internal_node_id": "0.0-6.0-1.0-25.0"}}, {"uniqueid": "w71155327:a89363496", "current_trial": 41, "dateTime": 1693390669442, "trialdata": {"revealed_states": [], "clicked_states": ["16", "17", "7", "10"], "num_clicks_accrued": [0, 0, 0, 0, 0, 0, 0, 0, 0, 0, 0, 0, 0], "stateRewards": ["", 2, -4, 4, 9, 69, 9, -75, 12, -86, 66, 25, -1, 3, 2, -13, -88, -3, 1, 4, -69, 49, -84, 2, -1, 4, 2, -18, -81, -52, -15, -69, -54, 25], "withholdReward": false, "trial_id": "mdp_trial_27", "block": "test", "trialIndex": 30, "score": 71.4, "costs": -8.6, "simulationMode": [null, null, null, null, null], "rewards": [2, -4, 4, 12, 66], "path": ["0", "0", "1", "2", "3", "8", "10"], "rt": [15965, 107, 276, 257, 343], "actions": ["up", "up", "up", "left", "down"], "actionTimes": [17925, 18549, 19316, 20069, 20916], "queries": {"click": {"state": {"target": ["16", "17", "7", "10"], "time": [3326, 6559, 10367, 13688]}, "edge": {"target": [], "time": []}}, "mouseover": {"state": {"target": ["12", "15", "16", "17", "17", "14", "19", "13", "7", "4", "7", "7", "2", "2", "7", "2", "10", "0", "22"], "time": [2504, 2736, 3038, 3789, 4088, 7088, 7305, 7540, 7755, 8030, 8409, 9333, 9359, 9593, 9910, 12239, 12539, 14472, 14874]}, "edge": {"target": [], "time": []}}, "mouseout": {"state": {"target": ["0", "12", "15", "16", "16", "17", "17", "14", "19", "13", "7", "4", "7", "7", "2", "2", "7", "2", "10", "0", "22"], "time": [1361, 2612, 2755, 3441, 3689, 3843, 6956, 7222, 7356, 7573, 7923, 8057, 8442, 9345, 9389, 9774, 12022, 12392, 14122, 14540, 22509]}, "edge": {"target": [], "time": []}}}, "displayed_time": "21.42", "trialTime": 23492, "trial_type": "mouselab-mdp", "trial_index": 41, "time_elapsed": 1765828, "internal_node_id": "0.0-6.0-1.0-26.0"}}, {"uniqueid": "w71155327:a89363496", "current_trial": 42, "dateTime": 1693390687482, "trialdata": {"revealed_states": [], "clicked_states": ["29"], "num_clicks_accrued": [0, 0, 0, 0, 0, 0, 0, 0, 0, 0, 0, 0, 0], "stateRewards": ["", 2, -2, 7, -11, -76, -65, -23, 16, -58, 30, 81, 1, 2, 7, 14, 9, 55, -2, 6, 11, -15, 31, -1, -1, -3, 2, 15, 2, 46, 15, 18, 45, -34], "withholdReward": false, "trial_id": "mdp_trial_28", "block": "test", "trialIndex": 31, "score": 40.85, "costs": -2.15, "simulationMode": [null, null, null, null, null], "rewards": [-1, -1, -3, 2, 46], "path": ["0", "0", "23", "24", "25", "26", "29"], "rt": [6244, 17, 142, 228, 105], "actions": ["left", "left", "left", "up", "left"], "actionTimes": [7944, 8479, 9134, 9854, 10480], "queries": {"click": {"state": {"target": ["29"], "time": [3913]}, "edge": {"target": [], "time": []}}, "mouseover": {"state": {"target": ["0", "25", "26", "29", "30", "31", "31"], "time": [2673, 3175, 3341, 3557, 4345, 5362, 7303]}, "edge": {"target": [], "time": []}}, "mouseout": {"state": {"target": ["12", "0", "0", "25", "26", "29", "30", "31", "31"], "time": [945, 1222, 2723, 3290, 3494, 4208, 4361, 7281, 12779]}, "edge": {"target": [], "time": []}}}, "displayed_time": "15.70", "trialTime": 17567, "trial_type": "mouselab-mdp", "trial_index": 42, "time_elapsed": 1783869, "internal_node_id": "0.0-6.0-1.0-27.0"}}, {"uniqueid": "w71155327:a89363496", "current_trial": 43, "dateTime": 1693390705721, "trialdata": {"revealed_states": [], "clicked_states": ["17", "28"], "num_clicks_accrued": [0, 0, 0, 0, 0, 0, 0, 0, 0, 0, 0, 0, 0], "stateRewards": ["", -1, -4, -1, -5, -28, -23, -15, -15, -38, 59, -87, 2, 2, -5, 9, -55, -39, -71, -6, 85, -85, -11, -1, -2, 5, -10, 1, 25, 41, -4, 69, -35, 86], "withholdReward": false, "trial_id": "mdp_trial_29", "block": "test", "trialIndex": 32, "score": 12.7, "costs": -4.3, "simulationMode": [null, null, null, null, null], "rewards": [-1, -2, 5, -10, 25], "path": ["0", "0", "23", "24", "25", "26", "28"], "rt": [10001, 33, 125, 97, 348], "actions": ["left", "left", "left", "up", "right"], "actionTimes": [11558, 12100, 12726, 13332, 14182], "queries": {"click": {"state": {"target": ["17", "28"], "time": [3002, 7578]}, "edge": {"target": [], "time": []}}, "mouseover": {"state": {"target": ["14", "17", "20", "14", "13", "12", "23", "28", "23"], "time": [2329, 2521, 3468, 6323, 6501, 6694, 6956, 7133, 8114]}, "edge": {"target": [], "time": []}}, "mouseout": {"state": {"target": ["0", "14", "17", "17", "20", "14", "13", "12", "23", "28", "23", "24", "31"], "time": [932, 2441, 3102, 3329, 6289, 6353, 6671, 6717, 7002, 8064, 8165, 15888, 16480]}, "edge": {"target": [], "time": []}}}, "displayed_time": "15.56", "trialTime": 17798, "trial_type": "mouselab-mdp", "trial_index": 43, "time_elapsed": 1802107, "internal_node_id": "0.0-6.0-1.0-28.0"}}, {"uniqueid": "w71155327:a89363496", "current_trial": 44, "dateTime": 1693390725870, "trialdata": {"revealed_states": [], "clicked_states": ["7"], "num_clicks_accrued": [0, 0, 0, 0, 0, 0, 0, 0, 0, 0, 0, 0, 0], "stateRewards": ["", -1, -4, -1, -11, 43, 69, 39, 4, 17, -20, -82, -2, -1, 4, 8, -79, 24, -79, 11, 36, 64, 41, 2, 4, -1, 11, -79, -47, 75, -3, 63, -36, -19], "withholdReward": false, "trial_id": "mdp_trial_30", "block": "test", "trialIndex": 33, "score": 19.85, "costs": -2.15, "simulationMode": [null, null, null, null, null], "rewards": [-1, -4, -1, -11, 39], "path": ["0", "0", "1", "2", "3", "4", "7"], "rt": [5823, 137, 96, 247, 97], "actions": ["up", "up", "up", "right", "down"], "actionTimes": [9755, 10401, 10993, 11761, 12377], "queries": {"click": {"state": {"target": ["7"], "time": [5735]}, "edge": {"target": [], "time": []}}, "mouseover": {"state": {"target": ["1", "1", "2", "7", "10"], "time": [4632, 4760, 4913, 5026, 6723]}, "edge": {"target": [], "time": []}}, "mouseout": {"state": {"target": ["32", "1", "1", "2", "7", "10"], "time": [1514, 4656, 4809, 4977, 6296, 15663]}, "edge": {"target": [], "time": []}}}, "displayed_time": "17.93", "trialTime": 19681, "trial_type": "mouselab-mdp", "trial_index": 44, "time_elapsed": 1822257, "internal_node_id": "0.0-6.0-1.0-29.0"}}, {"uniqueid": "w71155327:a89363496", "current_trial": 45, "dateTime": 1693390747799, "trialdata": {"revealed_states": [], "clicked_states": ["28", "6"], "num_clicks_accrued": [0, 0, 0, 0, 0, 0, 0, 0, 0, 0, 0, 0, 0], "stateRewards": ["", 2, -3, -2, 14, -4, 85, 46, 15, -28, 41, 31, -1, -1, -1, 5, 62, 79, 57, 12, -73, -64, 86, -1, 1, -3, -5, 68, 11, -32, 8, -80, -21, -56], "withholdReward": false, "trial_id": "mdp_trial_31", "block": "test", "trialIndex": 34, "score": 91.7, "costs": -4.3, "simulationMode": [null, null, null, null, null], "rewards": [2, -3, -2, 14, 85], "path": ["0", "0", "1", "2", "3", "4", "6"], "rt": [9916, 826, 122, 597, 256], "actions": ["up", "up", "up", "right", "right"], "actionTimes": [12163, 13501, 14116, 15212, 15965], "queries": {"click": {"state": {"target": ["28", "6"], "time": [3918, 8251]}, "edge": {"target": [], "time": []}}, "mouseover": {"state": {"target": ["23", "28", "10", "2", "4", "6"], "time": [2974, 3472, 4473, 4558, 4775, 5456]}, "edge": {"target": [], "time": []}}, "mouseout": {"state": {"target": ["10", "12", "0", "23", "28", "10", "2", "4", "6", "6", "7", "12"], "time": [910, 1475, 1578, 3073, 4356, 4489, 4706, 4807, 11497, 11532, 19625, 19755]}, "edge": {"target": [], "time": []}}}, "displayed_time": "16.46", "trialTime": 21437, "trial_type": "mouselab-mdp", "trial_index": 45, "time_elapsed": 1844185, "internal_node_id": "0.0-6.0-1.0-30.0"}}, {"uniqueid": "w71155327:a89363496", "current_trial": 46, "dateTime": 1693390769939, "trialdata": {"revealed_states": [], "clicked_states": ["14", "17", "21"], "num_clicks_accrued": [0, 0, 0, 0, 0, 0, 0, 0, 0, 0, 0, 0, 0], "stateRewards": ["", -1, 2, 7, 8, 75, 67, -11, 6, 52, -17, 38, -1, 4, -8, 14, 74, -37, -17, -12, 52, 55, 71, -2, -1, -5, 2, 21, 6, -88, -14, 64, -61, -47], "withholdReward": false, "trial_id": "mdp_trial_32", "block": "test", "trialIndex": 35, "score": 32.75, "costs": -5.25, "simulationMode": [null, null, null, null, null], "rewards": [-1, 4, -8, -12, 55], "path": ["0", "0", "12", "13", "14", "19", "21"], "rt": [12341, 98, 467, 584, 285], "actions": ["right", "right", "right", "down", "down"], "actionTimes": [14035, 14642, 15610, 16698, 17496], "queries": {"click": {"state": {"target": ["14", "17", "21"], "time": [4023, 5381, 10078]}, "edge": {"target": [], "time": []}}, "mouseover": {"state": {"target": ["0", "1", "13", "14", "15", "17", "13", "12", "12", "19", "21", "21", "21"], "time": [1778, 2328, 2562, 2835, 4614, 4797, 5964, 6130, 8826, 8890, 9191, 9508, 9773]}, "edge": {"target": [], "time": []}}, "mouseout": {"state": {"target": ["0", "0", "1", "13", "14", "15", "17", "17", "13", "12", "12", "19", "21", "21", "21", "21"], "time": [1113, 2164, 2467, 2629, 4129, 4681, 5490, 5697, 6082, 6180, 8858, 8908, 9276, 9542, 10945, 13309]}, "edge": {"target": [], "time": []}}}, "displayed_time": "17.99", "trialTime": 21667, "trial_type": "mouselab-mdp", "trial_index": 46, "time_elapsed": 1866325, "internal_node_id": "0.0-6.0-1.0-31.0"}}, {"uniqueid": "w71155327:a89363496", "current_trial": 47, "dateTime": 1693390796177, "trialdata": {"revealed_states": [], "clicked_states": ["33", "9", "32", "28"], "num_clicks_accrued": [0, 0, 0, 0, 0, 0, 0, 0, 0, 0, 0, 0, 0], "stateRewards": ["", 1, 4, -8, -13, -13, -87, -77, -10, -44, 54, 42, 2, -3, -4, 12, -9, -80, 52, 9, 84, -2, -65, 1, -4, -5, -6, 8, 80, 32, 13, -59, -5, -13], "withholdReward": false, "trial_id": "mdp_trial_33", "block": "test", "trialIndex": 36, "score": 57.4, "costs": -8.6, "simulationMode": [null, null, null, null, null], "rewards": [1, -4, -5, -6, 80], "path": ["0", "0", "23", "24", "25", "26", "28"], "rt": [17677, 22, 188, 49, 398], "actions": ["left", "left", "left", "up", "right"], "actionTimes": [19747, 20290, 20987, 21532, 22451], "queries": {"click": {"state": {"target": ["33", "9", "32", "28"], "time": [4105, 7469, 11869, 15782]}, "edge": {"target": [], "time": []}}, "mouseover": {"state": {"target": ["1", "28", "26", "29", "33", "9", "9", "3", "2", "1", "0", "32", "31", "24", "28"], "time": [2821, 3053, 3131, 3297, 3798, 4732, 5082, 8348, 8732, 9282, 10952, 11370, 12381, 15151, 15453]}, "edge": {"target": [], "time": []}}, "mouseout": {"state": {"target": ["14", "13", "12", "0", "1", "28", "26", "29", "33", "9", "9", "3", "2", "1", "0", "32", "31", "24", "28"], "time": [701, 814, 1284, 1467, 2838, 3107, 3263, 3637, 4173, 4765, 8031, 8365, 9182, 10837, 10968, 12234, 15100, 15303, 24299]}, "edge": {"target": [], "time": []}}}, "displayed_time": "22.95", "trialTime": 25779, "trial_type": "mouselab-mdp", "trial_index": 47, "time_elapsed": 1892564, "internal_node_id": "0.0-6.0-1.0-32.0"}}, {"uniqueid": "w71155327:a89363496", "current_trial": 48, "dateTime": 1693390826631, "trialdata": {"revealed_states": [], "clicked_states": ["18", "10", "7", "28", "27"], "num_clicks_accrued": [0, 0, 0, 0, 0, 0, 0, 0, 0, 0, 0, 0, 0], "stateRewards": ["", -1, 2, -2, 5, 80, -61, -27, 12, 44, -26, -75, -2, -4, 1, -16, 42, -49, -50, 4, -44, 2, 80, -2, -2, 5, -2, 59, 10, 24, 7, -48, -86, -44], "withholdReward": false, "trial_id": "mdp_trial_34", "block": "test", "trialIndex": 37, "score": 47.25, "costs": -10.75, "simulationMode": [null, null, null, null, null], "rewards": [-2, -2, 5, -2, 59], "path": ["0", "0", "23", "24", "25", "26", "27"], "rt": [21446, 170, 304, 167, 119], "actions": ["left", "left", "left", "up", "up"], "actionTimes": [22993, 23681, 24496, 25160, 25782], "queries": {"click": {"state": {"target": ["18", "10", "7", "28", "27"], "time": [3246, 7366, 11582, 15453, 18960]}, "edge": {"target": [], "time": []}}, "mouseover": {"state": {"target": ["12", "18", "1", "2", "2", "10", "2", "7", "24", "24", "28", "27", "29"], "time": [2463, 2544, 4128, 5126, 6498, 6797, 8094, 10946, 13079, 13494, 13677, 16446, 20172]}, "edge": {"target": [], "time": []}}, "mouseout": {"state": {"target": ["28", "23", "12", "18", "18", "1", "2", "2", "10", "2", "7", "7", "24", "24", "28", "27", "29"], "time": [642, 809, 2480, 3329, 3575, 4313, 5276, 6653, 7926, 9626, 11710, 12111, 13203, 13576, 15942, 19493, 28516]}, "edge": {"target": [], "time": []}}}, "displayed_time": "26.29", "trialTime": 29961, "trial_type": "mouselab-mdp", "trial_index": 48, "time_elapsed": 1923018, "internal_node_id": "0.0-6.0-1.0-33.0"}}, {"uniqueid": "w71155327:a89363496", "current_trial": 49, "dateTime": 1693390848048, "trialdata": {"revealed_states": [], "clicked_states": ["21"], "num_clicks_accrued": [0, 0, 0, 0, 0, 0, 0, 0, 0, 0, 0, 0, 0], "stateRewards": ["", -2, 1, -5, 2, -68, 80, 33, 10, 67, -59, 20, -1, -3, 3, 14, 74, -2, 24, -16, 63, 80, 46, -1, 4, 6, 12, 83, -38, -43, -4, 43, 14, -79], "withholdReward": false, "trial_id": "mdp_trial_35", "block": "test", "trialIndex": 38, "score": 60.85, "costs": -2.15, "simulationMode": [null, null, null, null, null], "rewards": [-1, -3, 3, -16, 80], "path": ["0", "0", "12", "13", "14", "19", "21"], "rt": [5097, 279, 144, 343, 292], "actions": ["right", "right", "right", "down", "down"], "actionTimes": [7227, 8018, 8665, 9515, 10322], "queries": {"click": {"state": {"target": ["21"], "time": [3296]}, "edge": {"target": [], "time": []}}, "mouseover": {"state": {"target": ["22", "21", "20", "17"], "time": [2634, 2856, 4322, 5356]}, "edge": {"target": [], "time": []}}, "mouseout": {"state": {"target": ["26", "28", "0", "22", "21", "20", "17", "15", "18", "7", "16"], "time": [1237, 1299, 2526, 2651, 3690, 4350, 11906, 15718, 16671, 17869, 17952]}, "edge": {"target": [], "time": []}}}, "displayed_time": "16.13", "trialTime": 20939, "trial_type": "mouselab-mdp", "trial_index": 49, "time_elapsed": 1944434, "internal_node_id": "0.0-6.0-1.0-34.0"}}, {"uniqueid": "w71155327:a89363496", "current_trial": 50, "dateTime": 1693390866215, "trialdata": {"revealed_states": [], "clicked_states": ["16"], "num_clicks_accrued": [0, 0, 0, 0, 0, 0, 0, 0, 0, 0, 0, 0, 0], "stateRewards": ["", 1, -3, -4, -11, -56, 61, -47, -16, -28, -9, 69, -2, -3, -4, -8, 40, -86, 59, -4, 80, 27, 54, -1, 3, -1, 8, 67, 23, 50, 6, 83, -43, -29], "withholdReward": false, "trial_id": "mdp_trial_36", "block": "test", "trialIndex": 39, "score": 20.85, "costs": -2.15, "simulationMode": [null, null, null, null, null], "rewards": [-2, -3, -4, -8, 40], "path": ["0", "0", "12", "13", "14", "15", "16"], "rt": [5282, 115, 213, 6, 162], "actions": ["right", "right", "right", "up", "up"], "actionTimes": [6893, 7522, 8236, 8763, 9435], "queries": {"click": {"state": {"target": ["16"], "time": [2991]}, "edge": {"target": [], "time": []}}, "mouseover": {"state": {"target": ["12", "15", "16", "16", "17", "10", "3"], "time": [2022, 2189, 2320, 2573, 3625, 4639, 5741]}, "edge": {"target": [], "time": []}}, "mouseout": {"state": {"target": ["12", "15", "16", "16", "16", "17", "10", "3", "2", "2"], "time": [2041, 2286, 2422, 3097, 3423, 3839, 5270, 12177, 13110, 13205]}, "edge": {"target": [], "time": []}}}, "displayed_time": "15.61", "trialTime": 17677, "trial_type": "mouselab-mdp", "trial_index": 50, "time_elapsed": 1962602, "internal_node_id": "0.0-6.0-1.0-35.0"}}, {"uniqueid": "w71155327:a89363496", "current_trial": 51, "dateTime": 1693390885335, "trialdata": {"revealed_states": [], "clicked_states": ["29", "5"], "num_clicks_accrued": [0, 0, 0, 0, 0, 0, 0, 0, 0, 0, 0, 0, 0], "stateRewards": ["", -2, -3, 1, -14, 48, -49, 67, -1, -35, -48, 3, -2, 1, -4, -5, 86, -84, 39, 1, 48, 41, -42, -1, -4, 2, -7, 18, -86, 17, 7, -9, 57, -69], "withholdReward": false, "trial_id": "mdp_trial_37", "block": "test", "trialIndex": 40, "score": 25.7, "costs": -4.3, "simulationMode": [null, null, null, null, null], "rewards": [-2, -3, 1, -14, 48], "path": ["0", "0", "1", "2", "3", "4", "5"], "rt": [9203, 202, 103, 351, 205], "actions": ["up", "up", "up", "right", "up"], "actionTimes": [11197, 11923, 12539, 13387, 14091], "queries": {"click": {"state": {"target": ["29", "5"], "time": [3284, 7093]}, "edge": {"target": [], "time": []}}, "mouseover": {"state": {"target": ["23", "24", "25", "29", "26", "3", "4", "5", "8"], "time": [2523, 2585, 2635, 3008, 3595, 3805, 4235, 4543, 7679]}, "edge": {"target": [], "time": []}}, "mouseout": {"state": {"target": ["2", "23", "23", "24", "25", "29", "26", "3", "4", "5", "8"], "time": [470, 709, 2569, 2603, 2683, 3554, 3617, 3854, 4456, 7452, 17577]}, "edge": {"target": [], "time": []}}}, "displayed_time": "15.99", "trialTime": 18674, "trial_type": "mouselab-mdp", "trial_index": 51, "time_elapsed": 1981720, "internal_node_id": "0.0-6.0-1.0-36.0"}}, {"uniqueid": "w71155327:a89363496", "current_trial": 52, "dateTime": 1693390909310, "trialdata": {"revealed_states": [], "clicked_states": ["11", "31"], "num_clicks_accrued": [0, 0, 0, 0, 0, 0, 0, 0, 0, 0, 0, 0, 0], "stateRewards": ["", 2, 3, -3, 12, -43, 81, -82, -15, 58, -7, -75, -1, -1, 3, -5, 50, -25, -8, 4, 66, 65, -66, 2, -4, 2, -1, -10, 10, 37, 11, 88, -37, 8], "withholdReward": false, "trial_id": "mdp_trial_38", "block": "test", "trialIndex": 41, "score": -30.3, "costs": -4.3, "simulationMode": [null, null, null, null, null], "rewards": [2, -4, 2, 11, -37], "path": ["0", "0", "23", "24", "25", "30", "32"], "rt": [9159, 195, 223, 203, 115], "actions": ["left", "left", "left", "down", "down"], "actionTimes": [11221, 11939, 12683, 13379, 13995], "queries": {"click": {"state": {"target": ["11", "31"], "time": [3894, 7370]}, "edge": {"target": [], "time": []}}, "mouseover": {"state": {"target": ["10", "11", "28", "24", "31", "31", "30"], "time": [3142, 3410, 4209, 4309, 4509, 4859, 8043]}, "edge": {"target": [], "time": []}}, "mouseout": {"state": {"target": ["11", "0", "10", "11", "11", "28", "24", "31", "31", "30", "25", "24", "23"], "time": [612, 1013, 3177, 4020, 4113, 4259, 4425, 4825, 7893, 10747, 20093, 20923, 22458]}, "edge": {"target": [], "time": []}}}, "displayed_time": "16.06", "trialTime": 23460, "trial_type": "mouselab-mdp", "trial_index": 52, "time_elapsed": 2005697, "internal_node_id": "0.0-6.0-1.0-37.0"}}, {"uniqueid": "w71155327:a89363496", "current_trial": 53, "dateTime": 1693390926870, "trialdata": {"revealed_states": [], "clicked_states": ["33"], "num_clicks_accrued": [0, 0, 0, 0, 0, 0, 0, 0, 0, 0, 0, 0, 0], "stateRewards": ["", -1, 4, -8, 12, 14, 69, -8, 5, -72, -14, 56, -1, -1, -1, 9, 67, 19, 11, -9, -88, -58, 3, 2, -4, -8, 4, 62, 77, -74, 5, -31, 65, 88], "withholdReward": false, "trial_id": "mdp_trial_39", "block": "test", "trialIndex": 42, "score": 80.85, "costs": -2.15, "simulationMode": [null, null, null, null, null], "rewards": [2, -4, -8, 5, 88], "path": ["0", "0", "23", "24", "25", "30", "33"], "rt": [5616, 223, 139, 119, 247], "actions": ["left", "left", "left", "down", "left"], "actionTimes": [7420, 8163, 8795, 9426, 10171], "queries": {"click": {"state": {"target": ["33"], "time": [3328]}, "edge": {"target": [], "time": []}}, "mouseover": {"state": {"target": ["23", "24", "25", "33", "33", "29"], "time": [2422, 2541, 2637, 2770, 3093, 4072]}, "edge": {"target": [], "time": []}}, "mouseout": {"state": {"target": ["23", "23", "24", "25", "33", "33", "29", "27", "10", "2", "2", "2", "10", "10"], "time": [643, 2506, 2588, 2688, 2856, 3556, 6876, 12056, 12420, 13356, 14756, 14959, 15322, 16308]}, "edge": {"target": [], "time": []}}}, "displayed_time": "15.80", "trialTime": 17099, "trial_type": "mouselab-mdp", "trial_index": 53, "time_elapsed": 2023256, "internal_node_id": "0.0-6.0-1.0-38.0"}}, {"uniqueid": "w71155327:a89363496", "current_trial": 54, "dateTime": 1693390946556, "trialdata": {"revealed_states": [], "clicked_states": ["17"], "num_clicks_accrued": [0, 0, 0, 0, 0, 0, 0, 0, 0, 0, 0, 0, 0], "stateRewards": ["", -1, 3, 8, 9, -53, 20, -84, 2, -28, -62, -31, -1, -2, -7, 2, 51, 58, 45, -4, -17, -41, 36, 2, -2, -7, -15, 29, -54, -37, -16, -43, 65, -17], "withholdReward": false, "trial_id": "mdp_trial_40", "block": "test", "trialIndex": 43, "score": 47.85, "costs": -2.15, "simulationMode": [null, null, null, null, null], "rewards": [-1, -2, -7, 2, 58], "path": ["0", "0", "12", "13", "14", "15", "17"], "rt": [5855, 235, 276, 135, 380], "actions": ["right", "right", "right", "up", "right"], "actionTimes": [8352, 9087, 9863, 10511, 11383], "queries": {"click": {"state": {"target": ["17"], "time": [4595]}, "edge": {"target": [], "time": []}}, "mouseover": {"state": {"target": ["18", "15", "17", "15", "18"], "time": [3318, 3487, 4002, 4986, 5100]}, "edge": {"target": [], "time": []}}, "mouseout": {"state": {"target": ["0", "18", "15", "17", "15", "18"], "time": [1135, 3436, 3586, 4919, 5049, 5138]}, "edge": {"target": [], "time": []}}}, "displayed_time": "16.50", "trialTime": 19215, "trial_type": "mouselab-mdp", "trial_index": 54, "time_elapsed": 2042943, "internal_node_id": "0.0-6.0-1.0-39.0"}}, {"uniqueid": "w71155327:a89363496", "current_trial": 55, "dateTime": 1693391014467, "trialdata": {"rt": 66665, "response": {"Q0": "$-2 to $2", "Q1": "$-32 to $32", "Q2": "$-88 to $88", "Q3": "The cost for clicking on nodes varied between nodes.", "Q4": "Very motivated"}, "question_order": [0, 1, 2, 3, 4], "trial_id": "final_quiz_control", "trial_type": "survey-multi-choice", "trial_index": 55, "time_elapsed": 2110854, "internal_node_id": "0.0-6.0-2.0"}}, {"uniqueid": "w71155327:a89363496", "current_trial": 56, "dateTime": 1693391164222, "trialdata": {"rt": 149472, "response": {"Q0": "i opened the notch at the end", "Q1": "yes i did improve,i used to open any notch i felt like opening,but now i was opening only the notch at the end/exit", "Q2": "it was not difficult, i became comfortable with the game "}, "trial_id": "self_report_control", "trial_type": "survey-text", "trial_index": 56, "time_elapsed": 2260610, "internal_node_id": "0.0-6.0-3.0"}}, {"uniqueid": "w71155327:a89363496", "current_trial": 57, "dateTime": 1693391269598, "trialdata": {"rt": 105376, "response": {"Q0": "Disagree", "Q1": "Neither disagree nor agree", "Q2": "Neither disagree nor agree", "Q3": "Neither disagree nor agree", "Q4": "Neither disagree nor agree", "Q5": "Agree", "Q6": "Disagree"}, "question_order": [0, 1, 2, 3, 4, 5, 6], "trial_id": "self_report_2", "trial_type": "survey-multi-choice", "trial_index": 57, "time_elapsed": 2365986, "internal_node_id": "0.0-6.0-4.0"}}, {"uniqueid": "w71155327:a89363496", "current_trial": 58, "dateTime": 1693391321269, "trialdata": {"rt": 51610, "response": {"gender": "female", "age": "28", "colorblind": "0", "effort": "1"}, "trial_type": "survey-html-form", "trial_index": 58, "time_elapsed": 2417657, "internal_node_id": "0.0-6.0-5.0"}}, {"uniqueid": "w71155327:a89363496", "current_trial": 59, "dateTime": 1693391352974, "trialdata": {"rt": 31687, "response": {"Q0": "everything was clear", "Q1": "no", "Q2": "n/a"}, "trial_type": "survey-text", "trial_index": 59, "time_elapsed": 2449362, "internal_node_id": "0.0-6.0-6.0"}}, {"uniqueid": "w71155327:a89363496", "current_trial": 60, "dateTime": 1693391427033, "trialdata": {"rt": 74045, "stimulus": "<h1>Completion Code Instructions (1/2)</h1>\n<br><br><br><br>\nYou have reached the end of the experiment! The completion code consists of two parts: (1) a code with 2 characters (2) a code with 6 characters. On this page, you will receive the second part of the code. The first part of the completion code will be on the next page.\n<br><br>\nThe second part of your completion code is: <b>EWEK22</b>\n<br><br>\nPlease note this down. Then, press 'Finish HIT' in order to find the first part of your completion code. Once the data has been saved, you will receive this code either in this window or in the original browser window where you started the experiment.\n", "response": 0, "trial_type": "html-button-response", "trial_index": 60, "time_elapsed": 2523421, "internal_node_id": "0.0-6.0-7.0"}}, {"uniqueid": "w71155327:a89363496", "current_trial": 61, "dateTime": 1693391428044, "trialdata": {"success": true, "trial_type": "fullscreen", "trial_index": 61, "time_elapsed": 2524432, "internal_node_id": "0.0-7.0"}}], "questiondata": {"params": {"CODE": "C6DMOQA6", "MIN_TIME": 14, "inspectCost": 1, "startTime": "Wed Aug 30 2023 11:48:21 GMT+0200 (South Africa Standard Time)", "bonusRate": 0.002, "variance": "1_2_4_8_44", "branching": "31123"}, "final_score": 691.35}, "eventdata": [{"eventtype": "initialized", "value": null, "timestamp": 1693388901170, "interval": 0}, {"eventtype": "window_resize", "value": [1024, 767], "timestamp": 1693388901170, "interval": 0}, {"eventtype": "window_resize", "value": [1024, 767], "timestamp": 1693388901746, "interval": 576}, {"eventtype": "window_resize", "value": [1600, 900], "timestamp": 1693388927879, "interval": 26133}, {"eventtype": "focus", "value": "off", "timestamp": 1693389566055, "interval": 638176}, {"eventtype": "focus", "value": "on", "timestamp": 1693389566056, "interval": 1}, {"eventtype": "window_resize", "value": [1024, 767], "timestamp": 1693389566265, "interval": 209}, {"eventtype": "window_resize", "value": [1600, 900], "timestamp": 1693389568691, "interval": 2426}, {"eventtype": "window_resize", "value": [1024, 767], "timestamp": 1693389747999, "interval": 179308}], "useragent": "Mozilla/5.0 (Windows NT 10.0; Win64; x64) AppleWebKit/537.36 (KHTML, like Gecko) Chrome/116.0.0.0 Safari/537.36", "mode": "live", "id": "w71155327:a89363496", "status": "user data saved", "Beginhit": "2023-08-30 09:48:17.348807", "Beginexp": "2023-08-30 09:48:49.684935", "Endhit": "2023-08-30 10:30:29.765722", "psiturkStatus": 3, "browser": "<redacted>", "platform": "windows", "language": "en-US"}