{"condition": 0, "counterbalance": 0, "assignmentId": "a45029634", "workerId": "w77797645", "hitId": "h86241455", "currenttrial": 61, "bonus": 0, "data": [{"uniqueid": "w77797645:a45029634", "current_trial": 0, "dateTime": 1691144757426, "trialdata": {"success": true, "trial_type": "fullscreen", "trial_index": 0, "time_elapsed": 1410821, "internal_node_id": "0.0-0.0"}}, {"uniqueid": "w77797645:a45029634", "current_trial": 1, "dateTime": 1691144759423, "trialdata": {"view_history": [{"page_index": 0, "viewing_time": 1991}], "rt": 1992, "trial_id": "exp_instructions_control", "trial_type": "instructions", "trial_index": 1, "time_elapsed": 1412819, "internal_node_id": "0.0-1.0"}}, {"uniqueid": "w77797645:a45029634", "current_trial": 2, "dateTime": 1691144763688, "trialdata": {"success": true, "trial_type": "fullscreen", "trial_index": 2, "time_elapsed": 1417084, "internal_node_id": "0.0-2.0-0.0"}}, {"uniqueid": "w77797645:a45029634", "current_trial": 3, "dateTime": 1691145006663, "trialdata": {"view_history": [{"page_index": 0, "viewing_time": 78317}, {"page_index": 1, "viewing_time": 17906}, {"page_index": 0, "viewing_time": 10657}, {"page_index": 1, "viewing_time": 58063}, {"page_index": 2, "viewing_time": 27059}, {"page_index": 3, "viewing_time": 50968}], "rt": 242971, "trial_id": "mouselab_instructions_1_control", "trial_type": "instructions", "trial_index": 3, "time_elapsed": 1660059, "internal_node_id": "0.0-2.0-1.0"}}, {"uniqueid": "w77797645:a45029634", "current_trial": 4, "dateTime": 1691145031731, "trialdata": {"revealed_states": [], "clicked_states": ["23"], "num_clicks_accrued": [0, 0, 0, 0, 0, 0, 0, 0, 0, 0, 0, 0, 0], "stateRewards": ["", 10, -10, 10, 10, -10, 10, -10, 10, -10, -10, -10, 10, -10, 10, 10, 10, -10, 10, 10, 10, -10, -10, -10, 10, 10, -10, -10, 10, 10, -10, 10, -10, -10], "withholdReward": false, "trial_id": "practice_1", "block": "test", "trialIndex": 0, "score": -7, "costs": -0.5, "simulationMode": [null, null, null, null, null], "rewards": [-10, 10, 10, -10, -10], "path": ["0", "0", "23", "24", "25", "30", "32"], "rt": [4490, 4609, 833, 403, 249], "actions": ["left", "left", "left", "down", "down"], "actionTimes": [6229, 11364, 12715, 13627, 14399], "queries": {"click": {"state": {"target": ["23"], "time": [4559]}, "edge": {"target": [], "time": []}}, "mouseover": {"state": {"target": ["23", "0", "12", "0"], "time": [3018, 5490, 5769, 6167]}, "edge": {"target": [], "time": []}}, "mouseout": {"state": {"target": ["25", "28", "0", "23", "0", "12", "0", "23", "24", "31", "0", "0", "12", "19", "21"], "time": [86, 642, 2592, 5466, 5663, 6144, 6193, 7295, 8708, 16747, 17598, 21122, 21197, 21351, 23203]}, "edge": {"target": [], "time": []}}}, "displayed_time": "14.90", "trialTime": 24065, "trial_type": "mouselab-mdp", "trial_index": 4, "time_elapsed": 1685125, "internal_node_id": "0.0-2.0-2.0-0.0"}}, {"uniqueid": "w77797645:a45029634", "current_trial": 5, "dateTime": 1691145047570, "trialdata": {"revealed_states": [], "clicked_states": [], "num_clicks_accrued": [0, 0, 0, 0, 0, 0, 0, 0, 0, 0, 0, 0, 0], "stateRewards": ["", -10, -10, -10, -10, 10, -10, -10, 10, 10, 10, 10, -10, 10, -10, -10, 10, -10, 10, 10, -10, -10, 10, 10, -10, -10, 10, 10, 10, 10, -10, -10, 10, 10], "withholdReward": false, "trial_id": "practice_2", "block": "test", "trialIndex": 1, "score": 13.5, "costs": 0, "simulationMode": [null, null, null, null, null], "rewards": [-10, 10, -10, 10, 10], "path": ["0", "0", "12", "13", "14", "19", "22"], "rt": [2503, 538, 4707, 459, 336], "actions": ["right", "right", "right", "down", "left"], "actionTimes": [4954, 5997, 11204, 12182, 13022], "queries": {"click": {"state": {"target": [], "time": []}, "edge": {"target": [], "time": []}}, "mouseover": {"state": {"target": [], "time": []}, "edge": {"target": [], "time": []}}, "mouseout": {"state": {"target": ["24", "23", "0"], "time": [769, 1455, 3448]}, "edge": {"target": [], "time": []}}}, "displayed_time": "13.55", "trialTime": 15349, "trial_type": "mouselab-mdp", "trial_index": 5, "time_elapsed": 1700965, "internal_node_id": "0.0-2.0-2.0-1.0"}}, {"uniqueid": "w77797645:a45029634", "current_trial": 6, "dateTime": 1691145084400, "trialdata": {"view_history": [{"page_index": 0, "viewing_time": 22989}, {"page_index": 1, "viewing_time": 13834}], "rt": 36823, "trial_id": "mouselab_instructions_2_control", "trial_type": "instructions", "trial_index": 6, "time_elapsed": 1737796, "internal_node_id": "0.0-2.0-3.0"}}, {"uniqueid": "w77797645:a45029634", "current_trial": 7, "dateTime": 1691145130238, "trialdata": {"rt": 45832, "response": {"Q0": "The cost for clicking on nodes may vary between nodes.", "Q1": "The better I perform the higher my bonus will be.", "Q2": "No, the amount of cash at each node of the web may be different each time.", "Q3": "To get the highest total score.", "Q4": "Any time during the round.", "Q5": "3 seconds"}, "question_order": [0, 1, 2, 3, 4, 5], "correct": {"Q0": "The cost for clicking on nodes may vary between nodes.", "Q1": "The better I perform the higher my bonus will be.", "Q2": "No, the amount of cash at each node of the web may be different each time.", "Q3": "To get the highest total score.", "Q4": "Only before moving the spider.", "Q5": "3 seconds"}, "trial_id": "mouselab_quiz_control", "trial_type": "survey-multi-choice", "trial_index": 7, "time_elapsed": 1783633, "internal_node_id": "0.0-2.0-4.0"}}, {"uniqueid": "w77797645:a45029634", "current_trial": 8, "dateTime": 1691145136455, "trialdata": {"success": true, "trial_type": "fullscreen", "trial_index": 8, "time_elapsed": 1789851, "internal_node_id": "0.0-2.1-0.1"}}, {"uniqueid": "w77797645:a45029634", "current_trial": 9, "dateTime": 1691145181443, "trialdata": {"view_history": [{"page_index": 0, "viewing_time": 7530}, {"page_index": 1, "viewing_time": 11130}, {"page_index": 2, "viewing_time": 17458}, {"page_index": 3, "viewing_time": 8864}], "rt": 44983, "trial_id": "mouselab_instructions_1_control", "trial_type": "instructions", "trial_index": 9, "time_elapsed": 1834839, "internal_node_id": "0.0-2.1-1.1"}}, {"uniqueid": "w77797645:a45029634", "current_trial": 10, "dateTime": 1691145200125, "trialdata": {"revealed_states": [], "clicked_states": ["12", "23"], "num_clicks_accrued": [0, 0, 0, 0, 0, 0, 0, 0, 0, 0, 0, 0, 0], "stateRewards": ["", 10, -10, 10, 10, -10, 10, -10, 10, -10, -10, -10, 10, -10, 10, 10, 10, -10, 10, 10, 10, -10, -10, -10, 10, 10, -10, -10, 10, 10, -10, 10, -10, -10], "withholdReward": false, "trial_id": "practice_1", "block": "test", "trialIndex": 2, "score": 12.5, "costs": -1, "simulationMode": [null, null, null, null, null], "rewards": [10, -10, 10, 10, -10], "path": ["0", "0", "12", "13", "14", "19", "21"], "rt": [6285, 3713, 193, 92, 74], "actions": ["right", "right", "right", "down", "down"], "actionTimes": [8595, 12814, 13530, 14151, 14755], "queries": {"click": {"state": {"target": ["12", "23"], "time": [5019, 6477]}, "edge": {"target": [], "time": []}}, "mouseover": {"state": {"target": ["23", "1", "1", "12", "13", "0", "23", "0"], "time": [2928, 3525, 3919, 4825, 5674, 6128, 6196, 7199]}, "edge": {"target": [], "time": []}}, "mouseout": {"state": {"target": ["0", "23", "1", "1", "12", "13", "12", "0", "23", "0", "12", "12", "13", "12"], "time": [2850, 3301, 3621, 4626, 5222, 6098, 6123, 6153, 6949, 7323, 7626, 9000, 15631, 15676]}, "edge": {"target": [], "time": []}}}, "displayed_time": "15.28", "trialTime": 18178, "trial_type": "mouselab-mdp", "trial_index": 10, "time_elapsed": 1853520, "internal_node_id": "0.0-2.1-2.1-0.1"}}, {"uniqueid": "w77797645:a45029634", "current_trial": 11, "dateTime": 1691145222585, "trialdata": {"revealed_states": [], "clicked_states": ["1", "23"], "num_clicks_accrued": [0, 0, 0, 0, 0, 0, 0, 0, 0, 0, 0, 0, 0], "stateRewards": ["", -10, -10, -10, -10, 10, -10, -10, 10, 10, 10, 10, -10, 10, -10, -10, 10, -10, 10, 10, -10, -10, 10, 10, -10, -10, 10, 10, 10, 10, -10, -10, 10, 10], "withholdReward": false, "trial_id": "practice_2", "block": "test", "trialIndex": 3, "score": -7.5, "costs": -1, "simulationMode": [null, null, null, null, null], "rewards": [10, -10, -10, -10, 10], "path": ["0", "0", "23", "24", "25", "30", "32"], "rt": [7808, 6929, 1174, 193, 169], "actions": ["left", "left", "left", "down", "down"], "actionTimes": [9630, 17096, 18793, 19491, 20187], "queries": {"click": {"state": {"target": ["1", "23"], "time": [5155, 7596]}, "edge": {"target": [], "time": []}}, "mouseover": {"state": {"target": ["1", "1", "23", "0"], "time": [2987, 3864, 7361, 8210]}, "edge": {"target": [], "time": []}}, "mouseout": {"state": {"target": ["0", "1", "1", "1", "23", "0", "23", "24", "25", "24", "31"], "time": [2813, 3487, 5268, 7184, 8164, 8538, 10063, 14964, 16118, 20796, 21219]}, "edge": {"target": [], "time": []}}}, "displayed_time": "20.72", "trialTime": 21994, "trial_type": "mouselab-mdp", "trial_index": 11, "time_elapsed": 1875980, "internal_node_id": "0.0-2.1-2.1-1.1"}}, {"uniqueid": "w77797645:a45029634", "current_trial": 12, "dateTime": 1691145250251, "trialdata": {"view_history": [{"page_index": 0, "viewing_time": 26043}, {"page_index": 1, "viewing_time": 1616}], "rt": 27660, "trial_id": "mouselab_instructions_2_control", "trial_type": "instructions", "trial_index": 12, "time_elapsed": 1903647, "internal_node_id": "0.0-2.1-3.1"}}, {"uniqueid": "w77797645:a45029634", "current_trial": 13, "dateTime": 1691145289480, "trialdata": {"rt": 39226, "response": {"Q0": "The cost for clicking on nodes may vary between nodes.", "Q1": "The better I perform the higher my bonus will be.", "Q2": "No, the amount of cash at each node of the web may be different each time.", "Q3": "To get the highest total score.", "Q4": "Only before moving the spider.", "Q5": "3 seconds"}, "question_order": [0, 1, 2, 3, 4, 5], "correct": {"Q0": "The cost for clicking on nodes may vary between nodes.", "Q1": "The better I perform the higher my bonus will be.", "Q2": "No, the amount of cash at each node of the web may be different each time.", "Q3": "To get the highest total score.", "Q4": "Only before moving the spider.", "Q5": "3 seconds"}, "trial_id": "mouselab_quiz_control", "trial_type": "survey-multi-choice", "trial_index": 13, "time_elapsed": 1942876, "internal_node_id": "0.0-2.1-4.1"}}, {"uniqueid": "w77797645:a45029634", "current_trial": 14, "dateTime": 1691145307935, "trialdata": {"rt": 18445, "stimulus": "\n<h1> Get ready to start the game! </h1>\n\nThank you for reading the instructions. Get ready start with the 40 rounds of this game.\n<br><br>\nIf you need to take a break, feel free to take one after the end of a round, before continuing to the next one.\n<br><br>\nRemember, the more money the spider gets, the bigger your bonus will be!\n<br><br>\n<div style='text-align: center;'>Press <code>space</code> to begin.</div>\n\n<br><br>\n(If, at any point, the <code>space</code> key does not take you to the next page, click once on the text and try again.)", "response": " ", "trial_id": "mdp_ready", "trial_type": "html-keyboard-response", "trial_index": 14, "time_elapsed": 1961331, "internal_node_id": "0.0-4.0-0.0"}}, {"uniqueid": "w77797645:a45029634", "current_trial": 15, "dateTime": 1691145326047, "trialdata": {"revealed_states": [], "clicked_states": ["12", "13"], "num_clicks_accrued": [0, 0, 0, 0, 0, 0, 0, 0, 0, 0, 0, 0, 0], "stateRewards": ["", -2, -4, -8, 8, 63, -50, -19, -7, -17, -31, 31, 1, 3, -5, 12, -35, -63, -29, -4, -17, -75, -79, -2, -3, -2, 8, -3, -85, 10, -2, -82, -82, 56], "withholdReward": false, "trial_id": "mdp_trial_1", "block": "test", "trialIndex": 4, "score": -82.8, "costs": -2.8, "simulationMode": [null, null, null, null, null], "rewards": [1, 3, -5, -4, -75], "path": ["0", "0", "12", "13", "14", "19", "21"], "rt": [5095, 447, 1556, 166, 194], "actions": ["right", "right", "right", "down", "down"], "actionTimes": [7065, 8007, 10088, 10751, 11477], "queries": {"click": {"state": {"target": ["12", "13"], "time": [2889, 4736]}, "edge": {"target": [], "time": []}}, "mouseover": {"state": {"target": ["12", "13"], "time": [2626, 3460]}, "edge": {"target": [], "time": []}}, "mouseout": {"state": {"target": ["26", "23", "0", "12", "12", "13", "14"], "time": [978, 1278, 2477, 3032, 3435, 8808, 12563]}, "edge": {"target": [], "time": []}}}, "displayed_time": "15.97", "trialTime": 17610, "trial_type": "mouselab-mdp", "trial_index": 15, "time_elapsed": 1979442, "internal_node_id": "0.0-4.0-1.0-0.0"}}, {"uniqueid": "w77797645:a45029634", "current_trial": 16, "dateTime": 1691145348453, "trialdata": {"revealed_states": [], "clicked_states": ["23", "12", "13", "1", "24"], "num_clicks_accrued": [0, 0, 0, 0, 0, 0, 0, 0, 0, 0, 0, 0, 0], "stateRewards": ["", -1, -4, -1, -11, 43, 69, 39, 4, 17, -20, -82, -2, -1, 4, 8, -79, 24, -79, 11, 36, 64, 41, 2, 4, -1, 11, -79, -47, 75, -3, 63, -36, -19], "withholdReward": false, "trial_id": "mdp_trial_2", "block": "test", "trialIndex": 5, "score": -41, "costs": -7, "simulationMode": [null, null, null, null, null], "rewards": [2, 4, -1, -3, -36], "path": ["0", "0", "23", "24", "25", "30", "32"], "rt": [13079, 97, 2366, 242, 100], "actions": ["left", "left", "left", "down", "down"], "actionTimes": [14634, 15262, 18138, 18889, 19515], "queries": {"click": {"state": {"target": ["23", "12", "13", "1", "24"], "time": [2418, 5736, 7441, 9718, 11364]}, "edge": {"target": [], "time": []}}, "mouseover": {"state": {"target": ["23", "24", "28", "12", "13", "14", "1", "24", "25"], "time": [2108, 3228, 5057, 5478, 6683, 8856, 9434, 10835, 11933]}, "edge": {"target": [], "time": []}}, "mouseout": {"state": {"target": ["0", "23", "24", "28", "23", "12", "13", "14", "1", "24", "25", "30", "25", "28"], "time": [2080, 3078, 4881, 5233, 5430, 6330, 8629, 9159, 10258, 11905, 16587, 17366, 17582, 17911]}, "edge": {"target": [], "time": []}}}, "displayed_time": "20.04", "trialTime": 21935, "trial_type": "mouselab-mdp", "trial_index": 16, "time_elapsed": 2001847, "internal_node_id": "0.0-4.0-1.0-1.0"}}, {"uniqueid": "w77797645:a45029634", "current_trial": 17, "dateTime": 1691145376480, "trialdata": {"revealed_states": [], "clicked_states": ["12", "1", "13", "14", "23", "24", "25", "30", "32"], "num_clicks_accrued": [0, 0, 0, 0, 0, 0, 0, 0, 0, 0, 0, 0, 0], "stateRewards": ["", -1, 2, -2, 13, -56, -28, 10, 14, 53, -80, -29, 1, -3, -3, -14, 14, 9, -40, -9, 18, 18, 48, 1, 1, 1, -9, 64, -39, -9, 7, -52, -78, 7], "withholdReward": false, "trial_id": "mdp_trial_3", "block": "test", "trialIndex": 6, "score": 4.399999999999999, "costs": -12.600000000000001, "simulationMode": [null, null, null, null, null], "rewards": [1, 1, 1, 7, 7], "path": ["0", "0", "23", "24", "25", "30", "33"], "rt": [18838, 174, 371, 545, 283], "actions": ["left", "left", "left", "down", "left"], "actionTimes": [21261, 21969, 22868, 23920, 24706], "queries": {"click": {"state": {"target": ["12", "1", "13", "14", "23", "24", "25", "30", "32"], "time": [4509, 6326, 8301, 10318, 12265, 13820, 15569, 17744, 19589]}, "edge": {"target": [], "time": []}}, "mouseover": {"state": {"target": ["12", "13", "1", "1", "13", "14", "19", "24", "23", "24", "25", "30", "32"], "time": [3889, 4936, 5886, 6161, 6961, 9088, 11189, 11989, 12095, 12940, 14342, 16349, 18316]}, "edge": {"target": [], "time": []}}, "mouseout": {"state": {"target": ["0", "12", "13", "1", "1", "1", "13", "14", "19", "24", "23", "24", "25", "30", "32"], "time": [3440, 4788, 5849, 6086, 6429, 6791, 8941, 10891, 11621, 12068, 12740, 14289, 16265, 18267, 21098]}, "edge": {"target": [], "time": []}}}, "displayed_time": "25.23", "trialTime": 27537, "trial_type": "mouselab-mdp", "trial_index": 17, "time_elapsed": 2029875, "internal_node_id": "0.0-4.0-1.0-2.0"}}, {"uniqueid": "w77797645:a45029634", "current_trial": 18, "dateTime": 1691145398559, "trialdata": {"revealed_states": [], "clicked_states": ["23", "12", "24", "13"], "num_clicks_accrued": [0, 0, 0, 0, 0, 0, 0, 0, 0, 0, 0, 0, 0], "stateRewards": ["", 1, -4, -6, 11, -20, 8, -30, 1, -38, 88, 42, 2, 3, 5, -12, -8, -74, 30, -8, 67, -19, 42, 2, -1, 4, 13, 50, -68, 2, -8, -15, 87, -46], "withholdReward": false, "trial_id": "mdp_trial_4", "block": "test", "trialIndex": 7, "score": 63.4, "costs": -5.6, "simulationMode": [null, null, null, null, null], "rewards": [2, 3, 5, -8, 67], "path": ["0", "0", "12", "13", "14", "19", "20"], "rt": [11297, 37, 2595, 329, 109], "actions": ["right", "right", "right", "down", "right"], "actionTimes": [13154, 13703, 16835, 17670, 18301], "queries": {"click": {"state": {"target": ["23", "12", "24", "13"], "time": [3408, 5366, 7774, 10472]}, "edge": {"target": [], "time": []}}, "mouseover": {"state": {"target": ["0", "23", "24", "12", "12", "0", "24", "25", "0", "12", "13"], "time": [1932, 2737, 4184, 4559, 4765, 5909, 7639, 9590, 9987, 10062, 10261]}, "edge": {"target": [], "time": []}}, "mouseout": {"state": {"target": ["0", "0", "23", "24", "23", "12", "12", "0", "23", "24", "25", "24", "0", "12", "13", "14", "19", "14", "22"], "time": [1334, 2362, 3860, 4484, 4534, 4584, 5885, 5960, 6112, 9390, 9916, 9944, 10012, 10168, 13514, 15813, 16643, 16690, 20067]}, "edge": {"target": [], "time": []}}}, "displayed_time": "18.82", "trialTime": 21603, "trial_type": "mouselab-mdp", "trial_index": 18, "time_elapsed": 2051954, "internal_node_id": "0.0-4.0-1.0-3.0"}}, {"uniqueid": "w77797645:a45029634", "current_trial": 19, "dateTime": 1691145437044, "trialdata": {"revealed_states": [], "clicked_states": ["12", "23", "24", "25", "30", "1", "13", "14", "19", "22", "20", "21"], "num_clicks_accrued": [0, 0, 0, 0, 0, 0, 0, 0, 0, 0, 0, 0, 0], "stateRewards": ["", -2, 1, -7, -8, -37, -76, -87, 11, 30, -63, 80, -1, 4, 2, -1, 42, 17, 52, -3, -75, -80, -68, 2, -3, -5, -15, -48, 82, 24, -7, 5, -22, -71], "withholdReward": false, "trial_id": "mdp_trial_5", "block": "test", "trialIndex": 8, "score": -24.8, "costs": -16.8, "simulationMode": [null, null, null, null, null], "rewards": [2, -3, -5, -7, 5], "path": ["0", "0", "23", "24", "25", "30", "31"], "rt": [30287, 211, 156, 496, 469], "actions": ["left", "left", "left", "down", "right"], "actionTimes": [31817, 32545, 33234, 34232, 35197], "queries": {"click": {"state": {"target": ["12", "23", "24", "25", "30", "1", "13", "14", "19", "22", "20", "21"], "time": [2884, 4938, 7447, 9372, 11340, 13276, 16060, 18048, 20394, 22340, 24583, 26997]}, "edge": {"target": [], "time": []}}, "mouseover": {"state": {"target": ["0", "12", "0", "23", "24", "25", "30", "31", "1", "2", "13", "13", "14", "19", "22", "20", "21", "22"], "time": [2145, 2393, 3519, 3745, 6846, 8046, 10543, 12095, 12745, 14597, 15575, 15949, 16747, 20195, 21821, 24375, 26703, 29452]}, "edge": {"target": [], "time": []}}, "mouseout": {"state": {"target": ["0", "0", "12", "0", "23", "24", "25", "30", "31", "1", "2", "13", "13", "14", "19", "22", "19", "20", "21", "22"], "time": [1944, 2173, 3444, 3547, 6646, 8042, 10493, 12043, 12147, 14320, 15398, 15600, 16695, 19970, 21722, 23623, 24303, 26577, 29403, 29508]}, "edge": {"target": [], "time": []}}}, "displayed_time": "35.73", "trialTime": 38037, "trial_type": "mouselab-mdp", "trial_index": 19, "time_elapsed": 2090439, "internal_node_id": "0.0-4.0-1.0-4.0"}}, {"uniqueid": "w77797645:a45029634", "current_trial": 20, "dateTime": 1691145466078, "trialdata": {"revealed_states": [], "clicked_states": ["1", "23", "12", "2", "3", "8", "4", "11"], "num_clicks_accrued": [0, 0, 0, 0, 0, 0, 0, 0, 0, 0, 0, 0, 0], "stateRewards": ["", 2, 4, -5, 7, 81, 35, 6, 11, 14, -72, 42, -1, 2, 3, -7, -77, -44, -40, -15, -85, 51, -32, -2, -1, -5, 7, -74, 47, 52, 16, -49, 48, -46], "withholdReward": false, "trial_id": "mdp_trial_6", "block": "test", "trialIndex": 9, "score": 42.8, "costs": -11.200000000000001, "simulationMode": [null, null, null, null, null], "rewards": [2, 4, -5, 11, 42], "path": ["0", "0", "1", "2", "3", "8", "11"], "rt": [21906, 20, 17, 164, 390], "actions": ["up", "up", "up", "left", "left"], "actionTimes": [23335, 23864, 24441, 25109, 26028], "queries": {"click": {"state": {"target": ["1", "23", "12", "2", "3", "8", "4", "11"], "time": [2671, 4768, 7300, 10374, 12768, 15640, 17577, 20135]}, "edge": {"target": [], "time": []}}, "mouseover": {"state": {"target": ["1", "23", "0", "12", "10", "2", "7", "2", "10", "3", "8", "10", "8", "4", "3", "11", "8"], "time": [2437, 3337, 6798, 7038, 9737, 10069, 10110, 10160, 11462, 12416, 14924, 15142, 15443, 16816, 18515, 19941, 21193]}, "edge": {"target": [], "time": []}}, "mouseout": {"state": {"target": ["0", "1", "23", "0", "12", "12", "10", "2", "7", "2", "10", "3", "8", "10", "8", "3", "4", "3", "8", "11", "8", "8", "10", "23"], "time": [660, 3236, 6761, 6889, 9241, 9589, 10040, 10088, 10135, 11089, 12341, 14908, 15117, 15393, 16638, 16763, 18492, 18965, 19870, 20841, 22169, 27247, 27296, 27572]}, "edge": {"target": [], "time": []}}}, "displayed_time": "26.55", "trialTime": 28552, "trial_type": "mouselab-mdp", "trial_index": 20, "time_elapsed": 2119473, "internal_node_id": "0.0-4.0-1.0-5.0"}}, {"uniqueid": "w77797645:a45029634", "current_trial": 21, "dateTime": 1691145490879, "trialdata": {"revealed_states": [], "clicked_states": ["1", "2", "10", "3", "4", "7", "5"], "num_clicks_accrued": [0, 0, 0, 0, 0, 0, 0, 0, 0, 0, 0, 0, 0], "stateRewards": ["", 1, 3, -2, 15, 51, 15, -19, 11, 67, -45, -73, 2, 4, -2, -13, 36, 9, -28, 10, -30, 31, 16, 1, 2, -1, -16, 14, -22, 36, -1, 88, -5, 45], "withholdReward": false, "trial_id": "mdp_trial_7", "block": "test", "trialIndex": 10, "score": 58.2, "costs": -9.8, "simulationMode": [null, null, null, null, null], "rewards": [1, 3, -2, 15, 51], "path": ["0", "0", "1", "2", "3", "4", "5"], "rt": [17812, 46, 132, 151, 135], "actions": ["up", "up", "up", "right", "up"], "actionTimes": [19117, 19684, 20319, 20967, 21623], "queries": {"click": {"state": {"target": ["1", "2", "10", "3", "4", "7", "5"], "time": [2992, 5207, 7339, 9655, 11856, 13992, 16418]}, "edge": {"target": [], "time": []}}, "mouseover": {"state": {"target": ["1", "2", "10", "3", "4", "7", "5", "4"], "time": [2656, 4982, 6877, 9287, 11004, 12755, 16211, 18522]}, "edge": {"target": [], "time": []}}, "mouseout": {"state": {"target": ["23", "0", "1", "2", "10", "10", "10", "3", "4", "7", "5", "4"], "time": [628, 1757, 3731, 5293, 7355, 8281, 9259, 10805, 12359, 15986, 18413, 22089]}, "edge": {"target": [], "time": []}}}, "displayed_time": "22.14", "trialTime": 24260, "trial_type": "mouselab-mdp", "trial_index": 21, "time_elapsed": 2144274, "internal_node_id": "0.0-4.0-1.0-6.0"}}, {"uniqueid": "w77797645:a45029634", "current_trial": 22, "dateTime": 1691145515303, "trialdata": {"revealed_states": [], "clicked_states": ["1", "2", "3", "4", "8", "7"], "num_clicks_accrued": [0, 0, 0, 0, 0, 0, 0, 0, 0, 0, 0, 0, 0], "stateRewards": ["", 2, 3, -3, 4, 72, -28, 34, -12, 57, -64, -15, 2, 1, -4, -15, 2, 49, 31, -1, -42, -58, 31, -2, 1, -2, -13, -75, -19, -22, -6, 61, 10, -56], "withholdReward": false, "trial_id": "mdp_trial_8", "block": "test", "trialIndex": 11, "score": 31.6, "costs": -8.4, "simulationMode": [null, null, null, null, null], "rewards": [2, 3, -3, 4, 34], "path": ["0", "0", "1", "2", "3", "4", "7"], "rt": [16716, 210, 589, 128, 164], "actions": ["up", "up", "up", "right", "down"], "actionTimes": [18218, 18954, 20056, 20672, 21356], "queries": {"click": {"state": {"target": ["1", "2", "3", "4", "8", "7"], "time": [2571, 5232, 7995, 10335, 12852, 15404]}, "edge": {"target": [], "time": []}}, "mouseover": {"state": {"target": ["1", "12", "2", "3", "3", "4", "8", "10", "7", "2"], "time": [2211, 4766, 4967, 7350, 7809, 10114, 12411, 14061, 15119, 16236]}, "edge": {"target": [], "time": []}}, "mouseout": {"state": {"target": ["3", "2", "1", "0", "1", "1", "12", "2", "2", "3", "3", "3", "4", "4", "3", "8", "10", "7", "2", "2"], "time": [484, 657, 759, 1516, 3334, 4737, 4913, 5300, 7312, 7608, 8016, 9436, 10447, 12289, 12388, 13711, 15016, 16186, 17350, 23169]}, "edge": {"target": [], "time": []}}}, "displayed_time": "21.87", "trialTime": 23929, "trial_type": "mouselab-mdp", "trial_index": 22, "time_elapsed": 2168698, "internal_node_id": "0.0-4.0-1.0-7.0"}}, {"uniqueid": "w77797645:a45029634", "current_trial": 23, "dateTime": 1691145547704, "trialdata": {"revealed_states": [], "clicked_states": ["23", "24", "25", "26", "28", "27", "29", "30", "31", "33"], "num_clicks_accrued": [0, 0, 0, 0, 0, 0, 0, 0, 0, 0, 0, 0, 0], "stateRewards": ["", 2, -4, 4, 9, 69, 9, -75, 12, -86, 66, 25, -1, 3, 2, -13, -88, -3, 1, 4, -69, 49, -84, 2, -1, 4, 2, -18, -81, -52, -15, -69, -54, 25], "withholdReward": false, "trial_id": "mdp_trial_9", "block": "test", "trialIndex": 12, "score": 1, "costs": -14.000000000000002, "simulationMode": [null, null, null, null, null], "rewards": [2, -1, 4, -15, 25], "path": ["0", "0", "23", "24", "25", "30", "33"], "rt": [24881, 43, 187, 178, 248], "actions": ["left", "left", "left", "down", "left"], "actionTimes": [27278, 27868, 28609, 29276, 30070], "queries": {"click": {"state": {"target": ["23", "24", "25", "26", "28", "27", "29", "30", "31", "33"], "time": [3822, 6193, 8279, 10333, 12700, 15165, 17438, 19828, 22261, 24703]}, "edge": {"target": [], "time": []}}, "mouseover": {"state": {"target": ["23", "24", "23", "24", "24", "25", "26", "28", "27", "29", "25", "30", "31", "33", "33", "30"], "time": [3021, 3264, 3616, 5724, 5992, 7562, 9162, 12468, 14868, 17145, 19474, 19545, 21969, 24257, 24523, 25468]}, "edge": {"target": [], "time": []}}, "mouseout": {"state": {"target": ["24", "0", "23", "24", "23", "24", "24", "25", "26", "28", "27", "29", "25", "30", "31", "30", "33", "33", "30"], "time": [1260, 2991, 3059, 3590, 5715, 5766, 7462, 8640, 12418, 14718, 17074, 18591, 19490, 21921, 24197, 24247, 24276, 25444, 25520]}, "edge": {"target": [], "time": []}}}, "displayed_time": "30.60", "trialTime": 31924, "trial_type": "mouselab-mdp", "trial_index": 23, "time_elapsed": 2201099, "internal_node_id": "0.0-4.0-1.0-8.0"}}, {"uniqueid": "w77797645:a45029634", "current_trial": 24, "dateTime": 1691145575062, "trialdata": {"revealed_states": [], "clicked_states": ["12", "13", "14", "19", "15", "18", "16", "17"], "num_clicks_accrued": [0, 0, 0, 0, 0, 0, 0, 0, 0, 0, 0, 0, 0], "stateRewards": ["", -1, -3, -5, -14, -13, -47, 79, 8, -60, -64, 41, -1, 2, 3, 13, -46, 61, -79, -11, -64, -65, 23, 1, -2, 6, -14, 46, 32, 21, 7, 75, -66, 15], "withholdReward": false, "trial_id": "mdp_trial_10", "block": "test", "trialIndex": 13, "score": 66.8, "costs": -11.200000000000001, "simulationMode": [null, null, null, null, null], "rewards": [-1, 2, 3, 13, 61], "path": ["0", "0", "12", "13", "14", "15", "17"], "rt": [19930, 421, 348, 465, 231], "actions": ["right", "right", "right", "up", "right"], "actionTimes": [21297, 22233, 23112, 24080, 24816], "queries": {"click": {"state": {"target": ["12", "13", "14", "19", "15", "18", "16", "17"], "time": [2361, 4410, 6875, 9200, 11704, 14091, 16487, 18759]}, "edge": {"target": [], "time": []}}, "mouseover": {"state": {"target": ["12", "13", "14", "19", "15", "18", "16", "15", "17"], "time": [2072, 3899, 6655, 8926, 11406, 13829, 16253, 17331, 18578]}, "edge": {"target": [], "time": []}}, "mouseout": {"state": {"target": ["24", "1", "0", "12", "13", "14", "14", "19", "19", "19", "14", "15", "18", "16", "15", "17"], "time": [175, 729, 2023, 2549, 6455, 6968, 8900, 9312, 10627, 11181, 11227, 13784, 16108, 17079, 17454, 19332]}, "edge": {"target": [], "time": []}}}, "displayed_time": "25.34", "trialTime": 26884, "trial_type": "mouselab-mdp", "trial_index": 24, "time_elapsed": 2228456, "internal_node_id": "0.0-4.0-1.0-9.0"}}, {"uniqueid": "w77797645:a45029634", "current_trial": 25, "dateTime": 1691145612427, "trialdata": {"revealed_states": [], "clicked_states": ["12", "23", "24", "25", "26", "30", "33", "31", "32"], "num_clicks_accrued": [0, 0, 0, 0, 0, 0, 0, 0, 0, 0, 0, 0, 0], "stateRewards": ["", 1, 1, -6, -2, 7, 77, 3, 16, -16, 66, 31, -1, 3, -8, -6, 33, -50, -48, 7, -60, -66, 36, 2, -3, 3, -7, -12, -61, -79, -4, 8, 74, -70], "withholdReward": false, "trial_id": "mdp_trial_11", "block": "test", "trialIndex": 14, "score": 59.4, "costs": -12.600000000000001, "simulationMode": [null, null, null, null, null], "rewards": [2, -3, 3, -4, 74], "path": ["0", "0", "23", "24", "25", "30", "32"], "rt": [25164, 50, 227, 183, 199], "actions": ["left", "left", "left", "down", "down"], "actionTimes": [26626, 27189, 27968, 28670, 29379], "queries": {"click": {"state": {"target": ["12", "23", "24", "25", "26", "30", "33", "31", "32"], "time": [4024, 6886, 9401, 11522, 13971, 16434, 20030, 22398, 24496]}, "edge": {"target": [], "time": []}}, "mouseover": {"state": {"target": ["12", "12", "13", "0", "23", "24", "25", "26", "25", "30", "31", "24", "1", "24", "33", "30", "31", "30", "32"], "time": [3380, 3804, 5301, 6606, 6680, 9232, 11076, 13577, 16084, 16207, 18526, 18579, 18954, 19381, 19892, 21905, 22232, 23583, 23912]}, "edge": {"target": [], "time": []}}, "mouseout": {"state": {"target": ["1", "12", "12", "12", "13", "0", "23", "24", "25", "26", "25", "30", "30", "31", "24", "1", "24", "33", "30", "31", "30", "32", "32", "23", "24", "25", "30", "32"], "time": [776, 3478, 4203, 4876, 6254, 6656, 9059, 9953, 13527, 15958, 16115, 17405, 18310, 18538, 18604, 19335, 19406, 21861, 22186, 23432, 23810, 25760, 29559, 30115, 32963, 33314, 33691, 34440]}, "edge": {"target": [], "time": []}}}, "displayed_time": "29.91", "trialTime": 36865, "trial_type": "mouselab-mdp", "trial_index": 25, "time_elapsed": 2265822, "internal_node_id": "0.0-4.0-1.0-10.0"}}, {"uniqueid": "w77797645:a45029634", "current_trial": 26, "dateTime": 1691145636353, "trialdata": {"revealed_states": [], "clicked_states": ["23", "24", "25", "26", "27", "28"], "num_clicks_accrued": [0, 0, 0, 0, 0, 0, 0, 0, 0, 0, 0, 0, 0], "stateRewards": ["", -1, -2, -8, 8, -27, -82, 19, -14, -62, 4, 1, -2, 2, 6, 10, 73, -51, -2, 2, 73, -48, 54, -1, 2, -4, 11, -25, 47, 86, 15, 33, 43, -42], "withholdReward": false, "trial_id": "mdp_trial_12", "block": "test", "trialIndex": 15, "score": 46.6, "costs": -8.4, "simulationMode": [null, null, null, null, null], "rewards": [-1, 2, -4, 11, 47], "path": ["0", "0", "23", "24", "25", "26", "28"], "rt": [16734, 95, 351, 276, 141], "actions": ["left", "left", "left", "up", "right"], "actionTimes": [18290, 18891, 19782, 20573, 21238], "queries": {"click": {"state": {"target": ["23", "24", "25", "26", "27", "28"], "time": [2560, 5121, 7576, 10449, 13152, 15681]}, "edge": {"target": [], "time": []}}, "mouseover": {"state": {"target": ["0", "23", "24", "30", "25", "26", "27", "28", "28", "26", "29"], "time": [2041, 2219, 4918, 6718, 7192, 9844, 12939, 15198, 15495, 16842, 17167]}, "edge": {"target": [], "time": []}}, "mouseout": {"state": {"target": ["31", "23", "0", "0", "23", "24", "30", "25", "25", "26", "27", "28", "28", "26", "29"], "time": [462, 963, 1035, 2087, 4642, 5938, 7148, 9237, 9769, 12769, 15171, 15218, 16817, 16967, 22701]}, "edge": {"target": [], "time": []}}}, "displayed_time": "21.75", "trialTime": 23391, "trial_type": "mouselab-mdp", "trial_index": 26, "time_elapsed": 2289748, "internal_node_id": "0.0-4.0-1.0-11.0"}}, {"uniqueid": "w77797645:a45029634", "current_trial": 27, "dateTime": 1691145668681, "trialdata": {"revealed_states": [], "clicked_states": ["1", "2", "3", "8", "4", "7", "5", "6"], "num_clicks_accrued": [0, 0, 0, 0, 0, 0, 0, 0, 0, 0, 0, 0, 0], "stateRewards": ["", -1, 1, 8, -3, -24, 11, -65, -6, -77, 48, 44, -2, 1, -2, -7, -55, -35, 33, 8, -28, 19, -53, -1, -1, -5, -5, -70, 10, 44, 8, -58, -70, 51], "withholdReward": false, "trial_id": "mdp_trial_13", "block": "test", "trialIndex": 16, "score": 4.799999999999999, "costs": -11.200000000000001, "simulationMode": [null, null, null, null, null], "rewards": [-1, 1, 8, -3, 11], "path": ["0", "0", "1", "2", "3", "4", "6"], "rt": [23181, 147, 98, 141, 195], "actions": ["up", "up", "up", "right", "right"], "actionTimes": [25663, 26334, 26958, 27647, 28330], "queries": {"click": {"state": {"target": ["1", "2", "3", "8", "4", "7", "5", "6"], "time": [4707, 6979, 10131, 12458, 15034, 18579, 20974, 23409]}, "edge": {"target": [], "time": []}}, "mouseover": {"state": {"target": ["23", "23", "1", "2", "10", "3", "8", "4", "3", "8", "11", "10", "7", "4", "5", "4", "6"], "time": [3002, 3406, 3802, 6823, 9299, 9880, 12155, 14660, 17186, 17414, 17501, 17857, 18409, 20609, 20730, 22820, 23165]}, "edge": {"target": [], "time": []}}, "mouseout": {"state": {"target": ["23", "23", "1", "2", "10", "3", "3", "8", "3", "4", "3", "8", "11", "10", "7", "4", "5", "4", "6", "1", "0"], "time": [3029, 3499, 6731, 9240, 9780, 10229, 12106, 14606, 14655, 17156, 17332, 17452, 17657, 18107, 18667, 20636, 21682, 22911, 30562, 31364, 31513]}, "edge": {"target": [], "time": []}}}, "displayed_time": "28.86", "trialTime": 31821, "trial_type": "mouselab-mdp", "trial_index": 27, "time_elapsed": 2322076, "internal_node_id": "0.0-4.0-1.0-12.0"}}, {"uniqueid": "w77797645:a45029634", "current_trial": 28, "dateTime": 1691145692865, "trialdata": {"revealed_states": [], "clicked_states": ["12", "13", "14", "15", "18", "16", "17"], "num_clicks_accrued": [0, 0, 0, 0, 0, 0, 0, 0, 0, 0, 0, 0, 0], "stateRewards": ["", 2, 4, -6, -13, -75, -81, 30, 7, 5, 59, -65, -1, -1, 7, 14, -38, 36, -41, 1, -54, -5, 64, 2, -1, 5, 6, -19, 79, 11, 16, -33, -50, 58], "withholdReward": false, "trial_id": "mdp_trial_14", "block": "test", "trialIndex": 17, "score": 45.2, "costs": -9.8, "simulationMode": [null, null, null, null, null], "rewards": [-1, -1, 7, 14, 36], "path": ["0", "0", "12", "13", "14", "15", "17"], "rt": [16976, 42, 311, 381, 155], "actions": ["right", "right", "right", "up", "right"], "actionTimes": [18301, 18854, 19698, 20575, 21221], "queries": {"click": {"state": {"target": ["12", "13", "14", "15", "18", "16", "17"], "time": [2388, 4580, 6613, 8841, 11462, 13691, 15813]}, "edge": {"target": [], "time": []}}, "mouseover": {"state": {"target": ["1", "12", "12", "13", "14", "15", "18", "16", "17"], "time": [1341, 1908, 2209, 4183, 6032, 7481, 11086, 13457, 15612]}, "edge": {"target": [], "time": []}}, "mouseout": {"state": {"target": ["0", "1", "12", "12", "13", "14", "15", "18", "16", "17", "17", "15", "18", "0"], "time": [520, 1808, 1962, 3954, 5808, 7158, 10985, 13390, 14811, 15833, 16984, 21610, 21687, 21940]}, "edge": {"target": [], "time": []}}}, "displayed_time": "21.74", "trialTime": 23647, "trial_type": "mouselab-mdp", "trial_index": 28, "time_elapsed": 2346260, "internal_node_id": "0.0-4.0-1.0-13.0"}}, {"uniqueid": "w77797645:a45029634", "current_trial": 29, "dateTime": 1691145717894, "trialdata": {"revealed_states": [], "clicked_states": ["12", "13", "14", "19", "15", "18", "16"], "num_clicks_accrued": [0, 0, 0, 0, 0, 0, 0, 0, 0, 0, 0, 0, 0], "stateRewards": ["", 2, -1, 4, -9, -43, 7, 54, -13, 38, -40, -83, -1, 2, -8, -10, 34, -33, 11, -14, -79, 65, 26, 1, 2, 4, 10, 21, 1, 86, 4, -53, 28, -29], "withholdReward": false, "trial_id": "mdp_trial_15", "block": "test", "trialIndex": 18, "score": 7.199999999999999, "costs": -9.8, "simulationMode": [null, null, null, null, null], "rewards": [-1, 2, -8, -10, 34], "path": ["0", "0", "12", "13", "14", "15", "16"], "rt": [18808, 3, 338, 137, 100], "actions": ["right", "right", "right", "up", "up"], "actionTimes": [20287, 20790, 21676, 22328, 22960], "queries": {"click": {"state": {"target": ["12", "13", "14", "19", "15", "18", "16"], "time": [2500, 5098, 7203, 9310, 12236, 14867, 17171]}, "edge": {"target": [], "time": []}}, "mouseover": {"state": {"target": ["23", "12", "13", "14", "19", "22", "14", "15", "18", "16", "15"], "time": [2015, 2126, 4906, 7007, 8510, 11429, 11884, 12059, 14459, 16886, 19561]}, "edge": {"target": [], "time": []}}, "mouseout": {"state": {"target": ["0", "23", "12", "13", "14", "19", "22", "14", "15", "18", "16", "15", "18"], "time": [602, 2052, 2901, 5676, 8229, 11383, 11784, 11959, 14336, 16735, 19361, 23334, 23539]}, "edge": {"target": [], "time": []}}}, "displayed_time": "23.47", "trialTime": 24516, "trial_type": "mouselab-mdp", "trial_index": 29, "time_elapsed": 2371289, "internal_node_id": "0.0-4.0-1.0-14.0"}}, {"uniqueid": "w77797645:a45029634", "current_trial": 30, "dateTime": 1691145743921, "trialdata": {"revealed_states": [], "clicked_states": ["23", "24", "25", "1", "2", "10", "8", "3"], "num_clicks_accrued": [0, 0, 0, 0, 0, 0, 0, 0, 0, 0, 0, 0, 0], "stateRewards": ["", -1, 3, -4, -14, 78, 67, 2, 13, -32, 28, 39, -2, 1, -4, -4, -4, -42, -86, 11, 64, -29, -32, -1, -4, 2, -7, 5, 68, -61, 2, -21, 85, 50], "withholdReward": false, "trial_id": "mdp_trial_16", "block": "test", "trialIndex": 19, "score": 27.799999999999997, "costs": -11.200000000000001, "simulationMode": [null, null, null, null, null], "rewards": [-1, 3, -4, 13, 28], "path": ["0", "0", "1", "2", "3", "8", "10"], "rt": [18978, 262, 145, 156, 147], "actions": ["up", "up", "up", "left", "down"], "actionTimes": [20479, 21235, 21894, 22581, 23243], "queries": {"click": {"state": {"target": ["23", "24", "25", "1", "2", "10", "8", "3"], "time": [2818, 4691, 6727, 9397, 11380, 13589, 15636, 17988]}, "edge": {"target": [], "time": []}}, "mouseover": {"state": {"target": ["1", "0", "23", "23", "24", "25", "1", "2", "10", "8", "3"], "time": [1519, 2185, 2309, 2614, 3084, 5389, 9142, 10663, 13368, 15344, 17771]}, "edge": {"target": [], "time": []}}, "mouseout": {"state": {"target": ["1", "0", "0", "1", "0", "23", "23", "24", "25", "24", "1", "2", "1", "2", "10", "8", "3", "8"], "time": [535, 761, 1515, 2141, 2234, 2365, 3062, 5365, 7911, 8791, 10563, 11964, 13143, 13269, 15219, 17620, 23819, 24148]}, "edge": {"target": [], "time": []}}}, "displayed_time": "23.78", "trialTime": 25493, "trial_type": "mouselab-mdp", "trial_index": 30, "time_elapsed": 2397316, "internal_node_id": "0.0-4.0-1.0-15.0"}}, {"uniqueid": "w77797645:a45029634", "current_trial": 31, "dateTime": 1691145790106, "trialdata": {"revealed_states": [], "clicked_states": ["12", "13", "14", "15", "19", "22", "21", "20", "18", "16", "17", "23", "24", "25", "30", "33"], "num_clicks_accrued": [0, 0, 0, 0, 0, 0, 0, 0, 0, 0, 0, 0, 0], "stateRewards": ["", -2, -3, 8, 14, -73, 73, 84, -12, -2, -50, -17, 2, 1, -2, -9, -44, -27, -33, 16, -63, -47, -66, -2, 1, 4, -5, -33, -11, 50, 9, 38, -79, 31], "withholdReward": false, "trial_id": "mdp_trial_17", "block": "test", "trialIndex": 20, "score": 20.600000000000005, "costs": -22.399999999999995, "simulationMode": [null, null, null, null, null], "rewards": [-2, 1, 4, 9, 31], "path": ["0", "0", "23", "24", "25", "30", "33"], "rt": [38073, 278, 189, 1070, 180], "actions": ["left", "left", "left", "down", "left"], "actionTimes": [39596, 40392, 41077, 42658, 43349], "queries": {"click": {"state": {"target": ["12", "13", "14", "15", "19", "22", "21", "20", "18", "16", "17", "23", "24", "25", "30", "33"], "time": [2433, 4557, 6805, 9292, 11838, 14260, 16406, 18427, 21589, 23615, 25666, 28598, 30521, 32471, 34575, 36839]}, "edge": {"target": [], "time": []}}, "mouseover": {"state": {"target": ["12", "13", "14", "15", "14", "19", "22", "21", "20", "14", "15", "18", "16", "17", "23", "24", "24", "25", "30", "33"], "time": [2149, 3070, 6252, 9057, 11429, 11551, 14029, 16154, 16828, 20832, 21131, 21334, 22329, 25378, 28309, 29430, 30193, 31188, 34409, 36564]}, "edge": {"target": [], "time": []}}, "mouseout": {"state": {"target": ["23", "0", "12", "12", "13", "14", "15", "14", "19", "22", "21", "20", "14", "15", "18", "16", "17", "17", "23", "24", "24", "25", "30", "30", "33", "33", "30", "31", "23"], "time": [670, 820, 2895, 3045, 4662, 6882, 11378, 11529, 12152, 14363, 16653, 20481, 21032, 21306, 22208, 25214, 25685, 27834, 29356, 29505, 31108, 34187, 34679, 36536, 38133, 38837, 41335, 42089, 44615]}, "edge": {"target": [], "time": []}}}, "displayed_time": "43.87", "trialTime": 45654, "trial_type": "mouselab-mdp", "trial_index": 31, "time_elapsed": 2443501, "internal_node_id": "0.0-4.0-1.0-16.0"}}, {"uniqueid": "w77797645:a45029634", "current_trial": 32, "dateTime": 1691145815566, "trialdata": {"revealed_states": [], "clicked_states": ["23", "24", "25", "30", "31", "33", "32"], "num_clicks_accrued": [0, 0, 0, 0, 0, 0, 0, 0, 0, 0, 0, 0, 0], "stateRewards": ["", 1, -1, 8, 4, 76, -33, -17, -3, -1, -54, -74, -2, 2, -5, 13, -51, 63, 83, 1, 84, 29, -36, 2, -1, 7, -12, -10, -44, -43, -14, 8, -69, 19], "withholdReward": false, "trial_id": "mdp_trial_18", "block": "test", "trialIndex": 21, "score": 3.1999999999999993, "costs": -9.8, "simulationMode": [null, null, null, null, null], "rewards": [2, -1, 7, -14, 19], "path": ["0", "0", "23", "24", "25", "30", "33"], "rt": [18613, 335, 143, 71, 196], "actions": ["left", "left", "left", "down", "left"], "actionTimes": [20347, 21220, 21858, 22459, 23202], "queries": {"click": {"state": {"target": ["23", "24", "25", "30", "31", "33", "32"], "time": [4376, 6355, 8236, 10279, 12436, 14776, 17714]}, "edge": {"target": [], "time": []}}, "mouseover": {"state": {"target": ["1", "7", "23", "24", "25", "30", "31", "33", "32"], "time": [2776, 2823, 4197, 5724, 7423, 9852, 12175, 14534, 17431]}, "edge": {"target": [], "time": []}}, "mouseout": {"state": {"target": ["31", "0", "1", "7", "23", "24", "25", "25", "30", "31", "30", "33", "33", "32", "33", "31"], "time": [798, 1819, 2804, 2872, 5346, 7349, 8553, 9703, 12105, 14455, 14506, 15451, 16834, 18528, 23604, 24459]}, "edge": {"target": [], "time": []}}}, "displayed_time": "23.74", "trialTime": 24948, "trial_type": "mouselab-mdp", "trial_index": 32, "time_elapsed": 2468961, "internal_node_id": "0.0-4.0-1.0-17.0"}}, {"uniqueid": "w77797645:a45029634", "current_trial": 33, "dateTime": 1691145838082, "trialdata": {"revealed_states": [], "clicked_states": ["12", "13", "14", "15", "18", "16", "17"], "num_clicks_accrued": [0, 0, 0, 0, 0, 0, 0, 0, 0, 0, 0, 0, 0], "stateRewards": ["", 1, -1, 1, -14, -10, 67, -28, -11, 72, 40, -65, -1, 1, 1, -2, 8, -55, 34, -10, 61, 33, -15, 2, -4, 7, 4, -75, 63, -21, -16, 61, 19, 21], "withholdReward": false, "trial_id": "mdp_trial_19", "block": "test", "trialIndex": 22, "score": 23.2, "costs": -9.8, "simulationMode": [null, null, null, null, null], "rewards": [-1, 1, 1, -2, 34], "path": ["0", "0", "12", "13", "14", "15", "18"], "rt": [16705, 3, 214, 299, 149], "actions": ["right", "right", "right", "up", "left"], "actionTimes": [17863, 18380, 19138, 19947, 20599], "queries": {"click": {"state": {"target": ["12", "13", "14", "15", "18", "16", "17"], "time": [2858, 4946, 7066, 9357, 11483, 13667, 15646]}, "edge": {"target": [], "time": []}}, "mouseover": {"state": {"target": ["12", "13", "14", "15", "18", "16", "17", "15"], "time": [2044, 3692, 6645, 9066, 11298, 13280, 14747, 16219]}, "edge": {"target": [], "time": []}}, "mouseout": {"state": {"target": ["0", "12", "13", "14", "15", "18", "16", "17", "15", "18"], "time": [1217, 3540, 6490, 9023, 11067, 12944, 14344, 16195, 16973, 21220]}, "edge": {"target": [], "time": []}}}, "displayed_time": "21.11", "trialTime": 21948, "trial_type": "mouselab-mdp", "trial_index": 33, "time_elapsed": 2491477, "internal_node_id": "0.0-4.0-1.0-18.0"}}, {"uniqueid": "w77797645:a45029634", "current_trial": 34, "dateTime": 1691145860615, "trialdata": {"revealed_states": [], "clicked_states": ["23", "24", "25", "26", "28", "27", "29"], "num_clicks_accrued": [0, 0, 0, 0, 0, 0, 0, 0, 0, 0, 0, 0, 0], "stateRewards": ["", 1, -2, -2, 10, -31, -77, 35, 9, -47, 8, 48, -2, 1, -4, -3, -26, -50, 43, -11, 76, -38, 17, 1, -1, 6, 10, 15, -9, 12, -8, 85, 11, -55], "withholdReward": false, "trial_id": "mdp_trial_20", "block": "test", "trialIndex": 23, "score": 21.2, "costs": -9.8, "simulationMode": [null, null, null, null, null], "rewards": [1, -1, 6, 10, 15], "path": ["0", "0", "23", "24", "25", "26", "27"], "rt": [15393, 198, 175, 230, 170], "actions": ["left", "left", "left", "up", "up"], "actionTimes": [16904, 17600, 18271, 19028, 19720], "queries": {"click": {"state": {"target": ["23", "24", "25", "26", "28", "27", "29"], "time": [2401, 4464, 6467, 8792, 10818, 12824, 14969]}, "edge": {"target": [], "time": []}}, "mouseover": {"state": {"target": ["23", "24", "25", "26", "28", "27", "29"], "time": [2037, 3263, 6072, 8595, 10291, 11603, 14722]}, "edge": {"target": [], "time": []}}, "mouseout": {"state": {"target": ["0", "23", "24", "24", "25", "26", "26", "28", "27", "29", "26"], "time": [1948, 3014, 5740, 6044, 8420, 9740, 10090, 11169, 14546, 20399, 21494]}, "edge": {"target": [], "time": []}}}, "displayed_time": "20.22", "trialTime": 21995, "trial_type": "mouselab-mdp", "trial_index": 34, "time_elapsed": 2514010, "internal_node_id": "0.0-4.0-1.0-19.0"}}, {"uniqueid": "w77797645:a45029634", "current_trial": 35, "dateTime": 1691145889104, "trialdata": {"revealed_states": [], "clicked_states": ["1", "2", "3", "8", "11", "9", "10"], "num_clicks_accrued": [0, 0, 0, 0, 0, 0, 0, 0, 0, 0, 0, 0, 0], "stateRewards": ["", 1, 1, 6, -14, -40, 37, 16, -13, 33, -68, 49, 2, 4, 3, 6, 55, 27, 32, 10, -65, 20, -87, 2, 1, -6, -5, -42, 12, 29, -8, 16, 76, -33], "withholdReward": false, "trial_id": "mdp_trial_21", "block": "test", "trialIndex": 24, "score": 34.2, "costs": -9.8, "simulationMode": [null, null, null, null, null], "rewards": [1, 1, 6, -13, 49], "path": ["0", "0", "1", "2", "3", "8", "11"], "rt": [17366, 211, 161, 118, 74], "actions": ["up", "up", "up", "left", "left"], "actionTimes": [18722, 19459, 20110, 20743, 21347], "queries": {"click": {"state": {"target": ["1", "2", "3", "8", "11", "9", "10"], "time": [2687, 4736, 7023, 9475, 11713, 14147, 16296]}, "edge": {"target": [], "time": []}}, "mouseover": {"state": {"target": ["23", "1", "2", "3", "10", "8", "11", "9", "8", "10", "8"], "time": [2094, 2365, 3665, 6871, 8872, 9291, 11398, 13444, 14918, 16100, 16644]}, "edge": {"target": [], "time": []}}, "mouseout": {"state": {"target": ["25", "24", "23", "0", "23", "1", "2", "3", "10", "8", "11", "9", "8", "10", "8", "11", "19", "26", "28", "23"], "time": [160, 491, 672, 2043, 2271, 3565, 4749, 8722, 9240, 11372, 12670, 14568, 15949, 16407, 16971, 22078, 23227, 27577, 27831, 27924]}, "edge": {"target": [], "time": []}}}, "displayed_time": "21.90", "trialTime": 27954, "trial_type": "mouselab-mdp", "trial_index": 35, "time_elapsed": 2542499, "internal_node_id": "0.0-4.0-1.0-20.0"}}, {"uniqueid": "w77797645:a45029634", "current_trial": 36, "dateTime": 1691145922109, "trialdata": {"revealed_states": [], "clicked_states": ["12", "13", "14", "15", "18", "16", "17", "22", "20", "19", "21"], "num_clicks_accrued": [0, 0, 0, 0, 0, 0, 0, 0, 0, 0, 0, 0, 0], "stateRewards": ["", -2, 1, -3, -16, -39, -52, 30, -7, -41, -59, 11, 2, 1, 8, 2, -11, -26, -42, -13, 87, -59, -48, -1, -1, -1, 16, -79, 31, 50, -1, -84, 34, -82], "withholdReward": false, "trial_id": "mdp_trial_22", "block": "test", "trialIndex": 25, "score": 69.6, "costs": -15.400000000000002, "simulationMode": [null, null, null, null, null], "rewards": [2, 1, 8, -13, 87], "path": ["0", "0", "12", "13", "14", "19", "20"], "rt": [26298, 135, 127, 247, 145], "actions": ["right", "right", "right", "down", "right"], "actionTimes": [27968, 28645, 29288, 30039, 30712], "queries": {"click": {"state": {"target": ["12", "13", "14", "15", "18", "16", "17", "22", "20", "19", "21"], "time": [3431, 5336, 7436, 9527, 12457, 14696, 16609, 19033, 21446, 23364, 25339]}, "edge": {"target": [], "time": []}}, "mouseover": {"state": {"target": ["12", "13", "14", "18", "15", "18", "18", "16", "17", "14", "22", "19", "20", "19", "21"], "time": [3251, 4473, 6983, 8817, 9302, 11554, 12173, 14406, 15752, 18633, 18859, 20255, 21104, 22089, 24843]}, "edge": {"target": [], "time": []}}, "mouseout": {"state": {"target": ["12", "0", "12", "13", "14", "14", "18", "15", "18", "18", "16", "17", "14", "22", "19", "20", "19", "19", "21", "19", "19", "22"], "time": [1049, 2302, 4173, 6953, 7451, 8728, 9279, 11535, 11628, 14281, 15484, 17552, 18683, 20103, 21034, 21909, 23730, 24636, 25683, 31261, 31332, 31533]}, "edge": {"target": [], "time": []}}}, "displayed_time": "31.24", "trialTime": 32431, "trial_type": "mouselab-mdp", "trial_index": 36, "time_elapsed": 2575504, "internal_node_id": "0.0-4.0-1.0-21.0"}}, {"uniqueid": "w77797645:a45029634", "current_trial": 37, "dateTime": 1691145964237, "trialdata": {"revealed_states": [], "clicked_states": ["12", "13", "14", "18", "15", "16", "17", "22", "19", "21", "20"], "num_clicks_accrued": [0, 0, 0, 0, 0, 0, 0, 0, 0, 0, 0, 0, 0], "stateRewards": ["", -2, 2, -1, -6, 22, 6, 6, -5, 70, -42, 65, 1, 3, 5, -6, -67, -9, 3, 14, 7, -62, -13, -2, 4, 1, 16, 42, -21, -52, -8, 32, 53, 81], "withholdReward": false, "trial_id": "mdp_trial_23", "block": "test", "trialIndex": 26, "score": 14.599999999999998, "costs": -15.400000000000002, "simulationMode": [null, null, null, null, null], "rewards": [1, 3, 5, 14, 7], "path": ["0", "0", "12", "13", "14", "19", "20"], "rt": [25074, 185, 9, 132, 200], "actions": ["right", "right", "right", "down", "right"], "actionTimes": [28276, 28970, 29467, 30140, 30858], "queries": {"click": {"state": {"target": ["12", "13", "14", "18", "15", "16", "17", "22", "19", "21", "20"], "time": [4174, 6436, 8948, 11372, 13455, 15596, 17673, 20021, 21962, 23836, 25805]}, "edge": {"target": [], "time": []}}, "mouseover": {"state": {"target": ["12", "13", "14", "18", "15", "16", "17", "14", "22", "19", "21", "20"], "time": [3849, 6230, 8769, 11127, 13152, 14950, 17453, 19306, 19479, 21201, 23378, 24679]}, "edge": {"target": [], "time": []}}, "mouseout": {"state": {"target": ["0", "0", "12", "13", "14", "18", "15", "16", "17", "14", "22", "19", "19", "21", "20", "19", "22"], "time": [1996, 3650, 6200, 8250, 11026, 12897, 14898, 17124, 19149, 19351, 21053, 22501, 23027, 24104, 26952, 31747, 32159]}, "edge": {"target": [], "time": []}}}, "displayed_time": "31.38", "trialTime": 41542, "trial_type": "mouselab-mdp", "trial_index": 37, "time_elapsed": 2617632, "internal_node_id": "0.0-4.0-1.0-22.0"}}, {"uniqueid": "w77797645:a45029634", "current_trial": 38, "dateTime": 1691145989186, "trialdata": {"revealed_states": [], "clicked_states": ["1", "2", "3", "8", "4", "9", "11"], "num_clicks_accrued": [0, 0, 0, 0, 0, 0, 0, 0, 0, 0, 0, 0, 0], "stateRewards": ["", 2, -1, -1, 7, 11, -40, -22, -2, 69, 37, 8, -2, 4, -8, -12, -2, -72, -3, -12, 17, 63, 12, 1, 3, -7, 6, 25, 61, 61, -9, 28, -17, 27], "withholdReward": false, "trial_id": "mdp_trial_24", "block": "test", "trialIndex": 27, "score": 57.2, "costs": -9.8, "simulationMode": [null, null, null, null, null], "rewards": [2, -1, -1, -2, 69], "path": ["0", "0", "1", "2", "3", "8", "9"], "rt": [17624, 115, 324, 573, 111], "actions": ["up", "up", "up", "left", "up"], "actionTimes": [19333, 19940, 20794, 21899, 22518], "queries": {"click": {"state": {"target": ["1", "2", "3", "8", "4", "9", "11"], "time": [3413, 5414, 7676, 9587, 12655, 14877, 16878]}, "edge": {"target": [], "time": []}}, "mouseover": {"state": {"target": ["1", "2", "3", "8", "4", "4", "3", "9", "11"], "time": [3165, 4666, 7466, 8988, 11865, 12189, 13217, 14670, 16357]}, "edge": {"target": [], "time": []}}, "mouseout": {"state": {"target": ["1", "1", "2", "3", "8", "3", "4", "4", "3", "9", "11", "11", "23"], "time": [3611, 3964, 5520, 8941, 11622, 11795, 11915, 13190, 13292, 15316, 23255, 23556, 23748]}, "edge": {"target": [], "time": []}}}, "displayed_time": "23.02", "trialTime": 24368, "trial_type": "mouselab-mdp", "trial_index": 38, "time_elapsed": 2642581, "internal_node_id": "0.0-4.0-1.0-23.0"}}, {"uniqueid": "w77797645:a45029634", "current_trial": 39, "dateTime": 1691146012505, "trialdata": {"revealed_states": [], "clicked_states": ["1", "2", "3", "4", "6", "5", "7"], "num_clicks_accrued": [0, 0, 0, 0, 0, 0, 0, 0, 0, 0, 0, 0, 0], "stateRewards": ["", -1, -1, 4, -16, -75, 81, -51, -7, -84, 73, -30, -2, 1, -3, -16, -77, 33, 14, 1, 45, 87, -66, 2, 2, -5, -7, -19, -17, 79, -3, 8, 49, 47], "withholdReward": false, "trial_id": "mdp_trial_25", "block": "test", "trialIndex": 28, "score": 57.2, "costs": -9.8, "simulationMode": [null, null, null, null, null], "rewards": [-1, -1, 4, -16, 81], "path": ["0", "0", "1", "2", "3", "4", "6"], "rt": [16593, 357, 150, 120, 115], "actions": ["up", "up", "up", "right", "right"], "actionTimes": [18255, 19131, 19772, 20421, 21064], "queries": {"click": {"state": {"target": ["1", "2", "3", "4", "6", "5", "7"], "time": [3325, 5274, 7314, 9816, 12049, 14030, 16363]}, "edge": {"target": [], "time": []}}, "mouseover": {"state": {"target": ["1", "2", "1", "2", "2", "3", "4", "6", "5", "4", "7"], "time": [2341, 2426, 3217, 4389, 4639, 7118, 9545, 11891, 12946, 15997, 16143]}, "edge": {"target": [], "time": []}}, "mouseout": {"state": {"target": ["0", "1", "2", "1", "2", "2", "3", "3", "2", "4", "6", "5", "4", "7", "3", "10"], "time": [2242, 2417, 2942, 3350, 4416, 7017, 7432, 8116, 9397, 11794, 12746, 15317, 16071, 17069, 21775, 21847]}, "edge": {"target": [], "time": []}}}, "displayed_time": "21.60", "trialTime": 22705, "trial_type": "mouselab-mdp", "trial_index": 39, "time_elapsed": 2665900, "internal_node_id": "0.0-4.0-1.0-24.0"}}, {"uniqueid": "w77797645:a45029634", "current_trial": 40, "dateTime": 1691146043596, "trialdata": {"revealed_states": [], "clicked_states": ["23", "24", "25", "12", "13", "14", "15", "16", "18", "17"], "num_clicks_accrued": [0, 0, 0, 0, 0, 0, 0, 0, 0, 0, 0, 0, 0], "stateRewards": ["", -1, -3, -7, -4, -85, -70, 79, 8, 84, -66, 42, 2, -2, -3, -16, -54, -66, 68, -3, 21, -14, 7, -2, -1, -3, -8, 75, 80, 86, -7, -84, 73, -16], "withholdReward": false, "trial_id": "mdp_trial_26", "block": "test", "trialIndex": 29, "score": 35, "costs": -14.000000000000002, "simulationMode": [null, null, null, null, null], "rewards": [2, -2, -3, -16, 68], "path": ["0", "0", "12", "13", "14", "15", "18"], "rt": [24585, 354, 204, 340, 185], "actions": ["right", "right", "right", "up", "left"], "actionTimes": [25942, 26804, 27498, 28364, 29053], "queries": {"click": {"state": {"target": ["23", "24", "25", "12", "13", "14", "15", "16", "18", "17"], "time": [2522, 4795, 7572, 10282, 12338, 14299, 16699, 19027, 20916, 23239]}, "edge": {"target": [], "time": []}}, "mouseover": {"state": {"target": ["23", "24", "23", "24", "25", "24", "12", "13", "14", "15", "16", "16", "18", "15", "17", "15"], "time": [2105, 2155, 2306, 3131, 7387, 9585, 10138, 11209, 13990, 16440, 18195, 18586, 20387, 22537, 23043, 23789]}, "edge": {"target": [], "time": []}}, "mouseout": {"state": {"target": ["10", "0", "23", "24", "23", "24", "25", "24", "12", "12", "13", "14", "15", "16", "16", "16", "18", "15", "17", "15", "18", "0"], "time": [532, 1374, 2131, 2260, 3106, 7031, 9562, 9609, 10659, 11158, 13788, 16272, 18168, 18261, 19146, 20137, 22438, 22712, 23764, 23866, 29567, 30145]}, "edge": {"target": [], "time": []}}}, "displayed_time": "29.58", "trialTime": 30506, "trial_type": "mouselab-mdp", "trial_index": 40, "time_elapsed": 2696991, "internal_node_id": "0.0-4.0-1.0-25.0"}}, {"uniqueid": "w77797645:a45029634", "current_trial": 41, "dateTime": 1691146074053, "trialdata": {"revealed_states": [], "clicked_states": ["1", "2", "3", "4", "6", "5", "7", "10", "11", "9"], "num_clicks_accrued": [0, 0, 0, 0, 0, 0, 0, 0, 0, 0, 0, 0, 0], "stateRewards": ["", 1, -4, -6, -1, -21, 17, -72, 10, 77, 67, -46, -1, 4, -2, 14, -66, -49, -45, -15, -52, 23, -67, 2, -2, -2, 15, -3, 45, -64, 5, -44, 83, 61], "withholdReward": false, "trial_id": "mdp_trial_27", "block": "test", "trialIndex": 30, "score": 64, "costs": -14.000000000000002, "simulationMode": [null, null, null, null, null], "rewards": [1, -4, -6, 10, 77], "path": ["0", "0", "1", "2", "3", "8", "9"], "rt": [22904, 44, 451, 202, 211], "actions": ["up", "up", "up", "left", "up"], "actionTimes": [24525, 25067, 26050, 26759, 27483], "queries": {"click": {"state": {"target": ["1", "2", "3", "4", "6", "5", "7", "10", "11", "9"], "time": [2981, 5350, 8133, 10056, 11928, 13821, 15758, 17686, 19831, 21738]}, "edge": {"target": [], "time": []}}, "mouseover": {"state": {"target": ["12", "1", "1", "2", "3", "3", "3", "4", "6", "5", "5", "4", "7", "2", "10", "11", "8", "9"], "time": [2391, 2550, 2866, 4941, 7316, 7567, 7931, 9743, 11239, 12364, 12789, 14589, 14845, 16293, 16615, 18319, 20543, 20669]}, "edge": {"target": [], "time": []}}, "mouseout": {"state": {"target": ["0", "12", "1", "1", "2", "3", "3", "3", "4", "6", "5", "5", "4", "7", "2", "10", "11", "8", "9", "8", "10"], "time": [2340, 2515, 2609, 4860, 5460, 7345, 7612, 9462, 11188, 12314, 12413, 14290, 14665, 16240, 16340, 17894, 20493, 20594, 23873, 28975, 29120]}, "edge": {"target": [], "time": []}}}, "displayed_time": "27.97", "trialTime": 29906, "trial_type": "mouselab-mdp", "trial_index": 41, "time_elapsed": 2727448, "internal_node_id": "0.0-4.0-1.0-26.0"}}, {"uniqueid": "w77797645:a45029634", "current_trial": 42, "dateTime": 1691146096932, "trialdata": {"revealed_states": [], "clicked_states": ["23", "24", "25", "30", "31", "32", "33"], "num_clicks_accrued": [0, 0, 0, 0, 0, 0, 0, 0, 0, 0, 0, 0, 0], "stateRewards": ["", -2, 2, -2, -7, -50, -62, -45, 7, 36, -24, -72, -1, -1, 8, -1, -67, 20, -52, 2, 35, -50, 80, -1, 1, 6, -6, -70, 6, 88, 8, -47, 74, -19], "withholdReward": false, "trial_id": "mdp_trial_28", "block": "test", "trialIndex": 31, "score": 78.2, "costs": -9.8, "simulationMode": [null, null, null, null, null], "rewards": [-1, 1, 6, 8, 74], "path": ["0", "0", "23", "24", "25", "30", "32"], "rt": [16609, 178, 271, 167, 169], "actions": ["left", "left", "left", "down", "down"], "actionTimes": [17996, 18709, 19475, 20145, 20850], "queries": {"click": {"state": {"target": ["23", "24", "25", "30", "31", "32", "33"], "time": [2378, 4882, 7071, 9952, 11974, 14067, 16083]}, "edge": {"target": [], "time": []}}, "mouseover": {"state": {"target": ["23", "24", "25", "30", "25", "31", "30", "30", "31", "32", "33"], "time": [2193, 4698, 6369, 6733, 6844, 9074, 9503, 9774, 11097, 13772, 15582]}, "edge": {"target": [], "time": []}}, "mouseout": {"state": {"target": ["0", "23", "24", "25", "30", "25", "31", "30", "30", "31", "32", "33", "30"], "time": [1921, 4072, 6018, 6724, 6760, 8573, 9474, 9521, 10971, 13676, 15429, 22030, 22076]}, "edge": {"target": [], "time": []}}}, "displayed_time": "21.38", "trialTime": 22331, "trial_type": "mouselab-mdp", "trial_index": 42, "time_elapsed": 2750327, "internal_node_id": "0.0-4.0-1.0-27.0"}}, {"uniqueid": "w77797645:a45029634", "current_trial": 43, "dateTime": 1691146127166, "trialdata": {"revealed_states": [], "clicked_states": ["12", "13", "14", "23", "24", "25", "26", "28", "27", "29"], "num_clicks_accrued": [0, 0, 0, 0, 0, 0, 0, 0, 0, 0, 0, 0, 0], "stateRewards": ["", 2, -4, 7, 3, 23, -42, 4, 7, -81, -33, 7, -2, -4, 5, -1, 50, -57, -14, -13, -14, 44, 55, -2, -2, 5, -2, 33, 1, 57, -13, -7, 58, 87], "withholdReward": false, "trial_id": "mdp_trial_29", "block": "test", "trialIndex": 32, "score": 42, "costs": -14.000000000000002, "simulationMode": [null, null, null, null, null], "rewards": [-2, -2, 5, -2, 57], "path": ["0", "0", "23", "24", "25", "26", "29"], "rt": [23137, 84, 83, 385, 124], "actions": ["left", "left", "left", "up", "left"], "actionTimes": [24636, 25235, 25864, 26767, 27406], "queries": {"click": {"state": {"target": ["12", "13", "14", "23", "24", "25", "26", "28", "27", "29"], "time": [2698, 4611, 6788, 9263, 11180, 13084, 15508, 17820, 19741, 21748]}, "edge": {"target": [], "time": []}}, "mouseover": {"state": {"target": ["12", "12", "13", "14", "12", "0", "23", "24", "24", "23", "24", "24", "25", "26", "28", "28", "27", "27", "29", "26", "25"], "time": [2114, 2485, 3887, 6342, 7742, 7770, 7792, 7817, 8012, 8188, 10263, 10414, 12015, 15245, 17371, 17618, 18691, 19142, 21372, 22544, 23673]}, "edge": {"target": [], "time": []}}, "mouseout": {"state": {"target": ["0", "12", "12", "13", "14", "13", "12", "0", "23", "24", "24", "23", "24", "24", "25", "26", "28", "28", "27", "27", "29", "26", "25", "26"], "time": [1517, 2166, 3862, 6291, 7713, 7738, 7766, 7788, 7813, 7839, 8163, 10188, 10363, 11990, 15069, 17345, 17392, 18608, 18992, 21169, 22493, 22594, 27820, 27922]}, "edge": {"target": [], "time": []}}}, "displayed_time": "27.93", "trialTime": 29675, "trial_type": "mouselab-mdp", "trial_index": 43, "time_elapsed": 2780561, "internal_node_id": "0.0-4.0-1.0-28.0"}}, {"uniqueid": "w77797645:a45029634", "current_trial": 44, "dateTime": 1691146158270, "trialdata": {"revealed_states": [], "clicked_states": ["9", "11", "10", "7", "6", "5", "16", "18", "17", "20"], "num_clicks_accrued": [0, 0, 0, 0, 0, 0, 0, 0, 0, 0, 0, 0, 0], "stateRewards": ["", -1, -4, -1, -5, -28, -23, -15, -15, -38, 59, -87, 2, 2, -5, 9, -55, -39, -71, -6, 85, -85, -11, -1, -2, 5, -10, 1, 25, 41, -4, 69, -35, 86], "withholdReward": false, "trial_id": "mdp_trial_30", "block": "test", "trialIndex": 33, "score": 64, "costs": -14.000000000000002, "simulationMode": [null, null, null, null, null], "rewards": [2, 2, -5, -6, 85], "path": ["0", "0", "12", "13", "14", "19", "20"], "rt": [24094, 134, 140, 72, 226], "actions": ["right", "right", "right", "down", "right"], "actionTimes": [25990, 26617, 27271, 27875, 28653], "queries": {"click": {"state": {"target": ["9", "11", "10", "7", "6", "5", "16", "18", "17", "20"], "time": [2880, 5271, 7215, 9911, 11873, 13787, 16680, 18642, 20834, 23263]}, "edge": {"target": [], "time": []}}, "mouseover": {"state": {"target": ["0", "1", "2", "9", "11", "10", "2", "7", "6", "5", "3", "2", "18", "16", "18", "10", "2", "7", "15", "17", "20", "21"], "time": [2196, 2292, 2368, 2616, 4872, 6473, 9295, 9720, 11344, 12771, 15801, 15951, 16276, 16501, 17600, 20222, 20285, 20320, 20372, 20627, 22829, 24291]}, "edge": {"target": [], "time": []}}, "mouseout": {"state": {"target": ["23", "0", "0", "1", "2", "9", "11", "11", "11", "10", "2", "7", "6", "5", "3", "2", "18", "16", "18", "18", "10", "2", "7", "15", "17", "20", "21", "22", "0", "0"], "time": [369, 1914, 2227, 2344, 2392, 4822, 5401, 5743, 6348, 9251, 9624, 11133, 12248, 15551, 15831, 16027, 16302, 17272, 19172, 19849, 20277, 20311, 20337, 20503, 22603, 23425, 29251, 29505, 29731, 30181]}, "edge": {"target": [], "time": []}}}, "displayed_time": "29.16", "trialTime": 30524, "trial_type": "mouselab-mdp", "trial_index": 44, "time_elapsed": 2811665, "internal_node_id": "0.0-4.0-1.0-29.0"}}, {"uniqueid": "w77797645:a45029634", "current_trial": 45, "dateTime": 1691146205904, "trialdata": {"revealed_states": [], "clicked_states": ["21", "20", "22", "17", "16", "18", "7", "6", "5", "9", "11", "10", "28", "27", "29", "25", "33", "32", "31"], "num_clicks_accrued": [0, 0, 0, 0, 0, 0, 0, 0, 0, 0, 0, 0, 0], "stateRewards": ["", -2, 2, 2, -6, 9, 37, 50, -13, -7, -18, -75, -2, -4, 4, 7, 23, -57, -66, -7, -81, -48, -76, 1, 1, -8, 1, 51, -2, 70, 14, 59, 71, -37], "withholdReward": false, "trial_id": "mdp_trial_31", "block": "test", "trialIndex": 34, "score": 52.400000000000006, "costs": -26.59999999999999, "simulationMode": [null, null, null, null, null], "rewards": [1, 1, -8, 14, 71], "path": ["0", "0", "23", "24", "25", "30", "32"], "rt": [41635, 382, 189, 164, 175], "actions": ["left", "left", "left", "down", "down"], "actionTimes": [42910, 43803, 44483, 45132, 45830], "queries": {"click": {"state": {"target": ["21", "20", "22", "17", "16", "18", "7", "6", "5", "9", "11", "10", "28", "27", "29", "25", "33", "32", "31"], "time": [2672, 4636, 6564, 8998, 10924, 12881, 15348, 17495, 19596, 21888, 23871, 25774, 28346, 30295, 32278, 34376, 37023, 38938, 40897]}, "edge": {"target": [], "time": []}}, "mouseover": {"state": {"target": ["21", "20", "20", "19", "22", "17", "16", "18", "7", "7", "6", "5", "4", "7", "4", "9", "8", "11", "11", "10", "28", "28", "27", "29", "25", "30", "33", "32", "31"], "time": [2428, 3701, 3976, 5525, 5841, 8859, 10276, 12054, 14431, 15158, 16408, 19130, 20381, 20557, 21181, 21635, 22784, 23082, 23381, 24632, 27688, 28108, 28985, 31559, 33412, 36613, 36815, 38137, 39238]}, "edge": {"target": [], "time": []}}, "mouseout": {"state": {"target": ["0", "21", "20", "20", "19", "22", "22", "17", "17", "16", "18", "18", "7", "7", "6", "6", "5", "4", "7", "4", "5", "9", "8", "11", "11", "11", "10", "10", "28", "28", "27", "29", "29", "25", "29", "25", "30", "33", "33", "32", "31", "24"], "time": [1929, 3324, 3751, 5426, 5628, 7576, 8556, 9551, 10001, 11805, 13456, 14106, 14557, 16004, 18280, 18734, 20356, 20431, 21156, 21205, 21561, 22731, 22931, 23131, 23981, 24257, 26357, 27290, 27888, 28485, 30860, 32585, 33062, 34761, 35961, 36540, 36642, 37161, 37812, 39090, 46217, 46315]}, "edge": {"target": [], "time": []}}}, "displayed_time": "46.35", "trialTime": 47079, "trial_type": "mouselab-mdp", "trial_index": 45, "time_elapsed": 2859299, "internal_node_id": "0.0-4.0-1.0-30.0"}}, {"uniqueid": "w77797645:a45029634", "current_trial": 46, "dateTime": 1691146262854, "trialdata": {"revealed_states": [], "clicked_states": ["23", "32", "33", "31"], "num_clicks_accrued": [0, 0, 0, 0, 0, 0, 0, 0, 0, 0, 0, 0, 0], "stateRewards": ["", -2, 2, -4, -4, -59, 88, 62, -3, 69, -15, -34, 1, -2, -5, 7, -54, -20, 78, -16, -74, -53, -21, 2, -4, 2, 13, -8, -44, 26, 9, 72, 4, 17], "withholdReward": false, "trial_id": "mdp_trial_32", "block": "test", "trialIndex": 35, "score": 75.4, "costs": -5.6, "simulationMode": [null, null, null, null, null], "rewards": [2, -4, 2, 9, 72], "path": ["0", "0", "23", "24", "25", "30", "31"], "rt": [10572, 76, 107, 701, 248], "actions": ["left", "left", "left", "down", "right"], "actionTimes": [12303, 12914, 13540, 14762, 15532], "queries": {"click": {"state": {"target": ["23", "32", "33", "31"], "time": [2935, 4940, 6889, 8865]}, "edge": {"target": [], "time": []}}, "mouseover": {"state": {"target": ["23", "24", "23", "24", "30", "32", "33", "31", "30", "30", "24"], "time": [2436, 2476, 2752, 3527, 3726, 4002, 5386, 8031, 10433, 11030, 11757]}, "edge": {"target": [], "time": []}}, "mouseout": {"state": {"target": ["0", "23", "24", "23", "24", "30", "32", "33", "31", "30", "33", "30", "24"], "time": [2404, 2453, 2706, 3504, 3576, 3926, 5221, 7353, 10429, 10453, 10983, 11080, 11803]}, "edge": {"target": [], "time": []}}}, "displayed_time": "16.04", "trialTime": 56363, "trial_type": "mouselab-mdp", "trial_index": 46, "time_elapsed": 2916249, "internal_node_id": "0.0-4.0-1.0-31.0"}}, {"uniqueid": "w77797645:a45029634", "current_trial": 47, "dateTime": 1691146284879, "trialdata": {"revealed_states": [], "clicked_states": ["32", "33", "31", "29", "27", "28"], "num_clicks_accrued": [0, 0, 0, 0, 0, 0, 0, 0, 0, 0, 0, 0, 0], "stateRewards": ["", 1, 1, -3, 7, 49, 78, 26, -5, 26, 48, -43, -1, -3, 2, -5, 4, -1, -60, 10, -35, 51, 81, -2, 1, -7, -5, -39, -86, -54, 4, -3, 74, 77], "withholdReward": false, "trial_id": "mdp_trial_33", "block": "test", "trialIndex": 36, "score": 64.6, "costs": -8.4, "simulationMode": [null, null, null, null, null], "rewards": [-2, 1, -7, 4, 77], "path": ["0", "0", "23", "24", "25", "30", "33"], "rt": [15330, 149, 90, 63, 239], "actions": ["left", "left", "left", "down", "left"], "actionTimes": [16825, 17475, 18088, 18686, 19438], "queries": {"click": {"state": {"target": ["32", "33", "31", "29", "27", "28"], "time": [3176, 5116, 7287, 10371, 12534, 14504]}, "edge": {"target": [], "time": []}}, "mouseover": {"state": {"target": ["24", "24", "30", "32", "33", "33", "30", "31", "30", "29", "29", "26", "27", "28"], "time": [2155, 2694, 2788, 2943, 3540, 4171, 5641, 5991, 8844, 9772, 10297, 12098, 12301, 13268]}, "edge": {"target": [], "time": []}}, "mouseout": {"state": {"target": ["0", "24", "24", "30", "32", "33", "33", "30", "31", "30", "33", "29", "29", "26", "27", "28", "24", "24"], "time": [1527, 2519, 2742, 2869, 3420, 3868, 5590, 5791, 8818, 8868, 9296, 9797, 10917, 12272, 12918, 14919, 20151, 20651]}, "edge": {"target": [], "time": []}}}, "displayed_time": "19.95", "trialTime": 21381, "trial_type": "mouselab-mdp", "trial_index": 47, "time_elapsed": 2938274, "internal_node_id": "0.0-4.0-1.0-32.0"}}, {"uniqueid": "w77797645:a45029634", "current_trial": 48, "dateTime": 1691146315148, "trialdata": {"revealed_states": [], "clicked_states": ["32", "31", "33", "29", "27", "28", "11", "10", "9"], "num_clicks_accrued": [0, 0, 0, 0, 0, 0, 0, 0, 0, 0, 0, 0, 0], "stateRewards": ["", -1, -2, 4, 9, 10, -75, 39, 16, -43, 88, -19, -1, 1, 2, 4, -31, 10, 73, 12, 41, -64, -81, -2, 2, -6, 1, -81, -1, -26, 3, -59, -3, -20], "withholdReward": false, "trial_id": "mdp_trial_34", "block": "test", "trialIndex": 37, "score": 92.4, "costs": -12.600000000000001, "simulationMode": [null, null, null, null, null], "rewards": [-1, -2, 4, 16, 88], "path": ["0", "0", "1", "2", "3", "8", "10"], "rt": [19703, 5, 545, 103, 124], "actions": ["up", "up", "up", "left", "down"], "actionTimes": [24426, 24953, 26040, 26672, 27319], "queries": {"click": {"state": {"target": ["32", "31", "33", "29", "27", "28", "11", "10", "9"], "time": [6375, 8294, 10194, 12119, 14062, 16062, 18023, 19903, 22100]}, "edge": {"target": [], "time": []}}, "mouseover": {"state": {"target": ["23", "23", "31", "32", "31", "30", "33", "29", "27", "28", "11", "10", "8", "9", "8"], "time": [5093, 5408, 6023, 6214, 6835, 8711, 9236, 10887, 13788, 14841, 16489, 18940, 20165, 20242, 22769]}, "edge": {"target": [], "time": []}}, "mouseout": {"state": {"target": ["27", "28", "23", "0", "23", "23", "31", "32", "31", "30", "33", "29", "27", "28", "11", "10", "8", "9", "8", "10", "23"], "time": [3861, 3936, 4097, 4741, 5137, 5939, 6043, 6685, 8688, 8737, 10712, 13363, 14488, 16339, 18690, 20117, 20193, 22692, 22893, 23642, 29023]}, "edge": {"target": [], "time": []}}}, "displayed_time": "27.86", "trialTime": 29610, "trial_type": "mouselab-mdp", "trial_index": 48, "time_elapsed": 2968542, "internal_node_id": "0.0-4.0-1.0-33.0"}}, {"uniqueid": "w77797645:a45029634", "current_trial": 49, "dateTime": 1691146339502, "trialdata": {"revealed_states": [], "clicked_states": ["6", "7", "5", "9", "11", "10", "18", "16"], "num_clicks_accrued": [0, 0, 0, 0, 0, 0, 0, 0, 0, 0, 0, 0, 0], "stateRewards": ["", -2, -4, 4, -11, -63, -60, -7, 2, -14, 81, -43, -1, -1, -5, 7, 10, 69, 40, 8, -83, 52, 60, 1, 2, 5, -5, 16, 64, 14, -3, 29, 7, -51], "withholdReward": false, "trial_id": "mdp_trial_35", "block": "test", "trialIndex": 38, "score": 69.8, "costs": -11.200000000000001, "simulationMode": [null, null, null, null, null], "rewards": [-2, -4, 4, 2, 81], "path": ["0", "0", "1", "2", "3", "8", "10"], "rt": [17013, 131, 165, 127, 192], "actions": ["up", "up", "up", "left", "down"], "actionTimes": [18208, 18838, 19517, 20157, 20870], "queries": {"click": {"state": {"target": ["6", "7", "5", "9", "11", "10", "18", "16"], "time": [2439, 4344, 6336, 8256, 10158, 12040, 13992, 16042]}, "edge": {"target": [], "time": []}}, "mouseover": {"state": {"target": ["0", "7", "4", "6", "7", "4", "5", "9", "9", "8", "11", "10", "2", "7", "18", "18", "16"], "time": [1212, 1873, 1991, 2225, 2919, 5047, 5320, 6973, 7245, 8623, 8820, 10597, 12600, 12916, 13148, 13777, 15026]}, "edge": {"target": [], "time": []}}, "mouseout": {"state": {"target": ["23", "0", "7", "4", "6", "7", "4", "5", "9", "9", "8", "11", "10", "2", "7", "18", "18", "16", "17"], "time": [246, 1372, 1918, 2197, 2844, 5021, 5094, 6870, 6996, 8595, 8646, 10471, 12548, 12885, 12957, 13524, 14111, 16552, 22729]}, "edge": {"target": [], "time": []}}}, "displayed_time": "21.38", "trialTime": 23738, "trial_type": "mouselab-mdp", "trial_index": 49, "time_elapsed": 2992897, "internal_node_id": "0.0-4.0-1.0-34.0"}}, {"uniqueid": "w77797645:a45029634", "current_trial": 50, "dateTime": 1691146391629, "trialdata": {"revealed_states": [], "clicked_states": ["17", "16", "18", "20", "21", "22", "31", "32", "33", "25", "29", "27", "28", "11", "9", "10", "7", "6", "5"], "num_clicks_accrued": [0, 0, 0, 0, 0, 0, 0, 0, 0, 0, 0, 0, 0], "stateRewards": ["", 2, -4, 1, -12, -59, -53, -74, 16, -88, -66, 66, 1, -2, 8, -9, -14, 22, 25, -1, -39, 47, -14, -1, -1, -2, 1, -4, 52, -26, 15, -7, 46, 43], "withholdReward": false, "trial_id": "mdp_trial_36", "block": "test", "trialIndex": 39, "score": 54.400000000000006, "costs": -26.59999999999999, "simulationMode": [null, null, null, null, null], "rewards": [2, -4, 1, 16, 66], "path": ["0", "0", "1", "2", "3", "8", "11"], "rt": [43215, 63, 325, 104, 133], "actions": ["up", "up", "up", "left", "left"], "actionTimes": [45632, 46209, 47067, 47730, 48396], "queries": {"click": {"state": {"target": ["17", "16", "18", "20", "21", "22", "31", "32", "33", "25", "29", "27", "28", "11", "9", "10", "7", "6", "5"], "time": [3852, 5855, 7868, 10529, 12469, 14386, 17167, 19078, 21277, 23541, 25428, 28073, 30013, 32811, 35279, 37337, 39748, 41693, 43749]}, "edge": {"target": [], "time": []}}, "mouseover": {"state": {"target": ["12", "13", "15", "17", "6", "16", "18", "13", "14", "20", "20", "21", "22", "31", "31", "32", "30", "33", "25", "29", "27", "27", "28", "25", "33", "33", "8", "11", "11", "9", "8", "10", "2", "7", "6", "5"], "time": [2899, 3026, 3369, 3693, 4812, 5324, 6772, 8671, 9870, 10121, 10421, 12101, 13032, 16681, 17012, 17727, 19527, 19824, 23300, 24076, 27301, 27931, 28633, 30455, 30781, 30905, 31293, 32358, 32612, 35110, 36384, 36905, 39286, 39586, 40632, 43388]}, "edge": {"target": [], "time": []}}, "mouseout": {"state": {"target": ["15", "18", "12", "0", "12", "13", "15", "17", "6", "16", "18", "13", "18", "14", "20", "20", "21", "22", "21", "21", "22", "31", "31", "32", "30", "33", "32", "33", "25", "29", "27", "27", "27", "28", "25", "33", "33", "8", "11", "11", "11", "11", "9", "8", "10", "2", "7", "6", "5", "3", "8", "3", "8"], "time": [1269, 1295, 1622, 2872, 2993, 3323, 3574, 4677, 5173, 6648, 8520, 8720, 9797, 9970, 10248, 10548, 12674, 14900, 14975, 15498, 16553, 16700, 17527, 19195, 19552, 21828, 22400, 23131, 23663, 27201, 27401, 28170, 28503, 30429, 30478, 30829, 31207, 31529, 32459, 32941, 34180, 34885, 35857, 36736, 39236, 39361, 40057, 42083, 45735, 46135, 47285, 50290, 50666]}, "edge": {"target": [], "time": []}}}, "displayed_time": "48.89", "trialTime": 51531, "trial_type": "mouselab-mdp", "trial_index": 50, "time_elapsed": 3045024, "internal_node_id": "0.0-4.0-1.0-35.0"}}, {"uniqueid": "w77797645:a45029634", "current_trial": 51, "dateTime": 1691146439173, "trialdata": {"revealed_states": [], "clicked_states": ["27", "28", "29", "33", "32", "31", "22", "21", "20", "17", "16", "18", "7", "6", "5", "10", "11", "9"], "num_clicks_accrued": [0, 0, 0, 0, 0, 0, 0, 0, 0, 0, 0, 0, 0], "stateRewards": ["", 2, -1, -2, -5, -47, -57, -33, -11, 31, -18, -72, -2, 1, -4, -8, -46, -53, -50, 15, -85, -9, 39, -2, -2, 1, 14, -1, -8, 53, -12, -41, -74, 62], "withholdReward": false, "trial_id": "mdp_trial_37", "block": "test", "trialIndex": 40, "score": -6.199999999999989, "costs": -25.199999999999992, "simulationMode": [null, null, null, null, null], "rewards": [2, -1, -2, -11, 31], "path": ["0", "0", "1", "2", "3", "8", "9"], "rt": [38884, 1487, 158, 71, 190], "actions": ["up", "up", "up", "left", "up"], "actionTimes": [41450, 43440, 44110, 44701, 45441], "queries": {"click": {"state": {"target": ["27", "28", "29", "33", "32", "31", "22", "21", "20", "17", "16", "18", "7", "6", "5", "10", "11", "9"], "time": [3991, 6007, 8023, 10194, 12504, 14527, 17471, 19544, 21728, 23617, 25461, 27290, 29240, 31117, 33265, 35204, 37043, 38907]}, "edge": {"target": [], "time": []}}, "mouseover": {"state": {"target": ["23", "23", "26", "27", "26", "28", "26", "29", "29", "33", "32", "31", "22", "21", "22", "21", "20", "17", "16", "18", "7", "4", "6", "5", "3", "10", "11", "9", "26", "33"], "time": [2588, 3213, 3634, 3837, 4942, 5384, 6212, 6410, 6953, 9436, 10910, 13389, 16589, 16896, 17243, 18294, 19816, 22239, 24141, 26019, 27970, 29468, 29722, 33049, 34169, 34344, 35569, 37556, 39473, 39730]}, "edge": {"target": [], "time": []}}, "mouseout": {"state": {"target": ["8", "1", "0", "0", "23", "23", "26", "27", "26", "28", "26", "29", "29", "33", "32", "31", "22", "21", "22", "21", "20", "17", "16", "18", "7", "4", "6", "5", "3", "10", "11", "9", "11", "26", "33", "24"], "time": [1534, 1583, 1684, 2585, 3010, 3562, 3764, 4937, 5285, 6187, 6284, 6735, 8460, 10664, 13113, 16492, 16691, 17044, 17813, 19739, 22167, 23813, 25867, 27917, 29392, 29572, 32806, 33694, 34219, 35369, 37471, 39370, 39422, 39499, 40876, 46324]}, "edge": {"target": [], "time": []}}}, "displayed_time": "45.95", "trialTime": 46946, "trial_type": "mouselab-mdp", "trial_index": 51, "time_elapsed": 3092568, "internal_node_id": "0.0-4.0-1.0-36.0"}}, {"uniqueid": "w77797645:a45029634", "current_trial": 52, "dateTime": 1691146477677, "trialdata": {"revealed_states": [], "clicked_states": ["32", "31", "33", "29", "27", "28", "10", "11", "9", "5", "6", "7", "18", "16"], "num_clicks_accrued": [0, 0, 0, 0, 0, 0, 0, 0, 0, 0, 0, 0, 0], "stateRewards": ["", -2, 1, 6, -2, -10, -78, -69, 14, -15, 7, -1, 1, -1, -2, 13, 77, 32, 87, 5, -74, 30, -26, 1, 3, 4, 12, 39, 54, -43, 2, 10, 23, 13], "withholdReward": false, "trial_id": "mdp_trial_38", "block": "test", "trialIndex": 41, "score": 78.4, "costs": -19.599999999999998, "simulationMode": [null, null, null, null, null], "rewards": [1, -1, -2, 13, 87], "path": ["0", "0", "12", "13", "14", "15", "18"], "rt": [32297, 178, 123, 301, 155], "actions": ["right", "right", "right", "up", "left"], "actionTimes": [33728, 34395, 35043, 35867, 36546], "queries": {"click": {"state": {"target": ["32", "31", "33", "29", "27", "28", "10", "11", "9", "5", "6", "7", "18", "16"], "time": [2951, 4900, 6860, 9300, 11837, 14022, 17952, 20174, 22571, 24494, 26334, 28250, 30145, 31999]}, "edge": {"target": [], "time": []}}, "mouseover": {"state": {"target": ["23", "23", "31", "32", "31", "30", "33", "29", "27", "28", "24", "24", "10", "10", "11", "11", "9", "3", "4", "5", "6", "7", "18", "18", "16"], "time": [1730, 1930, 2214, 2781, 4153, 5277, 5409, 8932, 11634, 13484, 16570, 16736, 17355, 17661, 19713, 20037, 22214, 23487, 23683, 24133, 25337, 26787, 28685, 29186, 30617]}, "edge": {"target": [], "time": []}}, "mouseout": {"state": {"target": ["23", "23", "31", "32", "31", "30", "33", "29", "27", "27", "28", "28", "24", "24", "28", "10", "10", "11", "11", "11", "11", "9", "3", "4", "5", "6", "7", "18", "18", "16", "2"], "time": [1776, 2101, 2458, 3255, 5255, 5344, 6972, 10984, 11996, 12481, 15629, 16562, 16589, 16780, 17136, 17486, 19662, 19735, 20195, 21692, 21914, 23311, 23559, 23961, 24984, 26660, 28660, 28710, 30338, 36817, 36974]}, "edge": {"target": [], "time": []}}}, "displayed_time": "37.05", "trialTime": 37850, "trial_type": "mouselab-mdp", "trial_index": 52, "time_elapsed": 3131071, "internal_node_id": "0.0-4.0-1.0-37.0"}}, {"uniqueid": "w77797645:a45029634", "current_trial": 53, "dateTime": 1691146509675, "trialdata": {"revealed_states": [], "clicked_states": ["17", "16", "18", "22", "21", "20", "31", "32", "33", "29", "27", "28"], "num_clicks_accrued": [0, 0, 0, 0, 0, 0, 0, 0, 0, 0, 0, 0, 0], "stateRewards": ["", 2, -3, -4, -1, 25, -16, 16, 10, -71, -20, -55, 1, 3, -4, -9, 1, 32, 11, -6, 32, -50, -41, -1, 4, 4, -8, 7, -81, 70, 2, -52, 45, -10], "withholdReward": false, "trial_id": "mdp_trial_39", "block": "test", "trialIndex": 42, "score": 52.2, "costs": -16.8, "simulationMode": [null, null, null, null, null], "rewards": [-1, 4, 4, -8, 70], "path": ["0", "0", "23", "24", "25", "26", "29"], "rt": [25450, 226, 173, 171, 67], "actions": ["left", "left", "left", "up", "left"], "actionTimes": [27050, 27791, 28443, 29134, 29732], "queries": {"click": {"state": {"target": ["17", "16", "18", "22", "21", "20", "31", "32", "33", "29", "27", "28"], "time": [2994, 4958, 7012, 8984, 10906, 12762, 14795, 16677, 18542, 21335, 23270, 25302]}, "edge": {"target": [], "time": []}}, "mouseover": {"state": {"target": ["23", "18", "15", "17", "16", "18", "13", "22", "21", "20", "19", "31", "31", "32", "33", "26", "27", "29", "27", "26", "28"], "time": [1700, 2501, 2532, 2826, 3814, 5779, 7831, 8004, 9581, 11455, 13131, 13406, 13707, 15360, 17633, 20311, 20714, 21039, 22259, 24436, 24586]}, "edge": {"target": [], "time": []}}, "mouseout": {"state": {"target": ["10", "23", "0", "23", "18", "15", "17", "16", "18", "18", "13", "22", "21", "20", "19", "22", "31", "31", "32", "33", "32", "26", "27", "29", "27", "27", "26", "28", "28"], "time": [429, 553, 1661, 2426, 2528, 2552, 3303, 5329, 7432, 7804, 7906, 9205, 11162, 13109, 13156, 13206, 13556, 15157, 17433, 19211, 19734, 20488, 20840, 21452, 23381, 23814, 24461, 26535, 30517]}, "edge": {"target": [], "time": []}}}, "displayed_time": "30.29", "trialTime": 31236, "trial_type": "mouselab-mdp", "trial_index": 53, "time_elapsed": 3163070, "internal_node_id": "0.0-4.0-1.0-38.0"}}, {"uniqueid": "w77797645:a45029634", "current_trial": 54, "dateTime": 1691146553737, "trialdata": {"revealed_states": [], "clicked_states": ["5", "6", "7", "9", "11", "10", "28", "27", "29", "33", "32", "31", "22", "21", "20", "17", "16", "18"], "num_clicks_accrued": [0, 0, 0, 0, 0, 0, 0, 0, 0, 0, 0, 0, 0], "stateRewards": ["", -1, -3, 1, -4, -48, -63, -49, -2, -84, -19, 65, 2, -2, -2, -12, -4, 59, 9, 6, 75, 69, -13, -1, -3, -3, -2, -37, -68, -36, 13, 32, 18, -14], "withholdReward": false, "trial_id": "mdp_trial_40", "block": "test", "trialIndex": 43, "score": 53.80000000000001, "costs": -25.199999999999992, "simulationMode": [null, null, null, null, null], "rewards": [2, -2, -2, 6, 75], "path": ["0", "0", "12", "13", "14", "19", "20"], "rt": [37071, 26, 340, 518, 244], "actions": ["right", "right", "right", "down", "right"], "actionTimes": [38670, 39202, 40091, 41121, 41894], "queries": {"click": {"state": {"target": ["5", "6", "7", "9", "11", "10", "28", "27", "29", "33", "32", "31", "22", "21", "20", "17", "16", "18"], "time": [2530, 4434, 6375, 8303, 10279, 12306, 14681, 16448, 18344, 20194, 22103, 24056, 26281, 28257, 30122, 32397, 34490, 36371]}, "edge": {"target": [], "time": []}}, "mouseover": {"state": {"target": ["7", "4", "5", "6", "7", "3", "9", "11", "10", "28", "27", "26", "29", "33", "32", "32", "31", "22", "21", "20", "17", "16", "18"], "time": [1973, 2032, 2132, 3084, 5059, 7011, 7062, 8810, 11069, 14193, 14953, 17113, 17406, 19039, 20489, 20741, 22469, 25845, 26621, 28618, 30768, 34000, 35345]}, "edge": {"target": [], "time": []}}, "mouseout": {"state": {"target": ["28", "0", "7", "4", "5", "6", "7", "3", "9", "11", "10", "10", "28", "27", "26", "29", "33", "33", "32", "32", "31", "22", "21", "20", "17", "20", "17", "16", "16", "18", "13", "12"], "time": [560, 1617, 2006, 2057, 2859, 4785, 6964, 7036, 8636, 10612, 12787, 13614, 14844, 17092, 17293, 18915, 20287, 20442, 20539, 22341, 24766, 26546, 28520, 30568, 32946, 33496, 33697, 34611, 34920, 37223, 42603, 42752]}, "edge": {"target": [], "time": []}}}, "displayed_time": "42.43", "trialTime": 43418, "trial_type": "mouselab-mdp", "trial_index": 54, "time_elapsed": 3207132, "internal_node_id": "0.0-4.0-1.0-39.0"}}, {"uniqueid": "w77797645:a45029634", "current_trial": 55, "dateTime": 1691146598081, "trialdata": {"rt": 44333, "response": {"Q0": "$-2 to $2", "Q1": "$-4 to $4", "Q2": "$-32 to $32", "Q3": "The cost for clicking on nodes varied between nodes.", "Q4": "Slightly motivated"}, "question_order": [0, 1, 2, 3, 4], "trial_id": "final_quiz_control", "trial_type": "survey-multi-choice", "trial_index": 55, "time_elapsed": 3251477, "internal_node_id": "0.0-4.0-2.0"}}, {"uniqueid": "w77797645:a45029634", "current_trial": 56, "dateTime": 1691146720552, "trialdata": {"rt": 122455, "response": {"Q0": "Initially I tried to find a path with the least negative points but eventually changed the strategy.", "Q1": "I did. I looked for the end of the path that had the highest amount of points rather than trying to avoid negative points along the way.", "Q2": "It wasn't difficult. The only thing that would have made it easier would be being able to undo moves or otherwise to have more time to click on nodes."}, "trial_id": "self_report_control", "trial_type": "survey-text", "trial_index": 56, "time_elapsed": 3373948, "internal_node_id": "0.0-4.0-3.0"}}, {"uniqueid": "w77797645:a45029634", "current_trial": 57, "dateTime": 1691146740004, "trialdata": {"rt": 19444, "response": {"gender": "female", "age": "25", "colorblind": "0", "effort": "1"}, "trial_type": "survey-html-form", "trial_index": 57, "time_elapsed": 3393400, "internal_node_id": "0.0-4.0-4.0"}}, {"uniqueid": "w77797645:a45029634", "current_trial": 58, "dateTime": 1691146807837, "trialdata": {"rt": 67826, "response": {"Q0": "No, though I did not always pay attention to the amount each node cost as I was not aware it would be important.", "Q1": "No.", "Q2": "This would be a fun game to play regularly"}, "trial_type": "survey-text", "trial_index": 58, "time_elapsed": 3461233, "internal_node_id": "0.0-4.0-5.0"}}, {"uniqueid": "w77797645:a45029634", "current_trial": 59, "dateTime": 1691146809479, "trialdata": {"rt": 1633, "stimulus": "Press 'Finish HIT' in order to reach the completion code. Once the data has been saved, you will receive the code either in this window or in the original browser window where you started the experiment.\n", "response": 0, "trial_type": "html-button-response", "trial_index": 59, "time_elapsed": 3462875, "internal_node_id": "0.0-5.0"}}, {"uniqueid": "w77797645:a45029634", "current_trial": 60, "dateTime": 1691146810483, "trialdata": {"success": true, "trial_type": "fullscreen", "trial_index": 60, "time_elapsed": 3463879, "internal_node_id": "0.0-6.0"}}], "questiondata": {"params": {"CODE": "C6DMOQA6", "MIN_TIME": 14, "inspectCost": 1, "startTime": "Fri Aug 04 2023 12:02:24 GMT+0200 (South Africa Standard Time)", "bonusRate": 0.002, "variance": "1_2_4_8_44", "branching": "31123"}, "final_score": 1482}, "eventdata": [{"eventtype": "initialized", "value": null, "timestamp": 1691143343599, "interval": 0}, {"eventtype": "window_resize", "value": [1024, 673], "timestamp": 1691143343599, "interval": 0}, {"eventtype": "window_resize", "value": [1024, 673], "timestamp": 1691143344858, "interval": 1259}, {"eventtype": "focus", "value": "on", "timestamp": 1691143347050, "interval": 2192}, {"eventtype": "window_resize", "value": [1360, 768], "timestamp": 1691144756902, "interval": 1409852}, {"eventtype": "focus", "value": "off", "timestamp": 1691145134153, "interval": 377251}, {"eventtype": "focus", "value": "on", "timestamp": 1691145134154, "interval": 1}, {"eventtype": "window_resize", "value": [1024, 673], "timestamp": 1691145134365, "interval": 211}, {"eventtype": "window_resize", "value": [1360, 768], "timestamp": 1691145135679, "interval": 1314}, {"eventtype": "focus", "value": "off", "timestamp": 1691145885676, "interval": 749997}, {"eventtype": "window_resize", "value": [1360, 767], "timestamp": 1691145885890, "interval": 214}, {"eventtype": "focus", "value": "on", "timestamp": 1691145888558, "interval": 2668}, {"eventtype": "window_resize", "value": [1360, 768], "timestamp": 1691145888878, "interval": 320}, {"eventtype": "focus", "value": "off", "timestamp": 1691146286383, "interval": 397505}, {"eventtype": "window_resize", "value": [1360, 767], "timestamp": 1691146286599, "interval": 216}, {"eventtype": "focus", "value": "on", "timestamp": 1691146289352, "interval": 2753}, {"eventtype": "window_resize", "value": [1360, 768], "timestamp": 1691146289601, "interval": 249}, {"eventtype": "window_resize", "value": [1024, 673], "timestamp": 1691146809708, "interval": 520107}], "useragent": "Mozilla/5.0 (Windows NT 10.0; Win64; x64) AppleWebKit/537.36 (KHTML, like Gecko) Chrome/115.0.0.0 Safari/537.36", "mode": "live", "id": "w77797645:a45029634", "status": "user data saved", "Beginhit": "2023-08-04 10:02:21.905802", "Beginexp": "2023-08-04 10:25:59.034505", "Endhit": "2023-08-04 11:00:26.099544", "psiturkStatus": 3, "browser": "<redacted>", "platform": "windows", "language": "en-US"}