{"condition": 1, "counterbalance": 0, "assignmentId": "a35533099", "workerId": "w88136717", "hitId": "h48174160", "currenttrial": 62, "bonus": 0, "data": [{"uniqueid": "w88136717:a35533099", "current_trial": 0, "dateTime": 1693480736507, "trialdata": {"success": true, "trial_type": "fullscreen", "trial_index": 0, "time_elapsed": 16638, "internal_node_id": "0.0-0.0"}}, {"uniqueid": "w88136717:a35533099", "current_trial": 1, "dateTime": 1693480770376, "trialdata": {"view_history": [{"page_index": 0, "viewing_time": 33846}], "rt": 33847, "trial_id": "exp_instructions_misaligned", "trial_type": "instructions", "trial_index": 1, "time_elapsed": 50507, "internal_node_id": "0.0-1.0"}}, {"uniqueid": "w88136717:a35533099", "current_trial": 2, "dateTime": 1693481143865, "trialdata": {"view_history": [{"page_index": 0, "viewing_time": 102063}, {"page_index": 1, "viewing_time": 140928}, {"page_index": 2, "viewing_time": 56337}, {"page_index": 3, "viewing_time": 74148}], "rt": 373480, "trial_id": "mouselab_instructions_1_misaligned", "trial_type": "instructions", "trial_index": 2, "time_elapsed": 423993, "internal_node_id": "0.0-2.0-1.0"}}, {"uniqueid": "w88136717:a35533099", "current_trial": 3, "dateTime": 1693481228031, "trialdata": {"revealed_states": [], "clicked_states": ["1", "23", "24", "2", "12", "3", "8", "9"], "num_clicks_accrued": [0, 0, 0, 0, 0, 0, 0, 0, 0, 0, 0, 0, 0], "stateRewards": ["", 10, 10, 10, -10, -10, 10, -10, 10, -10, 10, 10, -10, -10, 10, 10, -10, -10, 10, 10, -10, -10, 10, 10, -10, 10, -10, 10, -10, -10, -10, -10, -10, -10], "withholdReward": false, "trial_id": "practice_1", "block": "test", "trialIndex": 0, "score": 9.5, "costs": -4, "simulationMode": [null, null, null, null, null], "rewards": [10, 10, 10, -10, -10], "path": ["0", "0", "1", "2", "3", "4", "5"], "rt": [56114, 401, 113, 12518, 122], "actions": ["up", "up", "up", "right", "up"], "actionTimes": [60136, 61084, 61752, 74819, 75515], "queries": {"click": {"state": {"target": ["1", "23", "24", "2", "12", "3", "8", "9"], "time": [7668, 13078, 15608, 18102, 20225, 23822, 24920, 28612]}, "edge": {"target": [], "time": []}}, "mouseover": {"state": {"target": ["1", "2", "1", "23", "24", "25", "2", "1", "12", "13", "3", "8", "9", "4", "7", "4", "9", "3", "2", "1", "1", "1", "0", "12", "12", "19", "20", "12", "2", "11", "11", "10", "23", "23", "0", "20", "19", "22", "12"], "time": [5711, 8883, 12217, 12698, 15008, 16559, 17697, 19254, 19626, 20931, 22947, 24434, 25550, 30598, 32930, 33018, 33695, 35134, 35232, 35516, 37710, 38529, 39057, 40004, 42465, 43247, 43305, 47353, 49050, 49437, 50684, 50772, 51567, 51885, 55071, 58058, 58201, 58307, 58400]}, "edge": {"target": [], "time": []}}, "mouseout": {"state": {"target": ["22", "0", "1", "2", "1", "23", "24", "25", "2", "1", "12", "13", "3", "8", "9", "4", "7", "4", "9", "3", "2", "1", "1", "1", "0", "12", "12", "19", "20", "12", "2", "11", "11", "10", "23", "23", "0", "20", "19", "22", "12", "2", "8", "8", "17", "4", "4"], "time": [1957, 2491, 8707, 11985, 12335, 13225, 16444, 17026, 19222, 19285, 20838, 22117, 24392, 25456, 30537, 30666, 32974, 33082, 35070, 35170, 35369, 35617, 37833, 38589, 39101, 40895, 42579, 43274, 43332, 47390, 49381, 49466, 50714, 50821, 51767, 51917, 55124, 58157, 58267, 58336, 58466, 65107, 65234, 71352, 73872, 74086, 77616]}, "edge": {"target": [], "time": []}}}, "displayed_time": "76.07", "trialTime": 82022, "trial_type": "mouselab-mdp", "trial_index": 3, "time_elapsed": 508155, "internal_node_id": "0.0-2.0-2.0-0.0"}}, {"uniqueid": "w88136717:a35533099", "current_trial": 4, "dateTime": 1693481248005, "trialdata": {"revealed_states": [], "clicked_states": [], "num_clicks_accrued": [0, 0, 0, 0, 0, 0, 0, 0, 0, 0, 0, 0, 0], "stateRewards": ["", -10, 10, 10, -10, -10, -10, -10, -10, 10, -10, -10, 10, 10, 10, 10, -10, 10, -10, -10, -10, 10, 10, -10, 10, 10, -10, -10, 10, -10, 10, -10, -10, -10], "withholdReward": false, "trial_id": "practice_2", "block": "test", "trialIndex": 1, "score": -6.5, "costs": 0, "simulationMode": [null, null, null, null, null], "rewards": [-10, 10, 10, -10, -10], "path": ["0", "0", "1", "2", "3", "4", "5"], "rt": [2381, 100, 57, 1323, 43], "actions": ["up", "up", "up", "right", "up"], "actionTimes": [8231, 8894, 9499, 11375, 11947], "queries": {"click": {"state": {"target": [], "time": []}, "edge": {"target": [], "time": []}}, "mouseover": {"state": {"target": ["0"], "time": [6158]}, "edge": {"target": [], "time": []}}, "mouseout": {"state": {"target": ["0", "0", "12", "20"], "time": [2450, 6615, 16565, 16920]}, "edge": {"target": [], "time": []}}}, "displayed_time": "12.52", "trialTime": 18563, "trial_type": "mouselab-mdp", "trial_index": 4, "time_elapsed": 528130, "internal_node_id": "0.0-2.0-2.0-1.0"}}, {"uniqueid": "w88136717:a35533099", "current_trial": 5, "dateTime": 1693481315032, "trialdata": {"view_history": [{"page_index": 0, "viewing_time": 52679}, {"page_index": 1, "viewing_time": 14300}], "rt": 66981, "trial_id": "mouselab_instructions_2_misaligned", "trial_type": "instructions", "trial_index": 5, "time_elapsed": 595162, "internal_node_id": "0.0-2.0-3.0"}}, {"uniqueid": "w88136717:a35533099", "current_trial": 6, "dateTime": 1693481384021, "trialdata": {"rt": 68910, "response": {"Q0": "The cost for clicking on nodes may vary between nodes.", "Q1": "The better I perform the higher my bonus will be.", "Q2": "No, the amount of cash at each node of the web may be different each time.", "Q3": "To click on the least number of nodes.", "Q4": "Only before moving the spider.", "Q5": "3 seconds"}, "question_order": [0, 1, 2, 3, 4, 5], "correct": {"Q0": "The cost for clicking on nodes may vary between nodes.", "Q1": "The better I perform the higher my bonus will be.", "Q2": "No, the amount of cash at each node of the web may be different each time.", "Q3": "To get the highest total score.", "Q4": "Only before moving the spider.", "Q5": "3 seconds"}, "trial_id": "mouselab_quiz_misaligned", "trial_type": "survey-multi-choice", "trial_index": 6, "time_elapsed": 664151, "internal_node_id": "0.0-2.0-4.0"}}, {"uniqueid": "w88136717:a35533099", "current_trial": 7, "dateTime": 1693481399846, "trialdata": {"success": true, "trial_type": "fullscreen", "trial_index": 7, "time_elapsed": 679977, "internal_node_id": "0.0-2.1-0.1-0.1"}}, {"uniqueid": "w88136717:a35533099", "current_trial": 8, "dateTime": 1693481412543, "trialdata": {"view_history": [{"page_index": 0, "viewing_time": 8277}, {"page_index": 1, "viewing_time": 1399}, {"page_index": 2, "viewing_time": 1401}, {"page_index": 3, "viewing_time": 1592}], "rt": 12669, "trial_id": "mouselab_instructions_1_misaligned", "trial_type": "instructions", "trial_index": 8, "time_elapsed": 692674, "internal_node_id": "0.0-2.1-1.1"}}, {"uniqueid": "w88136717:a35533099", "current_trial": 9, "dateTime": 1693481434173, "trialdata": {"revealed_states": [], "clicked_states": [], "num_clicks_accrued": [0, 0, 0, 0, 0, 0, 0, 0, 0, 0, 0, 0, 0], "stateRewards": ["", 10, 10, 10, -10, -10, 10, -10, 10, -10, 10, 10, -10, -10, 10, 10, -10, -10, 10, 10, -10, -10, 10, 10, -10, 10, -10, 10, -10, -10, -10, -10, -10, -10], "withholdReward": false, "trial_id": "practice_1", "block": "test", "trialIndex": 2, "score": 13.5, "costs": 0, "simulationMode": [null, null, null, null, null], "rewards": [10, 10, 10, -10, -10], "path": ["0", "0", "1", "2", "3", "4", "5"], "rt": [8993, 33, 79, 576, 269], "actions": ["up", "up", "up", "right", "up"], "actionTimes": [13130, 13691, 14356, 15467, 16302], "queries": {"click": {"state": {"target": [], "time": []}, "edge": {"target": [], "time": []}}, "mouseover": {"state": {"target": ["0"], "time": [7951]}, "edge": {"target": [], "time": []}}, "mouseout": {"state": {"target": ["22", "0", "0"], "time": [1959, 4617, 17224]}, "edge": {"target": [], "time": []}}}, "displayed_time": "16.85", "trialTime": 19958, "trial_type": "mouselab-mdp", "trial_index": 9, "time_elapsed": 714301, "internal_node_id": "0.0-2.1-2.1-0.1"}}, {"uniqueid": "w88136717:a35533099", "current_trial": 10, "dateTime": 1693481453359, "trialdata": {"revealed_states": [], "clicked_states": ["26"], "num_clicks_accrued": [0, 0, 0, 0, 0, 0, 0, 0, 0, 0, 0, 0, 0], "stateRewards": ["", -10, 10, 10, -10, -10, -10, -10, -10, 10, -10, -10, 10, 10, 10, 10, -10, 10, -10, -10, -10, 10, 10, -10, 10, 10, -10, -10, 10, -10, 10, -10, -10, -10], "withholdReward": false, "trial_id": "practice_2", "block": "test", "trialIndex": 3, "score": -7, "costs": -0.5, "simulationMode": [null, null, null, null, null], "rewards": [-10, 10, 10, -10, -10], "path": ["0", "0", "1", "2", "3", "4", "5"], "rt": [3034, 7, 388, 1622, 543], "actions": ["up", "up", "up", "right", "up"], "actionTimes": [6055, 6604, 7576, 9736, 10824], "queries": {"click": {"state": {"target": ["26"], "time": [4666]}, "edge": {"target": [], "time": []}}, "mouseover": {"state": {"target": ["23", "28", "26", "28"], "time": [3776, 3926, 4110, 5453]}, "edge": {"target": [], "time": []}}, "mouseout": {"state": {"target": ["22", "0", "23", "28", "26", "28", "1"], "time": [914, 3730, 3808, 3979, 5435, 5514, 13566]}, "edge": {"target": [], "time": []}}}, "displayed_time": "11.36", "trialTime": 17732, "trial_type": "mouselab-mdp", "trial_index": 10, "time_elapsed": 733487, "internal_node_id": "0.0-2.1-2.1-1.1"}}, {"uniqueid": "w88136717:a35533099", "current_trial": 11, "dateTime": 1693481464274, "trialdata": {"view_history": [{"page_index": 0, "viewing_time": 8774}, {"page_index": 1, "viewing_time": 2112}], "rt": 10887, "trial_id": "mouselab_instructions_2_misaligned", "trial_type": "instructions", "trial_index": 11, "time_elapsed": 744406, "internal_node_id": "0.0-2.1-3.1"}}, {"uniqueid": "w88136717:a35533099", "current_trial": 12, "dateTime": 1693481499455, "trialdata": {"rt": 35132, "response": {"Q0": "The cost for clicking on nodes may vary between nodes.", "Q1": "The better I perform the higher my bonus will be.", "Q2": "No, the amount of cash at each node of the web may be different each time.", "Q3": "To get the highest total score.", "Q4": "Only before moving the spider.", "Q5": "3 seconds"}, "question_order": [0, 1, 2, 3, 4, 5], "correct": {"Q0": "The cost for clicking on nodes may vary between nodes.", "Q1": "The better I perform the higher my bonus will be.", "Q2": "No, the amount of cash at each node of the web may be different each time.", "Q3": "To get the highest total score.", "Q4": "Only before moving the spider.", "Q5": "3 seconds"}, "trial_id": "mouselab_quiz_misaligned", "trial_type": "survey-multi-choice", "trial_index": 12, "time_elapsed": 779586, "internal_node_id": "0.0-2.1-4.1"}}, {"uniqueid": "w88136717:a35533099", "current_trial": 13, "dateTime": 1693481511625, "trialdata": {"rt": 12130, "response": {"Q0": "No"}, "question_order": [0], "trial_id": "repeat_check", "trial_type": "survey-multi-choice", "trial_index": 13, "time_elapsed": 791755, "internal_node_id": "0.0-4.0-0.0"}}, {"uniqueid": "w88136717:a35533099", "current_trial": 14, "dateTime": 1693481532604, "trialdata": {"rt": 20944, "stimulus": "\n<h1> Get ready to start the game! </h1>\n\nThank you for reading the instructions. Get ready start with the 40 rounds of this game.\n<br><br>\nIf you need to take a break, feel free to take one after the end of a round, before continuing to the next one.\n<br><br>\nRemember, the more money the spider gets, the bigger your bonus will be!\n<br><br>\n<div style='text-align: center;'>Press <code>space</code> to begin.</div>\n\n<br><br>\n(If, at any point, the <code>space</code> key does not take you to the next page, click once on the text and try again.)", "response": " ", "trial_id": "mdp_ready", "trial_type": "html-keyboard-response", "trial_index": 14, "time_elapsed": 812736, "internal_node_id": "0.0-6.0-0.0"}}, {"uniqueid": "w88136717:a35533099", "current_trial": 15, "dateTime": 1693481577366, "trialdata": {"revealed_states": [], "clicked_states": [], "num_clicks_accrued": [0, 0, 0, 0, 0, 0, 0, 0, 0, 0, 0, 0, 0], "stateRewards": ["", 1, -1, 4, 5, -32, 18, 20, 6, -88, -74, 9, -2, 1, -2, -14, 34, -77, -38, -1, 80, -36, 73, 2, 3, -8, 10, -48, -73, -71, -11, -22, 20, 54], "withholdReward": false, "trial_id": "mdp_trial_1", "block": "test", "trialIndex": 4, "score": -23, "costs": 0, "simulationMode": [null, null, null, null, null], "rewards": [1, -1, 4, 5, -32], "path": ["0", "0", "1", "2", "3", "4", "5"], "rt": [2821, 147, 191, 3487, 446], "actions": ["up", "up", "up", "right", "up"], "actionTimes": [6558, 7254, 7984, 12020, 13022], "queries": {"click": {"state": {"target": [], "time": []}, "edge": {"target": [], "time": []}}, "mouseover": {"state": {"target": [], "time": []}, "edge": {"target": [], "time": []}}, "mouseout": {"state": {"target": ["0", "0", "13"], "time": [2166, 14131, 14197]}, "edge": {"target": [], "time": []}}}, "displayed_time": "17.75", "trialTime": 43228, "trial_type": "mouselab-mdp", "trial_index": 15, "time_elapsed": 857488, "internal_node_id": "0.0-6.0-1.0-0.0"}}, {"uniqueid": "w88136717:a35533099", "current_trial": 16, "dateTime": 1693481603917, "trialdata": {"revealed_states": [], "clicked_states": ["8"], "num_clicks_accrued": [0, 0, 0, 0, 0, 0, 0, 0, 0, 0, 0, 0, 0], "stateRewards": ["", -2, 2, -2, -7, -50, -62, -45, 7, 36, -24, -72, -1, -1, 8, -1, -67, 20, -52, 2, 35, -50, 80, -1, 1, 6, -6, -70, 6, 88, 8, -47, 74, -19], "withholdReward": false, "trial_id": "mdp_trial_2", "block": "test", "trialIndex": 5, "score": -71.55, "costs": -1.55, "simulationMode": [null, null, null, null, null], "rewards": [-1, 1, 6, -6, -70], "path": ["0", "0", "23", "24", "25", "26", "27"], "rt": [3840, 194, 343, 2052, 1004], "actions": ["left", "left", "left", "up", "up"], "actionTimes": [11707, 12463, 13352, 15951, 17504], "queries": {"click": {"state": {"target": ["8"], "time": [9480]}, "edge": {"target": [], "time": []}}, "mouseover": {"state": {"target": ["1", "8"], "time": [8560, 8981]}, "edge": {"target": [], "time": []}}, "mouseout": {"state": {"target": ["14", "13", "12", "1", "8", "15"], "time": [5779, 5812, 5910, 8639, 20608, 20684]}, "edge": {"target": [], "time": []}}}, "displayed_time": "21.87", "trialTime": 24629, "trial_type": "mouselab-mdp", "trial_index": 16, "time_elapsed": 884047, "internal_node_id": "0.0-6.0-1.0-1.0"}}, {"uniqueid": "w88136717:a35533099", "current_trial": 17, "dateTime": 1693481628729, "trialdata": {"revealed_states": [], "clicked_states": ["5"], "num_clicks_accrued": [0, 0, 0, 0, 0, 0, 0, 0, 0, 0, 0, 0, 0], "stateRewards": ["", -1, -3, -6, 14, 41, 18, 63, -14, 80, 21, 17, -2, -4, -2, -5, 13, 70, 8, -4, -64, -10, -20, 2, -1, 4, -1, -17, -55, 42, -7, 47, 54, 15], "withholdReward": false, "trial_id": "mdp_trial_3", "block": "test", "trialIndex": 6, "score": 53.85, "costs": -2.15, "simulationMode": [null, null, null, null, null, null], "rewards": [-1, -3, -6, -14, 80], "path": ["0", "0", "1", "2", "3", "8", "9"], "rt": [3791, 1184, 187, 551, 40, 54], "actions": ["up", "up", "up", "up", "left", "up"], "actionTimes": [9376, 10580, 11313, 12412, 12999, 13599], "queries": {"click": {"state": {"target": ["5"], "time": [8179]}, "edge": {"target": [], "time": []}}, "mouseover": {"state": {"target": ["7", "4", "5"], "time": [6394, 6751, 7611]}, "edge": {"target": [], "time": []}}, "mouseout": {"state": {"target": ["0", "7", "4", "5"], "time": [6230, 6510, 7416, 16583]}, "edge": {"target": [], "time": []}}}, "displayed_time": "19.60", "trialTime": 22786, "trial_type": "mouselab-mdp", "trial_index": 17, "time_elapsed": 908858, "internal_node_id": "0.0-6.0-1.0-2.0"}}, {"uniqueid": "w88136717:a35533099", "current_trial": 18, "dateTime": 1693481651775, "trialdata": {"revealed_states": [], "clicked_states": [], "num_clicks_accrued": [0, 0, 0, 0, 0, 0, 0, 0, 0, 0, 0, 0, 0], "stateRewards": ["", -2, -3, 8, 14, -73, 73, 84, -12, -2, -50, -17, 2, 1, -2, -9, -44, -27, -33, 16, -63, -47, -66, -2, 1, 4, -5, -33, -11, 50, 9, 38, -79, 31], "withholdReward": false, "trial_id": "mdp_trial_4", "block": "test", "trialIndex": 7, "score": -30, "costs": 0, "simulationMode": [null, null, null, null, null], "rewards": [2, 1, -2, 16, -47], "path": ["0", "0", "12", "13", "14", "19", "21"], "rt": [1017, 15, 197, 86, 191], "actions": ["right", "right", "right", "down", "down"], "actionTimes": [5664, 6234, 6978, 7609, 8331], "queries": {"click": {"state": {"target": [], "time": []}, "edge": {"target": [], "time": []}}, "mouseover": {"state": {"target": [], "time": []}, "edge": {"target": [], "time": []}}, "mouseout": {"state": {"target": ["19", "12", "0", "22", "19"], "time": [2260, 2795, 10981, 11072, 11098]}, "edge": {"target": [], "time": []}}}, "displayed_time": "18.66", "trialTime": 20776, "trial_type": "mouselab-mdp", "trial_index": 18, "time_elapsed": 931900, "internal_node_id": "0.0-6.0-1.0-3.0"}}, {"uniqueid": "w88136717:a35533099", "current_trial": 19, "dateTime": 1693481674675, "trialdata": {"revealed_states": [], "clicked_states": [], "num_clicks_accrued": [0, 0, 0, 0, 0, 0, 0, 0, 0, 0, 0, 0, 0], "stateRewards": ["", -1, 4, -3, 3, 57, -61, 5, -11, 23, -1, 34, -2, -4, -1, -13, 27, 38, -36, 4, -45, 21, 88, 1, -2, -1, 1, -69, -5, -78, -12, -9, 38, -54], "withholdReward": false, "trial_id": "mdp_trial_5", "block": "test", "trialIndex": 8, "score": 24, "costs": 0, "simulationMode": [null, null, null, null, null], "rewards": [1, -2, -1, -12, 38], "path": ["0", "0", "23", "24", "25", "30", "32"], "rt": [1132, 242, 349, 35, 535], "actions": ["left", "left", "left", "down", "down"], "actionTimes": [6702, 7505, 8404, 8982, 10111], "queries": {"click": {"state": {"target": [], "time": []}, "edge": {"target": [], "time": []}}, "mouseover": {"state": {"target": [], "time": []}, "edge": {"target": [], "time": []}}, "mouseout": {"state": {"target": ["19", "12", "0"], "time": [3504, 3816, 12963]}, "edge": {"target": [], "time": []}}}, "displayed_time": "19.57", "trialTime": 21065, "trial_type": "mouselab-mdp", "trial_index": 19, "time_elapsed": 954801, "internal_node_id": "0.0-6.0-1.0-4.0"}}, {"uniqueid": "w88136717:a35533099", "current_trial": 20, "dateTime": 1693481700550, "trialdata": {"revealed_states": [], "clicked_states": ["16"], "num_clicks_accrued": [0, 0, 0, 0, 0, 0, 0, 0, 0, 0, 0, 0, 0], "stateRewards": ["", 2, 3, 6, -12, -29, 12, 87, 4, 35, -30, 67, 2, 3, -5, -9, 44, 69, -8, 1, 45, -8, 28, -2, -1, -8, 11, -12, -5, 81, 9, 87, 82, 88], "withholdReward": false, "trial_id": "mdp_trial_6", "block": "test", "trialIndex": 9, "score": 32.85, "costs": -2.15, "simulationMode": [null, null, null, null, null, null], "rewards": [2, 3, -5, -9, 44], "path": ["0", "0", "12", "13", "14", "15", "16"], "rt": [3802, 2015, 12, 5, 5, 395], "actions": ["up", "right", "right", "right", "up", "up"], "actionTimes": [8309, 10341, 10889, 11477, 12031, 12989], "queries": {"click": {"state": {"target": ["16"], "time": [7200]}, "edge": {"target": [], "time": []}}, "mouseover": {"state": {"target": ["12", "0", "12", "15", "16"], "time": [4601, 4671, 5203, 5645, 6564]}, "edge": {"target": [], "time": []}}, "mouseout": {"state": {"target": ["13", "0", "0", "12", "0", "12", "15", "16"], "time": [2280, 2451, 4583, 4644, 5165, 5242, 6375, 22010]}, "edge": {"target": [], "time": []}}}, "displayed_time": "18.52", "trialTime": 23892, "trial_type": "mouselab-mdp", "trial_index": 20, "time_elapsed": 980679, "internal_node_id": "0.0-6.0-1.0-5.0"}}, {"uniqueid": "w88136717:a35533099", "current_trial": 21, "dateTime": 1693481721950, "trialdata": {"revealed_states": [], "clicked_states": [], "num_clicks_accrued": [0, 0, 0, 0, 0, 0, 0, 0, 0, 0, 0, 0, 0], "stateRewards": ["", -2, 2, 3, -7, 76, 63, 21, 15, 35, -8, -44, 1, 1, -2, -12, 23, 24, 76, -9, 46, 66, -49, -2, -1, 7, 12, 40, -71, -45, -6, 38, -49, 46], "withholdReward": false, "trial_id": "mdp_trial_7", "block": "test", "trialIndex": 10, "score": -26, "costs": 0, "simulationMode": [null, null, null, null, null], "rewards": [-2, 2, 3, 15, -44], "path": ["0", "0", "1", "2", "3", "8", "11"], "rt": [1077, 10, 377, 6, 497], "actions": ["up", "up", "up", "left", "left"], "actionTimes": [4330, 4893, 5839, 6418, 7480], "queries": {"click": {"state": {"target": [], "time": []}, "edge": {"target": [], "time": []}}, "mouseover": {"state": {"target": ["12"], "time": [3992]}, "edge": {"target": [], "time": []}}, "mouseout": {"state": {"target": ["20", "12", "12", "15"], "time": [1117, 1439, 4020, 9243]}, "edge": {"target": [], "time": []}}}, "displayed_time": "17.27", "trialTime": 19102, "trial_type": "mouselab-mdp", "trial_index": 21, "time_elapsed": 1002080, "internal_node_id": "0.0-6.0-1.0-6.0"}}, {"uniqueid": "w88136717:a35533099", "current_trial": 22, "dateTime": 1693481746685, "trialdata": {"revealed_states": [], "clicked_states": [], "num_clicks_accrued": [0, 0, 0, 0, 0, 0, 0, 0, 0, 0, 0, 0, 0], "stateRewards": ["", 2, 3, 8, 11, 25, -80, 6, -4, -56, 84, -23, -2, -4, -3, 4, -51, -9, -61, -15, -64, 67, -35, 1, -1, -7, -6, 83, 59, -15, 12, -79, 56, 41], "withholdReward": false, "trial_id": "mdp_trial_8", "block": "test", "trialIndex": 11, "score": 61, "costs": 0, "simulationMode": [null, null, null, null, null], "rewards": [1, -1, -7, 12, 56], "path": ["0", "0", "23", "24", "25", "30", "32"], "rt": [6379, 115, 275, 282, 138], "actions": ["left", "left", "left", "down", "down"], "actionTimes": [10931, 11579, 12421, 13245, 13948], "queries": {"click": {"state": {"target": [], "time": []}, "edge": {"target": [], "time": []}}, "mouseover": {"state": {"target": ["11", "26", "25", "30", "32"], "time": [6924, 7388, 7852, 8003, 8551]}, "edge": {"target": [], "time": []}}, "mouseout": {"state": {"target": ["12", "0", "11", "26", "25", "30", "32", "21"], "time": [1213, 1346, 7038, 7781, 7935, 8270, 10270, 15506]}, "edge": {"target": [], "time": []}}}, "displayed_time": "18.55", "trialTime": 20690, "trial_type": "mouselab-mdp", "trial_index": 22, "time_elapsed": 1026807, "internal_node_id": "0.0-6.0-1.0-7.0"}}, {"uniqueid": "w88136717:a35533099", "current_trial": 23, "dateTime": 1693481775309, "trialdata": {"revealed_states": [], "clicked_states": [], "num_clicks_accrued": [0, 0, 0, 0, 0, 0, 0, 0, 0, 0, 0, 0, 0], "stateRewards": ["", -2, 3, 8, -9, 59, 41, -50, -1, 82, 66, 33, 2, -2, 7, 8, 1, -38, 12, -16, 24, -37, 67, 1, 4, -2, 5, 35, -83, 28, 8, -27, 69, -64], "withholdReward": false, "trial_id": "mdp_trial_9", "block": "test", "trialIndex": 12, "score": 41, "costs": 0, "simulationMode": [null, null, null, null, null], "rewards": [-2, 3, 8, -9, 41], "path": ["0", "0", "1", "2", "3", "4", "6"], "rt": [921, 123, 308, 136, 814], "actions": ["up", "up", "up", "right", "right"], "actionTimes": [10280, 10940, 11790, 12454, 13814], "queries": {"click": {"state": {"target": [], "time": []}, "edge": {"target": [], "time": []}}, "mouseover": {"state": {"target": [], "time": []}, "edge": {"target": [], "time": []}}, "mouseout": {"state": {"target": ["20", "13", "12", "0", "0", "13", "14"], "time": [2242, 2609, 2658, 9427, 20766, 20827, 20855]}, "edge": {"target": [], "time": []}}}, "displayed_time": "23.37", "trialTime": 26424, "trial_type": "mouselab-mdp", "trial_index": 23, "time_elapsed": 1055436, "internal_node_id": "0.0-6.0-1.0-8.0"}}, {"uniqueid": "w88136717:a35533099", "current_trial": 24, "dateTime": 1693481804581, "trialdata": {"revealed_states": [], "clicked_states": [], "num_clicks_accrued": [0, 0, 0, 0, 0, 0, 0, 0, 0, 0, 0, 0, 0], "stateRewards": ["", 1, -1, 1, 13, 31, -56, 72, 2, 41, 5, 63, -2, -3, -2, 3, -71, -26, 52, 13, -31, 24, -67, 2, -2, 5, 4, 66, 43, 72, 9, 86, -26, 44], "withholdReward": false, "trial_id": "mdp_trial_10", "block": "test", "trialIndex": 13, "score": 45, "costs": 0, "simulationMode": [null, null, null, null, null], "rewards": [1, -1, 1, 13, 31], "path": ["0", "0", "1", "2", "3", "4", "5"], "rt": [5235, 174, 733, 532, 204], "actions": ["up", "up", "up", "right", "up"], "actionTimes": [10751, 11501, 12799, 13908, 14670], "queries": {"click": {"state": {"target": [], "time": []}, "edge": {"target": [], "time": []}}, "mouseover": {"state": {"target": ["12", "0", "0", "20"], "time": [5576, 5956, 10055, 10128]}, "edge": {"target": [], "time": []}}, "mouseout": {"state": {"target": ["12", "0", "12", "0", "0", "20"], "time": [2768, 3694, 5899, 6132, 10110, 10167]}, "edge": {"target": [], "time": []}}}, "displayed_time": "19.52", "trialTime": 21184, "trial_type": "mouselab-mdp", "trial_index": 24, "time_elapsed": 1084708, "internal_node_id": "0.0-6.0-1.0-9.0"}}, {"uniqueid": "w88136717:a35533099", "current_trial": 25, "dateTime": 1693481825585, "trialdata": {"revealed_states": [], "clicked_states": [], "num_clicks_accrued": [0, 0, 0, 0, 0, 0, 0, 0, 0, 0, 0, 0, 0], "stateRewards": ["", 1, -3, -4, -11, -56, 61, -47, -16, -28, -9, 69, -2, -3, -4, -8, 40, -86, 59, -4, 80, 27, 54, -1, 3, -1, 8, 67, 23, 50, 6, 83, -43, -29], "withholdReward": false, "trial_id": "mdp_trial_11", "block": "test", "trialIndex": 14, "score": -73, "costs": 0, "simulationMode": [null, null, null, null, null], "rewards": [1, -3, -4, -11, -56], "path": ["0", "0", "1", "2", "3", "4", "5"], "rt": [4576, 258, 157, 693, 74], "actions": ["up", "up", "up", "right", "up"], "actionTimes": [8386, 9226, 9914, 11186, 11793], "queries": {"click": {"state": {"target": [], "time": []}, "edge": {"target": [], "time": []}}, "mouseover": {"state": {"target": ["28", "10", "8", "11"], "time": [4788, 4912, 5403, 6505]}, "edge": {"target": [], "time": []}}, "mouseout": {"state": {"target": ["21", "0", "28", "10", "8", "11", "7"], "time": [1718, 1779, 4846, 5013, 5669, 12831, 12926]}, "edge": {"target": [], "time": []}}}, "displayed_time": "17.81", "trialTime": 19119, "trial_type": "mouselab-mdp", "trial_index": 25, "time_elapsed": 1105711, "internal_node_id": "0.0-6.0-1.0-10.0"}}, {"uniqueid": "w88136717:a35533099", "current_trial": 26, "dateTime": 1693481847922, "trialdata": {"revealed_states": [], "clicked_states": ["16"], "num_clicks_accrued": [0, 0, 0, 0, 0, 0, 0, 0, 0, 0, 0, 0, 0], "stateRewards": ["", 1, 2, 2, -15, -84, 28, -26, 13, 31, 86, 30, -2, 1, -1, -8, 66, -40, -1, -10, -32, 57, -17, 1, 2, -2, 9, -23, 77, 85, 12, -32, -62, -35], "withholdReward": false, "trial_id": "mdp_trial_12", "block": "test", "trialIndex": 15, "score": 53.85, "costs": -2.15, "simulationMode": [null, null, null, null, null, null], "rewards": [-2, 1, -1, -8, 66], "path": ["0", "0", "12", "13", "14", "15", "16"], "rt": [3576, 1794, 229, 101, 17, 348], "actions": ["up", "right", "right", "right", "up", "up"], "actionTimes": [8481, 10296, 11063, 11686, 12251, 13169], "queries": {"click": {"state": {"target": ["16"], "time": [6897]}, "edge": {"target": [], "time": []}}, "mouseover": {"state": {"target": ["12", "15", "17", "16"], "time": [5670, 5751, 5881, 6358]}, "edge": {"target": [], "time": []}}, "mouseout": {"state": {"target": ["0", "12", "15", "17", "16"], "time": [3056, 5702, 5802, 6067, 14514]}, "edge": {"target": [], "time": []}}}, "displayed_time": "18.91", "trialTime": 20489, "trial_type": "mouselab-mdp", "trial_index": 26, "time_elapsed": 1128049, "internal_node_id": "0.0-6.0-1.0-11.0"}}, {"uniqueid": "w88136717:a35533099", "current_trial": 27, "dateTime": 1693481870346, "trialdata": {"revealed_states": [], "clicked_states": [], "num_clicks_accrued": [0, 0, 0, 0, 0, 0, 0, 0, 0, 0, 0, 0, 0], "stateRewards": ["", -1, 1, -2, 5, 73, 15, 61, 8, 7, 38, 76, 2, 2, -4, -6, -6, -26, 43, -5, -45, -85, -35, -2, 1, -4, 15, -10, 69, 72, -11, 84, -49, -38], "withholdReward": false, "trial_id": "mdp_trial_13", "block": "test", "trialIndex": 16, "score": 44, "costs": 0, "simulationMode": [null, null, null, null, null], "rewards": [-1, 1, -2, 8, 38], "path": ["0", "0", "1", "2", "3", "8", "10"], "rt": [599, 104, 702, 670, 249], "actions": ["up", "up", "up", "left", "down"], "actionTimes": [4489, 5137, 6380, 7604, 8382], "queries": {"click": {"state": {"target": [], "time": []}, "edge": {"target": [], "time": []}}, "mouseover": {"state": {"target": [], "time": []}, "edge": {"target": [], "time": []}}, "mouseout": {"state": {"target": ["21", "0", "22"], "time": [1627, 18100, 18155]}, "edge": {"target": [], "time": []}}}, "displayed_time": "17.90", "trialTime": 20141, "trial_type": "mouselab-mdp", "trial_index": 27, "time_elapsed": 1150472, "internal_node_id": "0.0-6.0-1.0-12.0"}}, {"uniqueid": "w88136717:a35533099", "current_trial": 28, "dateTime": 1693481892009, "trialdata": {"revealed_states": [], "clicked_states": [], "num_clicks_accrued": [0, 0, 0, 0, 0, 0, 0, 0, 0, 0, 0, 0, 0], "stateRewards": ["", 1, -2, -3, 14, -42, -87, -37, -11, -50, 33, -44, -2, 4, -7, 13, 48, -75, -66, 12, 23, -2, 82, 1, -4, 3, 12, 51, -15, -26, -11, -52, -29, 82], "withholdReward": false, "trial_id": "mdp_trial_14", "block": "test", "trialIndex": 17, "score": -27, "costs": 0, "simulationMode": [null, null, null, null, null], "rewards": [1, -2, -3, 14, -37], "path": ["0", "0", "1", "2", "3", "4", "7"], "rt": [689, 617, 336, 41, 206], "actions": ["up", "up", "up", "right", "down"], "actionTimes": [4907, 6094, 6970, 7536, 8321], "queries": {"click": {"state": {"target": [], "time": []}, "edge": {"target": [], "time": []}}, "mouseover": {"state": {"target": [], "time": []}, "edge": {"target": [], "time": []}}, "mouseout": {"state": {"target": ["19", "13", "12", "0"], "time": [2038, 2170, 2278, 2656]}, "edge": {"target": [], "time": []}}}, "displayed_time": "18.23", "trialTime": 19775, "trial_type": "mouselab-mdp", "trial_index": 28, "time_elapsed": 1172136, "internal_node_id": "0.0-6.0-1.0-13.0"}}, {"uniqueid": "w88136717:a35533099", "current_trial": 29, "dateTime": 1693481914453, "trialdata": {"revealed_states": [], "clicked_states": ["31"], "num_clicks_accrued": [0, 0, 0, 0, 0, 0, 0, 0, 0, 0, 0, 0, 0], "stateRewards": ["", -2, -2, -7, -13, -10, 49, -68, -1, 84, 70, 88, 1, 4, 4, 12, -57, 25, 30, 8, -1, -77, 57, 2, 3, 2, 3, -18, -80, 23, -15, -41, 70, 11], "withholdReward": false, "trial_id": "mdp_trial_15", "block": "test", "trialIndex": 18, "score": 0.8499999999999996, "costs": -2.15, "simulationMode": [null, null, null, null, null, null], "rewards": [2, 3, 2, -15, 11], "path": ["0", "0", "23", "24", "25", "30", "33"], "rt": [3932, 1706, 650, 31, 549, 83], "actions": ["left", "left", "left", "left", "down", "left"], "actionTimes": [7282, 9006, 10223, 10808, 11918, 12549], "queries": {"click": {"state": {"target": ["31"], "time": [5021]}, "edge": {"target": [], "time": []}}, "mouseover": {"state": {"target": ["31", "31"], "time": [3904, 4514]}, "edge": {"target": [], "time": []}}, "mouseout": {"state": {"target": ["19", "12", "0", "31", "31"], "time": [1068, 1302, 3406, 4331, 14025]}, "edge": {"target": [], "time": []}}}, "displayed_time": "17.36", "trialTime": 20213, "trial_type": "mouselab-mdp", "trial_index": 29, "time_elapsed": 1194579, "internal_node_id": "0.0-6.0-1.0-14.0"}}, {"uniqueid": "w88136717:a35533099", "current_trial": 30, "dateTime": 1693481938834, "trialdata": {"revealed_states": [], "clicked_states": [], "num_clicks_accrued": [0, 0, 0, 0, 0, 0, 0, 0, 0, 0, 0, 0, 0], "stateRewards": ["", 1, -2, 7, -14, 88, -56, -44, -14, 64, -51, -57, -2, 3, -4, -9, -11, 19, -77, -1, 68, 75, -67, -1, 1, -2, 5, -37, 70, -34, -10, -72, 63, -41], "withholdReward": false, "trial_id": "mdp_trial_16", "block": "test", "trialIndex": 19, "score": -71, "costs": 0, "simulationMode": [null, null, null, null, null], "rewards": [-2, 3, -4, -1, -67], "path": ["0", "0", "12", "13", "14", "19", "22"], "rt": [677, 514, 12, 28, 181], "actions": ["right", "right", "right", "down", "left"], "actionTimes": [5444, 6508, 7058, 7632, 8372], "queries": {"click": {"state": {"target": [], "time": []}, "edge": {"target": [], "time": []}}, "mouseover": {"state": {"target": [], "time": []}, "edge": {"target": [], "time": []}}, "mouseout": {"state": {"target": ["20", "0", "14"], "time": [2494, 9919, 9986]}, "edge": {"target": [], "time": []}}}, "displayed_time": "18.78", "trialTime": 22124, "trial_type": "mouselab-mdp", "trial_index": 30, "time_elapsed": 1218959, "internal_node_id": "0.0-6.0-1.0-15.0"}}, {"uniqueid": "w88136717:a35533099", "current_trial": 31, "dateTime": 1693481966688, "trialdata": {"revealed_states": [], "clicked_states": [], "num_clicks_accrued": [0, 0, 0, 0, 0, 0, 0, 0, 0, 0, 0, 0, 0], "stateRewards": ["", 2, -4, 4, 9, 69, 9, -75, 12, -86, 66, 25, -1, 3, 2, -13, -88, -3, 1, 4, -69, 49, -84, 2, -1, 4, 2, -18, -81, -52, -15, -69, -54, 25], "withholdReward": false, "trial_id": "mdp_trial_17", "block": "test", "trialIndex": 20, "score": 39, "costs": 0, "simulationMode": [null, null, null, null, null], "rewards": [2, -4, 4, 12, 25], "path": ["0", "0", "1", "2", "3", "8", "11"], "rt": [3174, 272, 196, 427, 654], "actions": ["up", "up", "up", "left", "left"], "actionTimes": [9268, 10198, 10984, 11987, 13190], "queries": {"click": {"state": {"target": [], "time": []}, "edge": {"target": [], "time": []}}, "mouseover": {"state": {"target": [], "time": []}, "edge": {"target": [], "time": []}}, "mouseout": {"state": {"target": ["12"], "time": [1947]}, "edge": {"target": [], "time": []}}}, "displayed_time": "20.13", "trialTime": 25161, "trial_type": "mouselab-mdp", "trial_index": 31, "time_elapsed": 1246801, "internal_node_id": "0.0-6.0-1.0-16.0"}}, {"uniqueid": "w88136717:a35533099", "current_trial": 32, "dateTime": 1693481995902, "trialdata": {"revealed_states": [], "clicked_states": [], "num_clicks_accrued": [0, 0, 0, 0, 0, 0, 0, 0, 0, 0, 0, 0, 0], "stateRewards": ["", -2, -3, 1, -14, 48, -49, 67, -1, -35, -48, 3, -2, 1, -4, -5, 86, -84, 39, 1, 48, 41, -42, -1, -4, 2, -7, 18, -86, 17, 7, -9, 57, -69], "withholdReward": false, "trial_id": "mdp_trial_18", "block": "test", "trialIndex": 21, "score": 7, "costs": 0, "simulationMode": [null, null, null, null, null], "rewards": [-1, -4, 2, -7, 17], "path": ["0", "0", "23", "24", "25", "26", "29"], "rt": [5846, 186, 7, 107, 1072], "actions": ["left", "left", "left", "up", "left"], "actionTimes": [11585, 12317, 12867, 13526, 15175], "queries": {"click": {"state": {"target": [], "time": []}, "edge": {"target": [], "time": []}}, "mouseover": {"state": {"target": ["10", "28", "26", "29"], "time": [7113, 8649, 9457, 9547]}, "edge": {"target": [], "time": []}}, "mouseout": {"state": {"target": ["0", "22", "0", "10", "28", "26", "29", "18", "15"], "time": [908, 979, 6155, 7178, 9232, 9503, 16453, 16540, 16572]}, "edge": {"target": [], "time": []}}}, "displayed_time": "19.76", "trialTime": 25587, "trial_type": "mouselab-mdp", "trial_index": 32, "time_elapsed": 1276023, "internal_node_id": "0.0-6.0-1.0-17.0"}}, {"uniqueid": "w88136717:a35533099", "current_trial": 33, "dateTime": 1693482018431, "trialdata": {"revealed_states": [], "clicked_states": [], "num_clicks_accrued": [0, 0, 0, 0, 0, 0, 0, 0, 0, 0, 0, 0, 0], "stateRewards": ["", -1, 2, -7, -12, -62, 12, -13, 5, 77, -71, 83, 1, -4, 7, 15, -42, -87, -4, 5, -25, 44, 88, -1, 4, -5, -8, 14, 51, 8, -5, 83, -24, -19], "withholdReward": false, "trial_id": "mdp_trial_19", "block": "test", "trialIndex": 22, "score": -80, "costs": 0, "simulationMode": [null, null, null, null, null], "rewards": [-1, 2, -7, -12, -62], "path": ["0", "0", "1", "2", "3", "4", "5"], "rt": [1814, 1186, 210, 7, 1852], "actions": ["up", "up", "up", "right", "up"], "actionTimes": [6415, 8144, 8905, 9442, 11848], "queries": {"click": {"state": {"target": [], "time": []}, "edge": {"target": [], "time": []}}, "mouseover": {"state": {"target": [], "time": []}, "edge": {"target": [], "time": []}}, "mouseout": {"state": {"target": ["19", "22", "12", "1", "0"], "time": [1995, 2040, 2268, 2517, 17412]}, "edge": {"target": [], "time": []}}}, "displayed_time": "18.61", "trialTime": 20033, "trial_type": "mouselab-mdp", "trial_index": 33, "time_elapsed": 1298557, "internal_node_id": "0.0-6.0-1.0-18.0"}}, {"uniqueid": "w88136717:a35533099", "current_trial": 34, "dateTime": 1693482045585, "trialdata": {"revealed_states": [], "clicked_states": ["9"], "num_clicks_accrued": [0, 0, 0, 0, 0, 0, 0, 0, 0, 0, 0, 0, 0], "stateRewards": ["", 2, 3, -2, -8, -8, -41, 74, 15, -23, -80, 1, 1, 3, 3, -15, -63, -78, 67, 13, 75, -41, 86, 2, -2, 6, -3, -8, -49, 50, -6, 83, 74, 80], "withholdReward": false, "trial_id": "mdp_trial_20", "block": "test", "trialIndex": 23, "score": 16.85, "costs": -2.15, "simulationMode": [null, null, null, null, null], "rewards": [2, 3, -2, 15, 1], "path": ["0", "0", "1", "2", "3", "8", "11"], "rt": [6014, 39, 508, 74, 8], "actions": ["up", "up", "up", "left", "left"], "actionTimes": [9429, 10093, 11161, 11870, 12419], "queries": {"click": {"state": {"target": ["9"], "time": [5262]}, "edge": {"target": [], "time": []}}, "mouseover": {"state": {"target": ["12", "1", "9"], "time": [3582, 4190, 4812]}, "edge": {"target": [], "time": []}}, "mouseout": {"state": {"target": ["21", "0", "12", "1", "9", "11"], "time": [395, 1412, 4157, 4229, 5866, 24395]}, "edge": {"target": [], "time": []}}}, "displayed_time": "17.43", "trialTime": 24939, "trial_type": "mouselab-mdp", "trial_index": 34, "time_elapsed": 1325702, "internal_node_id": "0.0-6.0-1.0-19.0"}}, {"uniqueid": "w88136717:a35533099", "current_trial": 35, "dateTime": 1693482067072, "trialdata": {"revealed_states": [], "clicked_states": [], "num_clicks_accrued": [0, 0, 0, 0, 0, 0, 0, 0, 0, 0, 0, 0, 0], "stateRewards": ["", -2, 1, -7, -8, -37, -76, -87, 11, 30, -63, 80, -1, 4, 2, -1, 42, 17, 52, -3, -75, -80, -68, 2, -3, -5, -15, -48, 82, 24, -7, 5, -22, -71], "withholdReward": false, "trial_id": "mdp_trial_21", "block": "test", "trialIndex": 24, "score": -103, "costs": 0, "simulationMode": [null, null, null, null, null], "rewards": [-2, 1, -7, -8, -87], "path": ["0", "0", "1", "2", "3", "4", "7"], "rt": [915, 91, 207, 666, 889], "actions": ["up", "up", "up", "right", "down"], "actionTimes": [4549, 5192, 5978, 7234, 8681], "queries": {"click": {"state": {"target": [], "time": []}, "edge": {"target": [], "time": []}}, "mouseover": {"state": {"target": [], "time": []}, "edge": {"target": [], "time": []}}, "mouseout": {"state": {"target": ["19", "22", "12", "0", "14"], "time": [1152, 1193, 1563, 12582, 12662]}, "edge": {"target": [], "time": []}}}, "displayed_time": "17.64", "trialTime": 18947, "trial_type": "mouselab-mdp", "trial_index": 35, "time_elapsed": 1347200, "internal_node_id": "0.0-6.0-1.0-20.0"}}, {"uniqueid": "w88136717:a35533099", "current_trial": 36, "dateTime": 1693482099633, "trialdata": {"revealed_states": [], "clicked_states": [], "num_clicks_accrued": [0, 0, 0, 0, 0, 0, 0, 0, 0, 0, 0, 0, 0], "stateRewards": ["", -2, 4, -3, -13, 63, -36, 62, 11, 78, 34, -51, 2, -2, 8, -6, -40, -18, 31, 9, 64, 39, 79, 1, 4, -4, 15, -12, 76, 73, -10, -77, 86, -4], "withholdReward": false, "trial_id": "mdp_trial_22", "block": "test", "trialIndex": 25, "score": 77, "costs": 0, "simulationMode": [null, null, null, null, null], "rewards": [1, 4, -4, -10, 86], "path": ["0", "0", "23", "24", "25", "30", "32"], "rt": [2179, 454, 351, 5, 96], "actions": ["left", "left", "left", "down", "down"], "actionTimes": [15629, 16636, 17596, 18128, 18799], "queries": {"click": {"state": {"target": [], "time": []}, "edge": {"target": [], "time": []}}, "mouseover": {"state": {"target": ["22"], "time": [13514]}, "edge": {"target": [], "time": []}}, "mouseout": {"state": {"target": ["20", "22", "22", "20"], "time": [8623, 14377, 21586, 21644]}, "edge": {"target": [], "time": []}}}, "displayed_time": "27.45", "trialTime": 30624, "trial_type": "mouselab-mdp", "trial_index": 36, "time_elapsed": 1379760, "internal_node_id": "0.0-6.0-1.0-21.0"}}, {"uniqueid": "w88136717:a35533099", "current_trial": 37, "dateTime": 1693482122210, "trialdata": {"revealed_states": [], "clicked_states": ["22"], "num_clicks_accrued": [0, 0, 0, 0, 0, 0, 0, 0, 0, 0, 0, 0, 0], "stateRewards": ["", -2, -2, -3, -6, -15, -11, 41, -12, -63, -76, 2, -2, -3, 8, 9, -36, -2, -18, -16, -32, -85, -17, -2, 1, 5, -16, 82, 35, -88, -1, 80, -82, -20], "withholdReward": false, "trial_id": "mdp_trial_23", "block": "test", "trialIndex": 26, "score": -100.15, "costs": -2.15, "simulationMode": [null, null, null, null, null, null], "rewards": [-2, -3, 8, -16, -85], "path": ["0", "0", "12", "13", "14", "19", "21"], "rt": [2761, 1384, 7, 223, 48, 110], "actions": ["right", "right", "right", "right", "down", "down"], "actionTimes": [6554, 7959, 8561, 9329, 9913, 10602], "queries": {"click": {"state": {"target": ["22"], "time": [6081]}, "edge": {"target": [], "time": []}}, "mouseover": {"state": {"target": ["21", "21", "22"], "time": [5067, 5299, 5648]}, "edge": {"target": [], "time": []}}, "mouseout": {"state": {"target": ["19", "12", "21", "21", "22", "20"], "time": [1446, 1594, 5102, 5353, 17064, 17148]}, "edge": {"target": [], "time": []}}}, "displayed_time": "17.80", "trialTime": 20417, "trial_type": "mouselab-mdp", "trial_index": 37, "time_elapsed": 1402337, "internal_node_id": "0.0-6.0-1.0-22.0"}}, {"uniqueid": "w88136717:a35533099", "current_trial": 38, "dateTime": 1693482145509, "trialdata": {"revealed_states": [], "clicked_states": [], "num_clicks_accrued": [0, 0, 0, 0, 0, 0, 0, 0, 0, 0, 0, 0, 0], "stateRewards": ["", 2, 3, 8, 14, 69, -27, 17, 2, -71, -65, -10, 2, -3, 7, 8, 65, -10, 65, -12, 73, -12, 13, -2, -2, 6, 10, -79, -69, -18, 10, -85, 67, 74], "withholdReward": false, "trial_id": "mdp_trial_24", "block": "test", "trialIndex": 27, "score": 4, "costs": 0, "simulationMode": [null, null, null, null, null], "rewards": [2, -3, 7, 8, -10], "path": ["0", "0", "12", "13", "14", "15", "17"], "rt": [1336, 11, 551, 29, 484], "actions": ["right", "right", "right", "up", "right"], "actionTimes": [6158, 6721, 7838, 8418, 9494], "queries": {"click": {"state": {"target": [], "time": []}, "edge": {"target": [], "time": []}}, "mouseover": {"state": {"target": [], "time": []}, "edge": {"target": [], "time": []}}, "mouseout": {"state": {"target": ["15", "7", "1", "0", "22", "21"], "time": [2058, 2269, 2682, 10843, 11004, 11174]}, "edge": {"target": [], "time": []}}}, "displayed_time": "18.83", "trialTime": 21385, "trial_type": "mouselab-mdp", "trial_index": 38, "time_elapsed": 1425636, "internal_node_id": "0.0-6.0-1.0-23.0"}}, {"uniqueid": "w88136717:a35533099", "current_trial": 39, "dateTime": 1693482166389, "trialdata": {"revealed_states": [], "clicked_states": [], "num_clicks_accrued": [0, 0, 0, 0, 0, 0, 0, 0, 0, 0, 0, 0, 0], "stateRewards": ["", -2, -4, -6, 12, -58, -70, -80, 2, 16, -88, -62, 1, 2, -5, 11, 77, -35, -44, -5, 18, -83, 87, 1, -3, -5, 13, -44, -21, -86, 10, -52, 8, 29], "withholdReward": false, "trial_id": "mdp_trial_25", "block": "test", "trialIndex": 28, "score": -15, "costs": 0, "simulationMode": [null, null, null, null, null], "rewards": [1, -3, -5, 13, -21], "path": ["0", "0", "23", "24", "25", "26", "28"], "rt": [2405, 274, 206, 6, 622], "actions": ["left", "left", "left", "up", "right"], "actionTimes": [6114, 6938, 7688, 8226, 9420], "queries": {"click": {"state": {"target": [], "time": []}, "edge": {"target": [], "time": []}}, "mouseover": {"state": {"target": [], "time": []}, "edge": {"target": [], "time": []}}, "mouseout": {"state": {"target": ["21", "22", "0", "20"], "time": [1188, 1570, 10180, 10305]}, "edge": {"target": [], "time": []}}}, "displayed_time": "17.71", "trialTime": 18918, "trial_type": "mouselab-mdp", "trial_index": 39, "time_elapsed": 1446515, "internal_node_id": "0.0-6.0-1.0-24.0"}}, {"uniqueid": "w88136717:a35533099", "current_trial": 40, "dateTime": 1693482193611, "trialdata": {"revealed_states": [], "clicked_states": ["9"], "num_clicks_accrued": [0, 0, 0, 0, 0, 0, 0, 0, 0, 0, 0, 0, 0], "stateRewards": ["", 1, 3, 1, -13, 52, -28, 67, -14, 3, 63, -70, -1, -4, 7, -11, -10, 47, -18, 6, 69, -9, -61, 2, 3, -6, 10, 63, -34, 40, -6, -79, -35, -32], "withholdReward": false, "trial_id": "mdp_trial_26", "block": "test", "trialIndex": 29, "score": -38.15, "costs": -2.15, "simulationMode": [null, null, null, null, null], "rewards": [1, 3, 1, -13, -28], "path": ["0", "0", "1", "2", "3", "4", "6"], "rt": [5229, 435, 153, 72, 7], "actions": ["up", "up", "up", "right", "right"], "actionTimes": [14752, 15720, 16430, 17034, 17603], "queries": {"click": {"state": {"target": ["9"], "time": [11438]}, "edge": {"target": [], "time": []}}, "mouseover": {"state": {"target": ["10", "9"], "time": [10380, 10867]}, "edge": {"target": [], "time": []}}, "mouseout": {"state": {"target": ["20", "14", "13", "10", "9"], "time": [721, 803, 1023, 10437, 11915]}, "edge": {"target": [], "time": []}}}, "displayed_time": "23.52", "trialTime": 25219, "trial_type": "mouselab-mdp", "trial_index": 40, "time_elapsed": 1473738, "internal_node_id": "0.0-6.0-1.0-25.0"}}, {"uniqueid": "w88136717:a35533099", "current_trial": 41, "dateTime": 1693482218688, "trialdata": {"revealed_states": [], "clicked_states": [], "num_clicks_accrued": [0, 0, 0, 0, 0, 0, 0, 0, 0, 0, 0, 0, 0], "stateRewards": ["", -1, 3, 1, -7, 56, 76, 57, 3, 11, -9, 14, 1, -2, 2, 8, -77, -3, 79, -5, 88, 24, -66, -2, -1, 7, -7, -30, 14, -76, 11, -36, 28, -6], "withholdReward": false, "trial_id": "mdp_trial_27", "block": "test", "trialIndex": 30, "score": 88, "costs": 0, "simulationMode": [null, null, null, null, null], "rewards": [1, -2, 2, 8, 79], "path": ["0", "0", "12", "13", "14", "15", "18"], "rt": [1611, 167, 88, 48, 442], "actions": ["right", "right", "right", "up", "left"], "actionTimes": [5984, 6762, 7415, 8025, 9028], "queries": {"click": {"state": {"target": [], "time": []}, "edge": {"target": [], "time": []}}, "mouseover": {"state": {"target": [], "time": []}, "edge": {"target": [], "time": []}}, "mouseout": {"state": {"target": ["26", "28", "14"], "time": [1873, 2226, 20920]}, "edge": {"target": [], "time": []}}}, "displayed_time": "18.39", "trialTime": 22956, "trial_type": "mouselab-mdp", "trial_index": 41, "time_elapsed": 1498786, "internal_node_id": "0.0-6.0-1.0-26.0"}}, {"uniqueid": "w88136717:a35533099", "current_trial": 42, "dateTime": 1693482240110, "trialdata": {"revealed_states": [], "clicked_states": ["6"], "num_clicks_accrued": [0, 0, 0, 0, 0, 0, 0, 0, 0, 0, 0, 0, 0], "stateRewards": ["", 1, -4, -6, -1, -21, 17, -72, 10, 77, 67, -46, -1, 4, -2, 14, -66, -49, -45, -15, -52, 23, -67, 2, -2, -2, 15, -3, 45, -64, 5, -44, 83, 61], "withholdReward": false, "trial_id": "mdp_trial_28", "block": "test", "trialIndex": 31, "score": 4.85, "costs": -2.15, "simulationMode": [null, null, null, null, null, null], "rewards": [1, -4, -6, -1, 17], "path": ["0", "0", "1", "2", "3", "4", "6"], "rt": [5170, 605, 409, 22, 19, 9], "actions": ["up", "up", "up", "up", "right", "right"], "actionTimes": [8839, 9463, 10401, 10983, 11535, 12102], "queries": {"click": {"state": {"target": ["6"], "time": [6129]}, "edge": {"target": [], "time": []}}, "mouseover": {"state": {"target": ["10", "8", "9", "3", "4", "6"], "time": [4594, 4677, 4941, 5279, 5437, 5775]}, "edge": {"target": [], "time": []}}, "mouseout": {"state": {"target": ["19", "13", "12", "0", "10", "8", "9", "3", "4", "6"], "time": [1328, 1545, 1833, 2009, 4656, 4881, 5239, 5370, 5587, 13947]}, "edge": {"target": [], "time": []}}}, "displayed_time": "17.68", "trialTime": 19200, "trial_type": "mouselab-mdp", "trial_index": 42, "time_elapsed": 1520240, "internal_node_id": "0.0-6.0-1.0-27.0"}}, {"uniqueid": "w88136717:a35533099", "current_trial": 43, "dateTime": 1693482261188, "trialdata": {"revealed_states": [], "clicked_states": [], "num_clicks_accrued": [0, 0, 0, 0, 0, 0, 0, 0, 0, 0, 0, 0, 0], "stateRewards": ["", -1, -2, 8, -6, -79, -6, 87, 9, -5, -66, -38, 2, 2, 5, -6, -82, 74, 85, -8, 67, -30, -15, 1, -2, -2, -2, 87, 64, 49, 7, 2, -38, -9], "withholdReward": false, "trial_id": "mdp_trial_29", "block": "test", "trialIndex": 32, "score": 44, "costs": 0, "simulationMode": [null, null, null, null, null], "rewards": [1, -2, -2, -2, 49], "path": ["0", "0", "23", "24", "25", "26", "29"], "rt": [2017, 28, 420, 7, 8], "actions": ["left", "left", "left", "up", "left"], "actionTimes": [5352, 5928, 6931, 7497, 8056], "queries": {"click": {"state": {"target": [], "time": []}, "edge": {"target": [], "time": []}}, "mouseover": {"state": {"target": [], "time": []}, "edge": {"target": [], "time": []}}, "mouseout": {"state": {"target": ["21", "22", "12", "0", "0", "12"], "time": [851, 980, 1264, 1622, 9808, 9885]}, "edge": {"target": [], "time": []}}}, "displayed_time": "17.34", "trialTime": 18992, "trial_type": "mouselab-mdp", "trial_index": 43, "time_elapsed": 1541317, "internal_node_id": "0.0-6.0-1.0-28.0"}}, {"uniqueid": "w88136717:a35533099", "current_trial": 44, "dateTime": 1693482286355, "trialdata": {"revealed_states": [], "clicked_states": [], "num_clicks_accrued": [0, 0, 0, 0, 0, 0, 0, 0, 0, 0, 0, 0, 0], "stateRewards": ["", -1, 4, -6, -5, -22, -38, -38, -2, -56, 88, 14, -1, -1, -7, -6, 61, -60, 21, 11, 57, 31, -30, -2, -2, 6, -9, -44, -70, -44, -15, 34, 16, -78], "withholdReward": false, "trial_id": "mdp_trial_30", "block": "test", "trialIndex": 33, "score": -91, "costs": 0, "simulationMode": [null, null, null, null, null], "rewards": [-2, -2, 6, -15, -78], "path": ["0", "0", "23", "24", "25", "30", "33"], "rt": [2605, 125, 103, 446, 116], "actions": ["left", "left", "left", "down", "left"], "actionTimes": [9998, 10700, 11402, 12489, 13138], "queries": {"click": {"state": {"target": [], "time": []}, "edge": {"target": [], "time": []}}, "mouseover": {"state": {"target": [], "time": []}, "edge": {"target": [], "time": []}}, "mouseout": {"state": {"target": ["13", "1", "12", "0", "23", "0", "12", "14"], "time": [3412, 3528, 4045, 4937, 5392, 14877, 14962, 15039]}, "edge": {"target": [], "time": []}}}, "displayed_time": "21.40", "trialTime": 22763, "trial_type": "mouselab-mdp", "trial_index": 44, "time_elapsed": 1566480, "internal_node_id": "0.0-6.0-1.0-29.0"}}, {"uniqueid": "w88136717:a35533099", "current_trial": 45, "dateTime": 1693482308792, "trialdata": {"revealed_states": [], "clicked_states": [], "num_clicks_accrued": [0, 0, 0, 0, 0, 0, 0, 0, 0, 0, 0, 0, 0], "stateRewards": ["", -1, 3, -5, -2, -13, -9, -34, -7, -81, 32, 35, -2, -2, 1, -14, -32, 81, 7, 4, 82, 56, -8, -1, 3, -8, 6, -24, -24, -53, 2, 38, 61, 54], "withholdReward": false, "trial_id": "mdp_trial_31", "block": "test", "trialIndex": 34, "score": -7, "costs": 0, "simulationMode": [null, null, null, null, null], "rewards": [-2, -2, 1, 4, -8], "path": ["0", "0", "12", "13", "14", "19", "22"], "rt": [763, 11, 183, 632, 279], "actions": ["right", "right", "right", "down", "left"], "actionTimes": [5542, 6112, 6857, 8079, 8917], "queries": {"click": {"state": {"target": [], "time": []}, "edge": {"target": [], "time": []}}, "mouseover": {"state": {"target": [], "time": []}, "edge": {"target": [], "time": []}}, "mouseout": {"state": {"target": ["19", "22", "0"], "time": [2035, 2112, 19402]}, "edge": {"target": [], "time": []}}}, "displayed_time": "18.80", "trialTime": 20162, "trial_type": "mouselab-mdp", "trial_index": 45, "time_elapsed": 1588922, "internal_node_id": "0.0-6.0-1.0-30.0"}}, {"uniqueid": "w88136717:a35533099", "current_trial": 46, "dateTime": 1693482330693, "trialdata": {"revealed_states": [], "clicked_states": ["16"], "num_clicks_accrued": [0, 0, 0, 0, 0, 0, 0, 0, 0, 0, 0, 0, 0], "stateRewards": ["", 1, -2, -8, -13, 4, 34, -84, -4, -49, 88, -70, -1, 3, -4, 10, -77, 13, -34, 15, -21, -16, 27, 1, -2, 8, -8, -6, 38, -26, 6, -15, 66, -3], "withholdReward": false, "trial_id": "mdp_trial_32", "block": "test", "trialIndex": 35, "score": -9.15, "costs": -2.15, "simulationMode": [null, null, null, null, null], "rewards": [1, -2, 8, -8, -6], "path": ["0", "0", "23", "24", "25", "26", "27"], "rt": [5669, 8, 358, 166, 395], "actions": ["left", "left", "left", "up", "up"], "actionTimes": [8950, 9519, 10449, 11160, 12033], "queries": {"click": {"state": {"target": ["16"], "time": [5305]}, "edge": {"target": [], "time": []}}, "mouseover": {"state": {"target": ["12", "17", "16"], "time": [3939, 4114, 4738]}, "edge": {"target": [], "time": []}}, "mouseout": {"state": {"target": ["20", "19", "12", "0", "12", "17", "16"], "time": [673, 727, 796, 860, 4001, 4213, 14422]}, "edge": {"target": [], "time": []}}}, "displayed_time": "17.28", "trialTime": 19401, "trial_type": "mouselab-mdp", "trial_index": 46, "time_elapsed": 1610819, "internal_node_id": "0.0-6.0-1.0-31.0"}}, {"uniqueid": "w88136717:a35533099", "current_trial": 47, "dateTime": 1693482362582, "trialdata": {"revealed_states": [], "clicked_states": [], "num_clicks_accrued": [0, 0, 0, 0, 0, 0, 0, 0, 0, 0, 0, 0, 0], "stateRewards": ["", -2, 3, -5, -7, 66, 43, -60, -4, -70, -75, 4, -1, 2, 2, -13, 54, 11, -40, -1, 77, 32, 15, -2, 3, -8, -9, -35, 83, -27, 6, -74, -34, 44], "withholdReward": false, "trial_id": "mdp_trial_33", "block": "test", "trialIndex": 36, "score": -83, "costs": 0, "simulationMode": [null, null, null, null, null], "rewards": [-2, 3, -5, -4, -75], "path": ["0", "0", "1", "2", "3", "8", "10"], "rt": [1114, 94, 567, 468, 675], "actions": ["up", "up", "up", "left", "down"], "actionTimes": [10318, 11016, 12170, 13259, 14522], "queries": {"click": {"state": {"target": [], "time": []}, "edge": {"target": [], "time": []}}, "mouseover": {"state": {"target": [], "time": []}, "edge": {"target": [], "time": []}}, "mouseout": {"state": {"target": ["20", "19", "0", "12", "0", "13"], "time": [1954, 2180, 2643, 5967, 7336, 17858]}, "edge": {"target": [], "time": []}}}, "displayed_time": "23.21", "trialTime": 25172, "trial_type": "mouselab-mdp", "trial_index": 47, "time_elapsed": 1642708, "internal_node_id": "0.0-6.0-1.0-32.0"}}, {"uniqueid": "w88136717:a35533099", "current_trial": 48, "dateTime": 1693482386103, "trialdata": {"revealed_states": [], "clicked_states": ["6"], "num_clicks_accrued": [0, 0, 0, 0, 0, 0, 0, 0, 0, 0, 0, 0, 0], "stateRewards": ["", -2, -4, -2, -13, -15, 87, -19, -6, -80, 30, 12, 1, 1, -8, 2, 55, 56, 15, 11, -68, -7, 55, -2, 3, -3, -3, 48, 62, 4, 1, -3, 69, -33], "withholdReward": false, "trial_id": "mdp_trial_34", "block": "test", "trialIndex": 37, "score": 63.85, "costs": -2.15, "simulationMode": [null, null, null, null, null, null], "rewards": [-2, -4, -2, -13, 87], "path": ["0", "0", "1", "2", "3", "4", "6"], "rt": [4192, 730, 70, 672, 81, 65], "actions": ["up", "up", "up", "up", "right", "right"], "actionTimes": [8545, 9290, 9938, 11199, 11882, 12594], "queries": {"click": {"state": {"target": ["6"], "time": [6331]}, "edge": {"target": [], "time": []}}, "mouseover": {"state": {"target": ["6"], "time": [5443]}, "edge": {"target": [], "time": []}}, "mouseout": {"state": {"target": ["20", "12", "0", "6"], "time": [2230, 2687, 5188, 6432]}, "edge": {"target": [], "time": []}}}, "displayed_time": "18.36", "trialTime": 21701, "trial_type": "mouselab-mdp", "trial_index": 48, "time_elapsed": 1666229, "internal_node_id": "0.0-6.0-1.0-33.0"}}, {"uniqueid": "w88136717:a35533099", "current_trial": 49, "dateTime": 1693482407002, "trialdata": {"revealed_states": [], "clicked_states": [], "num_clicks_accrued": [0, 0, 0, 0, 0, 0, 0, 0, 0, 0, 0, 0, 0], "stateRewards": ["", -2, -1, 3, -3, 71, -58, -21, 7, -10, -75, -37, 2, 4, -1, -12, -79, -29, -48, 3, -41, -10, -30, -1, -2, 1, -15, 13, 66, 22, -1, -42, -86, -55], "withholdReward": false, "trial_id": "mdp_trial_35", "block": "test", "trialIndex": 38, "score": 49, "costs": 0, "simulationMode": [null, null, null, null, null], "rewards": [-1, -2, 1, -15, 66], "path": ["0", "0", "23", "24", "25", "26", "28"], "rt": [1029, 89, 252, 70, 74], "actions": ["left", "left", "left", "up", "right"], "actionTimes": [4602, 5318, 6174, 6830, 7495], "queries": {"click": {"state": {"target": [], "time": []}, "edge": {"target": [], "time": []}}, "mouseover": {"state": {"target": [], "time": []}, "edge": {"target": [], "time": []}}, "mouseout": {"state": {"target": ["6", "1", "0", "12"], "time": [1566, 1829, 9008, 9143]}, "edge": {"target": [], "time": []}}}, "displayed_time": "17.58", "trialTime": 19114, "trial_type": "mouselab-mdp", "trial_index": 49, "time_elapsed": 1687128, "internal_node_id": "0.0-6.0-1.0-34.0"}}, {"uniqueid": "w88136717:a35533099", "current_trial": 50, "dateTime": 1693482429046, "trialdata": {"revealed_states": [], "clicked_states": [], "num_clicks_accrued": [0, 0, 0, 0, 0, 0, 0, 0, 0, 0, 0, 0, 0], "stateRewards": ["", 2, -1, 5, 6, 10, 86, 55, 10, -45, 63, -71, 1, -2, 5, -8, -50, -72, 36, 15, 61, 12, 33, -1, -4, 6, 5, 79, -56, -21, -16, -87, 60, -81], "withholdReward": false, "trial_id": "mdp_trial_36", "block": "test", "trialIndex": 39, "score": 52, "costs": 0, "simulationMode": [null, null, null, null, null], "rewards": [1, -2, 5, 15, 33], "path": ["0", "0", "12", "13", "14", "19", "22"], "rt": [835, 69, 344, 820, 411], "actions": ["right", "right", "right", "down", "left"], "actionTimes": [5210, 5904, 6813, 8221, 9246], "queries": {"click": {"state": {"target": [], "time": []}, "edge": {"target": [], "time": []}}, "mouseover": {"state": {"target": [], "time": []}, "edge": {"target": [], "time": []}}, "mouseout": {"state": {"target": ["20", "19", "12", "0"], "time": [2230, 2345, 2529, 11186]}, "edge": {"target": [], "time": []}}}, "displayed_time": "18.38", "trialTime": 20269, "trial_type": "mouselab-mdp", "trial_index": 50, "time_elapsed": 1709172, "internal_node_id": "0.0-6.0-1.0-35.0"}}, {"uniqueid": "w88136717:a35533099", "current_trial": 51, "dateTime": 1693482451192, "trialdata": {"revealed_states": [], "clicked_states": [], "num_clicks_accrued": [0, 0, 0, 0, 0, 0, 0, 0, 0, 0, 0, 0, 0], "stateRewards": ["", 1, 4, -8, -13, -13, -87, -77, -10, -44, 54, 42, 2, -3, -4, 12, -9, -80, 52, 9, 84, -2, -65, 1, -4, -5, -6, 8, 80, 32, 13, -59, -5, -13], "withholdReward": false, "trial_id": "mdp_trial_37", "block": "test", "trialIndex": 40, "score": -57, "costs": 0, "simulationMode": [null, null, null, null, null], "rewards": [1, 4, -8, -10, -44], "path": ["0", "0", "1", "2", "3", "8", "9"], "rt": [660, 78, 218, 78, 152], "actions": ["up", "up", "up", "left", "up"], "actionTimes": [5457, 6111, 6894, 7568, 8306], "queries": {"click": {"state": {"target": [], "time": []}, "edge": {"target": [], "time": []}}, "mouseover": {"state": {"target": [], "time": []}, "edge": {"target": [], "time": []}}, "mouseout": {"state": {"target": ["20", "14", "12", "0", "12"], "time": [2406, 2512, 3034, 18435, 18572]}, "edge": {"target": [], "time": []}}}, "displayed_time": "18.81", "trialTime": 20369, "trial_type": "mouselab-mdp", "trial_index": 51, "time_elapsed": 1731319, "internal_node_id": "0.0-6.0-1.0-36.0"}}, {"uniqueid": "w88136717:a35533099", "current_trial": 52, "dateTime": 1693482471428, "trialdata": {"revealed_states": [], "clicked_states": [], "num_clicks_accrued": [0, 0, 0, 0, 0, 0, 0, 0, 0, 0, 0, 0, 0], "stateRewards": ["", 2, 1, -3, 7, 46, 11, -36, 16, 71, 5, 1, 2, -2, -8, -3, -4, 6, 55, 7, 68, -54, 2, 1, 1, 6, -6, 42, -4, -84, -11, -65, 63, 25], "withholdReward": false, "trial_id": "mdp_trial_38", "block": "test", "trialIndex": 41, "score": -29, "costs": 0, "simulationMode": [null, null, null, null, null], "rewards": [2, 1, -3, 7, -36], "path": ["0", "0", "1", "2", "3", "4", "7"], "rt": [4690, 70, 512, 170, 70], "actions": ["up", "up", "up", "right", "down"], "actionTimes": [7858, 8554, 9663, 10413, 11064], "queries": {"click": {"state": {"target": [], "time": []}, "edge": {"target": [], "time": []}}, "mouseover": {"state": {"target": ["10", "3", "4", "28", "26", "29"], "time": [4399, 4959, 5327, 5880, 6002, 6389]}, "edge": {"target": [], "time": []}}, "mouseout": {"state": {"target": ["14", "12", "0", "10", "3", "4", "28", "26", "29", "22"], "time": [1057, 1278, 4238, 4755, 5141, 5631, 5984, 6218, 13260, 13411]}, "edge": {"target": [], "time": []}}}, "displayed_time": "17.17", "trialTime": 18447, "trial_type": "mouselab-mdp", "trial_index": 52, "time_elapsed": 1751554, "internal_node_id": "0.0-6.0-1.0-37.0"}}, {"uniqueid": "w88136717:a35533099", "current_trial": 53, "dateTime": 1693482492678, "trialdata": {"revealed_states": [], "clicked_states": ["27"], "num_clicks_accrued": [0, 0, 0, 0, 0, 0, 0, 0, 0, 0, 0, 0, 0], "stateRewards": ["", 2, -4, -4, 13, -80, 62, 13, -11, 57, -13, -44, 1, 4, 3, -4, -29, -88, 15, 16, -58, 68, -45, -1, -3, -1, -9, -44, -86, -19, -7, -36, 59, 66], "withholdReward": false, "trial_id": "mdp_trial_39", "block": "test", "trialIndex": 42, "score": 16.85, "costs": -2.15, "simulationMode": [null, null, null, null, null], "rewards": [1, 4, 3, -4, 15], "path": ["0", "0", "12", "13", "14", "15", "18"], "rt": [5608, 70, 278, 159, 85], "actions": ["right", "right", "right", "up", "left"], "actionTimes": [9220, 9808, 10644, 11420, 11994], "queries": {"click": {"state": {"target": ["27"], "time": [5492]}, "edge": {"target": [], "time": []}}, "mouseover": {"state": {"target": ["28", "27"], "time": [4681, 5055]}, "edge": {"target": [], "time": []}}, "mouseout": {"state": {"target": ["20", "22", "28", "27", "26", "0", "22"], "time": [1007, 1188, 4797, 6000, 13937, 14331, 14764]}, "edge": {"target": [], "time": []}}}, "displayed_time": "17.61", "trialTime": 19462, "trial_type": "mouselab-mdp", "trial_index": 53, "time_elapsed": 1772804, "internal_node_id": "0.0-6.0-1.0-38.0"}}, {"uniqueid": "w88136717:a35533099", "current_trial": 54, "dateTime": 1693482513689, "trialdata": {"revealed_states": [], "clicked_states": [], "num_clicks_accrued": [0, 0, 0, 0, 0, 0, 0, 0, 0, 0, 0, 0, 0], "stateRewards": ["", 1, 1, -3, 7, 49, 78, 26, -5, 26, 48, -43, -1, -3, 2, -5, 4, -1, -60, 10, -35, 51, 81, -2, 1, -7, -5, -39, -86, -54, 4, -3, 74, 77], "withholdReward": false, "trial_id": "mdp_trial_40", "block": "test", "trialIndex": 43, "score": 73, "costs": 0, "simulationMode": [null, null, null, null, null], "rewards": [-2, 1, -7, 4, 77], "path": ["0", "0", "23", "24", "25", "30", "33"], "rt": [872, 70, 71, 125, 649], "actions": ["left", "left", "left", "down", "left"], "actionTimes": [4605, 5292, 5929, 6651, 7869], "queries": {"click": {"state": {"target": [], "time": []}, "edge": {"target": [], "time": []}}, "mouseover": {"state": {"target": ["0"], "time": [4306]}, "edge": {"target": [], "time": []}}, "mouseout": {"state": {"target": ["0", "0"], "time": [3989, 10821]}, "edge": {"target": [], "time": []}}}, "displayed_time": "17.75", "trialTime": 19254, "trial_type": "mouselab-mdp", "trial_index": 54, "time_elapsed": 1793815, "internal_node_id": "0.0-6.0-1.0-39.0"}}, {"uniqueid": "w88136717:a35533099", "current_trial": 55, "dateTime": 1693482625949, "trialdata": {"rt": 112210, "response": {"Q0": "$-2 to $2", "Q1": "$-16 to $16", "Q2": "$-32 to $32", "Q3": "The cost for clicking on nodes varied between nodes.", "Q4": "Very motivated"}, "question_order": [0, 1, 2, 3, 4], "trial_id": "final_quiz_control", "trial_type": "survey-multi-choice", "trial_index": 55, "time_elapsed": 1906079, "internal_node_id": "0.0-6.0-2.0"}}, {"uniqueid": "w88136717:a35533099", "current_trial": 56, "dateTime": 1693482935711, "trialdata": {"rt": 309687, "response": {"Q0": "Use the node inspector as a guide to head to the path that could insure the highest. favored the path heading up than downwards. ", "Q1": "No, given a second chance I think I can conjure a better strategy or improve on the one I had.", "Q2": "It was slightly hard because of the unpredictability of the game and the time pressure element."}, "trial_id": "self_report_control", "trial_type": "survey-text", "trial_index": 56, "time_elapsed": 2215839, "internal_node_id": "0.0-6.0-3.0"}}, {"uniqueid": "w88136717:a35533099", "current_trial": 57, "dateTime": 1693483016175, "trialdata": {"rt": 80411, "response": {"Q0": "Strongly agree", "Q1": "Neither disagree nor agree", "Q2": "Agree", "Q3": "Strongly agree", "Q4": "Strongly disagree", "Q5": "Strongly agree", "Q6": "Strongly disagree"}, "question_order": [0, 1, 2, 3, 4, 5, 6], "trial_id": "self_report_2", "trial_type": "survey-multi-choice", "trial_index": 57, "time_elapsed": 2296301, "internal_node_id": "0.0-6.0-4.0"}}, {"uniqueid": "w88136717:a35533099", "current_trial": 58, "dateTime": 1693483063958, "trialdata": {"rt": 47674, "response": {"gender": "female", "age": "32", "colorblind": "0", "effort": "0"}, "trial_type": "survey-html-form", "trial_index": 58, "time_elapsed": 2344082, "internal_node_id": "0.0-6.0-5.0"}}, {"uniqueid": "w88136717:a35533099", "current_trial": 59, "dateTime": 1693483143384, "trialdata": {"rt": 79347, "response": {"Q0": "no, the instructions were clear", "Q1": "no, this was my first attempt", "Q2": "this was a great game and it was easy to follow"}, "trial_type": "survey-text", "trial_index": 59, "time_elapsed": 2423508, "internal_node_id": "0.0-6.0-6.0"}}, {"uniqueid": "w88136717:a35533099", "current_trial": 60, "dateTime": 1693483160627, "trialdata": {"rt": 17168, "stimulus": "<h1>Completion Code Instructions (1/2)</h1>\n<br><br><br><br>\nYou have reached the end of the experiment! The completion code consists of two parts: (1) a code with 2 characters (2) a code with 6 characters. On this page, you will receive the second part of the code. The first part of the completion code will be on the next page.\n<br><br>\nThe second part of your completion code is: <b>EWEK22</b>\n<br><br>\nPlease note this down. Then, press 'Finish HIT' in order to find the first part of your completion code. Once the data has been saved, you will receive this code either in this window or in the original browser window where you started the experiment.\n", "response": 0, "trial_type": "html-button-response", "trial_index": 60, "time_elapsed": 2440759, "internal_node_id": "0.0-6.0-7.0"}}, {"uniqueid": "w88136717:a35533099", "current_trial": 61, "dateTime": 1693483161656, "trialdata": {"success": true, "trial_type": "fullscreen", "trial_index": 61, "time_elapsed": 2441787, "internal_node_id": "0.0-7.0"}}], "questiondata": {"params": {"CODE": "C6DMOQA6", "MIN_TIME": 14, "inspectCost": 1, "startTime": "Thu Aug 31 2023 13:18:37 GMT+0200 (South Africa Standard Time)", "bonusRate": 0.002, "variance": "1_2_4_8_44", "branching": "31123"}, "final_score": -42.2}, "eventdata": [{"eventtype": "initialized", "value": null, "timestamp": 1693480716367, "interval": 0}, {"eventtype": "window_resize", "value": [1024, 654], "timestamp": 1693480716367, "interval": 0}, {"eventtype": "window_resize", "value": [1024, 654], "timestamp": 1693480716913, "interval": 546}, {"eventtype": "window_resize", "value": [1366, 670], "timestamp": 1693480719526, "interval": 2613}, {"eventtype": "window_resize", "value": [1366, 768], "timestamp": 1693480735954, "interval": 16428}, {"eventtype": "focus", "value": "off", "timestamp": 1693481396691, "interval": 660737}, {"eventtype": "focus", "value": "on", "timestamp": 1693481396695, "interval": 4}, {"eventtype": "window_resize", "value": [1366, 670], "timestamp": 1693481396989, "interval": 294}, {"eventtype": "window_resize", "value": [1366, 768], "timestamp": 1693481399206, "interval": 2217}, {"eventtype": "focus", "value": "off", "timestamp": 1693482770663, "interval": 1371457}, {"eventtype": "window_resize", "value": [1366, 767], "timestamp": 1693482771395, "interval": 732}, {"eventtype": "focus", "value": "on", "timestamp": 1693482773244, "interval": 1849}, {"eventtype": "window_resize", "value": [1366, 768], "timestamp": 1693482773706, "interval": 462}, {"eventtype": "focus", "value": "off", "timestamp": 1693482780787, "interval": 7081}, {"eventtype": "focus", "value": "on", "timestamp": 1693482782268, "interval": 1481}, {"eventtype": "window_resize", "value": [1366, 670], "timestamp": 1693483161049, "interval": 378781}], "useragent": "Mozilla/5.0 (Windows NT 10.0; Win64; x64) AppleWebKit/537.36 (KHTML, like Gecko) Chrome/116.0.0.0 Safari/537.36", "mode": "live", "id": "w88136717:a35533099", "status": "user data saved", "Beginhit": "2023-08-31 11:18:29.376738", "Beginexp": "2023-08-31 11:18:54.726397", "Endhit": "2023-08-31 11:59:25.234198", "psiturkStatus": 3, "browser": "<redacted>", "platform": "windows", "language": "en-US"}