{"condition": 0, "counterbalance": 0, "assignmentId": "a37699852", "workerId": "w77472466", "hitId": "h45252898", "currenttrial": 55, "bonus": 0, "data": [{"uniqueid": "w77472466:a37699852", "current_trial": 0, "dateTime": 1691070963769, "trialdata": {"success": true, "trial_type": "fullscreen", "trial_index": 0, "time_elapsed": 6534, "internal_node_id": "0.0-0.0"}}, {"uniqueid": "w77472466:a37699852", "current_trial": 1, "dateTime": 1691070983510, "trialdata": {"view_history": [{"page_index": 0, "viewing_time": 19735}], "rt": 19736, "trial_id": "exp_instructions_control", "trial_type": "instructions", "trial_index": 1, "time_elapsed": 26276, "internal_node_id": "0.0-1.0"}}, {"uniqueid": "w77472466:a37699852", "current_trial": 2, "dateTime": 1691070988696, "trialdata": {"success": true, "trial_type": "fullscreen", "trial_index": 2, "time_elapsed": 31461, "internal_node_id": "0.0-2.0-0.0"}}, {"uniqueid": "w77472466:a37699852", "current_trial": 3, "dateTime": 1691071252565, "trialdata": {"view_history": [{"page_index": 0, "viewing_time": 74212}, {"page_index": 1, "viewing_time": 108574}, {"page_index": 2, "viewing_time": 25766}, {"page_index": 3, "viewing_time": 55313}], "rt": 263866, "trial_id": "mouselab_instructions_1_control", "trial_type": "instructions", "trial_index": 3, "time_elapsed": 295331, "internal_node_id": "0.0-2.0-1.0"}}, {"uniqueid": "w77472466:a37699852", "current_trial": 4, "dateTime": 1691071279409, "trialdata": {"revealed_states": [], "clicked_states": ["3"], "num_clicks_accrued": [0, 0, 0, 0, 0, 0, 0, 0, 0, 0, 0, 0, 0], "stateRewards": ["", -10, -10, 10, 10, 10, -10, 10, -10, -10, 10, -10, 10, 10, -10, -10, -10, 10, -10, -10, 10, 10, 10, 10, 10, -10, -10, 10, 10, 10, -10, 10, -10, 10], "withholdReward": false, "trial_id": "practice_1", "block": "test", "trialIndex": 0, "score": 13, "costs": -0.5, "simulationMode": [null, null, null, null, null], "rewards": [-10, -10, 10, 10, 10], "path": ["0", "0", "1", "2", "3", "4", "7"], "rt": [8076, 925, 2771, 829, 655], "actions": ["up", "up", "up", "right", "down"], "actionTimes": [11093, 12530, 15829, 17165, 18343], "queries": {"click": {"state": {"target": ["3"], "time": [7060]}, "edge": {"target": [], "time": []}}, "mouseover": {"state": {"target": ["1", "2", "3", "2", "1"], "time": [5720, 5935, 6620, 8338, 8436]}, "edge": {"target": [], "time": []}}, "mouseout": {"state": {"target": ["0", "0", "1", "2", "3", "2", "1"], "time": [1853, 5637, 5852, 6503, 8319, 8386, 8519]}, "edge": {"target": [], "time": []}}}, "displayed_time": "18.84", "trialTime": 25746, "trial_type": "mouselab-mdp", "trial_index": 4, "time_elapsed": 322174, "internal_node_id": "0.0-2.0-2.0-0.0"}}, {"uniqueid": "w77472466:a37699852", "current_trial": 5, "dateTime": 1691071300619, "trialdata": {"revealed_states": [], "clicked_states": [], "num_clicks_accrued": [0, 0, 0, 0, 0, 0, 0, 0, 0, 0, 0, 0, 0], "stateRewards": ["", -10, 10, 10, -10, -10, 10, -10, -10, 10, 10, -10, -10, -10, 10, -10, 10, -10, -10, -10, -10, 10, -10, 10, 10, 10, 10, 10, -10, -10, -10, 10, 10, 10], "withholdReward": false, "trial_id": "practice_2", "block": "test", "trialIndex": 1, "score": 33.5, "costs": 0, "simulationMode": [null, null, null, null, null], "rewards": [10, 10, 10, 10, -10], "path": ["0", "0", "23", "24", "25", "26", "29"], "rt": [2187, 1205, 4324, 703, 310], "actions": ["left", "left", "left", "up", "left"], "actionTimes": [6568, 8295, 13147, 14372, 15198], "queries": {"click": {"state": {"target": [], "time": []}, "edge": {"target": [], "time": []}}, "mouseover": {"state": {"target": [], "time": []}, "edge": {"target": [], "time": []}}, "mouseout": {"state": {"target": ["0", "30"], "time": [9417, 9503]}, "edge": {"target": [], "time": []}}}, "displayed_time": "15.72", "trialTime": 20988, "trial_type": "mouselab-mdp", "trial_index": 5, "time_elapsed": 343383, "internal_node_id": "0.0-2.0-2.0-1.0"}}, {"uniqueid": "w77472466:a37699852", "current_trial": 6, "dateTime": 1691071362314, "trialdata": {"view_history": [{"page_index": 0, "viewing_time": 51242}, {"page_index": 1, "viewing_time": 10449}], "rt": 61692, "trial_id": "mouselab_instructions_2_control", "trial_type": "instructions", "trial_index": 6, "time_elapsed": 405080, "internal_node_id": "0.0-2.0-3.0"}}, {"uniqueid": "w77472466:a37699852", "current_trial": 7, "dateTime": 1691071412408, "trialdata": {"rt": 50087, "response": {"Q0": "The cost for clicking on nodes may vary between nodes.", "Q1": "The better I perform the higher my bonus will be.", "Q2": "No, the amount of cash at each node of the web may be different each time.", "Q3": "To get the highest total score.", "Q4": "Only before moving the spider.", "Q5": "3 seconds"}, "question_order": [0, 1, 2, 3, 4, 5], "correct": {"Q0": "The cost for clicking on nodes may vary between nodes.", "Q1": "The better I perform the higher my bonus will be.", "Q2": "No, the amount of cash at each node of the web may be different each time.", "Q3": "To get the highest total score.", "Q4": "Only before moving the spider.", "Q5": "3 seconds"}, "trial_id": "mouselab_quiz_control", "trial_type": "survey-multi-choice", "trial_index": 7, "time_elapsed": 455174, "internal_node_id": "0.0-2.0-4.0"}}, {"uniqueid": "w77472466:a37699852", "current_trial": 8, "dateTime": 1691071428283, "trialdata": {"rt": 15866, "stimulus": "\n<h1> Get ready to start the game! </h1>\n\nThank you for reading the instructions. Get ready start with the 40 rounds of this game.\n<br><br>\nIf you need to take a break, feel free to take one after the end of a round, before continuing to the next one.\n<br><br>\nRemember, the more money the spider gets, the bigger your bonus will be!\n<br><br>\n<div style='text-align: center;'>Press <code>space</code> to begin.</div>\n\n<br><br>\n(If, at any point, the <code>space</code> key does not take you to the next page, click once on the text and try again.)", "response": " ", "trial_id": "mdp_ready", "trial_type": "html-keyboard-response", "trial_index": 8, "time_elapsed": 471049, "internal_node_id": "0.0-4.0-0.0"}}, {"uniqueid": "w77472466:a37699852", "current_trial": 9, "dateTime": 1691071451288, "trialdata": {"revealed_states": [], "clicked_states": ["14"], "num_clicks_accrued": [0, 0, 0, 0, 0, 0, 0, 0, 0, 0, 0, 0, 0], "stateRewards": ["", -1, 2, -6, 6, -82, -19, -39, -16, -83, 11, -33, -2, -2, 4, -6, -82, -1, -19, -6, -10, -67, -41, -2, 1, -7, 16, -23, -78, -52, 14, 31, -71, 74], "withholdReward": false, "trial_id": "mdp_trial_1", "block": "test", "trialIndex": 2, "score": 78.6, "costs": -1.4, "simulationMode": [null, null, null, null, null], "rewards": [-2, 1, -7, 14, 74], "path": ["0", "0", "23", "24", "25", "30", "33"], "rt": [7302, 940, 577, 459, 428], "actions": ["left", "left", "left", "down", "left"], "actionTimes": [10721, 12165, 13249, 14231, 15183], "queries": {"click": {"state": {"target": ["14"], "time": [5172]}, "edge": {"target": [], "time": []}}, "mouseover": {"state": {"target": ["12", "14", "13", "12"], "time": [4125, 4494, 7576, 7711]}, "edge": {"target": [], "time": []}}, "mouseout": {"state": {"target": ["0", "0", "12", "14", "13", "12"], "time": [1908, 4083, 4177, 7526, 7660, 7843]}, "edge": {"target": [], "time": []}}}, "displayed_time": "17.43", "trialTime": 22762, "trial_type": "mouselab-mdp", "trial_index": 9, "time_elapsed": 494052, "internal_node_id": "0.0-4.0-1.0-0.0"}}, {"uniqueid": "w77472466:a37699852", "current_trial": 10, "dateTime": 1691071492013, "trialdata": {"revealed_states": [], "clicked_states": [], "num_clicks_accrued": [0, 0, 0, 0, 0, 0, 0, 0, 0, 0, 0, 0, 0], "stateRewards": ["", 2, -3, -4, -1, 25, -16, 16, 10, -71, -20, -55, 1, 3, -4, -9, 1, 32, 11, -6, 32, -50, -41, -1, 4, 4, -8, 7, -81, 70, 2, -52, 45, -10], "withholdReward": false, "trial_id": "mdp_trial_2", "block": "test", "trialIndex": 3, "score": -15, "costs": 0, "simulationMode": [null, null, null, null, null], "rewards": [2, -3, -4, 10, -20], "path": ["0", "0", "1", "2", "3", "8", "10"], "rt": [4869, 485, 377, 315, 288], "actions": ["up", "up", "up", "left", "down"], "actionTimes": [7257, 8242, 9121, 9939, 10729], "queries": {"click": {"state": {"target": [], "time": []}, "edge": {"target": [], "time": []}}, "mouseover": {"state": {"target": ["28", "26", "28", "10", "2", "3", "2"], "time": [3270, 3637, 4238, 4321, 4387, 4987, 5554]}, "edge": {"target": [], "time": []}}, "mouseout": {"state": {"target": ["28", "26", "28", "10", "2", "3"], "time": [3354, 4220, 4254, 4337, 4922, 5454]}, "edge": {"target": [], "time": []}}}, "displayed_time": "16.40", "trialTime": 40485, "trial_type": "mouselab-mdp", "trial_index": 10, "time_elapsed": 534777, "internal_node_id": "0.0-4.0-1.0-1.0"}}, {"uniqueid": "w77472466:a37699852", "current_trial": 11, "dateTime": 1691071523751, "trialdata": {"revealed_states": [], "clicked_states": ["23", "30", "31"], "num_clicks_accrued": [0, 0, 0, 0, 0, 0, 0, 0, 0, 0, 0, 0, 0], "stateRewards": ["", -2, -3, 7, -13, 60, 9, 37, -6, 37, 20, 1, 2, -2, -8, 6, -80, -31, -10, -7, 70, -65, -44, -1, 1, 7, 6, -11, 73, -85, 16, -21, 47, 34], "withholdReward": false, "trial_id": "mdp_trial_3", "block": "test", "trialIndex": 4, "score": -63.2, "costs": -4.199999999999999, "simulationMode": [null, null, null, null, null], "rewards": [2, -2, -8, -7, -44], "path": ["0", "0", "12", "13", "14", "19", "22"], "rt": [12126, 728, 781, 2806, 756], "actions": ["right", "right", "right", "down", "left"], "actionTimes": [13725, 14964, 16266, 19596, 20858], "queries": {"click": {"state": {"target": ["23", "30", "31"], "time": [2773, 5631, 7899]}, "edge": {"target": [], "time": []}}, "mouseover": {"state": {"target": ["23", "24", "25", "30", "31", "22", "13"], "time": [2166, 3347, 3830, 5200, 6532, 12235, 12668]}, "edge": {"target": [], "time": []}}, "mouseout": {"state": {"target": ["2", "1", "23", "24", "25", "30", "31", "22"], "time": [616, 730, 3230, 3597, 5117, 6350, 11991, 12268]}, "edge": {"target": [], "time": []}}}, "displayed_time": "21.37", "trialTime": 31469, "trial_type": "mouselab-mdp", "trial_index": 11, "time_elapsed": 566516, "internal_node_id": "0.0-4.0-1.0-2.0"}}, {"uniqueid": "w77472466:a37699852", "current_trial": 12, "dateTime": 1691071554025, "trialdata": {"revealed_states": [], "clicked_states": ["1", "2", "8", "10", "26"], "num_clicks_accrued": [0, 0, 0, 0, 0, 0, 0, 0, 0, 0, 0, 0, 0], "stateRewards": ["", -1, 4, -3, 3, 57, -61, 5, -11, 23, -1, 34, -2, -4, -1, -13, 27, 38, -36, 4, -45, 21, 88, 1, -2, -1, 1, -69, -5, -78, -12, -9, 38, -54], "withholdReward": false, "trial_id": "mdp_trial_4", "block": "test", "trialIndex": 5, "score": -30, "costs": -7, "simulationMode": [null, null, null, null, null], "rewards": [1, -2, -1, -12, -9], "path": ["0", "0", "23", "24", "25", "30", "31"], "rt": [12969, 941, 528, 366, 359], "actions": ["left", "left", "left", "down", "right"], "actionTimes": [15634, 17097, 18133, 19022, 19900], "queries": {"click": {"state": {"target": ["1", "2", "8", "10", "26"], "time": [4358, 6483, 9102, 11363, 13422]}, "edge": {"target": [], "time": []}}, "mouseover": {"state": {"target": ["0", "1", "2", "3", "8", "10", "26", "28"], "time": [3554, 3955, 5938, 7253, 8526, 9954, 12991, 14803]}, "edge": {"target": [], "time": []}}, "mouseout": {"state": {"target": ["13", "12", "0", "1", "2", "3", "8", "10", "26", "26"], "time": [1803, 1853, 3569, 5236, 7002, 8190, 9853, 12620, 14103, 14669]}, "edge": {"target": [], "time": []}}}, "displayed_time": "20.43", "trialTime": 30012, "trial_type": "mouselab-mdp", "trial_index": 12, "time_elapsed": 596790, "internal_node_id": "0.0-4.0-1.0-3.0"}}, {"uniqueid": "w77472466:a37699852", "current_trial": 13, "dateTime": 1691071576727, "trialdata": {"revealed_states": [], "clicked_states": [], "num_clicks_accrued": [0, 0, 0, 0, 0, 0, 0, 0, 0, 0, 0, 0, 0], "stateRewards": ["", 2, -4, 4, 9, 69, 9, -75, 12, -86, 66, 25, -1, 3, 2, -13, -88, -3, 1, 4, -69, 49, -84, 2, -1, 4, 2, -18, -81, -52, -15, -69, -54, 25], "withholdReward": false, "trial_id": "mdp_trial_5", "block": "test", "trialIndex": 6, "score": -12, "costs": 0, "simulationMode": [null, null, null, null, null], "rewards": [-1, 3, 2, -13, -3], "path": ["0", "0", "12", "13", "14", "15", "17"], "rt": [2352, 416, 196, 537, 196], "actions": ["right", "right", "right", "up", "right"], "actionTimes": [4761, 5706, 6397, 7456, 8166], "queries": {"click": {"state": {"target": [], "time": []}, "edge": {"target": [], "time": []}}, "mouseover": {"state": {"target": [], "time": []}, "edge": {"target": [], "time": []}}, "mouseout": {"state": {"target": ["28", "23", "0"], "time": [1163, 1246, 1313]}, "edge": {"target": [], "time": []}}}, "displayed_time": "16.41", "trialTime": 22424, "trial_type": "mouselab-mdp", "trial_index": 13, "time_elapsed": 619491, "internal_node_id": "0.0-4.0-1.0-4.0"}}, {"uniqueid": "w77472466:a37699852", "current_trial": 14, "dateTime": 1691071600828, "trialdata": {"revealed_states": [], "clicked_states": [], "num_clicks_accrued": [0, 0, 0, 0, 0, 0, 0, 0, 0, 0, 0, 0, 0], "stateRewards": ["", 1, 4, 7, -16, -84, -6, -46, -12, -7, -49, -26, -1, 2, -4, 2, 22, 37, -64, 1, 88, -13, -10, 1, -4, -2, 5, 2, -10, -34, 9, 66, 55, 38], "withholdReward": false, "trial_id": "mdp_trial_6", "block": "test", "trialIndex": 7, "score": -50, "costs": 0, "simulationMode": [null, null, null, null, null], "rewards": [1, 4, 7, -16, -46], "path": ["0", "0", "1", "2", "3", "4", "7"], "rt": [951, 1649, 1916, 604, 986], "actions": ["up", "up", "up", "right", "down"], "actionTimes": [5131, 7274, 9691, 10796, 12297], "queries": {"click": {"state": {"target": [], "time": []}, "edge": {"target": [], "time": []}}, "mouseover": {"state": {"target": [], "time": []}, "edge": {"target": [], "time": []}}, "mouseout": {"state": {"target": ["0"], "time": [2805]}, "edge": {"target": [], "time": []}}}, "displayed_time": "18.19", "trialTime": 23814, "trial_type": "mouselab-mdp", "trial_index": 14, "time_elapsed": 643593, "internal_node_id": "0.0-4.0-1.0-5.0"}}, {"uniqueid": "w77472466:a37699852", "current_trial": 15, "dateTime": 1691071626797, "trialdata": {"revealed_states": [], "clicked_states": ["12", "1", "23"], "num_clicks_accrued": [0, 0, 0, 0, 0, 0, 0, 0, 0, 0, 0, 0, 0], "stateRewards": ["", -1, -2, -8, 8, -27, -82, 19, -14, -62, 4, 1, -2, 2, 6, 10, 73, -51, -2, 2, 73, -48, 54, -1, 2, -4, 11, -25, 47, 86, 15, 33, 43, -42], "withholdReward": false, "trial_id": "mdp_trial_7", "block": "test", "trialIndex": 8, "score": -44.2, "costs": -4.199999999999999, "simulationMode": [null, null, null, null, null], "rewards": [-2, 2, 6, 2, -48], "path": ["0", "0", "12", "13", "14", "19", "21"], "rt": [10408, 1051, 981, 579, 541], "actions": ["right", "right", "right", "down", "down"], "actionTimes": [11917, 13483, 14964, 16062, 17106], "queries": {"click": {"state": {"target": ["12", "1", "23"], "time": [2846, 4559, 6232]}, "edge": {"target": [], "time": []}}, "mouseover": {"state": {"target": ["12", "13", "1", "23", "24"], "time": [2348, 3595, 4079, 5745, 7300]}, "edge": {"target": [], "time": []}}, "mouseout": {"state": {"target": ["0", "12", "13", "1", "23"], "time": [2148, 3054, 3829, 5179, 6435]}, "edge": {"target": [], "time": []}}}, "displayed_time": "17.59", "trialTime": 25674, "trial_type": "mouselab-mdp", "trial_index": 15, "time_elapsed": 669562, "internal_node_id": "0.0-4.0-1.0-6.0"}}, {"uniqueid": "w77472466:a37699852", "current_trial": 16, "dateTime": 1691071647763, "trialdata": {"revealed_states": [], "clicked_states": [], "num_clicks_accrued": [0, 0, 0, 0, 0, 0, 0, 0, 0, 0, 0, 0, 0], "stateRewards": ["", -2, 2, 5, -14, -56, 64, 84, -5, 52, 39, 85, -2, 1, 7, 8, 21, 29, -78, -9, -10, -69, 10, -2, -1, -7, 15, 72, 20, 41, -2, 52, 80, 22], "withholdReward": false, "trial_id": "mdp_trial_8", "block": "test", "trialIndex": 9, "score": 52, "costs": 0, "simulationMode": [null, null, null, null, null], "rewards": [-2, 2, 5, -5, 52], "path": ["0", "0", "1", "2", "3", "8", "9"], "rt": [749, 498, 1107, 578, 622], "actions": ["up", "up", "up", "left", "up"], "actionTimes": [3529, 4544, 6175, 7257, 8385], "queries": {"click": {"state": {"target": [], "time": []}, "edge": {"target": [], "time": []}}, "mouseover": {"state": {"target": [], "time": []}, "edge": {"target": [], "time": []}}, "mouseout": {"state": {"target": ["24", "23", "0", "0"], "time": [1661, 1793, 1927, 2277]}, "edge": {"target": [], "time": []}}}, "displayed_time": "16.79", "trialTime": 20659, "trial_type": "mouselab-mdp", "trial_index": 16, "time_elapsed": 690528, "internal_node_id": "0.0-4.0-1.0-7.0"}}, {"uniqueid": "w77472466:a37699852", "current_trial": 17, "dateTime": 1691071678772, "trialdata": {"revealed_states": [], "clicked_states": ["9", "27", "33"], "num_clicks_accrued": [0, 0, 0, 0, 0, 0, 0, 0, 0, 0, 0, 0, 0], "stateRewards": ["", -2, -1, -1, 5, -54, -87, 35, 2, -8, 20, -22, 1, 3, 6, 13, -75, -32, -55, -3, 56, 62, -22, -1, -4, -1, -7, -51, 84, 70, 7, -15, 5, 55], "withholdReward": false, "trial_id": "mdp_trial_9", "block": "test", "trialIndex": 10, "score": 51.8, "costs": -4.199999999999999, "simulationMode": [null, null, null, null, null], "rewards": [-1, -4, -1, 7, 55], "path": ["0", "0", "23", "24", "25", "30", "33"], "rt": [11605, 555, 581, 316, 439], "actions": ["left", "left", "left", "down", "left"], "actionTimes": [20724, 21803, 22899, 23717, 24674], "queries": {"click": {"state": {"target": ["9", "27", "33"], "time": [10431, 14022, 17137]}, "edge": {"target": [], "time": []}}, "mouseover": {"state": {"target": ["1", "8", "9", "5", "8", "27", "26", "25", "33", "32"], "time": [9614, 9781, 10031, 11262, 13065, 13615, 14678, 14828, 16098, 18394]}, "edge": {"target": [], "time": []}}, "mouseout": {"state": {"target": ["0", "0", "0", "0", "1", "8", "9", "5", "8", "27", "26", "25", "33", "32", "31", "24", "23", "13", "19"], "time": [2798, 3361, 4728, 7795, 9630, 9865, 10895, 12982, 13095, 14611, 14778, 15849, 18162, 27537, 28082, 28231, 28548, 29131, 29248]}, "edge": {"target": [], "time": []}}}, "displayed_time": "25.20", "trialTime": 30703, "trial_type": "mouselab-mdp", "trial_index": 17, "time_elapsed": 721537, "internal_node_id": "0.0-4.0-1.0-8.0"}}, {"uniqueid": "w77472466:a37699852", "current_trial": 18, "dateTime": 1691071696978, "trialdata": {"revealed_states": [], "clicked_states": ["22", "21", "16"], "num_clicks_accrued": [0, 0, 0, 0, 0, 0, 0, 0, 0, 0, 0, 0, 0], "stateRewards": ["", -2, -3, -6, -7, 9, 16, 65, 5, -41, 20, -25, -1, -4, 1, -11, -49, -4, 71, 1, 39, -62, 52, -2, -3, 7, -9, -28, -70, 84, 8, 24, -58, 82], "withholdReward": false, "trial_id": "mdp_trial_10", "block": "test", "trialIndex": 11, "score": 44.8, "costs": -4.199999999999999, "simulationMode": [null, null, null, null, null], "rewards": [-1, -4, 1, 1, 52], "path": ["0", "0", "12", "13", "14", "19", "22"], "rt": [9690, 452, 416, 334, 356], "actions": ["right", "right", "right", "down", "left"], "actionTimes": [11977, 12947, 13863, 14712, 15586], "queries": {"click": {"state": {"target": ["22", "21", "16"], "time": [3740, 5929, 8767]}, "edge": {"target": [], "time": []}}, "mouseover": {"state": {"target": ["0", "12", "22", "22", "21", "20", "14", "16"], "time": [2677, 2742, 2824, 3409, 4376, 6807, 7373, 7845]}, "edge": {"target": [], "time": []}}, "mouseout": {"state": {"target": ["21", "22", "0", "0", "12", "22", "22", "21", "20", "14", "16"], "time": [1005, 1408, 1740, 2693, 2761, 2909, 4225, 6440, 7360, 7406, 8964]}, "edge": {"target": [], "time": []}}}, "displayed_time": "16.30", "trialTime": 17915, "trial_type": "mouselab-mdp", "trial_index": 18, "time_elapsed": 739742, "internal_node_id": "0.0-4.0-1.0-9.0"}}, {"uniqueid": "w77472466:a37699852", "current_trial": 19, "dateTime": 1691071718358, "trialdata": {"revealed_states": [], "clicked_states": ["5", "6", "7", "11", "10"], "num_clicks_accrued": [0, 0, 0, 0, 0, 0, 0, 0, 0, 0, 0, 0, 0], "stateRewards": ["", 2, 3, 6, -12, -29, 12, 87, 4, 35, -30, 67, 2, 3, -5, -9, 44, 69, -8, 1, 45, -8, 28, -2, -1, -8, 11, -12, -5, 81, 9, 87, 82, 88], "withholdReward": false, "trial_id": "mdp_trial_11", "block": "test", "trialIndex": 12, "score": 79, "costs": -7, "simulationMode": [null, null, null, null, null], "rewards": [2, 3, 6, -12, 87], "path": ["0", "0", "1", "2", "3", "4", "7"], "rt": [12500, 389, 325, 400, 452], "actions": ["up", "up", "up", "right", "down"], "actionTimes": [15008, 15921, 16767, 17710, 18679], "queries": {"click": {"state": {"target": ["5", "6", "7", "11", "10"], "time": [3962, 5858, 7790, 9830, 12039]}, "edge": {"target": [], "time": []}}, "mouseover": {"state": {"target": ["1", "4", "5", "6", "7", "2", "8", "9", "11", "10"], "time": [3076, 3139, 3543, 4673, 6557, 8129, 8223, 8355, 8740, 11352]}, "edge": {"target": [], "time": []}}, "mouseout": {"state": {"target": ["7", "0", "1", "4", "5", "6", "7", "2", "8", "9", "11"], "time": [1425, 3024, 3092, 3156, 4391, 6339, 8112, 8143, 8238, 8557, 10740]}, "edge": {"target": [], "time": []}}}, "displayed_time": "19.19", "trialTime": 21094, "trial_type": "mouselab-mdp", "trial_index": 19, "time_elapsed": 761123, "internal_node_id": "0.0-4.0-1.0-10.0"}}, {"uniqueid": "w77472466:a37699852", "current_trial": 20, "dateTime": 1691071743982, "trialdata": {"revealed_states": [], "clicked_states": ["31", "33", "29", "11", "32"], "num_clicks_accrued": [0, 0, 0, 0, 0, 0, 0, 0, 0, 0, 0, 0, 0], "stateRewards": ["", -2, 2, -5, 1, 42, -63, -58, -6, 2, 16, 81, -2, 4, 7, -10, 33, 3, -33, -2, -52, -84, -27, 2, -3, -3, 15, -74, -14, -5, -5, -84, 79, -31], "withholdReward": false, "trial_id": "mdp_trial_12", "block": "test", "trialIndex": 13, "score": 63, "costs": -7, "simulationMode": [null, null, null, null, null], "rewards": [-2, 2, -5, -6, 81], "path": ["0", "0", "1", "2", "3", "8", "11"], "rt": [14129, 378, 376, 260, 342], "actions": ["up", "up", "up", "left", "left"], "actionTimes": [19524, 20414, 21311, 22096, 22961], "queries": {"click": {"state": {"target": ["31", "33", "29", "11", "32"], "time": [6666, 9003, 11140, 13179, 16316]}, "edge": {"target": [], "time": []}}, "mouseover": {"state": {"target": ["23", "31", "30", "33", "29", "27", "11", "26", "25", "30", "32"], "time": [5833, 6217, 7348, 7731, 10148, 11749, 12017, 14867, 14897, 14964, 15334]}, "edge": {"target": [], "time": []}}, "mouseout": {"state": {"target": ["10", "0", "23", "31", "30", "33", "29", "27", "11", "26", "25", "30", "32"], "time": [566, 5818, 6051, 7282, 7465, 9831, 11615, 11799, 14733, 14885, 14930, 15302, 17665]}, "edge": {"target": [], "time": []}}}, "displayed_time": "23.49", "trialTime": 25326, "trial_type": "mouselab-mdp", "trial_index": 20, "time_elapsed": 786746, "internal_node_id": "0.0-4.0-1.0-11.0"}}, {"uniqueid": "w77472466:a37699852", "current_trial": 21, "dateTime": 1691071769827, "trialdata": {"revealed_states": [], "clicked_states": ["18", "7", "11", "29", "33", "32"], "num_clicks_accrued": [0, 0, 0, 0, 0, 0, 0, 0, 0, 0, 0, 0, 0], "stateRewards": ["", 2, -3, -5, 5, 11, -9, -33, 6, 67, 6, -30, -1, -2, -6, 13, 55, 13, 72, -14, 75, 21, -66, -2, -4, 6, 15, -1, -35, 60, 2, 51, -73, 12], "withholdReward": false, "trial_id": "mdp_trial_13", "block": "test", "trialIndex": 14, "score": 67.6, "costs": -8.4, "simulationMode": [null, null, null, null, null], "rewards": [-1, -2, -6, 13, 72], "path": ["0", "0", "12", "13", "14", "15", "18"], "rt": [18349, 309, 279, 294, 159], "actions": ["right", "right", "right", "up", "left"], "actionTimes": [20291, 21122, 21932, 22727, 23392], "queries": {"click": {"state": {"target": ["18", "7", "11", "29", "33", "32"], "time": [3329, 5540, 8095, 10935, 13186, 16520]}, "edge": {"target": [], "time": []}}, "mouseover": {"state": {"target": ["18", "15", "15", "18", "7", "2", "10", "11", "10", "29", "33", "32", "32", "31", "22", "19"], "time": [2546, 2613, 2829, 2964, 4760, 6193, 6511, 7798, 8727, 10111, 12763, 14394, 16213, 18197, 19180, 19230]}, "edge": {"target": [], "time": []}}, "mouseout": {"state": {"target": ["0", "18", "15", "15", "18", "7", "2", "10", "11", "10", "29", "29", "33", "33", "32", "32", "31", "22", "19"], "time": [2429, 2579, 2642, 2880, 4295, 6144, 6311, 7615, 8544, 9576, 11149, 11994, 13403, 14260, 14698, 17861, 18596, 19214, 19277]}, "edge": {"target": [], "time": []}}}, "displayed_time": "23.91", "trialTime": 25566, "trial_type": "mouselab-mdp", "trial_index": 21, "time_elapsed": 812591, "internal_node_id": "0.0-4.0-1.0-12.0"}}, {"uniqueid": "w77472466:a37699852", "current_trial": 22, "dateTime": 1691071793269, "trialdata": {"revealed_states": [], "clicked_states": ["7", "10", "29", "31", "22", "21", "16"], "num_clicks_accrued": [0, 0, 0, 0, 0, 0, 0, 0, 0, 0, 0, 0, 0], "stateRewards": ["", 2, -1, 5, 8, 75, -35, -77, 1, -9, -81, -58, 1, 2, -7, 5, 77, -16, 19, 16, -10, -18, 40, -2, 3, 7, -5, 64, 1, -62, 10, 27, 10, 65], "withholdReward": false, "trial_id": "mdp_trial_14", "block": "test", "trialIndex": 15, "score": 68.2, "costs": -9.8, "simulationMode": [null, null, null, null, null], "rewards": [1, 2, -7, 5, 77], "path": ["0", "0", "12", "13", "14", "15", "16"], "rt": [16433, 303, 231, 227, 235], "actions": ["right", "right", "right", "up", "up"], "actionTimes": [18165, 18985, 19712, 20457, 21200], "queries": {"click": {"state": {"target": ["7", "10", "29", "31", "22", "21", "16"], "time": [2925, 5127, 7125, 9267, 11255, 13303, 15226]}, "edge": {"target": [], "time": []}}, "mouseover": {"state": {"target": ["7", "7", "2", "10", "26", "29", "30", "31", "22", "21", "19", "14", "15", "16"], "time": [2247, 2463, 3611, 3711, 6261, 6361, 7977, 8443, 10377, 12011, 13878, 13961, 14379, 14495]}, "edge": {"target": [], "time": []}}, "mouseout": {"state": {"target": ["19", "22", "0", "7", "7", "2", "10", "26", "29", "29", "30", "31", "22", "21", "19", "14", "15"], "time": [761, 811, 2114, 2294, 3578, 3660, 5334, 6311, 7335, 7777, 8344, 9878, 11811, 13810, 13944, 13995, 14411]}, "edge": {"target": [], "time": []}}}, "displayed_time": "21.72", "trialTime": 23158, "trial_type": "mouselab-mdp", "trial_index": 22, "time_elapsed": 836033, "internal_node_id": "0.0-4.0-1.0-13.0"}}, {"uniqueid": "w77472466:a37699852", "current_trial": 23, "dateTime": 1691071824515, "trialdata": {"revealed_states": [], "clicked_states": ["29", "33", "7", "17", "20", "21", "11", "5"], "num_clicks_accrued": [0, 0, 0, 0, 0, 0, 0, 0, 0, 0, 0, 0, 0], "stateRewards": ["", 2, 4, -3, 16, -58, 30, -35, 11, -60, 47, 27, -2, -1, -7, -16, 23, -70, 68, -10, -65, -43, -34, -2, 1, 7, 9, -63, 34, -31, -8, -12, -86, 59], "withholdReward": false, "trial_id": "mdp_trial_15", "block": "test", "trialIndex": 16, "score": -27.200000000000003, "costs": -11.200000000000001, "simulationMode": [null, null, null, null, null], "rewards": [-2, 1, 7, 9, -31], "path": ["0", "0", "23", "24", "25", "26", "29"], "rt": [23523, 356, 347, 225, 277], "actions": ["left", "left", "left", "up", "left"], "actionTimes": [25526, 26398, 27239, 27965, 28738], "queries": {"click": {"state": {"target": ["29", "33", "7", "17", "20", "21", "11", "5"], "time": [4284, 6495, 8500, 10583, 12587, 14560, 17373, 19474]}, "edge": {"target": [], "time": []}}, "mouseover": {"state": {"target": ["23", "24", "25", "29", "29", "33", "30", "0", "7", "15", "17", "20", "21", "0", "11", "5", "4", "1", "32"], "time": [2691, 2957, 3107, 3507, 3976, 5504, 7105, 7221, 7788, 9276, 9555, 11472, 13589, 16544, 17076, 18705, 21875, 23325, 23875]}, "edge": {"target": [], "time": []}}, "mouseout": {"state": {"target": ["16", "23", "24", "25", "29", "29", "33", "30", "0", "7", "15", "17", "20", "21", "0", "11", "5", "4", "1"], "time": [755, 2840, 3038, 3473, 3607, 5221, 7038, 7138, 7272, 9156, 9422, 11155, 13439, 15289, 16562, 17582, 21825, 21975, 23341]}, "edge": {"target": [], "time": []}}}, "displayed_time": "29.26", "trialTime": 30964, "trial_type": "mouselab-mdp", "trial_index": 23, "time_elapsed": 867279, "internal_node_id": "0.0-4.0-1.0-14.0"}}, {"uniqueid": "w77472466:a37699852", "current_trial": 24, "dateTime": 1691071856893, "trialdata": {"revealed_states": [], "clicked_states": ["7", "9", "32", "21", "22", "16", "17", "29", "27", "28"], "num_clicks_accrued": [0, 0, 0, 0, 0, 0, 0, 0, 0, 0, 0, 0, 0], "stateRewards": ["", -2, 1, -7, -8, -37, -76, -87, 11, 30, -63, 80, -1, 4, 2, -1, 42, 17, 52, -3, -75, -80, -68, 2, -3, -5, -15, -48, 82, 24, -7, 5, -22, -71], "withholdReward": false, "trial_id": "mdp_trial_16", "block": "test", "trialIndex": 17, "score": 47, "costs": -14.000000000000002, "simulationMode": [null, null, null, null, null], "rewards": [2, -3, -5, -15, 82], "path": ["0", "0", "23", "24", "25", "26", "28"], "rt": [24076, 320, 314, 253, 321], "actions": ["left", "left", "left", "up", "right"], "actionTimes": [26000, 26844, 27656, 28429, 29268], "queries": {"click": {"state": {"target": ["7", "9", "32", "21", "22", "16", "17", "29", "27", "28"], "time": [3155, 5140, 6782, 8906, 10874, 12883, 15036, 17855, 20641, 23222]}, "edge": {"target": [], "time": []}}, "mouseover": {"state": {"target": ["1", "1", "7", "2", "8", "9", "25", "30", "32", "21", "22", "22", "13", "15", "16", "17", "15", "18", "1", "28", "26", "29", "27", "28", "0"], "time": [2375, 2491, 2707, 3746, 3921, 4204, 5821, 6121, 6371, 8288, 9688, 9988, 11538, 11604, 12021, 13904, 16898, 16932, 16959, 17004, 17354, 17525, 20175, 21838, 24288]}, "edge": {"target": [], "time": []}}, "mouseout": {"state": {"target": ["32", "31", "0", "1", "1", "7", "2", "8", "9", "25", "30", "32", "21", "22", "22", "13", "15", "16", "17", "15", "18", "1", "28", "26", "29", "27", "28", "0"], "time": [974, 1055, 1355, 2420, 2557, 3705, 3769, 4154, 5655, 6105, 6187, 7454, 9605, 9738, 11504, 11554, 11637, 13488, 16891, 16925, 16943, 16971, 17308, 17419, 20022, 21572, 23754, 24354]}, "edge": {"target": [], "time": []}}}, "displayed_time": "29.80", "trialTime": 32092, "trial_type": "mouselab-mdp", "trial_index": 24, "time_elapsed": 899659, "internal_node_id": "0.0-4.0-1.0-15.0"}}, {"uniqueid": "w77472466:a37699852", "current_trial": 25, "dateTime": 1691071882649, "trialdata": {"revealed_states": [], "clicked_states": ["31", "10", "22", "9", "5", "29"], "num_clicks_accrued": [0, 0, 0, 0, 0, 0, 0, 0, 0, 0, 0, 0, 0], "stateRewards": ["", 2, 2, 3, -15, 23, -14, 73, -7, -32, -20, -6, 1, 1, -5, -12, 73, 6, -84, 11, -81, -57, 13, -2, -1, -4, -8, -52, -58, 49, 13, 5, -41, -41], "withholdReward": false, "trial_id": "mdp_trial_17", "block": "test", "trialIndex": 18, "score": 25.6, "costs": -8.4, "simulationMode": [null, null, null, null, null], "rewards": [-2, -1, -4, -8, 49], "path": ["0", "0", "23", "24", "25", "26", "29"], "rt": [16511, 154, 198, 816, 286], "actions": ["left", "left", "left", "up", "left"], "actionTimes": [18116, 18764, 19476, 20816, 21596], "queries": {"click": {"state": {"target": ["31", "10", "22", "9", "5", "29"], "time": [2734, 4872, 8134, 10219, 12707, 14838]}, "edge": {"target": [], "time": []}}, "mouseover": {"state": {"target": ["31", "23", "10", "2", "7", "13", "22", "12", "2", "8", "9", "5", "8", "27", "29", "33"], "time": [2392, 3640, 4190, 5673, 5823, 7109, 7742, 8906, 8945, 8979, 9007, 12295, 13356, 13422, 13488, 15674]}, "edge": {"target": [], "time": []}}, "mouseout": {"state": {"target": ["0", "31", "23", "10", "2", "7", "13", "22", "12", "2", "8", "9", "5", "8", "27", "29", "33", "32"], "time": [2076, 3556, 3656, 5590, 5740, 7042, 7159, 8890, 8923, 8959, 8995, 10790, 13306, 13373, 13439, 15439, 23709, 25030]}, "edge": {"target": [], "time": []}}}, "displayed_time": "22.09", "trialTime": 25466, "trial_type": "mouselab-mdp", "trial_index": 25, "time_elapsed": 925414, "internal_node_id": "0.0-4.0-1.0-16.0"}}, {"uniqueid": "w77472466:a37699852", "current_trial": 26, "dateTime": 1691071916120, "trialdata": {"revealed_states": [], "clicked_states": ["16", "5", "9", "27", "32", "21", "33", "20", "17", "29", "28"], "num_clicks_accrued": [0, 0, 0, 0, 0, 0, 0, 0, 0, 0, 0, 0, 0], "stateRewards": ["", 1, 2, -3, 6, -88, 74, -45, 7, -46, 40, -77, 1, -4, 4, 3, 22, -25, -59, 8, -83, 19, -60, -1, -1, -1, -8, 26, -29, 64, -7, -88, -51, -55], "withholdReward": false, "trial_id": "mdp_trial_18", "block": "test", "trialIndex": 19, "score": 37.599999999999994, "costs": -15.400000000000002, "simulationMode": [null, null, null, null, null], "rewards": [-1, -1, -1, -8, 64], "path": ["0", "0", "23", "24", "25", "26", "29"], "rt": [26577, 262, 228, 83, 27], "actions": ["left", "left", "left", "up", "left"], "actionTimes": [28420, 29197, 29946, 30553, 31098], "queries": {"click": {"state": {"target": ["16", "5", "9", "27", "32", "21", "33", "20", "17", "29", "28"], "time": [4063, 6082, 8068, 10024, 11938, 13912, 16205, 18894, 21046, 23318, 25691]}, "edge": {"target": [], "time": []}}, "mouseover": {"state": {"target": ["1", "18", "16", "6", "5", "9", "27", "26", "25", "30", "32", "21", "31", "30", "33", "33", "30", "31", "22", "19", "20", "17", "15", "18", "1", "28", "26", "29", "26", "28"], "time": [2651, 2868, 3651, 4748, 5081, 6781, 8934, 10431, 10513, 10606, 10748, 12848, 14948, 14981, 15030, 15415, 17820, 17835, 18264, 18297, 18517, 19698, 21582, 21617, 22021, 22081, 22165, 22448, 24332, 24565]}, "edge": {"target": [], "time": []}}, "mouseout": {"state": {"target": ["23", "1", "18", "16", "6", "5", "9", "27", "26", "25", "30", "32", "21", "31", "30", "33", "33", "30", "31", "22", "19", "20", "17", "15", "18", "1", "28", "26", "29", "26"], "time": [648, 2668, 3501, 4682, 4831, 6564, 8531, 10414, 10481, 10564, 10681, 12348, 14417, 14965, 14997, 15215, 17801, 17831, 17847, 18281, 18347, 19499, 21566, 21614, 21630, 22047, 22115, 22365, 24268, 24498]}, "edge": {"target": [], "time": []}}}, "displayed_time": "31.61", "trialTime": 33178, "trial_type": "mouselab-mdp", "trial_index": 26, "time_elapsed": 958885, "internal_node_id": "0.0-4.0-1.0-17.0"}}, {"uniqueid": "w77472466:a37699852", "current_trial": 27, "dateTime": 1691071934380, "trialdata": {"revealed_states": [], "clicked_states": ["7", "10", "31", "22"], "num_clicks_accrued": [0, 0, 0, 0, 0, 0, 0, 0, 0, 0, 0, 0, 0], "stateRewards": ["", -1, 2, -7, -12, -62, 12, -13, 5, 77, -71, 83, 1, -4, 7, 15, -42, -87, -4, 5, -25, 44, 88, -1, 4, -5, -8, 14, 51, 8, -5, 83, -24, -19], "withholdReward": false, "trial_id": "mdp_trial_19", "block": "test", "trialIndex": 20, "score": 91.4, "costs": -5.6, "simulationMode": [null, null, null, null, null], "rewards": [1, -4, 7, 5, 88], "path": ["0", "0", "12", "13", "14", "19", "22"], "rt": [11661, 256, 220, 160, 244], "actions": ["right", "right", "right", "down", "left"], "actionTimes": [13152, 13902, 14616, 15295, 16057], "queries": {"click": {"state": {"target": ["7", "10", "31", "22"], "time": [3086, 5371, 7412, 9685]}, "edge": {"target": [], "time": []}}, "mouseover": {"state": {"target": ["7", "2", "10", "24", "31", "22"], "time": [2577, 3641, 3976, 5958, 6109, 8325]}, "edge": {"target": [], "time": []}}, "mouseout": {"state": {"target": ["28", "1", "7", "2", "10", "24", "31"], "time": [508, 658, 3613, 3744, 5792, 6009, 7876]}, "edge": {"target": [], "time": []}}}, "displayed_time": "16.58", "trialTime": 17964, "trial_type": "mouselab-mdp", "trial_index": 27, "time_elapsed": 977144, "internal_node_id": "0.0-4.0-1.0-18.0"}}, {"uniqueid": "w77472466:a37699852", "current_trial": 28, "dateTime": 1691071957959, "trialdata": {"revealed_states": [], "clicked_states": ["28", "33", "9", "5", "21", "20"], "num_clicks_accrued": [0, 0, 0, 0, 0, 0, 0, 0, 0, 0, 0, 0, 0], "stateRewards": ["", -1, 3, -5, -2, -13, -9, -34, -7, -81, 32, 35, -2, -2, 1, -14, -32, 81, 7, 4, 82, 56, -8, -1, 3, -8, 6, -24, -24, -53, 2, 38, 61, 54], "withholdReward": false, "trial_id": "mdp_trial_20", "block": "test", "trialIndex": 21, "score": 74.6, "costs": -8.4, "simulationMode": [null, null, null, null, null], "rewards": [-2, -2, 1, 4, 82], "path": ["0", "0", "12", "13", "14", "19", "20"], "rt": [16524, 147, 187, 193, 743], "actions": ["right", "right", "right", "down", "right"], "actionTimes": [18441, 19108, 19812, 20518, 21785], "queries": {"click": {"state": {"target": ["28", "33", "9", "5", "21", "20"], "time": [3909, 5900, 8362, 10419, 12827, 15170]}, "edge": {"target": [], "time": []}}, "mouseover": {"state": {"target": ["23", "28", "25", "33", "25", "10", "8", "9", "5", "4", "18", "13", "22", "21", "20", "17"], "time": [3057, 3407, 4503, 4804, 6588, 6672, 7055, 7959, 9288, 11071, 11170, 11221, 11755, 12342, 13822, 17192]}, "edge": {"target": [], "time": []}}, "mouseout": {"state": {"target": ["22", "0", "23", "28", "25", "33", "25", "28", "10", "8", "9", "5", "4", "18", "13", "22", "21", "20"], "time": [1055, 2958, 3174, 4455, 4555, 6571, 6605, 6637, 7038, 7087, 9021, 11038, 11089, 11205, 11688, 11870, 13638, 16875]}, "edge": {"target": [], "time": []}}}, "displayed_time": "22.31", "trialTime": 23271, "trial_type": "mouselab-mdp", "trial_index": 28, "time_elapsed": 1000723, "internal_node_id": "0.0-4.0-1.0-19.0"}}, {"uniqueid": "w77472466:a37699852", "current_trial": 29, "dateTime": 1691071980091, "trialdata": {"revealed_states": [], "clicked_states": ["29", "31", "5", "16"], "num_clicks_accrued": [0, 0, 0, 0, 0, 0, 0, 0, 0, 0, 0, 0, 0], "stateRewards": ["", -1, -4, -1, -11, 43, 69, 39, 4, 17, -20, -82, -2, -1, 4, 8, -79, 24, -79, 11, 36, 64, 41, 2, 4, -1, 11, -79, -47, 75, -3, 63, -36, -19], "withholdReward": false, "trial_id": "mdp_trial_21", "block": "test", "trialIndex": 22, "score": 85.4, "costs": -5.6, "simulationMode": [null, null, null, null, null], "rewards": [2, 4, -1, 11, 75], "path": ["0", "0", "23", "24", "25", "26", "29"], "rt": [12793, 74, 75, 170, 122], "actions": ["left", "left", "left", "up", "left"], "actionTimes": [14418, 15008, 15611, 16308, 16955], "queries": {"click": {"state": {"target": ["29", "31", "5", "16"], "time": [2943, 6244, 8710, 11600]}, "edge": {"target": [], "time": []}}, "mouseover": {"state": {"target": ["23", "24", "26", "29", "31", "31", "2", "4", "5", "6", "16", "7", "3", "8", "8"], "time": [2150, 2195, 2282, 2549, 5566, 5866, 7363, 7396, 7713, 10849, 11121, 12330, 12397, 13097, 13716]}, "edge": {"target": [], "time": []}}, "mouseout": {"state": {"target": ["17", "15", "0", "23", "24", "26", "29", "31", "31", "2", "4", "5", "6", "16", "7", "3", "8", "8"], "time": [597, 648, 2133, 2179, 2212, 2383, 5266, 5584, 6913, 7382, 7546, 10817, 10896, 12281, 12364, 12846, 13180, 13816]}, "edge": {"target": [], "time": []}}}, "displayed_time": "17.47", "trialTime": 21831, "trial_type": "mouselab-mdp", "trial_index": 29, "time_elapsed": 1022856, "internal_node_id": "0.0-4.0-1.0-20.0"}}, {"uniqueid": "w77472466:a37699852", "current_trial": 30, "dateTime": 1691071999894, "trialdata": {"revealed_states": [], "clicked_states": ["5", "32", "21", "9", "11"], "num_clicks_accrued": [0, 0, 0, 0, 0, 0, 0, 0, 0, 0, 0, 0, 0], "stateRewards": ["", 1, 2, -3, -5, 66, -50, -47, -5, 1, 28, -27, 1, 1, -1, -6, 37, -25, 56, 1, -82, -66, -40, -1, -4, -7, 15, -61, -23, 26, 10, 14, -56, 29], "withholdReward": false, "trial_id": "mdp_trial_22", "block": "test", "trialIndex": 23, "score": 54, "costs": -7, "simulationMode": [null, null, null, null, null], "rewards": [1, 2, -3, -5, 66], "path": ["0", "0", "1", "2", "3", "4", "5"], "rt": [12463, 123, 103, 188, 173], "actions": ["up", "up", "up", "right", "up"], "actionTimes": [14412, 15033, 15643, 16327, 16997], "queries": {"click": {"state": {"target": ["5", "32", "21", "9", "11"], "time": [3685, 5734, 7755, 9780, 12446]}, "edge": {"target": [], "time": []}}, "mouseover": {"state": {"target": ["1", "2", "4", "5", "3", "10", "24", "32", "21", "10", "8", "9", "4", "3", "8", "11"], "time": [2821, 2887, 3221, 3319, 4137, 4188, 4270, 4654, 6704, 8220, 8253, 8670, 10570, 11205, 11971, 12104]}, "edge": {"target": [], "time": []}}, "mouseout": {"state": {"target": ["10", "1", "1", "2", "4", "5", "3", "10", "24", "32", "21", "10", "8", "9", "4", "3", "8", "11", "28"], "time": [869, 969, 2852, 2903, 3236, 4121, 4172, 4221, 4303, 6204, 8103, 8237, 8621, 10503, 10604, 11486, 11986, 18603, 18736]}, "edge": {"target": [], "time": []}}}, "displayed_time": "17.49", "trialTime": 19474, "trial_type": "mouselab-mdp", "trial_index": 30, "time_elapsed": 1042659, "internal_node_id": "0.0-4.0-1.0-21.0"}}, {"uniqueid": "w77472466:a37699852", "current_trial": 31, "dateTime": 1691072018537, "trialdata": {"revealed_states": [], "clicked_states": ["29", "16", "31", "22"], "num_clicks_accrued": [0, 0, 0, 0, 0, 0, 0, 0, 0, 0, 0, 0, 0], "stateRewards": ["", -1, 3, 8, 9, -53, 20, -84, 2, -28, -62, -31, -1, -2, -7, 2, 51, 58, 45, -4, -17, -41, 36, 2, -2, -7, -15, 29, -54, -37, -16, -43, 65, -17], "withholdReward": false, "trial_id": "mdp_trial_23", "block": "test", "trialIndex": 24, "score": 37.4, "costs": -5.6, "simulationMode": [null, null, null, null, null], "rewards": [-1, -2, -7, 2, 51], "path": ["0", "0", "12", "13", "14", "15", "16"], "rt": [11332, 112, 62, 236, 18], "actions": ["right", "right", "right", "up", "up"], "actionTimes": [13291, 13902, 14468, 15209, 15726], "queries": {"click": {"state": {"target": ["29", "16", "31", "22"], "time": [3601, 6042, 8489, 10538]}, "edge": {"target": [], "time": []}}, "mouseover": {"state": {"target": ["23", "26", "29", "25", "23", "12", "18", "16", "7", "2", "10", "24", "31", "22"], "time": [2720, 3138, 3254, 4438, 4905, 4988, 5353, 5520, 6821, 6938, 7171, 7605, 7722, 9239]}, "edge": {"target": [], "time": []}}, "mouseout": {"state": {"target": ["24", "23", "0", "23", "26", "29", "25", "23", "12", "18", "16", "7", "2", "10", "24", "31", "22"], "time": [936, 969, 2687, 2736, 3187, 4388, 4489, 4938, 5304, 5420, 6738, 6871, 7077, 7289, 7622, 8696, 11121]}, "edge": {"target": [], "time": []}}}, "displayed_time": "16.24", "trialTime": 18302, "trial_type": "mouselab-mdp", "trial_index": 31, "time_elapsed": 1061302, "internal_node_id": "0.0-4.0-1.0-22.0"}}, {"uniqueid": "w77472466:a37699852", "current_trial": 32, "dateTime": 1691072041380, "trialdata": {"revealed_states": [], "clicked_states": ["28", "18", "9", "5", "10"], "num_clicks_accrued": [0, 0, 0, 0, 0, 0, 0, 0, 0, 0, 0, 0, 0], "stateRewards": ["", -1, 1, 8, -8, -49, 62, -78, 16, 28, -81, 78, -2, -3, -1, -4, 67, 49, -2, -13, -16, -39, 83, 1, -4, 4, -5, -20, 7, 84, 7, -32, -59, 19], "withholdReward": false, "trial_id": "mdp_trial_24", "block": "test", "trialIndex": 25, "score": 95, "costs": -7, "simulationMode": [null, null, null, null, null], "rewards": [-1, 1, 8, 16, 78], "path": ["0", "0", "1", "2", "3", "8", "11"], "rt": [14157, 45, 106, 84, 844], "actions": ["up", "up", "up", "left", "left"], "actionTimes": [16356, 16911, 17539, 18135, 19477], "queries": {"click": {"state": {"target": ["28", "18", "9", "5", "10"], "time": [3749, 5709, 9266, 11338, 13810]}, "edge": {"target": [], "time": []}}, "mouseover": {"state": {"target": ["1", "28", "1", "18", "18", "13", "22", "10", "8", "10", "8", "9", "5", "3", "10"], "time": [2880, 3079, 4430, 4483, 4813, 6279, 6463, 7416, 7733, 8082, 8532, 8966, 10113, 12851, 13484]}, "edge": {"target": [], "time": []}}, "mouseout": {"state": {"target": ["0", "1", "28", "1", "18", "18", "13", "22", "10", "8", "10", "8", "9", "5", "5", "3", "10", "10"], "time": [943, 2928, 4397, 4447, 4517, 6229, 6385, 6614, 7699, 7982, 8483, 8599, 9913, 11547, 12730, 12931, 14021, 14745]}, "edge": {"target": [], "time": []}}}, "displayed_time": "20.00", "trialTime": 22501, "trial_type": "mouselab-mdp", "trial_index": 32, "time_elapsed": 1084145, "internal_node_id": "0.0-4.0-1.0-23.0"}}, {"uniqueid": "w77472466:a37699852", "current_trial": 33, "dateTime": 1691072062828, "trialdata": {"revealed_states": [], "clicked_states": ["16", "28", "7", "32", "21"], "num_clicks_accrued": [0, 0, 0, 0, 0, 0, 0, 0, 0, 0, 0, 0, 0], "stateRewards": ["", 1, -1, 1, -14, -10, 67, -28, -11, 72, 40, -65, -1, 1, 1, -2, 8, -55, 34, -10, 61, 33, -15, 2, -4, 7, 4, -75, 63, -21, -16, 61, 19, 21], "withholdReward": false, "trial_id": "mdp_trial_25", "block": "test", "trialIndex": 26, "score": 65, "costs": -7, "simulationMode": [null, null, null, null, null], "rewards": [2, -4, 7, 4, 63], "path": ["0", "0", "23", "24", "25", "26", "28"], "rt": [14690, 126, 111, 67, 129], "actions": ["left", "left", "left", "up", "right"], "actionTimes": [17062, 17695, 18333, 18922, 19582], "queries": {"click": {"state": {"target": ["16", "28", "7", "32", "21"], "time": [3943, 6350, 8802, 10960, 14273]}, "edge": {"target": [], "time": []}}, "mouseover": {"state": {"target": ["12", "15", "16", "15", "18", "28", "26", "26", "10", "2", "7", "0", "32", "21"], "time": [2968, 3152, 3535, 4900, 5016, 5819, 7149, 7337, 7420, 7832, 8103, 9516, 9999, 13637]}, "edge": {"target": [], "time": []}}, "mouseout": {"state": {"target": ["2", "1", "0", "12", "15", "16", "15", "18", "28", "26", "26", "10", "2", "7", "0", "32"], "time": [1399, 1517, 2936, 2999, 3452, 4800, 4915, 5050, 6931, 7165, 7351, 7799, 7899, 9400, 9549, 13149]}, "edge": {"target": [], "time": []}}}, "displayed_time": "20.11", "trialTime": 21137, "trial_type": "mouselab-mdp", "trial_index": 33, "time_elapsed": 1105593, "internal_node_id": "0.0-4.0-1.0-24.0"}}, {"uniqueid": "w77472466:a37699852", "current_trial": 34, "dateTime": 1691072081759, "trialdata": {"revealed_states": [], "clicked_states": ["25", "33"], "num_clicks_accrued": [0, 0, 0, 0, 0, 0, 0, 0, 0, 0, 0, 0, 0], "stateRewards": ["", -1, 4, -8, 12, 14, 69, -8, 5, -72, -14, 56, -1, -1, -1, 9, 67, 19, 11, -9, -88, -58, 3, 2, -4, -8, 4, 62, 77, -74, 5, -31, 65, 88], "withholdReward": false, "trial_id": "mdp_trial_26", "block": "test", "trialIndex": 27, "score": 80.2, "costs": -2.8, "simulationMode": [null, null, null, null, null], "rewards": [2, -4, -8, 5, 88], "path": ["0", "0", "23", "24", "25", "30", "33"], "rt": [8736, 91, 148, 169, 223], "actions": ["left", "left", "left", "down", "left"], "actionTimes": [11443, 12042, 12695, 13399, 14120], "queries": {"click": {"state": {"target": ["25", "33"], "time": [5171, 8133]}, "edge": {"target": [], "time": []}}, "mouseover": {"state": {"target": ["0", "23", "24", "25", "33", "30", "31", "19"], "time": [4464, 4511, 4576, 4861, 7764, 9076, 9098, 9796]}, "edge": {"target": [], "time": []}}, "mouseout": {"state": {"target": ["21", "21", "0", "0", "23", "24", "25", "33", "30", "31", "19", "19"], "time": [694, 961, 1827, 4475, 4543, 4794, 7503, 9062, 9094, 9113, 17110, 17945]}, "edge": {"target": [], "time": []}}}, "displayed_time": "16.71", "trialTime": 18626, "trial_type": "mouselab-mdp", "trial_index": 34, "time_elapsed": 1124524, "internal_node_id": "0.0-4.0-1.0-25.0"}}, {"uniqueid": "w77472466:a37699852", "current_trial": 35, "dateTime": 1691072103470, "trialdata": {"revealed_states": [], "clicked_states": ["21", "27", "16", "32", "33"], "num_clicks_accrued": [0, 0, 0, 0, 0, 0, 0, 0, 0, 0, 0, 0, 0], "stateRewards": ["", 2, -1, 5, 6, 10, 86, 55, 10, -45, 63, -71, 1, -2, 5, -8, -50, -72, 36, 15, 61, 12, 33, -1, -4, 6, 5, 79, -56, -21, -16, -87, 60, -81], "withholdReward": false, "trial_id": "mdp_trial_27", "block": "test", "trialIndex": 28, "score": 78, "costs": -7, "simulationMode": [null, null, null, null, null], "rewards": [-1, -4, 6, 5, 79], "path": ["0", "0", "23", "24", "25", "26", "27"], "rt": [15162, 77, 105, 179, 131], "actions": ["left", "left", "left", "up", "up"], "actionTimes": [16574, 17172, 17801, 18492, 19141], "queries": {"click": {"state": {"target": ["21", "27", "16", "32", "33"], "time": [2541, 4850, 7424, 10335, 14464]}, "edge": {"target": [], "time": []}}, "mouseover": {"state": {"target": ["22", "21", "23", "28", "27", "16", "17", "16", "15", "13", "31", "32", "33"], "time": [1879, 2078, 3259, 3626, 3758, 5798, 6076, 7046, 9312, 9377, 9796, 9947, 14062]}, "edge": {"target": [], "time": []}}, "mouseout": {"state": {"target": ["0", "22", "21", "23", "28", "27", "16", "17", "16", "15", "13", "31", "32", "33"], "time": [1746, 1945, 3125, 3291, 3658, 5051, 5841, 6963, 9279, 9341, 9408, 9825, 12662, 20713]}, "edge": {"target": [], "time": []}}}, "displayed_time": "19.66", "trialTime": 21386, "trial_type": "mouselab-mdp", "trial_index": 35, "time_elapsed": 1146234, "internal_node_id": "0.0-4.0-1.0-26.0"}}, {"uniqueid": "w77472466:a37699852", "current_trial": 36, "dateTime": 1691072125063, "trialdata": {"revealed_states": [], "clicked_states": ["6", "11", "23", "30", "32"], "num_clicks_accrued": [0, 0, 0, 0, 0, 0, 0, 0, 0, 0, 0, 0, 0], "stateRewards": ["", 2, -4, 1, -12, -59, -53, -74, 16, -88, -66, 66, 1, -2, 8, -9, -14, 22, 25, -1, -39, 47, -14, -1, -1, -2, 1, -4, 52, -26, 15, -7, 46, 43], "withholdReward": false, "trial_id": "mdp_trial_28", "block": "test", "trialIndex": 29, "score": 74, "costs": -7, "simulationMode": [null, null, null, null, null], "rewards": [2, -4, 1, 16, 66], "path": ["0", "0", "1", "2", "3", "8", "11"], "rt": [14029, 350, 258, 527, 508], "actions": ["up", "up", "up", "left", "left"], "actionTimes": [15765, 16629, 17387, 18440, 19469], "queries": {"click": {"state": {"target": ["6", "11", "23", "30", "32"], "time": [2657, 5577, 8418, 10576, 12817]}, "edge": {"target": [], "time": []}}, "mouseover": {"state": {"target": ["1", "7", "6", "4", "7", "3", "8", "11", "28", "24", "23", "31", "30", "32", "21"], "time": [2064, 2090, 2244, 3207, 3391, 4125, 4561, 5278, 6457, 6574, 7040, 9008, 9308, 11325, 13990]}, "edge": {"target": [], "time": []}}, "mouseout": {"state": {"target": ["0", "1", "7", "6", "4", "7", "3", "8", "11", "28", "24", "23", "31", "30", "32"], "time": [2045, 2079, 2125, 3075, 3241, 3959, 4428, 5112, 6362, 6525, 6591, 8940, 9141, 11242, 13226]}, "edge": {"target": [], "time": []}}}, "displayed_time": "19.98", "trialTime": 21294, "trial_type": "mouselab-mdp", "trial_index": 36, "time_elapsed": 1167828, "internal_node_id": "0.0-4.0-1.0-27.0"}}, {"uniqueid": "w77472466:a37699852", "current_trial": 37, "dateTime": 1691072149817, "trialdata": {"revealed_states": [], "clicked_states": ["19", "27", "6", "33", "32", "25"], "num_clicks_accrued": [0, 0, 0, 0, 0, 0, 0, 0, 0, 0, 0, 0, 0], "stateRewards": ["", -2, -4, 4, -11, -63, -60, -7, 2, -14, 81, -43, -1, -1, -5, 7, 10, 69, 40, 8, -83, 52, 60, 1, 2, 5, -5, 16, 64, 14, -3, 29, 7, -51], "withholdReward": false, "trial_id": "mdp_trial_29", "block": "test", "trialIndex": 30, "score": -28.4, "costs": -8.4, "simulationMode": [null, null, null, null, null], "rewards": [-2, -4, 4, -11, -7], "path": ["0", "0", "1", "2", "3", "4", "7"], "rt": [16286, 77, 108, 910, 322], "actions": ["up", "up", "up", "right", "down"], "actionTimes": [18466, 19054, 19685, 21102, 21949], "queries": {"click": {"state": {"target": ["19", "27", "6", "33", "32", "25"], "time": [3412, 5970, 7990, 10175, 12358, 14908]}, "edge": {"target": [], "time": []}}, "mouseover": {"state": {"target": ["12", "13", "19", "22", "31", "30", "25", "26", "27", "8", "6", "7", "24", "33", "32", "31", "25"], "time": [2547, 2578, 2993, 4055, 4162, 4523, 4657, 4724, 5210, 6539, 7107, 8622, 8722, 9172, 11141, 14373, 14494]}, "edge": {"target": [], "time": []}}, "mouseout": {"state": {"target": ["21", "0", "12", "13", "19", "22", "31", "30", "25", "26", "27", "8", "6", "7", "24", "33", "32", "31", "25"], "time": [879, 2527, 2566, 2642, 4039, 4072, 4183, 4589, 4707, 5143, 6456, 6577, 8605, 8639, 8739, 10857, 12740, 14390, 15125]}, "edge": {"target": [], "time": []}}}, "displayed_time": "22.46", "trialTime": 24447, "trial_type": "mouselab-mdp", "trial_index": 37, "time_elapsed": 1192583, "internal_node_id": "0.0-4.0-1.0-28.0"}}, {"uniqueid": "w77472466:a37699852", "current_trial": 38, "dateTime": 1691072174317, "trialdata": {"revealed_states": [], "clicked_states": ["17", "29", "31", "22", "11", "7"], "num_clicks_accrued": [0, 0, 0, 0, 0, 0, 0, 0, 0, 0, 0, 0, 0], "stateRewards": ["", -1, 1, -5, -6, -78, 47, -13, 12, 48, -88, 20, 2, -3, -2, 13, -20, 37, -57, 14, -38, 30, 31, -2, -2, 8, 2, -23, 78, 28, 12, -74, -88, 8], "withholdReward": false, "trial_id": "mdp_trial_30", "block": "test", "trialIndex": 31, "score": 38.6, "costs": -8.4, "simulationMode": [null, null, null, null, null], "rewards": [2, -3, -2, 13, 37], "path": ["0", "0", "12", "13", "14", "15", "17"], "rt": [15207, 87, 90, 127, 67], "actions": ["right", "right", "right", "up", "right"], "actionTimes": [20105, 20718, 21321, 21976, 22564], "queries": {"click": {"state": {"target": ["17", "29", "31", "22", "11", "7"], "time": [6507, 8765, 10711, 12651, 15151, 17538]}, "edge": {"target": [], "time": []}}, "mouseover": {"state": {"target": ["12", "13", "14", "17", "1", "26", "29", "25", "31", "22", "12", "1", "10", "11", "8", "3", "4", "6", "7"], "time": [5411, 5578, 5746, 6093, 7259, 7692, 7760, 9259, 9514, 11625, 13393, 13442, 14169, 14663, 15893, 15925, 15987, 16543, 16846]}, "edge": {"target": [], "time": []}}, "mouseout": {"state": {"target": ["25", "23", "0", "0", "12", "13", "14", "17", "1", "26", "29", "25", "31", "22", "12", "1", "10", "11", "8", "3", "4", "6"], "time": [394, 644, 2260, 5379, 5528, 5713, 6046, 6702, 7276, 7708, 9226, 9310, 11227, 13343, 13409, 14093, 14194, 15369, 15909, 15962, 16075, 16643]}, "edge": {"target": [], "time": []}}}, "displayed_time": "23.10", "trialTime": 24182, "trial_type": "mouselab-mdp", "trial_index": 38, "time_elapsed": 1217082, "internal_node_id": "0.0-4.0-1.0-29.0"}}, {"uniqueid": "w77472466:a37699852", "current_trial": 39, "dateTime": 1691072195582, "trialdata": {"revealed_states": [], "clicked_states": ["7", "32", "5", "11", "29"], "num_clicks_accrued": [0, 0, 0, 0, 0, 0, 0, 0, 0, 0, 0, 0, 0], "stateRewards": ["", -1, -3, 3, 5, 56, 39, 50, -1, -80, 33, -46, 1, -2, -6, -8, 87, 48, 54, -11, -20, -64, -54, -2, 3, -7, -3, 12, 88, 35, -16, -46, -70, -3], "withholdReward": false, "trial_id": "mdp_trial_31", "block": "test", "trialIndex": 32, "score": 47, "costs": -7, "simulationMode": [null, null, null, null, null], "rewards": [-1, -3, 3, 5, 50], "path": ["0", "0", "1", "2", "3", "4", "7"], "rt": [12781, 46, 60, 210, 103], "actions": ["up", "up", "up", "right", "down"], "actionTimes": [14239, 14787, 15384, 16118, 16744], "queries": {"click": {"state": {"target": ["7", "32", "5", "11", "29"], "time": [2699, 5521, 7728, 9803, 12015]}, "edge": {"target": [], "time": []}}, "mouseover": {"state": {"target": ["7", "6", "7", "1", "23", "31", "32", "32", "30", "24", "3", "5", "8", "11", "27", "29", "26", "28", "0"], "time": [1990, 2053, 2373, 3302, 3469, 3606, 4286, 5107, 6469, 6536, 6654, 7042, 8319, 8612, 10404, 10686, 12469, 12502, 12569]}, "edge": {"target": [], "time": []}}, "mouseout": {"state": {"target": ["7", "2", "0", "7", "6", "7", "7", "1", "23", "31", "32", "32", "30", "24", "3", "5", "8", "11", "27", "29", "26", "28", "0"], "time": [405, 437, 1905, 2009, 2206, 2911, 3237, 3337, 3521, 3686, 4610, 6420, 6487, 6552, 6988, 8137, 8453, 10338, 10519, 12452, 12486, 12519, 12620]}, "edge": {"target": [], "time": []}}}, "displayed_time": "17.26", "trialTime": 20957, "trial_type": "mouselab-mdp", "trial_index": 39, "time_elapsed": 1238347, "internal_node_id": "0.0-4.0-1.0-30.0"}}, {"uniqueid": "w77472466:a37699852", "current_trial": 40, "dateTime": 1691072216870, "trialdata": {"revealed_states": [], "clicked_states": ["22", "29", "7", "32", "11"], "num_clicks_accrued": [0, 0, 0, 0, 0, 0, 0, 0, 0, 0, 0, 0, 0], "stateRewards": ["", -1, 3, 1, -7, 56, 76, 57, 3, 11, -9, 14, 1, -2, 2, 8, -77, -3, 79, -5, 88, 24, -66, -2, -1, 7, -7, -30, 14, -76, 11, -36, 28, -6], "withholdReward": false, "trial_id": "mdp_trial_32", "block": "test", "trialIndex": 33, "score": 46, "costs": -7, "simulationMode": [null, null, null, null, null], "rewards": [-1, 3, 1, -7, 57], "path": ["0", "0", "1", "2", "3", "4", "7"], "rt": [14459, 132, 107, 179, 166], "actions": ["up", "up", "up", "right", "down"], "actionTimes": [16542, 17186, 17810, 18499, 19167], "queries": {"click": {"state": {"target": ["22", "29", "7", "32", "11"], "time": [3317, 5871, 8043, 10065, 12590]}, "edge": {"target": [], "time": []}}, "mouseover": {"state": {"target": ["12", "22", "24", "26", "29", "10", "2", "7", "24", "31", "32", "23", "10", "11", "2", "12", "22"], "time": [2488, 2868, 4482, 4902, 5400, 7200, 7265, 7498, 8716, 8748, 8901, 11181, 11516, 12220, 13133, 13212, 13600]}, "edge": {"target": [], "time": []}}, "mouseout": {"state": {"target": ["0", "12", "22", "24", "26", "29", "10", "2", "7", "24", "31", "32", "23", "10", "11", "2", "12", "22"], "time": [2469, 2514, 3816, 4582, 5302, 6683, 7233, 7398, 8583, 8732, 8765, 10632, 11217, 11919, 13083, 13154, 13238, 13649]}, "edge": {"target": [], "time": []}}}, "displayed_time": "19.69", "trialTime": 20975, "trial_type": "mouselab-mdp", "trial_index": 40, "time_elapsed": 1259635, "internal_node_id": "0.0-4.0-1.0-31.0"}}, {"uniqueid": "w77472466:a37699852", "current_trial": 41, "dateTime": 1691072237838, "trialdata": {"revealed_states": [], "clicked_states": ["25", "21", "9", "29"], "num_clicks_accrued": [0, 0, 0, 0, 0, 0, 0, 0, 0, 0, 0, 0, 0], "stateRewards": ["", 2, -4, 7, 3, 23, -42, 4, 7, -81, -33, 7, -2, -4, 5, -1, 50, -57, -14, -13, -14, 44, 55, -2, -2, 5, -2, 33, 1, 57, -13, -7, 58, 87], "withholdReward": false, "trial_id": "mdp_trial_33", "block": "test", "trialIndex": 34, "score": 50.4, "costs": -5.6, "simulationMode": [null, null, null, null, null], "rewards": [-2, -2, 5, -2, 57], "path": ["0", "0", "23", "24", "25", "26", "29"], "rt": [12289, 76, 89, 191, 212], "actions": ["left", "left", "left", "up", "left"], "actionTimes": [15961, 16555, 17168, 17870, 18591], "queries": {"click": {"state": {"target": ["25", "21", "9", "29"], "time": [5220, 7416, 10269, 12933]}, "edge": {"target": [], "time": []}}, "mouseover": {"state": {"target": ["23", "24", "25", "21", "10", "8", "9", "11", "27", "29"], "time": [4460, 4659, 4910, 6827, 9361, 9390, 9841, 12211, 12361, 12661]}, "edge": {"target": [], "time": []}}, "mouseout": {"state": {"target": ["0", "0", "23", "24", "25", "21", "10", "8", "9", "11", "27"], "time": [1059, 4410, 4560, 4810, 5825, 8725, 9378, 9744, 11358, 12258, 12425]}, "edge": {"target": [], "time": []}}}, "displayed_time": "19.11", "trialTime": 20650, "trial_type": "mouselab-mdp", "trial_index": 41, "time_elapsed": 1280602, "internal_node_id": "0.0-4.0-1.0-32.0"}}, {"uniqueid": "w77472466:a37699852", "current_trial": 42, "dateTime": 1691072259615, "trialdata": {"revealed_states": [], "clicked_states": ["22", "10", "27", "33"], "num_clicks_accrued": [0, 0, 0, 0, 0, 0, 0, 0, 0, 0, 0, 0, 0], "stateRewards": ["", 2, -1, 4, -9, -43, 7, 54, -13, 38, -40, -83, -1, 2, -8, -10, 34, -33, 11, -14, -79, 65, 26, 1, 2, 4, 10, 21, 1, 86, 4, -53, 28, -29], "withholdReward": false, "trial_id": "mdp_trial_34", "block": "test", "trialIndex": 35, "score": -0.6000000000000014, "costs": -5.6, "simulationMode": [null, null, null, null, null], "rewards": [-1, 2, -8, -14, 26], "path": ["0", "0", "12", "13", "14", "19", "22"], "rt": [12439, 110, 99, 162, 123], "actions": ["right", "right", "right", "down", "left"], "actionTimes": [14093, 14712, 15336, 16013, 16658], "queries": {"click": {"state": {"target": ["22", "10", "27", "33"], "time": [3343, 5995, 9057, 11995]}, "edge": {"target": [], "time": []}}, "mouseover": {"state": {"target": ["12", "22", "24", "26", "28", "1", "7", "2", "10", "26", "27", "26", "33"], "time": [2704, 2799, 4048, 4532, 4649, 4749, 5085, 5368, 5567, 8452, 8669, 11337, 11618]}, "edge": {"target": [], "time": []}}, "mouseout": {"state": {"target": ["29", "26", "23", "0", "12", "22", "24", "26", "28", "1", "7", "2", "10", "26", "27", "26", "33"], "time": [582, 632, 799, 2683, 2731, 3799, 4382, 4615, 4665, 4799, 5285, 5485, 6191, 8552, 11319, 11381, 17752]}, "edge": {"target": [], "time": []}}}, "displayed_time": "17.17", "trialTime": 21452, "trial_type": "mouselab-mdp", "trial_index": 42, "time_elapsed": 1302380, "internal_node_id": "0.0-4.0-1.0-33.0"}}, {"uniqueid": "w77472466:a37699852", "current_trial": 43, "dateTime": 1691072286460, "trialdata": {"revealed_states": [], "clicked_states": ["2", "24", "12", "22", "33", "32"], "num_clicks_accrued": [0, 0, 0, 0, 0, 0, 0, 0, 0, 0, 0, 0, 0], "stateRewards": ["", 1, 3, 3, -10, 52, 68, 59, 12, 7, 49, 21, -2, -3, -4, -2, -2, 63, 63, -4, 44, 43, -76, -2, -3, -6, 13, 48, 36, 12, -5, -36, -33, -11], "withholdReward": false, "trial_id": "mdp_trial_35", "block": "test", "trialIndex": 36, "score": 31.6, "costs": -8.4, "simulationMode": [null, null, null, null, null], "rewards": [1, 3, 3, 12, 21], "path": ["0", "0", "1", "2", "3", "8", "11"], "rt": [19850, 65, 147, 116, 77], "actions": ["up", "up", "up", "left", "left"], "actionTimes": [21952, 22540, 23190, 23809, 24403], "queries": {"click": {"state": {"target": ["2", "24", "12", "22", "33", "32"], "time": [4326, 6387, 8454, 11554, 14712, 18042]}, "edge": {"target": [], "time": []}}, "mouseover": {"state": {"target": ["18", "18", "7", "2", "24", "23", "0", "12", "22", "32", "33", "33", "30", "32", "31", "24"], "time": [2708, 3075, 3575, 3675, 5089, 6923, 7006, 7190, 10725, 13760, 13993, 14276, 17175, 17575, 20256, 20680]}, "edge": {"target": [], "time": []}}, "mouseout": {"state": {"target": ["32", "0", "18", "18", "7", "2", "24", "23", "0", "12", "12", "22", "32", "33", "33", "30", "32", "31", "24"], "time": [607, 2560, 2925, 3509, 3605, 4888, 6907, 6973, 7090, 10560, 10676, 13227, 13781, 14040, 17142, 17188, 18264, 20322, 20722]}, "edge": {"target": [], "time": []}}}, "displayed_time": "24.92", "trialTime": 26503, "trial_type": "mouselab-mdp", "trial_index": 43, "time_elapsed": 1329224, "internal_node_id": "0.0-4.0-1.0-34.0"}}, {"uniqueid": "w77472466:a37699852", "current_trial": 44, "dateTime": 1691072306623, "trialdata": {"revealed_states": [], "clicked_states": ["6", "29", "11"], "num_clicks_accrued": [0, 0, 0, 0, 0, 0, 0, 0, 0, 0, 0, 0, 0], "stateRewards": ["", -1, -3, 4, -10, -5, 79, -87, -2, 53, 29, -20, -2, -1, -5, 10, 27, 86, 46, -16, -29, 40, 3, 2, 4, -1, -6, 37, 79, -29, 7, 86, -62, 29], "withholdReward": false, "trial_id": "mdp_trial_36", "block": "test", "trialIndex": 37, "score": 64.8, "costs": -4.199999999999999, "simulationMode": [null, null, null, null, null], "rewards": [-1, -3, 4, -10, 79], "path": ["0", "0", "1", "2", "3", "4", "6"], "rt": [8879, 78, 45, 549, 66], "actions": ["up", "up", "up", "right", "right"], "actionTimes": [12168, 12765, 13335, 14419, 15003], "queries": {"click": {"state": {"target": ["6", "29", "11"], "time": [4947, 7492, 10135]}, "edge": {"target": [], "time": []}}, "mouseover": {"state": {"target": ["1", "7", "4", "6", "4", "10", "28", "26", "29", "27", "11"], "time": [3903, 3982, 4049, 4418, 5416, 5536, 5632, 5934, 6132, 9050, 9736]}, "edge": {"target": [], "time": []}}, "mouseout": {"state": {"target": ["1", "7", "4", "6", "4", "10", "28", "26", "29", "27", "11", "23"], "time": [3921, 4016, 4369, 5400, 5454, 5552, 5918, 6032, 7696, 9286, 17886, 18719]}, "edge": {"target": [], "time": []}}}, "displayed_time": "17.30", "trialTime": 19843, "trial_type": "mouselab-mdp", "trial_index": 44, "time_elapsed": 1349388, "internal_node_id": "0.0-4.0-1.0-35.0"}}, {"uniqueid": "w77472466:a37699852", "current_trial": 45, "dateTime": 1691072325123, "trialdata": {"revealed_states": [], "clicked_states": ["32", "21", "11", "27", "28"], "num_clicks_accrued": [0, 0, 0, 0, 0, 0, 0, 0, 0, 0, 0, 0, 0], "stateRewards": ["", -1, -2, -1, -10, -57, 73, -72, -16, 75, -14, -46, -2, -3, -7, -1, -61, -60, 76, -4, 50, 4, 14, 2, 2, -7, 12, -65, -32, 15, -8, -76, -25, -61], "withholdReward": false, "trial_id": "mdp_trial_37", "block": "test", "trialIndex": 38, "score": -19, "costs": -7, "simulationMode": [null, null, null, null, null], "rewards": [-2, -3, -7, -4, 4], "path": ["0", "0", "12", "13", "14", "19", "21"], "rt": [12433, 89, 83, 52, 150], "actions": ["right", "right", "right", "down", "down"], "actionTimes": [14153, 14771, 15359, 15929, 16593], "queries": {"click": {"state": {"target": ["32", "21", "11", "27", "28"], "time": [2788, 4725, 7268, 9439, 11587]}, "edge": {"target": [], "time": []}}, "mouseover": {"state": {"target": ["31", "32", "21", "12", "7", "2", "8", "11", "27", "27", "28"], "time": [2139, 2408, 3672, 5212, 5325, 5638, 5871, 6105, 7905, 8372, 10521]}, "edge": {"target": [], "time": []}}, "mouseout": {"state": {"target": ["0", "31", "32", "21", "12", "7", "2", "8", "11", "27", "27", "28"], "time": [2075, 2189, 3256, 5139, 5229, 5341, 5705, 5971, 7806, 7939, 10339, 12271]}, "edge": {"target": [], "time": []}}}, "displayed_time": "17.09", "trialTime": 18165, "trial_type": "mouselab-mdp", "trial_index": 45, "time_elapsed": 1367887, "internal_node_id": "0.0-4.0-1.0-36.0"}}, {"uniqueid": "w77472466:a37699852", "current_trial": 46, "dateTime": 1691072341968, "trialdata": {"revealed_states": [], "clicked_states": ["7", "10", "33"], "num_clicks_accrued": [0, 0, 0, 0, 0, 0, 0, 0, 0, 0, 0, 0, 0], "stateRewards": ["", -1, -3, -7, -4, -85, -70, 79, 8, 84, -66, 42, 2, -2, -3, -16, -54, -66, 68, -3, 21, -14, 7, -2, -1, -3, -8, 75, 80, 86, -7, -84, 73, -16], "withholdReward": false, "trial_id": "mdp_trial_38", "block": "test", "trialIndex": 39, "score": 59.8, "costs": -4.199999999999999, "simulationMode": [null, null, null, null, null], "rewards": [-1, -3, -7, -4, 79], "path": ["0", "0", "1", "2", "3", "4", "7"], "rt": [9425, 48, 72, 95, 116], "actions": ["up", "up", "up", "right", "down"], "actionTimes": [10841, 11406, 12012, 12620, 13256], "queries": {"click": {"state": {"target": ["7", "10", "33"], "time": [3500, 6206, 8481]}, "edge": {"target": [], "time": []}}, "mouseover": {"state": {"target": ["18", "7", "10", "28", "25", "30", "33"], "time": [2190, 3173, 5741, 6802, 7229, 7471, 7770]}, "edge": {"target": [], "time": []}}, "mouseout": {"state": {"target": ["18", "7", "10", "28", "25", "30"], "time": [3022, 4853, 6737, 7003, 7404, 7553]}, "edge": {"target": [], "time": []}}}, "displayed_time": "15.42", "trialTime": 16509, "trial_type": "mouselab-mdp", "trial_index": 46, "time_elapsed": 1384733, "internal_node_id": "0.0-4.0-1.0-37.0"}}, {"uniqueid": "w77472466:a37699852", "current_trial": 47, "dateTime": 1691072359633, "trialdata": {"revealed_states": [], "clicked_states": ["20", "33"], "num_clicks_accrued": [0, 0, 0, 0, 0, 0, 0, 0, 0, 0, 0, 0, 0], "stateRewards": ["", -1, 4, -6, -5, -22, -38, -38, -2, -56, 88, 14, -1, -1, -7, -6, 61, -60, 21, 11, 57, 31, -30, -2, -2, 6, -9, -44, -70, -44, -15, 34, 16, -78], "withholdReward": false, "trial_id": "mdp_trial_39", "block": "test", "trialIndex": 40, "score": 56.2, "costs": -2.8, "simulationMode": [null, null, null, null, null], "rewards": [-1, -1, -7, 11, 57], "path": ["0", "0", "12", "13", "14", "19", "20"], "rt": [6524, 207, 97, 148, 175], "actions": ["right", "right", "right", "down", "right"], "actionTimes": [8541, 9247, 9851, 10523, 11215], "queries": {"click": {"state": {"target": ["20", "33"], "time": [3723, 6129]}, "edge": {"target": [], "time": []}}, "mouseover": {"state": {"target": ["12", "13", "14", "20", "19", "22", "31", "30", "33"], "time": [2871, 2918, 2968, 3356, 4285, 4319, 4886, 4934, 5223]}, "edge": {"target": [], "time": []}}, "mouseout": {"state": {"target": ["33", "30", "31", "0", "12", "13", "14", "20", "19", "22", "31", "30", "33"], "time": [718, 767, 818, 2826, 2889, 2935, 3055, 4274, 4301, 4334, 4918, 4969, 6328]}, "edge": {"target": [], "time": []}}}, "displayed_time": "16.02", "trialTime": 17321, "trial_type": "mouselab-mdp", "trial_index": 47, "time_elapsed": 1402397, "internal_node_id": "0.0-4.0-1.0-38.0"}}, {"uniqueid": "w77472466:a37699852", "current_trial": 48, "dateTime": 1691072376964, "trialdata": {"revealed_states": [], "clicked_states": ["11", "33", "20"], "num_clicks_accrued": [0, 0, 0, 0, 0, 0, 0, 0, 0, 0, 0, 0, 0], "stateRewards": ["", -1, 4, 3, 12, -27, 34, -33, 3, -63, 1, 6, 2, 2, -6, -11, -77, -85, 68, -6, 51, 81, -60, -2, -2, 1, 15, 20, 15, 68, -10, -14, 6, -4], "withholdReward": false, "trial_id": "mdp_trial_40", "block": "test", "trialIndex": 41, "score": 38.8, "costs": -4.199999999999999, "simulationMode": [null, null, null, null, null], "rewards": [2, 2, -6, -6, 51], "path": ["0", "0", "12", "13", "14", "19", "20"], "rt": [8967, 158, 127, 103, 169], "actions": ["right", "right", "right", "down", "right"], "actionTimes": [10564, 11234, 11886, 12509, 13194], "queries": {"click": {"state": {"target": ["11", "33", "20"], "time": [2588, 4817, 7250]}, "edge": {"target": [], "time": []}}, "mouseover": {"state": {"target": ["23", "28", "11", "27", "29", "33", "30", "31", "22", "20", "19", "15"], "time": [1857, 1903, 2291, 3087, 3287, 3537, 5292, 5311, 5437, 6321, 8171, 9141]}, "edge": {"target": [], "time": []}}, "mouseout": {"state": {"target": ["33", "24", "23", "0", "23", "28", "11", "27", "29", "33", "30", "31", "22", "20", "19", "15", "18"], "time": [305, 689, 756, 921, 1878, 1936, 3039, 3137, 3387, 5288, 5308, 5324, 5521, 8137, 8289, 9188, 16507]}, "edge": {"target": [], "time": []}}}, "displayed_time": "15.60", "trialTime": 16954, "trial_type": "mouselab-mdp", "trial_index": 48, "time_elapsed": 1419729, "internal_node_id": "0.0-4.0-1.0-39.0"}}, {"uniqueid": "w77472466:a37699852", "current_trial": 49, "dateTime": 1691072424369, "trialdata": {"rt": 47393, "response": {"Q0": "$-16 to 16", "Q1": "$-32 to $32", "Q2": "$-88 to $88", "Q3": "The cost was always $1.4.", "Q4": "Very motivated"}, "question_order": [0, 1, 2, 3, 4], "trial_id": "final_quiz_control", "trial_type": "survey-multi-choice", "trial_index": 49, "time_elapsed": 1467134, "internal_node_id": "0.0-4.0-2.0"}}, {"uniqueid": "w77472466:a37699852", "current_trial": 50, "dateTime": 1691072613683, "trialdata": {"rt": 189288, "response": {"Q0": "I used the node inspector to inspect the 5th nodes but limited my use to uncover only 4 nodes.", "Q1": "Yes, at first i used the node inspector randomly then i started using it only for the 5th nodes.", "Q2": "Moderately difficult, It took a couple of rounds to develop a strategy. I did not realise that the amount increased towards the 5th nodes."}, "trial_id": "self_report_control", "trial_type": "survey-text", "trial_index": 50, "time_elapsed": 1656449, "internal_node_id": "0.0-4.0-3.0"}}, {"uniqueid": "w77472466:a37699852", "current_trial": 51, "dateTime": 1691072648285, "trialdata": {"rt": 34596, "response": {"gender": "female", "age": "28", "colorblind": "0", "effort": "0"}, "trial_type": "survey-html-form", "trial_index": 51, "time_elapsed": 1691051, "internal_node_id": "0.0-4.0-4.0"}}, {"uniqueid": "w77472466:a37699852", "current_trial": 52, "dateTime": 1691072725309, "trialdata": {"rt": 77015, "response": {"Q0": "No, all instructions were clear to me.", "Q1": "No, I have not participated before.", "Q2": "Fun game. Increase the bonus."}, "trial_type": "survey-text", "trial_index": 52, "time_elapsed": 1768075, "internal_node_id": "0.0-4.0-5.0"}}, {"uniqueid": "w77472466:a37699852", "current_trial": 53, "dateTime": 1691072731161, "trialdata": {"rt": 5844, "stimulus": "Press 'Finish HIT' in order to reach the completion code. Once the data has been saved, you will receive the code either in this window or in the original browser window where you started the experiment.\n", "response": 0, "trial_type": "html-button-response", "trial_index": 53, "time_elapsed": 1773927, "internal_node_id": "0.0-5.0"}}, {"uniqueid": "w77472466:a37699852", "current_trial": 54, "dateTime": 1691072732173, "trialdata": {"success": true, "trial_type": "fullscreen", "trial_index": 54, "time_elapsed": 1774938, "internal_node_id": "0.0-6.0"}}], "questiondata": {"params": {"CODE": "C6DMOQA6", "MIN_TIME": 14, "inspectCost": 1, "startTime": "Thu Aug 03 2023 15:55:53 GMT+0200 (South Africa Standard Time)", "bonusRate": 0.002, "variance": "1_2_4_8_44", "branching": "31123"}, "final_score": 1493.8}, "eventdata": [{"eventtype": "initialized", "value": null, "timestamp": 1691070953368, "interval": 0}, {"eventtype": "window_resize", "value": [1028, 752], "timestamp": 1691070953368, "interval": 0}, {"eventtype": "window_resize", "value": [1028, 752], "timestamp": 1691070953866, "interval": 498}, {"eventtype": "window_resize", "value": [1536, 864], "timestamp": 1691070963005, "interval": 9139}, {"eventtype": "window_resize", "value": [1028, 752], "timestamp": 1691072731396, "interval": 1768391}], "useragent": "Mozilla/5.0 (Windows NT 10.0; Win64; x64) AppleWebKit/537.36 (KHTML, like Gecko) Chrome/115.0.0.0 Safari/537.36", "mode": "live", "id": "w77472466:a37699852", "status": "user data saved", "Beginhit": "2023-08-03 13:56:39.844314", "Beginexp": "2023-08-03 13:56:53.257462", "Endhit": "2023-08-03 14:26:23.505742", "psiturkStatus": 3, "browser": "<redacted>", "platform": "windows", "language": "en-US"}