{"condition": 0, "counterbalance": 0, "assignmentId": "a33277072", "workerId": "w14176872", "hitId": "h48054125", "currenttrial": 61, "bonus": 0, "data": [{"uniqueid": "w14176872:a33277072", "current_trial": 0, "dateTime": 1693580136288, "trialdata": {"success": true, "trial_type": "fullscreen", "trial_index": 0, "time_elapsed": 3271, "internal_node_id": "0.0-0.0"}}, {"uniqueid": "w14176872:a33277072", "current_trial": 1, "dateTime": 1693580141628, "trialdata": {"view_history": [{"page_index": 0, "viewing_time": 5313}], "rt": 5314, "trial_id": "exp_instructions_control", "trial_type": "instructions", "trial_index": 1, "time_elapsed": 8612, "internal_node_id": "0.0-1.0"}}, {"uniqueid": "w14176872:a33277072", "current_trial": 2, "dateTime": 1693580196973, "trialdata": {"view_history": [{"page_index": 0, "viewing_time": 32517}, {"page_index": 1, "viewing_time": 15195}, {"page_index": 2, "viewing_time": 5280}, {"page_index": 3, "viewing_time": 2348}], "rt": 55341, "trial_id": "mouselab_instructions_1_control", "trial_type": "instructions", "trial_index": 2, "time_elapsed": 63957, "internal_node_id": "0.0-2.0-1.0"}}, {"uniqueid": "w14176872:a33277072", "current_trial": 3, "dateTime": 1693580210335, "trialdata": {"revealed_states": [], "clicked_states": [], "num_clicks_accrued": [0, 0, 0, 0, 0, 0, 0, 0, 0, 0, 0, 0, 0], "stateRewards": ["", -10, 10, -10, 10, -10, 10, -10, 10, 10, 10, 10, -10, 10, -10, 10, -10, 10, -10, 10, 10, -10, 10, -10, 10, -10, -10, -10, -10, -10, 10, -10, -10, -10], "withholdReward": false, "trial_id": "practice_1", "block": "test", "trialIndex": 0, "score": 13.5, "costs": 0, "simulationMode": [null, null, null, null, null], "rewards": [-10, 10, -10, 10, 10], "path": ["0", "0", "1", "2", "3", "8", "9"], "rt": [830, 339, 43, 38, 92], "actions": ["up", "up", "up", "left", "up"], "actionTimes": [3695, 4534, 5076, 5638, 6273], "queries": {"click": {"state": {"target": [], "time": []}, "edge": {"target": [], "time": []}}, "mouseover": {"state": {"target": [], "time": []}, "edge": {"target": [], "time": []}}, "mouseout": {"state": {"target": ["0", "1", "0"], "time": [620, 2006, 9458]}, "edge": {"target": [], "time": []}}}, "displayed_time": "6.80", "trialTime": 11894, "trial_type": "mouselab-mdp", "trial_index": 3, "time_elapsed": 77318, "internal_node_id": "0.0-2.0-2.0-0.0"}}, {"uniqueid": "w14176872:a33277072", "current_trial": 4, "dateTime": 1693580225703, "trialdata": {"revealed_states": [], "clicked_states": [], "num_clicks_accrued": [0, 0, 0, 0, 0, 0, 0, 0, 0, 0, 0, 0, 0], "stateRewards": ["", -10, 10, -10, -10, 10, 10, 10, -10, -10, -10, 10, 10, 10, 10, 10, -10, 10, 10, -10, 10, 10, -10, 10, -10, 10, 10, -10, 10, -10, -10, -10, -10, 10], "withholdReward": false, "trial_id": "practice_2", "block": "test", "trialIndex": 1, "score": 53.5, "costs": 0, "simulationMode": [null, null, null, null, null], "rewards": [10, 10, 10, 10, 10], "path": ["0", "0", "12", "13", "14", "15", "18"], "rt": [1218, 2, 381, 587, 29], "actions": ["right", "right", "right", "up", "left"], "actionTimes": [8686, 9184, 10114, 11224, 11794], "queries": {"click": {"state": {"target": [], "time": []}, "edge": {"target": [], "time": []}}, "mouseover": {"state": {"target": [], "time": []}, "edge": {"target": [], "time": []}}, "mouseout": {"state": {"target": ["0"], "time": [6696]}, "edge": {"target": [], "time": []}}}, "displayed_time": "12.30", "trialTime": 14294, "trial_type": "mouselab-mdp", "trial_index": 4, "time_elapsed": 92686, "internal_node_id": "0.0-2.0-2.0-1.0"}}, {"uniqueid": "w14176872:a33277072", "current_trial": 5, "dateTime": 1693580230753, "trialdata": {"view_history": [{"page_index": 0, "viewing_time": 3360}, {"page_index": 1, "viewing_time": 1684}], "rt": 5045, "trial_id": "mouselab_instructions_2_control", "trial_type": "instructions", "trial_index": 5, "time_elapsed": 97737, "internal_node_id": "0.0-2.0-3.0"}}, {"uniqueid": "w14176872:a33277072", "current_trial": 6, "dateTime": 1693580270826, "trialdata": {"rt": 40062, "response": {"Q0": "The cost for clicking on nodes may vary between nodes.", "Q1": "The better I perform the higher my bonus will be.", "Q2": "No, the structure of the web will be different each time.", "Q3": "To get the highest total score.", "Q4": "Only before moving the spider.", "Q5": "3 seconds"}, "question_order": [0, 1, 2, 3, 4, 5], "correct": {"Q0": "The cost for clicking on nodes may vary between nodes.", "Q1": "The better I perform the higher my bonus will be.", "Q2": "No, the amount of cash at each node of the web may be different each time.", "Q3": "To get the highest total score.", "Q4": "Only before moving the spider.", "Q5": "3 seconds"}, "trial_id": "mouselab_quiz_control", "trial_type": "survey-multi-choice", "trial_index": 6, "time_elapsed": 137810, "internal_node_id": "0.0-2.0-4.0"}}, {"uniqueid": "w14176872:a33277072", "current_trial": 7, "dateTime": 1693580281924, "trialdata": {"success": true, "trial_type": "fullscreen", "trial_index": 7, "time_elapsed": 148908, "internal_node_id": "0.0-2.1-0.1-0.1"}}, {"uniqueid": "w14176872:a33277072", "current_trial": 8, "dateTime": 1693580330935, "trialdata": {"view_history": [{"page_index": 0, "viewing_time": 7000}, {"page_index": 1, "viewing_time": 3129}, {"page_index": 2, "viewing_time": 1820}, {"page_index": 1, "viewing_time": 13396}, {"page_index": 2, "viewing_time": 6029}, {"page_index": 3, "viewing_time": 17631}], "rt": 49005, "trial_id": "mouselab_instructions_1_control", "trial_type": "instructions", "trial_index": 8, "time_elapsed": 197919, "internal_node_id": "0.0-2.1-1.1"}}, {"uniqueid": "w14176872:a33277072", "current_trial": 9, "dateTime": 1693580339271, "trialdata": {"revealed_states": [], "clicked_states": [], "num_clicks_accrued": [0, 0, 0, 0, 0, 0, 0, 0, 0, 0, 0, 0, 0], "stateRewards": ["", -10, 10, -10, 10, -10, 10, -10, 10, 10, 10, 10, -10, 10, -10, 10, -10, 10, -10, 10, 10, -10, 10, -10, 10, -10, -10, -10, -10, -10, 10, -10, -10, -10], "withholdReward": false, "trial_id": "practice_1", "block": "test", "trialIndex": 2, "score": -6.5, "costs": 0, "simulationMode": [null, null, null, null, null], "rewards": [-10, 10, -10, 10, -10], "path": ["0", "0", "1", "2", "3", "4", "5"], "rt": [776, 19, 20, 361, 88], "actions": ["up", "up", "up", "right", "up"], "actionTimes": [2469, 2989, 3527, 4434, 5063], "queries": {"click": {"state": {"target": [], "time": []}, "edge": {"target": [], "time": []}}, "mouseover": {"state": {"target": [], "time": []}, "edge": {"target": [], "time": []}}, "mouseout": {"state": {"target": ["0"], "time": [6624]}, "edge": {"target": [], "time": []}}}, "displayed_time": "5.57", "trialTime": 7261, "trial_type": "mouselab-mdp", "trial_index": 9, "time_elapsed": 206254, "internal_node_id": "0.0-2.1-2.1-0.1"}}, {"uniqueid": "w14176872:a33277072", "current_trial": 10, "dateTime": 1693580347248, "trialdata": {"revealed_states": [], "clicked_states": [], "num_clicks_accrued": [0, 0, 0, 0, 0, 0, 0, 0, 0, 0, 0, 0, 0], "stateRewards": ["", -10, 10, -10, -10, 10, 10, 10, -10, -10, -10, 10, 10, 10, 10, 10, -10, 10, 10, -10, 10, 10, -10, 10, -10, 10, 10, -10, 10, -10, -10, -10, -10, 10], "withholdReward": false, "trial_id": "practice_2", "block": "test", "trialIndex": 3, "score": 13.5, "costs": 0, "simulationMode": [null, null, null, null, null], "rewards": [10, -10, 10, -10, 10], "path": ["0", "0", "23", "24", "25", "30", "33"], "rt": [556, 453, 16, 2, 25], "actions": ["left", "left", "left", "down", "left"], "actionTimes": [2605, 3574, 4137, 4673, 5266], "queries": {"click": {"state": {"target": [], "time": []}, "edge": {"target": [], "time": []}}, "mouseover": {"state": {"target": [], "time": []}, "edge": {"target": [], "time": []}}, "mouseout": {"state": {"target": ["0"], "time": [1295]}, "edge": {"target": [], "time": []}}}, "displayed_time": "5.77", "trialTime": 6845, "trial_type": "mouselab-mdp", "trial_index": 10, "time_elapsed": 214232, "internal_node_id": "0.0-2.1-2.1-1.1"}}, {"uniqueid": "w14176872:a33277072", "current_trial": 11, "dateTime": 1693580356283, "trialdata": {"view_history": [{"page_index": 0, "viewing_time": 6362}, {"page_index": 1, "viewing_time": 2667}], "rt": 9029, "trial_id": "mouselab_instructions_2_control", "trial_type": "instructions", "trial_index": 11, "time_elapsed": 223267, "internal_node_id": "0.0-2.1-3.1"}}, {"uniqueid": "w14176872:a33277072", "current_trial": 12, "dateTime": 1693580397727, "trialdata": {"rt": 41438, "response": {"Q0": "The cost for clicking on nodes may vary between nodes.", "Q1": "The better I perform the higher my bonus will be.", "Q2": "No, the amount of cash at each node of the web may be different each time.", "Q3": "To get the highest total score.", "Q4": "Only before moving the spider.", "Q5": "3 seconds"}, "question_order": [0, 1, 2, 3, 4, 5], "correct": {"Q0": "The cost for clicking on nodes may vary between nodes.", "Q1": "The better I perform the higher my bonus will be.", "Q2": "No, the amount of cash at each node of the web may be different each time.", "Q3": "To get the highest total score.", "Q4": "Only before moving the spider.", "Q5": "3 seconds"}, "trial_id": "mouselab_quiz_control", "trial_type": "survey-multi-choice", "trial_index": 12, "time_elapsed": 264711, "internal_node_id": "0.0-2.1-4.1"}}, {"uniqueid": "w14176872:a33277072", "current_trial": 13, "dateTime": 1693580403817, "trialdata": {"rt": 6073, "response": {"Q0": "No"}, "question_order": [0], "trial_id": "repeat_check", "trial_type": "survey-multi-choice", "trial_index": 13, "time_elapsed": 270800, "internal_node_id": "0.0-4.0-0.0"}}, {"uniqueid": "w14176872:a33277072", "current_trial": 14, "dateTime": 1693580405833, "trialdata": {"rt": 2002, "stimulus": "\n<h1> Get ready to start the game! </h1>\n\nThank you for reading the instructions. Get ready start with the 40 rounds of this game.\n<br><br>\nIf you need to take a break, feel free to take one after the end of a round, before continuing to the next one.\n<br><br>\nRemember, the more money the spider gets, the bigger your bonus will be!\n<br><br>\n<div style='text-align: center;'>Press <code>space</code> to begin.</div>\n\n<br><br>\n(If, at any point, the <code>space</code> key does not take you to the next page, click once on the text and try again.)", "response": " ", "trial_id": "mdp_ready", "trial_type": "html-keyboard-response", "trial_index": 14, "time_elapsed": 272816, "internal_node_id": "0.0-6.0-0.0"}}, {"uniqueid": "w14176872:a33277072", "current_trial": 15, "dateTime": 1693580424757, "trialdata": {"revealed_states": [], "clicked_states": [], "num_clicks_accrued": [0, 0, 0, 0, 0, 0, 0, 0, 0, 0, 0, 0, 0], "stateRewards": ["", -1, 4, 3, 12, -27, 34, -33, 3, -63, 1, 6, 2, 2, -6, -11, -77, -85, 68, -6, 51, 81, -60, -2, -2, 1, 15, 20, 15, 68, -10, -14, 6, -4], "withholdReward": false, "trial_id": "mdp_trial_1", "block": "test", "trialIndex": 4, "score": 52, "costs": 0, "simulationMode": [null, null, null, null, null], "rewards": [-1, 4, 3, 12, 34], "path": ["0", "0", "1", "2", "3", "4", "6"], "rt": [979, 19, 589, 141, 110], "actions": ["up", "up", "up", "right", "right"], "actionTimes": [2766, 3297, 4419, 5073, 5708], "queries": {"click": {"state": {"target": [], "time": []}, "edge": {"target": [], "time": []}}, "mouseover": {"state": {"target": [], "time": []}, "edge": {"target": [], "time": []}}, "mouseout": {"state": {"target": ["3", "3", "2", "0"], "time": [120, 188, 558, 7180]}, "edge": {"target": [], "time": []}}}, "displayed_time": "15.79", "trialTime": 17823, "trial_type": "mouselab-mdp", "trial_index": 15, "time_elapsed": 291740, "internal_node_id": "0.0-6.0-1.0-0.0"}}, {"uniqueid": "w14176872:a33277072", "current_trial": 16, "dateTime": 1693580443842, "trialdata": {"revealed_states": [], "clicked_states": [], "num_clicks_accrued": [0, 0, 0, 0, 0, 0, 0, 0, 0, 0, 0, 0, 0], "stateRewards": ["", -2, -2, -3, -6, -15, -11, 41, -12, -63, -76, 2, -2, -3, 8, 9, -36, -2, -18, -16, -32, -85, -17, -2, 1, 5, -16, 82, 35, -88, -1, 80, -82, -20], "withholdReward": false, "trial_id": "mdp_trial_2", "block": "test", "trialIndex": 5, "score": -45, "costs": 0, "simulationMode": [null, null, null, null, null], "rewards": [-2, -3, 8, -16, -32], "path": ["0", "0", "12", "13", "14", "19", "20"], "rt": [549, 84, 56, 449, 117], "actions": ["right", "right", "right", "down", "right"], "actionTimes": [2159, 2768, 3340, 4301, 4956], "queries": {"click": {"state": {"target": [], "time": []}, "edge": {"target": [], "time": []}}, "mouseover": {"state": {"target": [], "time": []}, "edge": {"target": [], "time": []}}, "mouseout": {"state": {"target": ["0", "0", "0"], "time": [827, 7954, 16664]}, "edge": {"target": [], "time": []}}}, "displayed_time": "15.61", "trialTime": 17760, "trial_type": "mouselab-mdp", "trial_index": 16, "time_elapsed": 310825, "internal_node_id": "0.0-6.0-1.0-1.0"}}, {"uniqueid": "w14176872:a33277072", "current_trial": 17, "dateTime": 1693580463750, "trialdata": {"revealed_states": [], "clicked_states": [], "num_clicks_accrued": [0, 0, 0, 0, 0, 0, 0, 0, 0, 0, 0, 0, 0], "stateRewards": ["", -2, 2, -4, -4, -59, 88, 62, -3, 69, -15, -34, 1, -2, -5, 7, -54, -20, 78, -16, -74, -53, -21, 2, -4, 2, 13, -8, -44, 26, 9, 72, 4, 17], "withholdReward": false, "trial_id": "mdp_trial_3", "block": "test", "trialIndex": 6, "score": 39, "costs": 0, "simulationMode": [null, null, null, null, null], "rewards": [2, -4, 2, 13, 26], "path": ["0", "0", "23", "24", "25", "26", "29"], "rt": [614, 3, 507, 103, 20], "actions": ["left", "left", "left", "up", "left"], "actionTimes": [2421, 2950, 4027, 4673, 5203], "queries": {"click": {"state": {"target": [], "time": []}, "edge": {"target": [], "time": []}}, "mouseover": {"state": {"target": [], "time": []}, "edge": {"target": [], "time": []}}, "mouseout": {"state": {"target": ["12"], "time": [891]}, "edge": {"target": [], "time": []}}}, "displayed_time": "15.81", "trialTime": 18794, "trial_type": "mouselab-mdp", "trial_index": 17, "time_elapsed": 330733, "internal_node_id": "0.0-6.0-1.0-2.0"}}, {"uniqueid": "w14176872:a33277072", "current_trial": 18, "dateTime": 1693580483392, "trialdata": {"revealed_states": [], "clicked_states": [], "num_clicks_accrued": [0, 0, 0, 0, 0, 0, 0, 0, 0, 0, 0, 0, 0], "stateRewards": ["", -2, 1, -8, 12, -65, -79, 16, 7, -80, -17, -45, -2, 2, -5, -2, -85, 23, -4, -7, 48, 27, -76, 2, 3, 5, 2, 43, 71, -13, 7, -49, 59, -31], "withholdReward": false, "trial_id": "mdp_trial_4", "block": "test", "trialIndex": 7, "score": -19, "costs": 0, "simulationMode": [null, null, null, null, null], "rewards": [-2, 1, -8, 7, -17], "path": ["0", "0", "1", "2", "3", "8", "10"], "rt": [1447, 4, 763, 63, 210], "actions": ["up", "up", "up", "left", "down"], "actionTimes": [4699, 5215, 6528, 7097, 7824], "queries": {"click": {"state": {"target": [], "time": []}, "edge": {"target": [], "time": []}}, "mouseover": {"state": {"target": [], "time": []}, "edge": {"target": [], "time": []}}, "mouseout": {"state": {"target": ["16", "12"], "time": [2152, 2436]}, "edge": {"target": [], "time": []}}}, "displayed_time": "17.25", "trialTime": 18358, "trial_type": "mouselab-mdp", "trial_index": 18, "time_elapsed": 350375, "internal_node_id": "0.0-6.0-1.0-3.0"}}, {"uniqueid": "w14176872:a33277072", "current_trial": 19, "dateTime": 1693580503139, "trialdata": {"revealed_states": [], "clicked_states": [], "num_clicks_accrued": [0, 0, 0, 0, 0, 0, 0, 0, 0, 0, 0, 0, 0], "stateRewards": ["", 2, 3, 8, 11, 25, -80, 6, -4, -56, 84, -23, -2, -4, -3, 4, -51, -9, -61, -15, -64, 67, -35, 1, -1, -7, -6, 83, 59, -15, 12, -79, 56, 41], "withholdReward": false, "trial_id": "mdp_trial_5", "block": "test", "trialIndex": 8, "score": -56, "costs": 0, "simulationMode": [null, null, null, null, null], "rewards": [-2, -4, -3, 4, -51], "path": ["0", "0", "12", "13", "14", "15", "16"], "rt": [2158, 40, 471, 294, 4], "actions": ["right", "right", "right", "up", "up"], "actionTimes": [5370, 5931, 6977, 7802, 8347], "queries": {"click": {"state": {"target": [], "time": []}, "edge": {"target": [], "time": []}}, "mouseover": {"state": {"target": [], "time": []}, "edge": {"target": [], "time": []}}, "mouseout": {"state": {"target": ["0"], "time": [1963]}, "edge": {"target": [], "time": []}}}, "displayed_time": "17.21", "trialTime": 18425, "trial_type": "mouselab-mdp", "trial_index": 19, "time_elapsed": 370123, "internal_node_id": "0.0-6.0-1.0-4.0"}}, {"uniqueid": "w14176872:a33277072", "current_trial": 20, "dateTime": 1693580522294, "trialdata": {"revealed_states": [], "clicked_states": [], "num_clicks_accrued": [0, 0, 0, 0, 0, 0, 0, 0, 0, 0, 0, 0, 0], "stateRewards": ["", 1, -2, -3, 14, -42, -87, -37, -11, -50, 33, -44, -2, 4, -7, 13, 48, -75, -66, 12, 23, -2, 82, 1, -4, 3, 12, 51, -15, -26, -11, -52, -29, 82], "withholdReward": false, "trial_id": "mdp_trial_6", "block": "test", "trialIndex": 9, "score": -32, "costs": 0, "simulationMode": [null, null, null, null, null], "rewards": [1, -2, -3, 14, -42], "path": ["0", "0", "1", "2", "3", "4", "5"], "rt": [971, 185, 130, 179, 206], "actions": ["up", "up", "up", "right", "up"], "actionTimes": [4061, 4770, 5399, 6082, 6812], "queries": {"click": {"state": {"target": [], "time": []}, "edge": {"target": [], "time": []}}, "mouseover": {"state": {"target": [], "time": []}, "edge": {"target": [], "time": []}}, "mouseout": {"state": {"target": ["0"], "time": [2113]}, "edge": {"target": [], "time": []}}}, "displayed_time": "17.09", "trialTime": 17908, "trial_type": "mouselab-mdp", "trial_index": 20, "time_elapsed": 389277, "internal_node_id": "0.0-6.0-1.0-5.0"}}, {"uniqueid": "w14176872:a33277072", "current_trial": 21, "dateTime": 1693580541157, "trialdata": {"revealed_states": [], "clicked_states": [], "num_clicks_accrued": [0, 0, 0, 0, 0, 0, 0, 0, 0, 0, 0, 0, 0], "stateRewards": ["", -1, 3, 8, 9, -53, 20, -84, 2, -28, -62, -31, -1, -2, -7, 2, 51, 58, 45, -4, -17, -41, 36, 2, -2, -7, -15, 29, -54, -37, -16, -43, 65, -17], "withholdReward": false, "trial_id": "mdp_trial_7", "block": "test", "trialIndex": 10, "score": -50, "costs": 0, "simulationMode": [null, null, null, null, null], "rewards": [-1, 3, 8, 2, -62], "path": ["0", "0", "1", "2", "3", "8", "10"], "rt": [454, 38, 174, 95, 107], "actions": ["up", "up", "up", "left", "down"], "actionTimes": [2374, 2928, 3647, 4269, 4916], "queries": {"click": {"state": {"target": [], "time": []}, "edge": {"target": [], "time": []}}, "mouseover": {"state": {"target": [], "time": []}, "edge": {"target": [], "time": []}}, "mouseout": {"state": {"target": ["0"], "time": [782]}, "edge": {"target": [], "time": []}}}, "displayed_time": "15.92", "trialTime": 17607, "trial_type": "mouselab-mdp", "trial_index": 21, "time_elapsed": 408140, "internal_node_id": "0.0-6.0-1.0-6.0"}}, {"uniqueid": "w14176872:a33277072", "current_trial": 22, "dateTime": 1693580559121, "trialdata": {"revealed_states": [], "clicked_states": [], "num_clicks_accrued": [0, 0, 0, 0, 0, 0, 0, 0, 0, 0, 0, 0, 0], "stateRewards": ["", 2, -1, 4, -9, -43, 7, 54, -13, 38, -40, -83, -1, 2, -8, -10, 34, -33, 11, -14, -79, 65, 26, 1, 2, 4, 10, 21, 1, 86, 4, -53, 28, -29], "withholdReward": false, "trial_id": "mdp_trial_8", "block": "test", "trialIndex": 11, "score": 5, "costs": 0, "simulationMode": [null, null, null, null, null], "rewards": [-1, 2, -8, -14, 26], "path": ["0", "0", "12", "13", "14", "19", "22"], "rt": [1008, 131, 174, 376, 39], "actions": ["right", "right", "right", "down", "left"], "actionTimes": [2564, 3192, 3888, 4772, 5318], "queries": {"click": {"state": {"target": [], "time": []}, "edge": {"target": [], "time": []}}, "mouseover": {"state": {"target": [], "time": []}, "edge": {"target": [], "time": []}}, "mouseout": {"state": {"target": ["0", "12", "0"], "time": [43, 184, 584]}, "edge": {"target": [], "time": []}}}, "displayed_time": "15.56", "trialTime": 16737, "trial_type": "mouselab-mdp", "trial_index": 22, "time_elapsed": 426104, "internal_node_id": "0.0-6.0-1.0-7.0"}}, {"uniqueid": "w14176872:a33277072", "current_trial": 23, "dateTime": 1693580577614, "trialdata": {"revealed_states": [], "clicked_states": [], "num_clicks_accrued": [0, 0, 0, 0, 0, 0, 0, 0, 0, 0, 0, 0, 0], "stateRewards": ["", -2, 2, -1, -6, 22, 6, 6, -5, 70, -42, 65, 1, 3, 5, -6, -67, -9, 3, 14, 7, -62, -13, -2, 4, 1, 16, 42, -21, -52, -8, 32, 53, 81], "withholdReward": false, "trial_id": "mdp_trial_9", "block": "test", "trialIndex": 12, "score": -33, "costs": 0, "simulationMode": [null, null, null, null, null], "rewards": [-2, 4, 1, 16, -52], "path": ["0", "0", "23", "24", "25", "26", "29"], "rt": [1965, 148, 65, 106, 198], "actions": ["left", "left", "left", "up", "left"], "actionTimes": [4241, 4902, 5465, 6124, 6836], "queries": {"click": {"state": {"target": [], "time": []}, "edge": {"target": [], "time": []}}, "mouseover": {"state": {"target": [], "time": []}, "edge": {"target": [], "time": []}}, "mouseout": {"state": {"target": ["0"], "time": [1555]}, "edge": {"target": [], "time": []}}}, "displayed_time": "16.28", "trialTime": 17149, "trial_type": "mouselab-mdp", "trial_index": 23, "time_elapsed": 444597, "internal_node_id": "0.0-6.0-1.0-8.0"}}, {"uniqueid": "w14176872:a33277072", "current_trial": 24, "dateTime": 1693580596351, "trialdata": {"revealed_states": [], "clicked_states": [], "num_clicks_accrued": [0, 0, 0, 0, 0, 0, 0, 0, 0, 0, 0, 0, 0], "stateRewards": ["", -1, -4, -3, 1, -45, -67, -24, 14, 32, 22, 22, -1, 1, -5, -7, 72, 84, -79, -5, 19, -40, -2, -1, -2, 8, -3, 84, -25, -28, 11, 64, -66, 77], "withholdReward": false, "trial_id": "mdp_trial_10", "block": "test", "trialIndex": 13, "score": -52, "costs": 0, "simulationMode": [null, null, null, null, null], "rewards": [-1, -4, -3, 1, -45], "path": ["0", "0", "1", "2", "3", "4", "5"], "rt": [679, 128, 139, 229, 37], "actions": ["up", "up", "up", "right", "up"], "actionTimes": [3097, 3771, 4420, 5173, 5748], "queries": {"click": {"state": {"target": [], "time": []}, "edge": {"target": [], "time": []}}, "mouseover": {"state": {"target": [], "time": []}, "edge": {"target": [], "time": []}}, "mouseout": {"state": {"target": ["12", "12"], "time": [1119, 1467]}, "edge": {"target": [], "time": []}}}, "displayed_time": "16.42", "trialTime": 17476, "trial_type": "mouselab-mdp", "trial_index": 24, "time_elapsed": 463334, "internal_node_id": "0.0-6.0-1.0-9.0"}}, {"uniqueid": "w14176872:a33277072", "current_trial": 25, "dateTime": 1693580616023, "trialdata": {"revealed_states": [], "clicked_states": [], "num_clicks_accrued": [0, 0, 0, 0, 0, 0, 0, 0, 0, 0, 0, 0, 0], "stateRewards": ["", 1, -2, 7, -14, 88, -56, -44, -14, 64, -51, -57, -2, 3, -4, -9, -11, 19, -77, -1, 68, 75, -67, -1, 1, -2, 5, -37, 70, -34, -10, -72, 63, -41], "withholdReward": false, "trial_id": "mdp_trial_11", "block": "test", "trialIndex": 14, "score": -65, "costs": 0, "simulationMode": [null, null, null, null, null], "rewards": [1, -2, 7, -14, -57], "path": ["0", "0", "1", "2", "3", "8", "11"], "rt": [286, 78, 98, 133, 4], "actions": ["up", "up", "up", "left", "left"], "actionTimes": [1743, 2358, 2963, 3614, 4138], "queries": {"click": {"state": {"target": [], "time": []}, "edge": {"target": [], "time": []}}, "mouseover": {"state": {"target": [], "time": []}, "edge": {"target": [], "time": []}}, "mouseout": {"state": {"target": ["0", "0", "0", "0", "23", "31", "32"], "time": [155, 290, 556, 13776, 13942, 13976, 14013]}, "edge": {"target": [], "time": []}}}, "displayed_time": "15.46", "trialTime": 18350, "trial_type": "mouselab-mdp", "trial_index": 25, "time_elapsed": 483006, "internal_node_id": "0.0-6.0-1.0-10.0"}}, {"uniqueid": "w14176872:a33277072", "current_trial": 26, "dateTime": 1693580637553, "trialdata": {"revealed_states": [], "clicked_states": [], "num_clicks_accrued": [0, 0, 0, 0, 0, 0, 0, 0, 0, 0, 0, 0, 0], "stateRewards": ["", -1, -2, -1, -10, -57, 73, -72, -16, 75, -14, -46, -2, -3, -7, -1, -61, -60, 76, -4, 50, 4, 14, 2, 2, -7, 12, -65, -32, 15, -8, -76, -25, -61], "withholdReward": false, "trial_id": "mdp_trial_12", "block": "test", "trialIndex": 15, "score": 59, "costs": 0, "simulationMode": [null, null, null, null, null], "rewards": [-1, -2, -1, -10, 73], "path": ["0", "0", "1", "2", "3", "4", "6"], "rt": [1044, 6, 142, 29, 862], "actions": ["up", "up", "up", "right", "right"], "actionTimes": [6314, 6870, 7540, 8076, 9496], "queries": {"click": {"state": {"target": [], "time": []}, "edge": {"target": [], "time": []}}, "mouseover": {"state": {"target": [], "time": []}, "edge": {"target": [], "time": []}}, "mouseout": {"state": {"target": ["4", "7", "1"], "time": [4063, 4225, 4387]}, "edge": {"target": [], "time": []}}}, "displayed_time": "19.27", "trialTime": 20169, "trial_type": "mouselab-mdp", "trial_index": 26, "time_elapsed": 504536, "internal_node_id": "0.0-6.0-1.0-11.0"}}, {"uniqueid": "w14176872:a33277072", "current_trial": 27, "dateTime": 1693580656275, "trialdata": {"revealed_states": [], "clicked_states": [], "num_clicks_accrued": [0, 0, 0, 0, 0, 0, 0, 0, 0, 0, 0, 0, 0], "stateRewards": ["", -1, 2, 6, 11, 21, -21, -21, -6, 48, -71, 88, -1, -3, 3, 7, 64, 2, 9, -4, 37, -67, 72, 2, 2, -8, -8, -10, 71, -40, -3, 73, 80, 47], "withholdReward": false, "trial_id": "mdp_trial_13", "block": "test", "trialIndex": 16, "score": -3, "costs": 0, "simulationMode": [null, null, null, null, null], "rewards": [-1, 2, 6, 11, -21], "path": ["0", "0", "1", "2", "3", "4", "6"], "rt": [955, 162, 6, 129, 5], "actions": ["up", "up", "up", "right", "right"], "actionTimes": [3558, 4242, 4773, 5443, 5953], "queries": {"click": {"state": {"target": [], "time": []}, "edge": {"target": [], "time": []}}, "mouseover": {"state": {"target": [], "time": []}, "edge": {"target": [], "time": []}}, "mouseout": {"state": {"target": [], "time": []}, "edge": {"target": [], "time": []}}}, "displayed_time": "16.61", "trialTime": 17454, "trial_type": "mouselab-mdp", "trial_index": 27, "time_elapsed": 523258, "internal_node_id": "0.0-6.0-1.0-12.0"}}, {"uniqueid": "w14176872:a33277072", "current_trial": 28, "dateTime": 1693580674662, "trialdata": {"revealed_states": [], "clicked_states": [], "num_clicks_accrued": [0, 0, 0, 0, 0, 0, 0, 0, 0, 0, 0, 0, 0], "stateRewards": ["", -2, 2, 3, -7, 76, 63, 21, 15, 35, -8, -44, 1, 1, -2, -12, 23, 24, 76, -9, 46, 66, -49, -2, -1, 7, 12, 40, -71, -45, -6, 38, -49, 46], "withholdReward": false, "trial_id": "mdp_trial_14", "block": "test", "trialIndex": 17, "score": 72, "costs": 0, "simulationMode": [null, null, null, null, null], "rewards": [-2, 2, 3, -7, 76], "path": ["0", "0", "1", "2", "3", "4", "5"], "rt": [1229, 138, 5, 651, 27], "actions": ["up", "up", "up", "right", "up"], "actionTimes": [3456, 4155, 4659, 5836, 6380], "queries": {"click": {"state": {"target": [], "time": []}, "edge": {"target": [], "time": []}}, "mouseover": {"state": {"target": [], "time": []}, "edge": {"target": [], "time": []}}, "mouseout": {"state": {"target": ["0"], "time": [1168]}, "edge": {"target": [], "time": []}}}, "displayed_time": "16.23", "trialTime": 17194, "trial_type": "mouselab-mdp", "trial_index": 28, "time_elapsed": 541645, "internal_node_id": "0.0-6.0-1.0-13.0"}}, {"uniqueid": "w14176872:a33277072", "current_trial": 29, "dateTime": 1693580693407, "trialdata": {"revealed_states": [], "clicked_states": [], "num_clicks_accrued": [0, 0, 0, 0, 0, 0, 0, 0, 0, 0, 0, 0, 0], "stateRewards": ["", -1, -1, 4, -16, -75, 81, -51, -7, -84, 73, -30, -2, 1, -3, -16, -77, 33, 14, 1, 45, 87, -66, 2, 2, -5, -7, -19, -17, 79, -3, 8, 49, 47], "withholdReward": false, "trial_id": "mdp_trial_15", "block": "test", "trialIndex": 18, "score": 68, "costs": 0, "simulationMode": [null, null, null, null, null], "rewards": [-1, -1, 4, -7, 73], "path": ["0", "0", "1", "2", "3", "8", "10"], "rt": [897, 95, 72, 139, 5], "actions": ["up", "up", "up", "left", "down"], "actionTimes": [3418, 4026, 4639, 5308, 5840], "queries": {"click": {"state": {"target": [], "time": []}, "edge": {"target": [], "time": []}}, "mouseover": {"state": {"target": [], "time": []}, "edge": {"target": [], "time": []}}, "mouseout": {"state": {"target": ["0"], "time": [1763]}, "edge": {"target": [], "time": []}}}, "displayed_time": "16.52", "trialTime": 17548, "trial_type": "mouselab-mdp", "trial_index": 29, "time_elapsed": 560390, "internal_node_id": "0.0-6.0-1.0-14.0"}}, {"uniqueid": "w14176872:a33277072", "current_trial": 30, "dateTime": 1693580711540, "trialdata": {"revealed_states": [], "clicked_states": [], "num_clicks_accrued": [0, 0, 0, 0, 0, 0, 0, 0, 0, 0, 0, 0, 0], "stateRewards": ["", -1, -3, -3, 1, -38, 2, -53, -2, -1, -81, 70, -1, 1, -5, -9, 46, 15, 35, -1, -22, 38, 59, -2, 4, -8, 13, 1, -83, -43, 4, 76, 13, 48], "withholdReward": false, "trial_id": "mdp_trial_16", "block": "test", "trialIndex": 19, "score": 32, "costs": 0, "simulationMode": [null, null, null, null, null], "rewards": [-1, 1, -5, -9, 46], "path": ["0", "0", "12", "13", "14", "15", "16"], "rt": [425, 5, 38, 130, 117], "actions": ["right", "right", "right", "up", "up"], "actionTimes": [2304, 2826, 3408, 4036, 4657], "queries": {"click": {"state": {"target": [], "time": []}, "edge": {"target": [], "time": []}}, "mouseover": {"state": {"target": [], "time": []}, "edge": {"target": [], "time": []}}, "mouseout": {"state": {"target": ["0"], "time": [1423]}, "edge": {"target": [], "time": []}}}, "displayed_time": "15.88", "trialTime": 16751, "trial_type": "mouselab-mdp", "trial_index": 30, "time_elapsed": 578523, "internal_node_id": "0.0-6.0-1.0-15.0"}}, {"uniqueid": "w14176872:a33277072", "current_trial": 31, "dateTime": 1693580730233, "trialdata": {"revealed_states": [], "clicked_states": [], "num_clicks_accrued": [0, 0, 0, 0, 0, 0, 0, 0, 0, 0, 0, 0, 0], "stateRewards": ["", -2, 4, -3, -13, 63, -36, 62, 11, 78, 34, -51, 2, -2, 8, -6, -40, -18, 31, 9, 64, 39, 79, 1, 4, -4, 15, -12, 76, 73, -10, -77, 86, -4], "withholdReward": false, "trial_id": "mdp_trial_17", "block": "test", "trialIndex": 20, "score": -16, "costs": 0, "simulationMode": [null, null, null, null, null], "rewards": [2, -2, 8, -6, -18], "path": ["0", "0", "12", "13", "14", "15", "17"], "rt": [242, 53, 92, 20, 37], "actions": ["right", "right", "right", "up", "right"], "actionTimes": [2767, 3317, 3943, 4485, 5070], "queries": {"click": {"state": {"target": [], "time": []}, "edge": {"target": [], "time": []}}, "mouseover": {"state": {"target": [], "time": []}, "edge": {"target": [], "time": []}}, "mouseout": {"state": {"target": ["0"], "time": [1750]}, "edge": {"target": [], "time": []}}}, "displayed_time": "16.53", "trialTime": 17367, "trial_type": "mouselab-mdp", "trial_index": 31, "time_elapsed": 597216, "internal_node_id": "0.0-6.0-1.0-16.0"}}, {"uniqueid": "w14176872:a33277072", "current_trial": 32, "dateTime": 1693580749105, "trialdata": {"revealed_states": [], "clicked_states": [], "num_clicks_accrued": [0, 0, 0, 0, 0, 0, 0, 0, 0, 0, 0, 0, 0], "stateRewards": ["", 1, 2, 7, 13, 88, -71, 27, 3, 60, 5, -53, -2, 2, -6, -1, -30, 79, 47, -4, -14, 46, 68, 1, 1, 8, 10, -14, 86, 48, -11, -67, -44, 5], "withholdReward": false, "trial_id": "mdp_trial_18", "block": "test", "trialIndex": 21, "score": 68, "costs": 0, "simulationMode": [null, null, null, null, null], "rewards": [1, 1, 8, 10, 48], "path": ["0", "0", "23", "24", "25", "26", "29"], "rt": [1320, 77, 138, 31, 885], "actions": ["left", "left", "left", "up", "left"], "actionTimes": [4032, 4636, 5316, 5909, 7295], "queries": {"click": {"state": {"target": [], "time": []}, "edge": {"target": [], "time": []}}, "mouseover": {"state": {"target": [], "time": []}, "edge": {"target": [], "time": []}}, "mouseout": {"state": {"target": ["0"], "time": [2105]}, "edge": {"target": [], "time": []}}}, "displayed_time": "16.71", "trialTime": 17577, "trial_type": "mouselab-mdp", "trial_index": 32, "time_elapsed": 616088, "internal_node_id": "0.0-6.0-1.0-17.0"}}, {"uniqueid": "w14176872:a33277072", "current_trial": 33, "dateTime": 1693580769218, "trialdata": {"revealed_states": [], "clicked_states": [], "num_clicks_accrued": [0, 0, 0, 0, 0, 0, 0, 0, 0, 0, 0, 0, 0], "stateRewards": ["", 2, -4, 7, 3, 23, -42, 4, 7, -81, -33, 7, -2, -4, 5, -1, 50, -57, -14, -13, -14, 44, 55, -2, -2, 5, -2, 33, 1, 57, -13, -7, 58, 87], "withholdReward": false, "trial_id": "mdp_trial_19", "block": "test", "trialIndex": 22, "score": -28, "costs": 0, "simulationMode": [null, null, null, null, null], "rewards": [-2, -4, 5, -13, -14], "path": ["0", "0", "12", "13", "14", "19", "20"], "rt": [1017, 81, 9, 194, 175], "actions": ["right", "right", "right", "down", "right"], "actionTimes": [3416, 4043, 4573, 5309, 6009], "queries": {"click": {"state": {"target": [], "time": []}, "edge": {"target": [], "time": []}}, "mouseover": {"state": {"target": [], "time": []}, "edge": {"target": [], "time": []}}, "mouseout": {"state": {"target": ["0"], "time": [1625]}, "edge": {"target": [], "time": []}}}, "displayed_time": "16.40", "trialTime": 18758, "trial_type": "mouselab-mdp", "trial_index": 33, "time_elapsed": 636201, "internal_node_id": "0.0-6.0-1.0-18.0"}}, {"uniqueid": "w14176872:a33277072", "current_trial": 34, "dateTime": 1693580787709, "trialdata": {"revealed_states": [], "clicked_states": [], "num_clicks_accrued": [0, 0, 0, 0, 0, 0, 0, 0, 0, 0, 0, 0, 0], "stateRewards": ["", 2, 2, 3, -15, 23, -14, 73, -7, -32, -20, -6, 1, 1, -5, -12, 73, 6, -84, 11, -81, -57, 13, -2, -1, -4, -8, -52, -58, 49, 13, 5, -41, -41], "withholdReward": false, "trial_id": "mdp_trial_20", "block": "test", "trialIndex": 23, "score": -49, "costs": 0, "simulationMode": [null, null, null, null, null], "rewards": [1, 1, -5, 11, -57], "path": ["0", "0", "12", "13", "14", "19", "21"], "rt": [768, 103, 178, 149, 152], "actions": ["right", "right", "right", "down", "down"], "actionTimes": [2534, 3147, 3855, 4509, 5178], "queries": {"click": {"state": {"target": [], "time": []}, "edge": {"target": [], "time": []}}, "mouseover": {"state": {"target": [], "time": []}, "edge": {"target": [], "time": []}}, "mouseout": {"state": {"target": ["0", "0"], "time": [550, 750]}, "edge": {"target": [], "time": []}}}, "displayed_time": "15.77", "trialTime": 17156, "trial_type": "mouselab-mdp", "trial_index": 34, "time_elapsed": 654692, "internal_node_id": "0.0-6.0-1.0-19.0"}}, {"uniqueid": "w14176872:a33277072", "current_trial": 35, "dateTime": 1693580805371, "trialdata": {"revealed_states": [], "clicked_states": [], "num_clicks_accrued": [0, 0, 0, 0, 0, 0, 0, 0, 0, 0, 0, 0, 0], "stateRewards": ["", 1, 3, 3, -10, 52, 68, 59, 12, 7, 49, 21, -2, -3, -4, -2, -2, 63, 63, -4, 44, 43, -76, -2, -3, -6, 13, 48, 36, 12, -5, -36, -33, -11], "withholdReward": false, "trial_id": "mdp_trial_21", "block": "test", "trialIndex": 24, "score": -89, "costs": 0, "simulationMode": [null, null, null, null, null], "rewards": [-2, -3, -4, -4, -76], "path": ["0", "0", "12", "13", "14", "19", "22"], "rt": [290, 116, 67, 72, 130], "actions": ["right", "right", "right", "down", "left"], "actionTimes": [1677, 2301, 2889, 3458, 4118], "queries": {"click": {"state": {"target": [], "time": []}, "edge": {"target": [], "time": []}}, "mouseover": {"state": {"target": [], "time": []}, "edge": {"target": [], "time": []}}, "mouseout": {"state": {"target": ["0"], "time": [703]}, "edge": {"target": [], "time": []}}}, "displayed_time": "15.39", "trialTime": 16344, "trial_type": "mouselab-mdp", "trial_index": 35, "time_elapsed": 672354, "internal_node_id": "0.0-6.0-1.0-20.0"}}, {"uniqueid": "w14176872:a33277072", "current_trial": 36, "dateTime": 1693580822992, "trialdata": {"revealed_states": [], "clicked_states": [], "num_clicks_accrued": [0, 0, 0, 0, 0, 0, 0, 0, 0, 0, 0, 0, 0], "stateRewards": ["", 2, -1, 5, 6, 10, 86, 55, 10, -45, 63, -71, 1, -2, 5, -8, -50, -72, 36, 15, 61, 12, 33, -1, -4, 6, 5, 79, -56, -21, -16, -87, 60, -81], "withholdReward": false, "trial_id": "mdp_trial_22", "block": "test", "trialIndex": 25, "score": 85, "costs": 0, "simulationMode": [null, null, null, null, null], "rewards": [-1, -4, 6, 5, 79], "path": ["0", "0", "23", "24", "25", "26", "27"], "rt": [1426, 13, 149, 87, 42], "actions": ["left", "left", "left", "up", "up"], "actionTimes": [3185, 3700, 4388, 4995, 5565], "queries": {"click": {"state": {"target": [], "time": []}, "edge": {"target": [], "time": []}}, "mouseover": {"state": {"target": [], "time": []}, "edge": {"target": [], "time": []}}, "mouseout": {"state": {"target": ["0"], "time": [667]}, "edge": {"target": [], "time": []}}}, "displayed_time": "15.76", "trialTime": 16464, "trial_type": "mouselab-mdp", "trial_index": 36, "time_elapsed": 689975, "internal_node_id": "0.0-6.0-1.0-21.0"}}, {"uniqueid": "w14176872:a33277072", "current_trial": 37, "dateTime": 1693580843396, "trialdata": {"revealed_states": [], "clicked_states": [], "num_clicks_accrued": [0, 0, 0, 0, 0, 0, 0, 0, 0, 0, 0, 0, 0], "stateRewards": ["", 2, -3, -2, 14, -4, 85, 46, 15, -28, 41, 31, -1, -1, -1, 5, 62, 79, 57, 12, -73, -64, 86, -1, 1, -3, -5, 68, 11, -32, 8, -80, -21, -56], "withholdReward": false, "trial_id": "mdp_trial_23", "block": "test", "trialIndex": 26, "score": 43, "costs": 0, "simulationMode": [null, null, null, null, null], "rewards": [2, -3, -2, 15, 31], "path": ["0", "0", "1", "2", "3", "8", "11"], "rt": [1437, 138, 135, 52, 115], "actions": ["up", "up", "up", "left", "left"], "actionTimes": [3289, 3926, 4588, 5138, 5802], "queries": {"click": {"state": {"target": [], "time": []}, "edge": {"target": [], "time": []}}, "mouseover": {"state": {"target": [], "time": []}, "edge": {"target": [], "time": []}}, "mouseout": {"state": {"target": ["0"], "time": [88]}, "edge": {"target": [], "time": []}}}, "displayed_time": "15.85", "trialTime": 19077, "trial_type": "mouselab-mdp", "trial_index": 37, "time_elapsed": 710378, "internal_node_id": "0.0-6.0-1.0-22.0"}}, {"uniqueid": "w14176872:a33277072", "current_trial": 38, "dateTime": 1693580862371, "trialdata": {"revealed_states": [], "clicked_states": [], "num_clicks_accrued": [0, 0, 0, 0, 0, 0, 0, 0, 0, 0, 0, 0, 0], "stateRewards": ["", 2, 3, 8, 14, 69, -27, 17, 2, -71, -65, -10, 2, -3, 7, 8, 65, -10, 65, -12, 73, -12, 13, -2, -2, 6, 10, -79, -69, -18, 10, -85, 67, 74], "withholdReward": false, "trial_id": "mdp_trial_24", "block": "test", "trialIndex": 27, "score": 4, "costs": 0, "simulationMode": [null, null, null, null, null], "rewards": [2, -3, 7, 8, -10], "path": ["0", "0", "12", "13", "14", "15", "17"], "rt": [1058, 8, 19, 139, 42], "actions": ["right", "right", "right", "up", "right"], "actionTimes": [2843, 3393, 3942, 4593, 5162], "queries": {"click": {"state": {"target": [], "time": []}, "edge": {"target": [], "time": []}}, "mouseover": {"state": {"target": [], "time": []}, "edge": {"target": [], "time": []}}, "mouseout": {"state": {"target": ["0", "0", "0"], "time": [268, 444, 761]}, "edge": {"target": [], "time": []}}}, "displayed_time": "15.79", "trialTime": 17582, "trial_type": "mouselab-mdp", "trial_index": 38, "time_elapsed": 729354, "internal_node_id": "0.0-6.0-1.0-23.0"}}, {"uniqueid": "w14176872:a33277072", "current_trial": 39, "dateTime": 1693580879925, "trialdata": {"revealed_states": [], "clicked_states": [], "num_clicks_accrued": [0, 0, 0, 0, 0, 0, 0, 0, 0, 0, 0, 0, 0], "stateRewards": ["", -1, -3, -7, -4, -85, -70, 79, 8, 84, -66, 42, 2, -2, -3, -16, -54, -66, 68, -3, 21, -14, 7, -2, -1, -3, -8, 75, 80, 86, -7, -84, 73, -16], "withholdReward": false, "trial_id": "mdp_trial_25", "block": "test", "trialIndex": 28, "score": -97, "costs": 0, "simulationMode": [null, null, null, null, null], "rewards": [-2, -1, -3, -7, -84], "path": ["0", "0", "23", "24", "25", "30", "31"], "rt": [591, 57, 7, 88, 102], "actions": ["left", "left", "left", "down", "right"], "actionTimes": [2469, 3035, 3596, 4209, 4824], "queries": {"click": {"state": {"target": [], "time": []}, "edge": {"target": [], "time": []}}, "mouseover": {"state": {"target": [], "time": []}, "edge": {"target": [], "time": []}}, "mouseout": {"state": {"target": ["0", "0"], "time": [780, 14251]}, "edge": {"target": [], "time": []}}}, "displayed_time": "15.88", "trialTime": 16234, "trial_type": "mouselab-mdp", "trial_index": 39, "time_elapsed": 746908, "internal_node_id": "0.0-6.0-1.0-24.0"}}, {"uniqueid": "w14176872:a33277072", "current_trial": 40, "dateTime": 1693580897674, "trialdata": {"revealed_states": [], "clicked_states": [], "num_clicks_accrued": [0, 0, 0, 0, 0, 0, 0, 0, 0, 0, 0, 0, 0], "stateRewards": ["", -2, -1, -4, -15, -14, -67, 32, -3, -59, 63, 31, 2, -1, -7, -15, 71, -66, -27, -3, -54, -39, 72, 2, 1, 1, -13, 77, -40, 35, -9, 35, 75, 57], "withholdReward": false, "trial_id": "mdp_trial_26", "block": "test", "trialIndex": 29, "score": 10, "costs": 0, "simulationMode": [null, null, null, null, null], "rewards": [-2, -1, -4, -15, 32], "path": ["0", "0", "1", "2", "3", "4", "7"], "rt": [645, 7, 23, 154, 7], "actions": ["up", "up", "up", "right", "down"], "actionTimes": [2086, 2599, 3184, 3895, 4417], "queries": {"click": {"state": {"target": [], "time": []}, "edge": {"target": [], "time": []}}, "mouseover": {"state": {"target": [], "time": []}, "edge": {"target": [], "time": []}}, "mouseout": {"state": {"target": ["12", "0", "0", "0"], "time": [568, 13582, 13917, 14885]}, "edge": {"target": [], "time": []}}}, "displayed_time": "15.44", "trialTime": 16369, "trial_type": "mouselab-mdp", "trial_index": 40, "time_elapsed": 764657, "internal_node_id": "0.0-6.0-1.0-25.0"}}, {"uniqueid": "w14176872:a33277072", "current_trial": 41, "dateTime": 1693580915475, "trialdata": {"revealed_states": [], "clicked_states": [], "num_clicks_accrued": [0, 0, 0, 0, 0, 0, 0, 0, 0, 0, 0, 0, 0], "stateRewards": ["", 2, -1, -4, -13, 74, 77, 3, 2, -43, -2, -11, 2, 3, 7, 11, -26, -29, -33, -3, -3, -13, -3, 1, 3, -7, 14, -59, 33, 9, -5, 34, 79, 68], "withholdReward": false, "trial_id": "mdp_trial_27", "block": "test", "trialIndex": 30, "score": 26, "costs": 0, "simulationMode": [null, null, null, null, null], "rewards": [1, 3, -7, -5, 34], "path": ["0", "0", "23", "24", "25", "30", "31"], "rt": [496, 29, 8, 114, 24], "actions": ["left", "left", "left", "down", "right"], "actionTimes": [2294, 2880, 3441, 4102, 4645], "queries": {"click": {"state": {"target": [], "time": []}, "edge": {"target": [], "time": []}}, "mouseover": {"state": {"target": [], "time": []}, "edge": {"target": [], "time": []}}, "mouseout": {"state": {"target": ["0"], "time": [660]}, "edge": {"target": [], "time": []}}}, "displayed_time": "15.80", "trialTime": 16493, "trial_type": "mouselab-mdp", "trial_index": 41, "time_elapsed": 782458, "internal_node_id": "0.0-6.0-1.0-26.0"}}, {"uniqueid": "w14176872:a33277072", "current_trial": 42, "dateTime": 1693580932998, "trialdata": {"revealed_states": [], "clicked_states": [], "num_clicks_accrued": [0, 0, 0, 0, 0, 0, 0, 0, 0, 0, 0, 0, 0], "stateRewards": ["", 1, 3, 1, -13, 52, -28, 67, -14, 3, 63, -70, -1, -4, 7, -11, -10, 47, -18, 6, 69, -9, -61, 2, 3, -6, 10, 63, -34, 40, -6, -79, -35, -32], "withholdReward": false, "trial_id": "mdp_trial_28", "block": "test", "trialIndex": 31, "score": 38, "costs": 0, "simulationMode": [null, null, null, null, null], "rewards": [-1, -4, 7, -11, 47], "path": ["0", "0", "12", "13", "14", "15", "17"], "rt": [833, 41, 98, 112, 81], "actions": ["right", "right", "right", "up", "right"], "actionTimes": [2470, 3034, 3675, 4324, 4909], "queries": {"click": {"state": {"target": [], "time": []}, "edge": {"target": [], "time": []}}, "mouseover": {"state": {"target": [], "time": []}, "edge": {"target": [], "time": []}}, "mouseout": {"state": {"target": ["0"], "time": [753]}, "edge": {"target": [], "time": []}}}, "displayed_time": "15.64", "trialTime": 16139, "trial_type": "mouselab-mdp", "trial_index": 42, "time_elapsed": 799981, "internal_node_id": "0.0-6.0-1.0-27.0"}}, {"uniqueid": "w14176872:a33277072", "current_trial": 43, "dateTime": 1693580950747, "trialdata": {"revealed_states": [], "clicked_states": [], "num_clicks_accrued": [0, 0, 0, 0, 0, 0, 0, 0, 0, 0, 0, 0, 0], "stateRewards": ["", 1, 1, -6, -2, 7, 77, 3, 16, -16, 66, 31, -1, 3, -8, -6, 33, -50, -48, 7, -60, -66, 36, 2, -3, 3, -7, -12, -61, -79, -4, 8, 74, -70], "withholdReward": false, "trial_id": "mdp_trial_29", "block": "test", "trialIndex": 32, "score": -84, "costs": 0, "simulationMode": [null, null, null, null, null], "rewards": [2, -3, 3, -7, -79], "path": ["0", "0", "23", "24", "25", "26", "29"], "rt": [327, 7, 94, 100, 112], "actions": ["left", "left", "left", "up", "left"], "actionTimes": [2156, 2683, 3303, 3908, 4554], "queries": {"click": {"state": {"target": [], "time": []}, "edge": {"target": [], "time": []}}, "mouseover": {"state": {"target": [], "time": []}, "edge": {"target": [], "time": []}}, "mouseout": {"state": {"target": ["0", "0", "0"], "time": [25, 452, 802]}, "edge": {"target": [], "time": []}}}, "displayed_time": "15.83", "trialTime": 16234, "trial_type": "mouselab-mdp", "trial_index": 43, "time_elapsed": 817730, "internal_node_id": "0.0-6.0-1.0-28.0"}}, {"uniqueid": "w14176872:a33277072", "current_trial": 44, "dateTime": 1693580968697, "trialdata": {"revealed_states": [], "clicked_states": [], "num_clicks_accrued": [0, 0, 0, 0, 0, 0, 0, 0, 0, 0, 0, 0, 0], "stateRewards": ["", 1, 2, 2, -15, -84, 28, -26, 13, 31, 86, 30, -2, 1, -1, -8, 66, -40, -1, -10, -32, 57, -17, 1, 2, -2, 9, -23, 77, 85, 12, -32, -62, -35], "withholdReward": false, "trial_id": "mdp_trial_30", "block": "test", "trialIndex": 33, "score": -13, "costs": 0, "simulationMode": [null, null, null, null, null], "rewards": [1, 2, -2, 9, -23], "path": ["0", "0", "23", "24", "25", "26", "27"], "rt": [174, 114, 111, 66, 49], "actions": ["left", "left", "left", "up", "up"], "actionTimes": [1740, 2399, 3031, 3619, 4171], "queries": {"click": {"state": {"target": [], "time": []}, "edge": {"target": [], "time": []}}, "mouseover": {"state": {"target": [], "time": []}, "edge": {"target": [], "time": []}}, "mouseout": {"state": {"target": [], "time": []}, "edge": {"target": [], "time": []}}}, "displayed_time": "15.57", "trialTime": 16525, "trial_type": "mouselab-mdp", "trial_index": 44, "time_elapsed": 835680, "internal_node_id": "0.0-6.0-1.0-29.0"}}, {"uniqueid": "w14176872:a33277072", "current_trial": 45, "dateTime": 1693580985935, "trialdata": {"revealed_states": [], "clicked_states": [], "num_clicks_accrued": [0, 0, 0, 0, 0, 0, 0, 0, 0, 0, 0, 0, 0], "stateRewards": ["", 2, 3, 3, 10, 19, -21, 6, 9, 54, 68, 16, 2, 2, -6, -8, 40, -2, -75, -2, -42, 55, 59, -1, 2, 4, -14, 11, -34, -30, -6, 61, -53, 13], "withholdReward": false, "trial_id": "mdp_trial_31", "block": "test", "trialIndex": 34, "score": -43, "costs": 0, "simulationMode": [null, null, null, null, null], "rewards": [-1, 2, 4, -14, -34], "path": ["0", "0", "23", "24", "25", "26", "28"], "rt": [691, 8, 92, 8, 40], "actions": ["left", "left", "left", "up", "right"], "actionTimes": [1808, 2344, 2960, 3495, 4057], "queries": {"click": {"state": {"target": [], "time": []}, "edge": {"target": [], "time": []}}, "mouseover": {"state": {"target": [], "time": []}, "edge": {"target": [], "time": []}}, "mouseout": {"state": {"target": ["0"], "time": [528]}, "edge": {"target": [], "time": []}}}, "displayed_time": "15.12", "trialTime": 15791, "trial_type": "mouselab-mdp", "trial_index": 45, "time_elapsed": 852918, "internal_node_id": "0.0-6.0-1.0-30.0"}}, {"uniqueid": "w14176872:a33277072", "current_trial": 46, "dateTime": 1693581003514, "trialdata": {"revealed_states": [], "clicked_states": [], "num_clicks_accrued": [0, 0, 0, 0, 0, 0, 0, 0, 0, 0, 0, 0, 0], "stateRewards": ["", -2, 3, -1, 2, -72, 63, 20, -1, 62, -66, 39, -2, 3, -6, 14, 22, 47, 1, 8, -49, -1, -41, 2, 2, -6, -16, -64, -60, -34, 16, 54, 22, -7], "withholdReward": false, "trial_id": "mdp_trial_32", "block": "test", "trialIndex": 35, "score": 38, "costs": 0, "simulationMode": [null, null, null, null, null], "rewards": [-2, 3, -1, -1, 39], "path": ["0", "0", "1", "2", "3", "8", "11"], "rt": [201, 115, 174, 136, 118], "actions": ["up", "up", "up", "left", "left"], "actionTimes": [1575, 2190, 2871, 3547, 4182], "queries": {"click": {"state": {"target": [], "time": []}, "edge": {"target": [], "time": []}}, "mouseover": {"state": {"target": [], "time": []}, "edge": {"target": [], "time": []}}, "mouseout": {"state": {"target": ["0", "0"], "time": [36, 420]}, "edge": {"target": [], "time": []}}}, "displayed_time": "15.38", "trialTime": 16112, "trial_type": "mouselab-mdp", "trial_index": 46, "time_elapsed": 870497, "internal_node_id": "0.0-6.0-1.0-31.0"}}, {"uniqueid": "w14176872:a33277072", "current_trial": 47, "dateTime": 1693581020614, "trialdata": {"revealed_states": [], "clicked_states": [], "num_clicks_accrued": [0, 0, 0, 0, 0, 0, 0, 0, 0, 0, 0, 0, 0], "stateRewards": ["", -1, 1, 3, -8, -23, -15, -14, -11, -23, 58, 68, 1, 3, 5, 12, -17, -41, -7, -10, -4, 82, 10, 1, 4, -4, 11, 73, 55, -55, -1, -86, -86, 54], "withholdReward": false, "trial_id": "mdp_trial_33", "block": "test", "trialIndex": 36, "score": -20, "costs": 0, "simulationMode": [null, null, null, null, null], "rewards": [-1, 1, 3, -8, -15], "path": ["0", "0", "1", "2", "3", "4", "6"], "rt": [30, 74, 95, 39, 132], "actions": ["up", "up", "up", "right", "right"], "actionTimes": [1166, 1274, 1908, 2452, 3097], "queries": {"click": {"state": {"target": [], "time": []}, "edge": {"target": [], "time": []}}, "mouseover": {"state": {"target": [], "time": []}, "edge": {"target": [], "time": []}}, "mouseout": {"state": {"target": ["0"], "time": [453]}, "edge": {"target": [], "time": []}}}, "displayed_time": "15.14", "trialTime": 15763, "trial_type": "mouselab-mdp", "trial_index": 47, "time_elapsed": 887597, "internal_node_id": "0.0-6.0-1.0-32.0"}}, {"uniqueid": "w14176872:a33277072", "current_trial": 48, "dateTime": 1693581038120, "trialdata": {"revealed_states": [], "clicked_states": [], "num_clicks_accrued": [0, 0, 0, 0, 0, 0, 0, 0, 0, 0, 0, 0, 0], "stateRewards": ["", -1, -3, 3, 5, 56, 39, 50, -1, -80, 33, -46, 1, -2, -6, -8, 87, 48, 54, -11, -20, -64, -54, -2, 3, -7, -3, 12, 88, 35, -16, -46, -70, -3], "withholdReward": false, "trial_id": "mdp_trial_34", "block": "test", "trialIndex": 37, "score": -82, "costs": 0, "simulationMode": [null, null, null, null, null], "rewards": [1, -2, -6, -11, -64], "path": ["0", "0", "12", "13", "14", "19", "21"], "rt": [232, 8, 144, 145, 128], "actions": ["right", "right", "right", "down", "down"], "actionTimes": [1511, 2039, 2708, 3379, 4027], "queries": {"click": {"state": {"target": [], "time": []}, "edge": {"target": [], "time": []}}, "mouseover": {"state": {"target": [], "time": []}, "edge": {"target": [], "time": []}}, "mouseout": {"state": {"target": ["0"], "time": [25]}, "edge": {"target": [], "time": []}}}, "displayed_time": "15.28", "trialTime": 16084, "trial_type": "mouselab-mdp", "trial_index": 48, "time_elapsed": 905103, "internal_node_id": "0.0-6.0-1.0-33.0"}}, {"uniqueid": "w14176872:a33277072", "current_trial": 49, "dateTime": 1693581056376, "trialdata": {"revealed_states": [], "clicked_states": [], "num_clicks_accrued": [0, 0, 0, 0, 0, 0, 0, 0, 0, 0, 0, 0, 0], "stateRewards": ["", 1, -3, -1, 9, -34, -40, 22, -7, 45, 53, -11, 2, 4, 5, 15, 21, 37, -49, -3, 80, -28, -34, 1, -3, 1, 1, -40, -6, -5, -16, -85, -86, 59], "withholdReward": false, "trial_id": "mdp_trial_35", "block": "test", "trialIndex": 38, "score": -6, "costs": 0, "simulationMode": [null, null, null, null, null], "rewards": [1, -3, 1, 1, -6], "path": ["0", "0", "23", "24", "25", "26", "28"], "rt": [705, 8, 153, 84, 87], "actions": ["left", "left", "left", "up", "right"], "actionTimes": [2445, 2970, 3653, 4247, 4851], "queries": {"click": {"state": {"target": [], "time": []}, "edge": {"target": [], "time": []}}, "mouseover": {"state": {"target": [], "time": []}, "edge": {"target": [], "time": []}}, "mouseout": {"state": {"target": ["0", "0", "0"], "time": [220, 354, 787]}, "edge": {"target": [], "time": []}}}, "displayed_time": "15.74", "trialTime": 16902, "trial_type": "mouselab-mdp", "trial_index": 49, "time_elapsed": 923359, "internal_node_id": "0.0-6.0-1.0-34.0"}}, {"uniqueid": "w14176872:a33277072", "current_trial": 50, "dateTime": 1693581074091, "trialdata": {"revealed_states": [], "clicked_states": [], "num_clicks_accrued": [0, 0, 0, 0, 0, 0, 0, 0, 0, 0, 0, 0, 0], "stateRewards": ["", -2, 2, 3, -7, -31, -33, 29, -8, -57, 50, -83, -1, -1, 5, 13, -23, -62, 25, 5, -66, -85, 14, 1, -2, -1, 16, 71, 33, -19, -14, 5, -43, 79], "withholdReward": false, "trial_id": "mdp_trial_36", "block": "test", "trialIndex": 39, "score": -59, "costs": 0, "simulationMode": [null, null, null, null, null], "rewards": [1, -2, -1, -14, -43], "path": ["0", "0", "23", "24", "25", "30", "32"], "rt": [542, 16, 127, 76, 130], "actions": ["left", "left", "left", "down", "down"], "actionTimes": [1892, 2410, 3053, 3657, 4326], "queries": {"click": {"state": {"target": [], "time": []}, "edge": {"target": [], "time": []}}, "mouseover": {"state": {"target": [], "time": []}, "edge": {"target": [], "time": []}}, "mouseout": {"state": {"target": ["0"], "time": [437]}, "edge": {"target": [], "time": []}}}, "displayed_time": "15.35", "trialTime": 15996, "trial_type": "mouselab-mdp", "trial_index": 50, "time_elapsed": 941074, "internal_node_id": "0.0-6.0-1.0-35.0"}}, {"uniqueid": "w14176872:a33277072", "current_trial": 51, "dateTime": 1693581093390, "trialdata": {"revealed_states": [], "clicked_states": [], "num_clicks_accrued": [0, 0, 0, 0, 0, 0, 0, 0, 0, 0, 0, 0, 0], "stateRewards": ["", -1, -4, -1, -5, -28, -23, -15, -15, -38, 59, -87, 2, 2, -5, 9, -55, -39, -71, -6, 85, -85, -11, -1, -2, 5, -10, 1, 25, 41, -4, 69, -35, 86], "withholdReward": false, "trial_id": "mdp_trial_37", "block": "test", "trialIndex": 40, "score": -18, "costs": 0, "simulationMode": [null, null, null, null, null], "rewards": [2, 2, -5, -6, -11], "path": ["0", "0", "12", "13", "14", "19", "22"], "rt": [633, 60, 82, 8, 85], "actions": ["right", "right", "right", "down", "left"], "actionTimes": [2574, 3155, 3760, 4288, 4915], "queries": {"click": {"state": {"target": [], "time": []}, "edge": {"target": [], "time": []}}, "mouseover": {"state": {"target": [], "time": []}, "edge": {"target": [], "time": []}}, "mouseout": {"state": {"target": ["0", "0"], "time": [504, 855]}, "edge": {"target": [], "time": []}}}, "displayed_time": "15.94", "trialTime": 17993, "trial_type": "mouselab-mdp", "trial_index": 51, "time_elapsed": 960373, "internal_node_id": "0.0-6.0-1.0-36.0"}}, {"uniqueid": "w14176872:a33277072", "current_trial": 52, "dateTime": 1693581111171, "trialdata": {"revealed_states": [], "clicked_states": [], "num_clicks_accrued": [0, 0, 0, 0, 0, 0, 0, 0, 0, 0, 0, 0, 0], "stateRewards": ["", 2, -2, -8, 9, -20, 55, -58, 14, 42, 2, 36, 1, -3, -5, 5, -58, 57, 60, 16, 57, 30, -70, -2, 1, 3, 10, 59, 23, 77, -13, -26, 88, -72], "withholdReward": false, "trial_id": "mdp_trial_38", "block": "test", "trialIndex": 41, "score": 56, "costs": 0, "simulationMode": [null, null, null, null, null], "rewards": [2, -2, -8, 9, 55], "path": ["0", "0", "1", "2", "3", "4", "6"], "rt": [1025, 123, 108, 38, 129], "actions": ["up", "up", "up", "right", "right"], "actionTimes": [2822, 3480, 4096, 4658, 5336], "queries": {"click": {"state": {"target": [], "time": []}, "edge": {"target": [], "time": []}}, "mouseover": {"state": {"target": [], "time": []}, "edge": {"target": [], "time": []}}, "mouseout": {"state": {"target": ["1"], "time": [644]}, "edge": {"target": [], "time": []}}}, "displayed_time": "15.80", "trialTime": 16260, "trial_type": "mouselab-mdp", "trial_index": 52, "time_elapsed": 978154, "internal_node_id": "0.0-6.0-1.0-37.0"}}, {"uniqueid": "w14176872:a33277072", "current_trial": 53, "dateTime": 1693581128954, "trialdata": {"revealed_states": [], "clicked_states": [], "num_clicks_accrued": [0, 0, 0, 0, 0, 0, 0, 0, 0, 0, 0, 0, 0], "stateRewards": ["", 2, -1, -3, 16, -3, -16, -62, -1, 13, -26, 43, -1, 4, 3, -9, -54, -37, -3, -12, -71, -68, -57, 1, -3, 2, -9, 2, -2, -9, -11, 84, -52, 55], "withholdReward": false, "trial_id": "mdp_trial_39", "block": "test", "trialIndex": 42, "score": -77, "costs": 0, "simulationMode": [null, null, null, null, null], "rewards": [-1, 4, 3, -12, -71], "path": ["0", "0", "12", "13", "14", "19", "20"], "rt": [426, 10, 170, 85, 10], "actions": ["right", "right", "right", "down", "right"], "actionTimes": [2221, 2747, 3458, 4057, 4586], "queries": {"click": {"state": {"target": [], "time": []}, "edge": {"target": [], "time": []}}, "mouseover": {"state": {"target": [], "time": []}, "edge": {"target": [], "time": []}}, "mouseout": {"state": {"target": ["0"], "time": [150]}, "edge": {"target": [], "time": []}}}, "displayed_time": "15.80", "trialTime": 16357, "trial_type": "mouselab-mdp", "trial_index": 53, "time_elapsed": 995937, "internal_node_id": "0.0-6.0-1.0-38.0"}}, {"uniqueid": "w14176872:a33277072", "current_trial": 54, "dateTime": 1693581166023, "trialdata": {"revealed_states": [], "clicked_states": [], "num_clicks_accrued": [0, 0, 0, 0, 0, 0, 0, 0, 0, 0, 0, 0, 0], "stateRewards": ["", -1, 4, -8, 12, 14, 69, -8, 5, -72, -14, 56, -1, -1, -1, 9, 67, 19, 11, -9, -88, -58, 3, 2, -4, -8, 4, 62, 77, -74, 5, -31, 65, 88], "withholdReward": false, "trial_id": "mdp_trial_40", "block": "test", "trialIndex": 43, "score": 83, "costs": 0, "simulationMode": [null, null, null, null, null], "rewards": [2, -4, -8, 5, 88], "path": ["0", "0", "23", "24", "25", "30", "33"], "rt": [458, 80, 90, 35, 48], "actions": ["left", "left", "left", "down", "left"], "actionTimes": [1944, 2552, 3193, 3791, 4385], "queries": {"click": {"state": {"target": [], "time": []}, "edge": {"target": [], "time": []}}, "mouseover": {"state": {"target": [], "time": []}, "edge": {"target": [], "time": []}}, "mouseout": {"state": {"target": ["0"], "time": [472]}, "edge": {"target": [], "time": []}}}, "displayed_time": "15.49", "trialTime": 35740, "trial_type": "mouselab-mdp", "trial_index": 54, "time_elapsed": 1033006, "internal_node_id": "0.0-6.0-1.0-39.0"}}, {"uniqueid": "w14176872:a33277072", "current_trial": 55, "dateTime": 1693581214150, "trialdata": {"rt": 48114, "response": {"Q0": "$-16 to 16", "Q1": "$-32 to $32", "Q2": "$-32 to $32", "Q3": "The cost for clicking on nodes varied between nodes.", "Q4": "Slightly unmotivated"}, "question_order": [0, 1, 2, 3, 4], "trial_id": "final_quiz_control", "trial_type": "survey-multi-choice", "trial_index": 55, "time_elapsed": 1081133, "internal_node_id": "0.0-6.0-2.0"}}, {"uniqueid": "w14176872:a33277072", "current_trial": 56, "dateTime": 1693581298695, "trialdata": {"rt": 84497, "response": {"Q0": "Used no strategy just randomly chose a path", "Q1": "No, I kept the same strategy.", "Q2": "It was very difficult, as everything was randomly generated over each node"}, "trial_id": "self_report_control", "trial_type": "survey-text", "trial_index": 56, "time_elapsed": 1165679, "internal_node_id": "0.0-6.0-3.0"}}, {"uniqueid": "w14176872:a33277072", "current_trial": 57, "dateTime": 1693581320191, "trialdata": {"rt": 21486, "response": {"gender": "male", "age": "21", "colorblind": "0", "effort": "1"}, "trial_type": "survey-html-form", "trial_index": 57, "time_elapsed": 1187175, "internal_node_id": "0.0-6.0-4.0"}}, {"uniqueid": "w14176872:a33277072", "current_trial": 58, "dateTime": 1693581382375, "trialdata": {"rt": 62161, "response": {"Q0": "Yes, I was getting negative points most of time", "Q1": "No this is my first time", "Q2": "NA"}, "trial_type": "survey-text", "trial_index": 58, "time_elapsed": 1249359, "internal_node_id": "0.0-6.0-5.0"}}, {"uniqueid": "w14176872:a33277072", "current_trial": 59, "dateTime": 1693581388035, "trialdata": {"rt": 5648, "stimulus": "<h1>Completion Code Instructions (1/2)</h1>\n<br><br><br><br>\nYou have reached the end of the experiment! The completion code consists of two parts: (1) a code with 2 characters (2) a code with 6 characters. On this page, you will receive the second part of the code. The first part of the completion code will be on the next page.\n<br><br>\nThe second part of your completion code is: <b>EWEK22</b>\n<br><br>\nPlease note this down. Then, press 'Next' in order to find the first part of your completion code. Once the data has been saved, you will receive this code either in this window or in the original browser window where you started the experiment.\n <br><br>\n<h2 style='color: red;'>Note: this is <strong>NOT</strong> the full completion code. Copy this down and click 'Next' to get the full completion code on the next page.</h2>", "response": 0, "trial_type": "html-button-response", "trial_index": 59, "time_elapsed": 1255019, "internal_node_id": "0.0-6.0-6.0"}}, {"uniqueid": "w14176872:a33277072", "current_trial": 60, "dateTime": 1693581389044, "trialdata": {"success": true, "trial_type": "fullscreen", "trial_index": 60, "time_elapsed": 1256028, "internal_node_id": "0.0-7.0"}}], "questiondata": {"params": {"CODE": "C6DMOQA6", "MIN_TIME": 14, "inspectCost": 1, "startTime": "Fri Sep 01 2023 16:55:29 GMT+0200 (South Africa Standard Time)", "bonusRate": 0.002, "variance": "1_2_4_8_44", "branching": "31123"}, "final_score": -258}, "eventdata": [{"eventtype": "initialized", "value": null, "timestamp": 1693580128137, "interval": 0}, {"eventtype": "window_resize", "value": [1536, 806], "timestamp": 1693580128137, "interval": 0}, {"eventtype": "window_resize", "value": [1536, 806], "timestamp": 1693580128929, "interval": 792}, {"eventtype": "window_resize", "value": [1536, 864], "timestamp": 1693580135616, "interval": 6687}, {"eventtype": "focus", "value": "off", "timestamp": 1693580279512, "interval": 143896}, {"eventtype": "focus", "value": "on", "timestamp": 1693580279513, "interval": 1}, {"eventtype": "window_resize", "value": [1536, 806], "timestamp": 1693580279808, "interval": 295}, {"eventtype": "window_resize", "value": [1536, 864], "timestamp": 1693580281238, "interval": 1430}, {"eventtype": "focus", "value": "off", "timestamp": 1693580620667, "interval": 339429}, {"eventtype": "focus", "value": "on", "timestamp": 1693580622658, "interval": 1991}, {"eventtype": "window_resize", "value": [1536, 806], "timestamp": 1693581388323, "interval": 765665}], "useragent": "Mozilla/5.0 (Windows NT 10.0; Win64; x64) AppleWebKit/537.36 (KHTML, like Gecko) Chrome/116.0.0.0 Safari/537.36", "mode": "live", "id": "w14176872:a33277072", "status": "user data saved", "Beginhit": "2023-09-01 14:55:21.177361", "Beginexp": "2023-09-01 14:55:35.086058", "Endhit": "2023-09-01 15:16:29.057934", "psiturkStatus": 3, "browser": "<redacted>", "platform": "windows", "language": "en-US"}