{"condition": 1, "counterbalance": 0, "assignmentId": "a67981668", "workerId": "w26315817", "hitId": "h75588231", "currenttrial": 13, "bonus": 0, "data": [{"uniqueid": "w26315817:a67981668", "current_trial": 0, "dateTime": 1693564659155, "trialdata": {"success": true, "trial_type": "fullscreen", "trial_index": 0, "time_elapsed": 16180, "internal_node_id": "0.0-0.0"}}, {"uniqueid": "w26315817:a67981668", "current_trial": 1, "dateTime": 1693564681963, "trialdata": {"view_history": [{"page_index": 0, "viewing_time": 22797}], "rt": 22798, "trial_id": "exp_instructions_misaligned", "trial_type": "instructions", "trial_index": 1, "time_elapsed": 38989, "internal_node_id": "0.0-1.0"}}, {"uniqueid": "w26315817:a67981668", "current_trial": 2, "dateTime": 1693564901998, "trialdata": {"view_history": [{"page_index": 0, "viewing_time": 94050}, {"page_index": 1, "viewing_time": 43054}, {"page_index": 2, "viewing_time": 7853}, {"page_index": 1, "viewing_time": 12058}, {"page_index": 2, "viewing_time": 38427}, {"page_index": 3, "viewing_time": 24593}], "rt": 220036, "trial_id": "mouselab_instructions_1_misaligned", "trial_type": "instructions", "trial_index": 2, "time_elapsed": 259024, "internal_node_id": "0.0-2.0-1.0"}}, {"uniqueid": "w26315817:a67981668", "current_trial": 3, "dateTime": 1693565155624, "trialdata": {"revealed_states": [], "clicked_states": ["1", "11", "3", "7", "15", "25", "14", "9", "12", "4", "16", "13", "19", "32", "33", "29", "28", "10", "2", "18", "17", "5", "6", "22", "21", "31", "24", "23", "27", "30", "26", "8", "20"], "num_clicks_accrued": [0, 0, 0, 0, 0, 0, 0, 0, 0, 0, 0, 0, 0], "stateRewards": ["", 10, -10, 10, -10, 10, 10, 10, 10, -10, -10, 10, 10, 10, -10, 10, -10, -10, -10, -10, 10, 10, -10, 10, -10, -10, 10, 10, 10, -10, -10, -10, 10, 10], "withholdReward": false, "trial_id": "practice_1", "block": "test", "trialIndex": 0, "score": -3, "costs": -16.5, "simulationMode": [null, null, null, null, null], "rewards": [10, 10, -10, -10, 10], "path": ["0", "0", "12", "13", "14", "19", "21"], "rt": [218191, 1220, 3310, 1871, 637], "actions": ["right", "right", "right", "down", "down"], "actionTimes": [225907, 227656, 231491, 233943, 235083], "queries": {"click": {"state": {"target": ["1", "11", "3", "7", "15", "25", "14", "9", "12", "4", "16", "13", "19", "32", "33", "29", "28", "10", "2", "18", "17", "5", "6", "22", "21", "31", "24", "23", "27", "30", "26", "8", "20"], "time": [12231, 14244, 15949, 17211, 18417, 20085, 22152, 25162, 26533, 27823, 29831, 31033, 32205, 33314, 35027, 36148, 38081, 39696, 44835, 54561, 56610, 66866, 68333, 69531, 71194, 73239, 74842, 76292, 80440, 84326, 85741, 86779, 90299]}, "edge": {"target": [], "time": []}}, "mouseover": {"state": {"target": ["0", "1", "2", "8", "11", "8", "3", "7", "7", "15", "25", "24", "12", "13", "17", "14", "13", "12", "3", "9", "9", "2", "12", "7", "4", "4", "5", "6", "16", "13", "19", "32", "30", "33", "29", "26", "28", "10", "1", "1", "2", "3", "3", "4", "16", "17", "14", "13", "18", "15", "17", "15", "17", "16", "6", "4", "5", "6", "18", "22", "21", "20", "31", "31", "24", "23", "28", "27", "27", "26", "10", "24", "30", "25", "26", "8", "2", "12", "20", "0", "10", "10", "2", "4", "10", "28", "18", "15", "20", "19", "22", "0", "23", "0", "18", "13", "20", "19", "22", "19", "20", "6", "6", "16", "21", "19", "19", "20", "19", "22", "14", "13", "0", "0", "25", "24", "23", "0", "12", "13", "10", "11", "9", "9", "9", "0", "12", "14", "21"], "time": [8718, 11715, 13095, 13797, 14029, 14744, 14844, 16427, 16891, 18140, 19738, 21112, 21139, 21159, 21471, 21760, 22836, 23402, 23993, 24358, 24787, 25599, 26116, 27131, 27156, 27530, 28314, 29069, 29513, 30261, 31890, 33015, 33845, 34728, 35798, 36767, 37725, 39325, 42339, 43726, 44456, 45317, 45716, 46832, 47283, 47339, 49780, 50230, 54314, 55959, 56274, 60921, 61470, 64203, 65085, 65420, 66531, 68023, 68706, 69061, 70027, 71625, 72628, 72976, 74475, 76000, 79389, 79682, 80134, 81214, 82581, 83675, 84047, 85145, 85413, 86416, 87375, 88179, 89763, 92711, 94325, 95074, 95792, 96935, 97805, 98169, 98637, 98655, 108049, 112173, 112191, 112220, 115003, 115317, 117185, 122475, 124163, 124573, 124663, 124945, 126389, 130020, 130807, 131583, 134155, 134538, 136165, 137694, 139614, 139679, 140391, 140414, 142563, 143523, 151963, 152102, 152449, 152480, 152817, 153536, 157239, 157258, 159105, 159836, 160370, 219219, 221120, 221170, 224581]}, "edge": {"target": [], "time": []}}, "mouseout": {"state": {"target": ["0", "0", "1", "2", "8", "11", "8", "3", "7", "7", "15", "25", "24", "12", "13", "17", "14", "13", "12", "3", "9", "9", "2", "12", "7", "4", "4", "5", "6", "16", "16", "13", "19", "32", "30", "33", "29", "26", "28", "10", "1", "1", "2", "3", "3", "4", "16", "17", "14", "13", "18", "15", "17", "17", "15", "17", "16", "6", "4", "5", "5", "6", "18", "22", "21", "20", "22", "31", "31", "24", "23", "24", "23", "23", "28", "27", "27", "26", "10", "24", "30", "25", "26", "8", "2", "12", "20", "0", "10", "10", "2", "4", "10", "28", "18", "15", "20", "19", "22", "0", "23", "0", "18", "13", "20", "19", "22", "19", "20", "6", "6", "16", "21", "19", "19", "20", "19", "22", "14", "13", "0", "0", "25", "24", "23", "0", "12", "13", "10", "11", "9", "9", "9", "0", "12", "14", "21"], "time": [4090, 10735, 12432, 13601, 13881, 14460, 14776, 16409, 16502, 17603, 18856, 21107, 21124, 21154, 21422, 21704, 22703, 23374, 23982, 24004, 24384, 25593, 25619, 27048, 27150, 27173, 28017, 28997, 29351, 30032, 30195, 31615, 32430, 33749, 34581, 35549, 36640, 37626, 38698, 42285, 42702, 43823, 45283, 45335, 46821, 46847, 47298, 47677, 50219, 50246, 55859, 56143, 56823, 60685, 61422, 63918, 64985, 65250, 66383, 67081, 67777, 68601, 68722, 69976, 71541, 72539, 72579, 72640, 74347, 75408, 77058, 77507, 78257, 79383, 79401, 79722, 81015, 81986, 82718, 83689, 84530, 85195, 86199, 87364, 87403, 88608, 92639, 94289, 94354, 95730, 96585, 97773, 97817, 98183, 98650, 98668, 108091, 112187, 112204, 112235, 115057, 116305, 122294, 123075, 124559, 124608, 124911, 125426, 126506, 130137, 130817, 131600, 134170, 134885, 136281, 137747, 139648, 139778, 140408, 140428, 142723, 144023, 151980, 152438, 152464, 152512, 153116, 157194, 157254, 157271, 159371, 159886, 160910, 220302, 221156, 221411, 224899]}, "edge": {"target": [], "time": []}}}, "displayed_time": "235.61", "trialTime": 252046, "trial_type": "mouselab-mdp", "trial_index": 3, "time_elapsed": 512649, "internal_node_id": "0.0-2.0-2.0-0.0"}}, {"uniqueid": "w26315817:a67981668", "current_trial": 4, "dateTime": 1693565207226, "trialdata": {"revealed_states": [], "clicked_states": [], "num_clicks_accrued": [0, 0, 0, 0, 0, 0, 0, 0, 0, 0, 0, 0, 0], "stateRewards": ["", 10, 10, -10, -10, -10, -10, -10, -10, -10, 10, -10, -10, -10, -10, 10, -10, -10, 10, -10, -10, -10, 10, 10, -10, -10, 10, -10, 10, -10, -10, 10, 10, -10], "withholdReward": false, "trial_id": "practice_2", "block": "test", "trialIndex": 1, "score": -46.5, "costs": 0, "simulationMode": [null, null, null, null, null], "rewards": [-10, -10, -10, -10, -10], "path": ["0", "0", "12", "13", "14", "19", "21"], "rt": [1750, 21496, 9570, 944, 530], "actions": ["right", "right", "right", "down", "down"], "actionTimes": [8699, 30725, 40812, 42275, 43310], "queries": {"click": {"state": {"target": [], "time": []}, "edge": {"target": [], "time": []}}, "mouseover": {"state": {"target": [], "time": []}, "edge": {"target": [], "time": []}}, "mouseout": {"state": {"target": ["18", "15", "12", "13", "13", "18", "7", "2", "3", "4", "6", "12", "18", "7", "10", "27", "1", "12", "24", "23", "0", "1", "7", "17", "17", "14"], "time": [2117, 10910, 18386, 18403, 21883, 23048, 23083, 23132, 24382, 24396, 24411, 32169, 32202, 33516, 33536, 34997, 35321, 35914, 36264, 36279, 37179, 37363, 38228, 38581, 39559, 44619]}, "edge": {"target": [], "time": []}}}, "displayed_time": "43.83", "trialTime": 50851, "trial_type": "mouselab-mdp", "trial_index": 4, "time_elapsed": 564252, "internal_node_id": "0.0-2.0-2.0-1.0"}}, {"uniqueid": "w26315817:a67981668", "current_trial": 5, "dateTime": 1693565277930, "trialdata": {"view_history": [{"page_index": 0, "viewing_time": 62702}, {"page_index": 1, "viewing_time": 8001}], "rt": 70704, "trial_id": "mouselab_instructions_2_misaligned", "trial_type": "instructions", "trial_index": 5, "time_elapsed": 634956, "internal_node_id": "0.0-2.0-3.0"}}, {"uniqueid": "w26315817:a67981668", "current_trial": 6, "dateTime": 1693565346999, "trialdata": {"rt": 69039, "response": {"Q0": "There is no cost for clicking on nodes.", "Q1": "The better I perform the higher my bonus will be.", "Q2": "No, the amount of cash at each node of the web may be different each time.", "Q3": "To click on the least number of nodes.", "Q4": "Only before moving the spider.", "Q5": "3 seconds"}, "question_order": [0, 1, 2, 3, 4, 5], "correct": {"Q0": "The cost for clicking on nodes may vary between nodes.", "Q1": "The better I perform the higher my bonus will be.", "Q2": "No, the amount of cash at each node of the web may be different each time.", "Q3": "To get the highest total score.", "Q4": "Only before moving the spider.", "Q5": "3 seconds"}, "trial_id": "mouselab_quiz_misaligned", "trial_type": "survey-multi-choice", "trial_index": 6, "time_elapsed": 704025, "internal_node_id": "0.0-2.0-4.0"}}, {"uniqueid": "w26315817:a67981668", "current_trial": 7, "dateTime": 1693565356196, "trialdata": {"success": true, "trial_type": "fullscreen", "trial_index": 7, "time_elapsed": 713222, "internal_node_id": "0.0-2.1-0.1-0.1"}}, {"uniqueid": "w26315817:a67981668", "current_trial": 8, "dateTime": 1693565411063, "trialdata": {"view_history": [{"page_index": 0, "viewing_time": 10461}, {"page_index": 1, "viewing_time": 16875}, {"page_index": 2, "viewing_time": 8506}, {"page_index": 3, "viewing_time": 19016}], "rt": 54859, "trial_id": "mouselab_instructions_1_misaligned", "trial_type": "instructions", "trial_index": 8, "time_elapsed": 768089, "internal_node_id": "0.0-2.1-1.1"}}, {"uniqueid": "w26315817:a67981668", "current_trial": 9, "dateTime": 1693565436867, "trialdata": {"revealed_states": [], "clicked_states": [], "num_clicks_accrued": [0, 0, 0, 0, 0, 0, 0, 0, 0, 0, 0, 0, 0], "stateRewards": ["", 10, -10, 10, -10, 10, 10, 10, 10, -10, -10, 10, 10, 10, -10, 10, -10, -10, -10, -10, 10, 10, -10, 10, -10, -10, 10, 10, 10, -10, -10, -10, 10, 10], "withholdReward": false, "trial_id": "practice_1", "block": "test", "trialIndex": 2, "score": 13.5, "costs": 0, "simulationMode": [null, null, null, null, null], "rewards": [10, 10, -10, -10, 10], "path": ["0", "0", "12", "13", "14", "19", "21"], "rt": [5502, 577, 265, 458, 664], "actions": ["right", "right", "right", "down", "down"], "actionTimes": [12695, 13798, 14569, 15545, 16717], "queries": {"click": {"state": {"target": [], "time": []}, "edge": {"target": [], "time": []}}, "mouseover": {"state": {"target": ["0", "12", "14", "13", "12"], "time": [8054, 8541, 11871, 11891, 11941]}, "edge": {"target": [], "time": []}}, "mouseout": {"state": {"target": ["21", "0", "0", "12", "14", "13", "12", "13", "20"], "time": [3725, 7555, 8509, 8887, 11886, 11905, 18295, 18334, 18701]}, "edge": {"target": [], "time": []}}}, "displayed_time": "17.22", "trialTime": 24671, "trial_type": "mouselab-mdp", "trial_index": 9, "time_elapsed": 793892, "internal_node_id": "0.0-2.1-2.1-0.1"}}, {"uniqueid": "w26315817:a67981668", "current_trial": 10, "dateTime": 1693565456553, "trialdata": {"revealed_states": [], "clicked_states": [], "num_clicks_accrued": [0, 0, 0, 0, 0, 0, 0, 0, 0, 0, 0, 0, 0], "stateRewards": ["", 10, 10, -10, -10, -10, -10, -10, -10, -10, 10, -10, -10, -10, -10, 10, -10, -10, 10, -10, -10, -10, 10, 10, -10, -10, 10, -10, 10, -10, -10, 10, 10, -10], "withholdReward": false, "trial_id": "practice_2", "block": "test", "trialIndex": 3, "score": -6.5, "costs": 0, "simulationMode": [null, null, null, null, null], "rewards": [10, 10, -10, -10, -10], "path": ["0", "0", "1", "2", "3", "4", "5"], "rt": [5534, 552, 1526, 943, 193], "actions": ["up", "up", "up", "right", "up"], "actionTimes": [9272, 10348, 12388, 13836, 14534], "queries": {"click": {"state": {"target": [], "time": []}, "edge": {"target": [], "time": []}}, "mouseover": {"state": {"target": [], "time": []}, "edge": {"target": [], "time": []}}, "mouseout": {"state": {"target": ["0", "21"], "time": [16168, 16717]}, "edge": {"target": [], "time": []}}}, "displayed_time": "15.06", "trialTime": 18670, "trial_type": "mouselab-mdp", "trial_index": 10, "time_elapsed": 813578, "internal_node_id": "0.0-2.1-2.1-1.1"}}, {"uniqueid": "w26315817:a67981668", "current_trial": 11, "dateTime": 1693565467358, "trialdata": {"view_history": [{"page_index": 0, "viewing_time": 8574}, {"page_index": 1, "viewing_time": 2223}], "rt": 10799, "trial_id": "mouselab_instructions_2_misaligned", "trial_type": "instructions", "trial_index": 11, "time_elapsed": 824384, "internal_node_id": "0.0-2.1-3.1"}}, {"uniqueid": "w26315817:a67981668", "current_trial": 12, "dateTime": 1693565531853, "trialdata": {"rt": 64486, "response": {"Q0": "The cost for clicking on nodes may vary between nodes.", "Q1": "The better I perform the higher my bonus will be.", "Q2": "No, the amount of cash at each node of the web may be different each time.", "Q3": "To click on the least number of nodes.", "Q4": "Only before moving the spider.", "Q5": "3 seconds"}, "question_order": [0, 1, 2, 3, 4, 5], "correct": {"Q0": "The cost for clicking on nodes may vary between nodes.", "Q1": "The better I perform the higher my bonus will be.", "Q2": "No, the amount of cash at each node of the web may be different each time.", "Q3": "To get the highest total score.", "Q4": "Only before moving the spider.", "Q5": "3 seconds"}, "trial_id": "mouselab_quiz_misaligned", "trial_type": "survey-multi-choice", "trial_index": 12, "time_elapsed": 888879, "internal_node_id": "0.0-2.1-4.1"}}], "questiondata": {"params": {"CODE": "C6DMOQA6", "MIN_TIME": 14, "inspectCost": 1, "startTime": "Fri Sep 01 2023 12:37:20 GMT+0200 (South Africa Standard Time)", "bonusRate": 0.002, "variance": "1_2_4_8_44", "branching": "31123"}}, "eventdata": [{"eventtype": "initialized", "value": null, "timestamp": 1693564639956, "interval": 0}, {"eventtype": "window_resize", "value": [1024, 646], "timestamp": 1693564639956, "interval": 0}, {"eventtype": "window_resize", "value": [1024, 646], "timestamp": 1693564640718, "interval": 762}, {"eventtype": "window_resize", "value": [1366, 662], "timestamp": 1693564642792, "interval": 2074}, {"eventtype": "window_resize", "value": [1366, 768], "timestamp": 1693564658373, "interval": 15581}, {"eventtype": "window_resize", "value": [1366, 662], "timestamp": 1693565069931, "interval": 411558}, {"eventtype": "focus", "value": "off", "timestamp": 1693565072982, "interval": 3051}, {"eventtype": "focus", "value": "on", "timestamp": 1693565121414, "interval": 48432}, {"eventtype": "focus", "value": "off", "timestamp": 1693565351716, "interval": 230302}, {"eventtype": "focus", "value": "on", "timestamp": 1693565351716, "interval": 0}, {"eventtype": "window_resize", "value": [1366, 768], "timestamp": 1693565355414, "interval": 3698}, {"eventtype": "focus", "value": "off", "timestamp": 1693565536520, "interval": 181106}, {"eventtype": "focus", "value": "on", "timestamp": 1693565536521, "interval": 1}, {"eventtype": "window_resize", "value": [1366, 662], "timestamp": 1693565536749, "interval": 228}], "useragent": "Mozilla/5.0 (Windows NT 10.0; Win64; x64) AppleWebKit/537.36 (KHTML, like Gecko) Chrome/116.0.0.0 Safari/537.36", "mode": "live", "id": "w26315817:a67981668", "status": "user data saved", "Beginhit": "2023-09-01 10:37:14.401098", "Beginexp": "2023-09-01 10:37:39.111718", "Endhit": null, "psiturkStatus": 6, "browser": "<redacted>", "platform": "windows", "language": "en-GB", "excludeReason": "quizfail"}