{"condition": 0, "counterbalance": 0, "assignmentId": "a67739858", "workerId": "w45781164", "hitId": "h43019928", "currenttrial": 61, "bonus": 0, "data": [{"uniqueid": "w45781164:a67739858", "current_trial": 0, "dateTime": 1693480922055, "trialdata": {"success": true, "trial_type": "fullscreen", "trial_index": 0, "time_elapsed": 7415, "internal_node_id": "0.0-0.0"}}, {"uniqueid": "w45781164:a67739858", "current_trial": 1, "dateTime": 1693480947708, "trialdata": {"view_history": [{"page_index": 0, "viewing_time": 25639}], "rt": 25639, "trial_id": "exp_instructions_control", "trial_type": "instructions", "trial_index": 1, "time_elapsed": 33069, "internal_node_id": "0.0-1.0"}}, {"uniqueid": "w45781164:a67739858", "current_trial": 2, "dateTime": 1693481292339, "trialdata": {"view_history": [{"page_index": 0, "viewing_time": 90103}, {"page_index": 1, "viewing_time": 143127}, {"page_index": 0, "viewing_time": 12680}, {"page_index": 1, "viewing_time": 6504}, {"page_index": 2, "viewing_time": 39400}, {"page_index": 3, "viewing_time": 52816}], "rt": 344629, "trial_id": "mouselab_instructions_1_control", "trial_type": "instructions", "trial_index": 2, "time_elapsed": 377699, "internal_node_id": "0.0-2.0-1.0"}}, {"uniqueid": "w45781164:a67739858", "current_trial": 3, "dateTime": 1693481376723, "trialdata": {"revealed_states": [], "clicked_states": ["2", "9", "28", "24", "23", "13", "15", "18", "4", "5", "6", "7", "12", "29", "33", "32"], "num_clicks_accrued": [0, 0, 0, 0, 0, 0, 0, 0, 0, 0, 0, 0, 0], "stateRewards": ["", -10, 10, -10, 10, -10, 10, 10, -10, 10, -10, -10, -10, 10, -10, 10, -10, 10, 10, 10, -10, -10, -10, 10, 10, 10, -10, 10, 10, 10, -10, -10, 10, -10], "withholdReward": false, "trial_id": "practice_1", "block": "test", "trialIndex": 0, "score": 25.5, "costs": -8, "simulationMode": [null, null, null, null, null], "rewards": [10, 10, 10, -10, 10], "path": ["0", "0", "23", "24", "25", "30", "32"], "rt": [36548, 1036, 506, 537, 98], "actions": ["left", "left", "left", "down", "down"], "actionTimes": [41285, 42826, 43834, 44866, 45466], "queries": {"click": {"state": {"target": ["2", "9", "28", "24", "23", "13", "15", "18", "4", "5", "6", "7", "12", "29", "33", "32"], "time": [9064, 11069, 12877, 14494, 16037, 20275, 22117, 24261, 26244, 28468, 29660, 30990, 32162, 35436, 36612, 38579]}, "edge": {"target": [], "time": []}}, "mouseover": {"state": {"target": ["1", "2", "4", "3", "9", "8", "11", "28", "24", "23", "24", "0", "12", "13", "15", "14", "18", "4", "7", "5", "6", "7", "12", "0", "26", "29", "33", "30", "32", "0", "23"], "time": [8410, 8795, 10077, 10532, 10800, 11766, 11965, 12602, 13557, 15561, 18877, 19698, 19725, 20050, 21397, 22686, 24013, 25362, 26867, 27256, 29443, 30212, 31651, 34132, 34951, 35064, 36334, 37655, 37860, 39546, 40430]}, "edge": {"target": [], "time": []}}, "mouseout": {"state": {"target": ["0", "1", "2", "4", "3", "9", "8", "11", "28", "24", "24", "23", "24", "23", "0", "12", "13", "13", "15", "14", "18", "18", "4", "7", "4", "5", "6", "7", "12", "0", "26", "29", "33", "30", "32", "0", "23", "1", "23", "31", "30", "31", "18", "15", "19"], "time": [8132, 8561, 9893, 10417, 10583, 11296, 11833, 12032, 13153, 14842, 15513, 16447, 19614, 19678, 19713, 19914, 20495, 21150, 22385, 23210, 24880, 24995, 26700, 27087, 27152, 29342, 29945, 31316, 34031, 34151, 35018, 36000, 36668, 37727, 39260, 39662, 40733, 63384, 63868, 64922, 68539, 68555, 68597, 68614, 70167]}, "edge": {"target": [], "time": []}}}, "displayed_time": "45.97", "trialTime": 83340, "trial_type": "mouselab-mdp", "trial_index": 3, "time_elapsed": 462083, "internal_node_id": "0.0-2.0-2.0-0.0"}}, {"uniqueid": "w45781164:a67739858", "current_trial": 4, "dateTime": 1693481398696, "trialdata": {"revealed_states": [], "clicked_states": [], "num_clicks_accrued": [0, 0, 0, 0, 0, 0, 0, 0, 0, 0, 0, 0, 0], "stateRewards": ["", -10, 10, -10, 10, 10, -10, 10, -10, 10, -10, -10, 10, -10, 10, -10, -10, -10, 10, -10, -10, -10, -10, -10, -10, 10, -10, -10, -10, 10, -10, -10, 10, 10], "withholdReward": false, "trial_id": "practice_2", "block": "test", "trialIndex": 1, "score": -6.5, "costs": 0, "simulationMode": [null, null, null, null, null], "rewards": [-10, -10, 10, -10, 10], "path": ["0", "0", "23", "24", "25", "30", "32"], "rt": [1190, 4152, 383, 128, 182], "actions": ["left", "left", "left", "down", "down"], "actionTimes": [3977, 8626, 9506, 10138, 10850], "queries": {"click": {"state": {"target": [], "time": []}, "edge": {"target": [], "time": []}}, "mouseover": {"state": {"target": [], "time": []}, "edge": {"target": [], "time": []}}, "mouseout": {"state": {"target": ["0", "23", "24", "25", "23", "14"], "time": [5633, 5729, 5846, 18879, 18945, 20427]}, "edge": {"target": [], "time": []}}}, "displayed_time": "11.35", "trialTime": 21706, "trial_type": "mouselab-mdp", "trial_index": 4, "time_elapsed": 484056, "internal_node_id": "0.0-2.0-2.0-1.0"}}, {"uniqueid": "w45781164:a67739858", "current_trial": 5, "dateTime": 1693481555306, "trialdata": {"view_history": [{"page_index": 0, "viewing_time": 137201}, {"page_index": 1, "viewing_time": 19400}], "rt": 156601, "trial_id": "mouselab_instructions_2_control", "trial_type": "instructions", "trial_index": 5, "time_elapsed": 640667, "internal_node_id": "0.0-2.0-3.0"}}, {"uniqueid": "w45781164:a67739858", "current_trial": 6, "dateTime": 1693481635811, "trialdata": {"rt": 80501, "response": {"Q0": "The cost for clicking on nodes may vary between nodes.", "Q1": "The better I perform the higher my bonus will be.", "Q2": "No, the amount of cash at each node of the web may be different each time.", "Q3": "To finish the game in the shortest amount of time.", "Q4": "Only before moving the spider.", "Q5": "3 seconds"}, "question_order": [0, 1, 2, 3, 4, 5], "correct": {"Q0": "The cost for clicking on nodes may vary between nodes.", "Q1": "The better I perform the higher my bonus will be.", "Q2": "No, the amount of cash at each node of the web may be different each time.", "Q3": "To get the highest total score.", "Q4": "Only before moving the spider.", "Q5": "3 seconds"}, "trial_id": "mouselab_quiz_control", "trial_type": "survey-multi-choice", "trial_index": 6, "time_elapsed": 721172, "internal_node_id": "0.0-2.0-4.0"}}, {"uniqueid": "w45781164:a67739858", "current_trial": 7, "dateTime": 1693481646995, "trialdata": {"success": true, "trial_type": "fullscreen", "trial_index": 7, "time_elapsed": 732356, "internal_node_id": "0.0-2.1-0.1-0.1"}}, {"uniqueid": "w45781164:a67739858", "current_trial": 8, "dateTime": 1693481856161, "trialdata": {"view_history": [{"page_index": 0, "viewing_time": 88010}, {"page_index": 1, "viewing_time": 78704}, {"page_index": 2, "viewing_time": 37065}, {"page_index": 3, "viewing_time": 5383}], "rt": 209162, "trial_id": "mouselab_instructions_1_control", "trial_type": "instructions", "trial_index": 8, "time_elapsed": 941522, "internal_node_id": "0.0-2.1-1.1"}}, {"uniqueid": "w45781164:a67739858", "current_trial": 9, "dateTime": 1693481927976, "trialdata": {"revealed_states": [], "clicked_states": ["3", "4", "15", "1", "27", "29", "30", "33", "32", "31", "24", "23", "8", "9", "11", "12", "13", "18", "16", "17", "20", "21", "22", "19", "7", "10", "28"], "num_clicks_accrued": [0, 0, 0, 0, 0, 0, 0, 0, 0, 0, 0, 0, 0], "stateRewards": ["", -10, 10, -10, 10, -10, 10, 10, -10, 10, -10, -10, -10, 10, -10, 10, -10, 10, 10, 10, -10, -10, -10, 10, 10, 10, -10, 10, 10, 10, -10, -10, 10, -10], "withholdReward": false, "trial_id": "practice_1", "block": "test", "trialIndex": 2, "score": 20, "costs": -13.5, "simulationMode": [null, null, null, null, null], "rewards": [10, 10, 10, -10, 10], "path": ["0", "0", "23", "24", "25", "26", "29"], "rt": [47511, 508, 566, 192, 197], "actions": ["left", "left", "left", "up", "left"], "actionTimes": [53780, 54785, 55849, 56545, 57248], "queries": {"click": {"state": {"target": ["3", "4", "15", "1", "27", "29", "30", "33", "32", "31", "24", "23", "8", "9", "11", "12", "13", "18", "16", "17", "20", "21", "22", "19", "7", "10", "28"], "time": [7324, 10165, 13222, 16079, 17845, 18855, 20188, 21706, 22768, 23946, 25108, 26549, 27793, 29061, 30583, 32332, 33851, 36542, 38637, 40235, 41517, 43080, 44275, 45403, 47858, 49310, 50491]}, "edge": {"target": [], "time": []}}, "mouseover": {"state": {"target": ["1", "2", "3", "4", "4", "7", "6", "15", "15", "18", "1", "1", "1", "28", "26", "27", "29", "25", "30", "33", "32", "31", "24", "25", "23", "23", "8", "9", "11", "10", "2", "12", "12", "13", "14", "18", "15", "16", "17", "20", "19", "21", "19", "22", "19", "12", "13", "7", "1", "10", "28", "28", "25", "26", "26"], "time": [6865, 6910, 7115, 7745, 9773, 11361, 12283, 12526, 12890, 14857, 15409, 15863, 16002, 17177, 17315, 17565, 18532, 19285, 19915, 20606, 22178, 23298, 24353, 25508, 26075, 26338, 27212, 28200, 29504, 31545, 31596, 31846, 32118, 32682, 34755, 36349, 37754, 38356, 39388, 41010, 42331, 42868, 43486, 43652, 44806, 46279, 46568, 47490, 48487, 49026, 49790, 50276, 52942, 52977, 53051]}, "edge": {"target": [], "time": []}}, "mouseout": {"state": {"target": ["0", "1", "2", "3", "4", "3", "4", "7", "6", "15", "15", "18", "1", "1", "1", "28", "26", "27", "29", "25", "30", "33", "32", "31", "24", "25", "24", "23", "23", "8", "9", "11", "10", "2", "12", "12", "13", "14", "18", "15", "16", "17", "17", "20", "19", "21", "19", "22", "19", "12", "13", "7", "1", "10", "28", "28", "25", "26", "26", "28", "23"], "time": [1425, 6878, 6980, 7628, 9104, 9659, 11245, 11548, 12415, 12594, 13548, 15243, 15478, 15928, 16960, 17263, 17432, 18182, 19068, 19770, 20472, 22044, 23148, 24235, 25441, 25991, 26060, 26109, 26962, 28103, 29455, 31495, 31578, 31661, 31933, 32631, 34524, 35948, 37634, 37773, 38970, 40326, 40625, 41964, 42822, 43428, 43506, 44708, 45844, 46314, 47104, 48068, 48520, 49489, 49841, 50744, 52957, 52988, 70184, 70230, 70415]}, "edge": {"target": [], "time": []}}}, "displayed_time": "57.75", "trialTime": 71578, "trial_type": "mouselab-mdp", "trial_index": 9, "time_elapsed": 1013336, "internal_node_id": "0.0-2.1-2.1-0.1"}}, {"uniqueid": "w45781164:a67739858", "current_trial": 10, "dateTime": 1693481951576, "trialdata": {"revealed_states": [], "clicked_states": ["24", "26", "2", "3", "9"], "num_clicks_accrued": [0, 0, 0, 0, 0, 0, 0, 0, 0, 0, 0, 0, 0], "stateRewards": ["", -10, 10, -10, 10, 10, -10, 10, -10, 10, -10, -10, 10, -10, 10, -10, -10, -10, 10, -10, -10, -10, -10, -10, -10, 10, -10, -10, -10, 10, -10, -10, 10, 10], "withholdReward": false, "trial_id": "practice_2", "block": "test", "trialIndex": 3, "score": -9, "costs": -2.5, "simulationMode": [null, null, null, null, null], "rewards": [-10, 10, -10, -10, 10], "path": ["0", "0", "1", "2", "3", "8", "9"], "rt": [8122, 343, 294, 224, 225], "actions": ["up", "up", "up", "left", "up"], "actionTimes": [10457, 11302, 12102, 12823, 13542], "queries": {"click": {"state": {"target": ["24", "26", "2", "3", "9"], "time": [3370, 4593, 6000, 7095, 8643]}, "edge": {"target": [], "time": []}}, "mouseover": {"state": {"target": ["0", "23", "24", "26", "28", "10", "2", "7", "3", "8", "9", "1", "31"], "time": [2749, 2793, 3233, 4315, 5251, 5319, 5809, 6557, 6774, 8028, 8264, 9215, 9266]}, "edge": {"target": [], "time": []}}, "mouseout": {"state": {"target": ["0", "0", "23", "24", "24", "26", "28", "10", "2", "2", "7", "3", "8", "9", "3", "2", "1", "31", "32", "32", "32", "30", "25", "31"], "time": [1792, 2771, 2826, 3581, 4015, 4817, 5268, 5419, 6188, 6459, 6690, 7896, 8061, 8814, 9015, 9201, 9232, 9315, 19927, 20496, 21398, 21477, 21547, 22384]}, "edge": {"target": [], "time": []}}}, "displayed_time": "14.04", "trialTime": 23327, "trial_type": "mouselab-mdp", "trial_index": 10, "time_elapsed": 1036935, "internal_node_id": "0.0-2.1-2.1-1.1"}}, {"uniqueid": "w45781164:a67739858", "current_trial": 11, "dateTime": 1693481972194, "trialdata": {"view_history": [{"page_index": 0, "viewing_time": 17968}, {"page_index": 1, "viewing_time": 2640}], "rt": 20608, "trial_id": "mouselab_instructions_2_control", "trial_type": "instructions", "trial_index": 11, "time_elapsed": 1057555, "internal_node_id": "0.0-2.1-3.1"}}, {"uniqueid": "w45781164:a67739858", "current_trial": 12, "dateTime": 1693482030474, "trialdata": {"rt": 58278, "response": {"Q0": "The cost for clicking on nodes may vary between nodes.", "Q1": "The better I perform the higher my bonus will be.", "Q2": "No, the amount of cash at each node of the web may be different each time.", "Q3": "To get the highest total score.", "Q4": "Only before moving the spider.", "Q5": "3 seconds"}, "question_order": [0, 1, 2, 3, 4, 5], "correct": {"Q0": "The cost for clicking on nodes may vary between nodes.", "Q1": "The better I perform the higher my bonus will be.", "Q2": "No, the amount of cash at each node of the web may be different each time.", "Q3": "To get the highest total score.", "Q4": "Only before moving the spider.", "Q5": "3 seconds"}, "trial_id": "mouselab_quiz_control", "trial_type": "survey-multi-choice", "trial_index": 12, "time_elapsed": 1115835, "internal_node_id": "0.0-2.1-4.1"}}, {"uniqueid": "w45781164:a67739858", "current_trial": 13, "dateTime": 1693482057289, "trialdata": {"rt": 26809, "response": {"Q0": "No"}, "question_order": [0], "trial_id": "repeat_check", "trial_type": "survey-multi-choice", "trial_index": 13, "time_elapsed": 1142650, "internal_node_id": "0.0-4.0-0.0"}}, {"uniqueid": "w45781164:a67739858", "current_trial": 14, "dateTime": 1693482144790, "trialdata": {"rt": 87493, "stimulus": "\n<h1> Get ready to start the game! </h1>\n\nThank you for reading the instructions. Get ready start with the 40 rounds of this game.\n<br><br>\nIf you need to take a break, feel free to take one after the end of a round, before continuing to the next one.\n<br><br>\nRemember, the more money the spider gets, the bigger your bonus will be!\n<br><br>\n<div style='text-align: center;'>Press <code>space</code> to begin.</div>\n\n<br><br>\n(If, at any point, the <code>space</code> key does not take you to the next page, click once on the text and try again.)", "response": " ", "trial_id": "mdp_ready", "trial_type": "html-keyboard-response", "trial_index": 14, "time_elapsed": 1230151, "internal_node_id": "0.0-6.0-0.0"}}, {"uniqueid": "w45781164:a67739858", "current_trial": 15, "dateTime": 1693482171911, "trialdata": {"revealed_states": [], "clicked_states": ["1", "6", "4", "8", "26"], "num_clicks_accrued": [0, 0, 0, 0, 0, 0, 0, 0, 0, 0, 0, 0, 0], "stateRewards": ["", 1, 2, -3, 6, -88, 74, -45, 7, -46, 40, -77, 1, -4, 4, 3, 22, -25, -59, 8, -83, 19, -60, -1, -1, -1, -8, 26, -29, 64, -7, -88, -51, -55], "withholdReward": false, "trial_id": "mdp_trial_1", "block": "test", "trialIndex": 4, "score": 73, "costs": -7, "simulationMode": [null, null, null, null, null, null], "rewards": [1, 2, -3, 6, 74], "path": ["0", "0", "1", "2", "3", "4", "6"], "rt": [12853, 522, 230, 165, 411, 121], "actions": ["up", "up", "up", "up", "right", "right"], "actionTimes": [14249, 14774, 15503, 16175, 17087, 17703], "queries": {"click": {"state": {"target": ["1", "6", "4", "8", "26"], "time": [2147, 4064, 5650, 9849, 12905]}, "edge": {"target": [], "time": []}}, "mouseover": {"state": {"target": ["1", "7", "6", "4", "6", "4", "3", "8", "11", "27", "26"], "time": [1861, 2643, 3278, 3628, 3868, 4816, 8518, 9481, 12146, 12549, 12735]}, "edge": {"target": [], "time": []}}, "mouseout": {"state": {"target": ["23", "0", "1", "7", "6", "4", "6", "4", "6", "3", "8", "11", "27", "26", "23"], "time": [690, 1077, 2525, 2894, 3561, 3834, 4581, 6824, 7393, 9120, 10986, 12514, 12578, 13445, 25106]}, "edge": {"target": [], "time": []}}}, "displayed_time": "18.20", "trialTime": 26823, "trial_type": "mouselab-mdp", "trial_index": 15, "time_elapsed": 1257270, "internal_node_id": "0.0-6.0-1.0-0.0"}}, {"uniqueid": "w45781164:a67739858", "current_trial": 16, "dateTime": 1693482213831, "trialdata": {"revealed_states": [], "clicked_states": ["17", "20", "21", "31", "25", "27", "5", "9", "11"], "num_clicks_accrued": [0, 0, 0, 0, 0, 0, 0, 0, 0, 0, 0, 0, 0], "stateRewards": ["", -1, 4, -3, 3, 57, -61, 5, -11, 23, -1, 34, -2, -4, -1, -13, 27, 38, -36, 4, -45, 21, 88, 1, -2, -1, 1, -69, -5, -78, -12, -9, 38, -54], "withholdReward": false, "trial_id": "mdp_trial_2", "block": "test", "trialIndex": 5, "score": 47.4, "costs": -12.600000000000001, "simulationMode": [null, null, null, null, null], "rewards": [-1, 4, -3, 3, 57], "path": ["0", "0", "1", "2", "3", "4", "5"], "rt": [25535, 121, 164, 369, 323], "actions": ["up", "up", "up", "right", "up"], "actionTimes": [27264, 27893, 28557, 29429, 30253], "queries": {"click": {"state": {"target": ["17", "20", "21", "31", "25", "27", "5", "9", "11"], "time": [2670, 5377, 7401, 10337, 12765, 15017, 17498, 20527, 24375]}, "edge": {"target": [], "time": []}}, "mouseover": {"state": {"target": ["12", "13", "15", "17", "15", "14", "19", "20", "21", "22", "31", "25", "26", "27", "8", "5", "9", "8", "11"], "time": [2098, 2165, 2270, 2454, 3052, 4707, 4923, 5198, 5893, 8419, 10080, 12538, 14122, 14780, 16937, 17368, 19697, 23578, 24114]}, "edge": {"target": [], "time": []}}, "mouseout": {"state": {"target": ["0", "12", "13", "0", "12", "13", "15", "17", "15", "14", "19", "20", "21", "22", "31", "31", "25", "26", "27", "8", "5", "5", "9", "8", "11", "0"], "time": [879, 913, 1079, 2070, 2147, 2196, 2290, 2782, 4595, 4823, 4956, 5576, 8135, 9612, 10410, 12087, 13973, 14579, 15493, 16984, 17607, 19329, 23494, 23928, 35334, 35767]}, "edge": {"target": [], "time": []}}}, "displayed_time": "30.75", "trialTime": 41606, "trial_type": "mouselab-mdp", "trial_index": 16, "time_elapsed": 1299190, "internal_node_id": "0.0-6.0-1.0-1.0"}}, {"uniqueid": "w45781164:a67739858", "current_trial": 17, "dateTime": 1693482241638, "trialdata": {"revealed_states": [], "clicked_states": ["8", "29", "32", "17", "16"], "num_clicks_accrued": [0, 0, 0, 0, 0, 0, 0, 0, 0, 0, 0, 0, 0], "stateRewards": ["", -2, -3, 1, -14, 48, -49, 67, -1, -35, -48, 3, -2, 1, -4, -5, 86, -84, 39, 1, 48, 41, -42, -1, -4, 2, -7, 18, -86, 17, 7, -9, 57, -69], "withholdReward": false, "trial_id": "mdp_trial_3", "block": "test", "trialIndex": 6, "score": 69, "costs": -7, "simulationMode": [null, null, null, null, null], "rewards": [-2, 1, -4, -5, 86], "path": ["0", "0", "12", "13", "14", "15", "16"], "rt": [16718, 317, 474, 403, 201], "actions": ["right", "right", "right", "up", "up"], "actionTimes": [19208, 20029, 21005, 21909, 22605], "queries": {"click": {"state": {"target": ["8", "29", "32", "17", "16"], "time": [3758, 6694, 9110, 12547, 15598]}, "edge": {"target": [], "time": []}}, "mouseover": {"state": {"target": ["1", "8", "8", "10", "28", "26", "29", "30", "32", "32", "19", "20", "17", "16", "15", "17"], "time": [2892, 3054, 3540, 3956, 5952, 6332, 6466, 7855, 8723, 8962, 11836, 11886, 12291, 15380, 16064, 18010]}, "edge": {"target": [], "time": []}}, "mouseout": {"state": {"target": ["0", "1", "8", "8", "10", "28", "26", "29", "30", "32", "32", "19", "20", "17", "17", "16", "15", "16", "17", "19"], "time": [1149, 2914, 3410, 3923, 4008, 6032, 6383, 6916, 8678, 8773, 9408, 11868, 11901, 12719, 15202, 15780, 17710, 17874, 18031, 26008]}, "edge": {"target": [], "time": []}}}, "displayed_time": "23.11", "trialTime": 27453, "trial_type": "mouselab-mdp", "trial_index": 17, "time_elapsed": 1326998, "internal_node_id": "0.0-6.0-1.0-2.0"}}, {"uniqueid": "w45781164:a67739858", "current_trial": 18, "dateTime": 1693482279247, "trialdata": {"revealed_states": [], "clicked_states": ["24", "27", "5", "9", "17"], "num_clicks_accrued": [0, 0, 0, 0, 0, 0, 0, 0, 0, 0, 0, 0, 0], "stateRewards": ["", 2, -2, -8, 9, -20, 55, -58, 14, 42, 2, 36, 1, -3, -5, 5, -58, 57, 60, 16, 57, 30, -70, -2, 1, 3, 10, 59, 23, 77, -13, -26, 88, -72], "withholdReward": false, "trial_id": "mdp_trial_4", "block": "test", "trialIndex": 7, "score": 64, "costs": -7, "simulationMode": [null, null, null, null, null], "rewards": [-2, 1, 3, 10, 59], "path": ["0", "0", "23", "24", "25", "26", "27"], "rt": [16218, 283, 263, 325, 225], "actions": ["left", "left", "left", "up", "up"], "actionTimes": [17632, 18421, 19189, 20021, 20757], "queries": {"click": {"state": {"target": ["24", "27", "5", "9", "17"], "time": [4219, 6584, 9015, 11230, 13518]}, "edge": {"target": [], "time": []}}, "mouseover": {"state": {"target": ["12", "0", "0", "0", "23", "24", "26", "27", "10", "3", "4", "5", "9", "3", "4", "16", "17", "15", "18", "1", "12", "13"], "time": [1697, 2034, 2710, 2880, 3790, 3886, 5642, 6398, 7130, 7380, 7715, 8431, 11082, 12349, 12498, 12986, 13257, 16317, 16362, 16602, 16696, 16718]}, "edge": {"target": [], "time": []}}, "mouseout": {"state": {"target": ["19", "0", "12", "0", "0", "0", "23", "24", "26", "27", "10", "3", "4", "5", "9", "3", "4", "16", "17", "17", "17", "15", "18", "1", "12", "13", "14", "22"], "time": [643, 1059, 1765, 2117, 2767, 3655, 3836, 4855, 5826, 6913, 7215, 7548, 7751, 10881, 12167, 12416, 12583, 13087, 13589, 13752, 16189, 16345, 16412, 16679, 16714, 16729, 24310, 26085]}, "edge": {"target": [], "time": []}}}, "displayed_time": "21.27", "trialTime": 37277, "trial_type": "mouselab-mdp", "trial_index": 18, "time_elapsed": 1364606, "internal_node_id": "0.0-6.0-1.0-3.0"}}, {"uniqueid": "w45781164:a67739858", "current_trial": 19, "dateTime": 1693482307086, "trialdata": {"revealed_states": [], "clicked_states": ["5", "29", "21", "20", "17"], "num_clicks_accrued": [0, 0, 0, 0, 0, 0, 0, 0, 0, 0, 0, 0, 0], "stateRewards": ["", 2, -2, 7, -11, -76, -65, -23, 16, -58, 30, 81, 1, 2, 7, 14, 9, 55, -2, 6, 11, -15, 31, -1, -1, -3, 2, 15, 2, 46, 15, 18, 45, -34], "withholdReward": false, "trial_id": "mdp_trial_5", "block": "test", "trialIndex": 8, "score": 72, "costs": -7, "simulationMode": [null, null, null, null, null], "rewards": [1, 2, 7, 14, 55], "path": ["0", "0", "12", "13", "14", "15", "17"], "rt": [14939, 241, 561, 335, 502], "actions": ["right", "right", "right", "up", "right"], "actionTimes": [16093, 16827, 17883, 18715, 19715], "queries": {"click": {"state": {"target": ["5", "29", "21", "20", "17"], "time": [2475, 4776, 8007, 10502, 13025]}, "edge": {"target": [], "time": []}}, "mouseover": {"state": {"target": ["12", "18", "15", "17", "16", "6", "4", "5", "9", "11", "27", "29", "33", "30", "21", "21", "20", "17"], "time": [1197, 1334, 1447, 1723, 1952, 2066, 2100, 2301, 2920, 3389, 4073, 4508, 6718, 7118, 7468, 7823, 9677, 12722]}, "edge": {"target": [], "time": []}}, "mouseout": {"state": {"target": ["22", "22", "12", "0", "12", "18", "15", "17", "16", "6", "4", "5", "9", "11", "27", "29", "33", "30", "21", "21", "20", "20", "17", "15", "18"], "time": [279, 546, 648, 747, 1213, 1415, 1514, 1901, 2019, 2084, 2149, 2653, 3054, 3974, 4156, 5077, 7101, 7134, 7501, 9461, 10865, 12539, 21676, 21810, 21938]}, "edge": {"target": [], "time": []}}}, "displayed_time": "20.21", "trialTime": 27475, "trial_type": "mouselab-mdp", "trial_index": 19, "time_elapsed": 1392445, "internal_node_id": "0.0-6.0-1.0-4.0"}}, {"uniqueid": "w45781164:a67739858", "current_trial": 20, "dateTime": 1693482342262, "trialdata": {"revealed_states": [], "clicked_states": ["7", "9", "27", "30", "32", "21"], "num_clicks_accrued": [0, 0, 0, 0, 0, 0, 0, 0, 0, 0, 0, 0, 0], "stateRewards": ["", -1, 4, -5, 9, 29, -75, -42, -16, 24, -28, -41, 2, -3, 1, 10, 60, 47, 55, -1, -53, 22, -40, 2, -3, -6, 4, -26, 44, 54, 15, -76, 42, 14], "withholdReward": false, "trial_id": "mdp_trial_6", "block": "test", "trialIndex": 9, "score": 41.6, "costs": -8.4, "simulationMode": [null, null, null, null, null], "rewards": [2, -3, -6, 15, 42], "path": ["0", "0", "23", "24", "25", "30", "32"], "rt": [19176, 400, 227, 419, 283], "actions": ["left", "left", "left", "down", "down"], "actionTimes": [22029, 22931, 23666, 24587, 25371], "queries": {"click": {"state": {"target": ["7", "9", "27", "30", "32", "21"], "time": [3871, 5839, 9485, 13159, 15699, 18627]}, "edge": {"target": [], "time": []}}, "mouseover": {"state": {"target": ["1", "7", "2", "8", "9", "8", "11", "27", "28", "24", "10", "8", "8", "10", "24", "30", "32", "21"], "time": [3316, 3668, 4230, 4448, 4565, 6589, 7588, 8362, 11828, 12062, 12181, 12211, 12448, 12489, 12748, 12927, 15524, 18397]}, "edge": {"target": [], "time": []}}, "mouseout": {"state": {"target": ["18", "23", "1", "7", "2", "8", "9", "8", "11", "27", "28", "24", "10", "8", "8", "10", "24", "30", "32", "21", "22"], "time": [257, 788, 3347, 4164, 4247, 4498, 6506, 7341, 8314, 11746, 11855, 12092, 12204, 12227, 12471, 12524, 12866, 15325, 15756, 20943, 32514]}, "edge": {"target": [], "time": []}}}, "displayed_time": "25.87", "trialTime": 34843, "trial_type": "mouselab-mdp", "trial_index": 20, "time_elapsed": 1427621, "internal_node_id": "0.0-6.0-1.0-5.0"}}, {"uniqueid": "w45781164:a67739858", "current_trial": 21, "dateTime": 1693482369542, "trialdata": {"revealed_states": [], "clicked_states": ["6", "27", "33"], "num_clicks_accrued": [0, 0, 0, 0, 0, 0, 0, 0, 0, 0, 0, 0, 0], "stateRewards": ["", 2, -3, -2, 14, -4, 85, 46, 15, -28, 41, 31, -1, -1, -1, 5, 62, 79, 57, 12, -73, -64, 86, -1, 1, -3, -5, 68, 11, -32, 8, -80, -21, -56], "withholdReward": false, "trial_id": "mdp_trial_7", "block": "test", "trialIndex": 10, "score": 59.8, "costs": -4.199999999999999, "simulationMode": [null, null, null, null, null], "rewards": [-1, -1, -1, 5, 62], "path": ["0", "0", "12", "13", "14", "15", "16"], "rt": [13111, 3462, 426, 314, 107], "actions": ["right", "right", "right", "up", "up"], "actionTimes": [14226, 18192, 19119, 19927, 20544], "queries": {"click": {"state": {"target": ["6", "27", "33"], "time": [2690, 6658, 10158]}, "edge": {"target": [], "time": []}}, "mouseover": {"state": {"target": ["12", "13", "14", "6", "7", "2", "10", "2", "10", "26", "27", "26", "25", "33"], "time": [1624, 1657, 1689, 2504, 3122, 3256, 3439, 5535, 5615, 6113, 6401, 9358, 9461, 9812]}, "edge": {"target": [], "time": []}}, "mouseout": {"state": {"target": ["12", "13", "14", "6", "7", "2", "10", "2", "10", "26", "27", "26", "25", "33", "33", "33", "32"], "time": [1649, 1676, 2207, 2837, 3205, 3306, 5000, 5565, 5665, 6347, 9141, 9427, 9696, 13177, 24235, 24254, 24377]}, "edge": {"target": [], "time": []}}}, "displayed_time": "21.07", "trialTime": 26912, "trial_type": "mouselab-mdp", "trial_index": 21, "time_elapsed": 1454901, "internal_node_id": "0.0-6.0-1.0-6.0"}}, {"uniqueid": "w45781164:a67739858", "current_trial": 22, "dateTime": 1693482400974, "trialdata": {"revealed_states": [], "clicked_states": ["6", "9", "17", "21", "32", "33"], "num_clicks_accrued": [0, 0, 0, 0, 0, 0, 0, 0, 0, 0, 0, 0, 0], "stateRewards": ["", 1, -3, 4, 13, -72, 52, 5, 5, -58, 5, 14, 2, 1, 3, -14, -86, -4, 73, 6, -58, -50, 49, 2, -3, -4, 2, 33, -41, 42, -11, 81, 45, 53], "withholdReward": false, "trial_id": "mdp_trial_8", "block": "test", "trialIndex": 11, "score": -65.4, "costs": -8.4, "simulationMode": [null, null, null, null, null], "rewards": [1, -3, 4, 13, -72], "path": ["0", "0", "1", "2", "3", "4", "5"], "rt": [18700, 582, 326, 350, 295], "actions": ["up", "up", "up", "right", "up"], "actionTimes": [20102, 21204, 22036, 22892, 23692], "queries": {"click": {"state": {"target": ["6", "9", "17", "21", "32", "33"], "time": [2782, 5390, 8973, 11590, 13902, 16557]}, "edge": {"target": [], "time": []}}, "mouseover": {"state": {"target": ["0", "2", "6", "4", "5", "9", "8", "10", "2", "7", "15", "17", "20", "21", "32", "30", "33"], "time": [1889, 2103, 2628, 3156, 3457, 5131, 7456, 7728, 7841, 7863, 7925, 8013, 11069, 11319, 13546, 16135, 16219]}, "edge": {"target": [], "time": []}}, "mouseout": {"state": {"target": ["0", "0", "2", "6", "6", "4", "5", "9", "8", "10", "2", "7", "15", "17", "20", "21", "32", "32", "30", "33", "33", "31", "23", "2", "3", "4", "7", "18", "13", "22", "13"], "time": [970, 1974, 2119, 2827, 3089, 3190, 4986, 7393, 7590, 7759, 7858, 7878, 7956, 10974, 11189, 13178, 13981, 15941, 16185, 16629, 18525, 28664, 28948, 29053, 29936, 30056, 30101, 30165, 30233, 30536, 30553]}, "edge": {"target": [], "time": []}}}, "displayed_time": "24.20", "trialTime": 31084, "trial_type": "mouselab-mdp", "trial_index": 22, "time_elapsed": 1486334, "internal_node_id": "0.0-6.0-1.0-7.0"}}, {"uniqueid": "w45781164:a67739858", "current_trial": 23, "dateTime": 1693482424846, "trialdata": {"revealed_states": [], "clicked_states": ["5", "9", "27"], "num_clicks_accrued": [0, 0, 0, 0, 0, 0, 0, 0, 0, 0, 0, 0, 0], "stateRewards": ["", -1, 1, 6, -6, 70, 66, 67, -16, -75, -35, 37, -1, 4, 4, -6, 47, -9, 63, 15, 21, -63, 13, 1, 3, -6, 10, 79, -29, 18, -15, 9, -67, -19], "withholdReward": false, "trial_id": "mdp_trial_9", "block": "test", "trialIndex": 12, "score": 82.8, "costs": -4.199999999999999, "simulationMode": [null, null, null, null, null], "rewards": [1, 3, -6, 10, 79], "path": ["0", "0", "23", "24", "25", "26", "27"], "rt": [11099, 218, 148, 307, 131], "actions": ["left", "left", "left", "up", "up"], "actionTimes": [12451, 13169, 13817, 14633, 15273], "queries": {"click": {"state": {"target": ["5", "9", "27"], "time": [2947, 5938, 9220]}, "edge": {"target": [], "time": []}}, "mouseover": {"state": {"target": ["0", "3", "5", "9", "8", "28", "26", "27", "28"], "time": [1814, 2499, 2734, 5276, 8437, 8531, 8734, 9000, 11343]}, "edge": {"target": [], "time": []}}, "mouseout": {"state": {"target": ["7", "0", "3", "5", "9", "8", "28", "26", "27", "28", "28", "27", "11", "8", "3", "3", "7", "12"], "time": [557, 1980, 2629, 4975, 8404, 8468, 8580, 8902, 11282, 11361, 19376, 19843, 20178, 20206, 21198, 22018, 22483, 23155]}, "edge": {"target": [], "time": []}}}, "displayed_time": "15.78", "trialTime": 23538, "trial_type": "mouselab-mdp", "trial_index": 23, "time_elapsed": 1510206, "internal_node_id": "0.0-6.0-1.0-8.0"}}, {"uniqueid": "w45781164:a67739858", "current_trial": 24, "dateTime": 1693482453956, "trialdata": {"revealed_states": [], "clicked_states": ["29", "17", "21", "32", "9", "5", "6"], "num_clicks_accrued": [0, 0, 0, 0, 0, 0, 0, 0, 0, 0, 0, 0, 0], "stateRewards": ["", -1, -3, -6, -2, -7, 80, -45, -3, -38, -72, 76, 2, 1, 7, 4, -62, 14, -74, 14, -87, -21, -88, -2, 1, -7, -10, 66, 56, -76, 10, -29, -72, -70], "withholdReward": false, "trial_id": "mdp_trial_10", "block": "test", "trialIndex": 13, "score": 58.2, "costs": -9.8, "simulationMode": [null, null, null, null, null], "rewards": [-1, -3, -6, -2, 80], "path": ["0", "0", "1", "2", "3", "4", "6"], "rt": [21325, 161, 217, 387, 187], "actions": ["up", "up", "up", "right", "right"], "actionTimes": [22675, 23337, 24057, 24953, 25633], "queries": {"click": {"state": {"target": ["29", "17", "21", "32", "9", "5", "6"], "time": [4364, 6988, 9554, 12084, 14747, 17202, 19619]}, "edge": {"target": [], "time": []}}, "mouseover": {"state": {"target": ["0", "1", "2", "10", "8", "9", "11", "27", "26", "29", "22", "17", "21", "32", "31", "3", "9", "5", "6", "4", "7"], "time": [1446, 2237, 2783, 2834, 3122, 3386, 3605, 3801, 3854, 4137, 6417, 6701, 9327, 11636, 14195, 14362, 14557, 17033, 19459, 21632, 21697]}, "edge": {"target": [], "time": []}}, "mouseout": {"state": {"target": ["12", "0", "1", "2", "10", "8", "9", "11", "27", "26", "29", "29", "22", "17", "21", "32", "31", "3", "9", "5", "6", "6", "4", "7"], "time": [662, 1733, 2721, 2800, 3005, 3302, 3537, 3738, 3835, 4092, 4389, 4824, 6435, 7432, 11514, 14062, 14227, 14477, 16786, 19162, 19706, 21532, 21651, 21765]}, "edge": {"target": [], "time": []}}}, "displayed_time": "26.13", "trialTime": 28768, "trial_type": "mouselab-mdp", "trial_index": 24, "time_elapsed": 1539316, "internal_node_id": "0.0-6.0-1.0-9.0"}}, {"uniqueid": "w45781164:a67739858", "current_trial": 25, "dateTime": 1693482473412, "trialdata": {"revealed_states": [], "clicked_states": ["6", "25", "33", "20"], "num_clicks_accrued": [0, 0, 0, 0, 0, 0, 0, 0, 0, 0, 0, 0, 0], "stateRewards": ["", 1, 2, -5, 14, 54, -14, -25, 16, -5, -87, 78, -1, 1, 3, -3, 52, 53, 53, -10, 73, -69, -48, 2, 3, 1, 8, -62, -7, 85, 7, 82, 52, -28], "withholdReward": false, "trial_id": "mdp_trial_11", "block": "test", "trialIndex": 14, "score": 60.4, "costs": -5.6, "simulationMode": [null, null, null, null, null], "rewards": [-1, 1, 3, -10, 73], "path": ["0", "0", "12", "13", "14", "19", "20"], "rt": [12025, 72, 287, 486, 314], "actions": ["right", "right", "right", "down", "right"], "actionTimes": [14347, 14912, 15697, 16681, 17497], "queries": {"click": {"state": {"target": ["6", "25", "33", "20"], "time": [3332, 6030, 8372, 11203]}, "edge": {"target": [], "time": []}}, "mouseover": {"state": {"target": ["12", "4", "6", "10", "28", "25", "25", "30", "33", "30", "20"], "time": [2467, 2946, 3045, 5404, 5556, 5655, 5813, 7965, 8130, 10424, 11026]}, "edge": {"target": [], "time": []}}, "mouseout": {"state": {"target": ["21", "14", "13", "12", "12", "4", "6", "10", "28", "25", "25", "30", "33", "30", "20"], "time": [1425, 1659, 1676, 1829, 2678, 2995, 4117, 5507, 5588, 5672, 7528, 8047, 10378, 10458, 13273]}, "edge": {"target": [], "time": []}}}, "displayed_time": "18.00", "trialTime": 19120, "trial_type": "mouselab-mdp", "trial_index": 25, "time_elapsed": 1558772, "internal_node_id": "0.0-6.0-1.0-10.0"}}, {"uniqueid": "w45781164:a67739858", "current_trial": 26, "dateTime": 1693482501737, "trialdata": {"revealed_states": [], "clicked_states": ["15", "16", "6", "33", "21", "20"], "num_clicks_accrued": [0, 0, 0, 0, 0, 0, 0, 0, 0, 0, 0, 0, 0], "stateRewards": ["", -2, -1, -5, 10, -36, -70, 68, -9, 86, 71, -10, 2, -4, 7, -7, 66, 44, -66, -13, -69, 43, 15, -2, 2, 6, -13, 62, 57, 50, -10, -69, 42, -72], "withholdReward": false, "trial_id": "mdp_trial_12", "block": "test", "trialIndex": 15, "score": 55.6, "costs": -8.4, "simulationMode": [null, null, null, null, null], "rewards": [2, -4, 7, -7, 66], "path": ["0", "0", "12", "13", "14", "15", "16"], "rt": [16814, 379, 132, 191, 113], "actions": ["right", "right", "right", "up", "up"], "actionTimes": [22699, 23577, 24216, 24912, 25520], "queries": {"click": {"state": {"target": ["15", "16", "6", "33", "21", "20"], "time": [6683, 8691, 12222, 15003, 17571, 20274]}, "edge": {"target": [], "time": []}}, "mouseover": {"state": {"target": ["18", "15", "16", "17", "4", "5", "4", "6", "7", "1", "23", "30", "33", "30", "31", "22", "19", "20", "21", "20", "20"], "time": [6303, 6403, 7323, 10958, 11288, 11557, 11923, 11956, 14252, 14269, 14314, 14568, 14872, 17010, 17033, 17075, 17094, 17125, 17402, 19785, 20074]}, "edge": {"target": [], "time": []}}, "mouseout": {"state": {"target": ["12", "0", "18", "15", "16", "17", "4", "5", "4", "6", "7", "1", "23", "30", "33", "30", "31", "22", "19", "20", "21", "20", "20"], "time": [4932, 5455, 6370, 6939, 10888, 11107, 11407, 11882, 11939, 14220, 14266, 14282, 14347, 14689, 16993, 17028, 17047, 17091, 17108, 17140, 17860, 19839, 22164]}, "edge": {"target": [], "time": []}}}, "displayed_time": "26.02", "trialTime": 27975, "trial_type": "mouselab-mdp", "trial_index": 26, "time_elapsed": 1587097, "internal_node_id": "0.0-6.0-1.0-11.0"}}, {"uniqueid": "w45781164:a67739858", "current_trial": 27, "dateTime": 1693482520885, "trialdata": {"revealed_states": [], "clicked_states": ["9", "6"], "num_clicks_accrued": [0, 0, 0, 0, 0, 0, 0, 0, 0, 0, 0, 0, 0], "stateRewards": ["", 2, -1, 8, -2, -16, 69, -39, -7, -13, -27, -86, 2, -2, 2, 13, -34, -16, -20, -5, 19, 81, 32, -2, -1, 2, -14, 20, 80, 58, 4, 70, 12, 73], "withholdReward": false, "trial_id": "mdp_trial_13", "block": "test", "trialIndex": 16, "score": 73.2, "costs": -2.8, "simulationMode": [null, null, null, null, null], "rewards": [2, -1, 8, -2, 69], "path": ["0", "0", "1", "2", "3", "4", "6"], "rt": [6273, 160, 156, 230, 181], "actions": ["up", "up", "up", "right", "right"], "actionTimes": [7671, 8326, 8990, 9718, 10406], "queries": {"click": {"state": {"target": ["9", "6"], "time": [2346, 4498]}, "edge": {"target": [], "time": []}}, "mouseover": {"state": {"target": ["2", "8", "9", "6", "7"], "time": [1829, 1873, 2143, 4272, 6907]}, "edge": {"target": [], "time": []}}, "mouseout": {"state": {"target": ["14", "13", "12", "2", "8", "9", "6", "7", "26", "26", "23"], "time": [603, 655, 820, 1854, 2077, 2694, 6361, 17427, 17512, 17718, 17863]}, "edge": {"target": [], "time": []}}}, "displayed_time": "15.40", "trialTime": 18790, "trial_type": "mouselab-mdp", "trial_index": 27, "time_elapsed": 1606245, "internal_node_id": "0.0-6.0-1.0-12.0"}}, {"uniqueid": "w45781164:a67739858", "current_trial": 28, "dateTime": 1693482546660, "trialdata": {"revealed_states": [], "clicked_states": ["21", "16", "11", "29", "17", "5"], "num_clicks_accrued": [0, 0, 0, 0, 0, 0, 0, 0, 0, 0, 0, 0, 0], "stateRewards": ["", 1, 2, -3, -5, 66, -50, -47, -5, 1, 28, -27, 1, 1, -1, -6, 37, -25, 56, 1, -82, -66, -40, -1, -4, -7, 15, -61, -23, 26, 10, 14, -56, 29], "withholdReward": false, "trial_id": "mdp_trial_14", "block": "test", "trialIndex": 17, "score": 52.6, "costs": -8.4, "simulationMode": [null, null, null, null, null], "rewards": [1, 2, -3, -5, 66], "path": ["0", "0", "1", "2", "3", "4", "5"], "rt": [19402, 7, 144, 427, 149], "actions": ["up", "up", "up", "right", "up"], "actionTimes": [20696, 21197, 21854, 22790, 23446], "queries": {"click": {"state": {"target": ["21", "16", "11", "29", "17", "5"], "time": [2337, 5305, 8353, 11319, 15064, 17775]}, "edge": {"target": [], "time": []}}, "mouseover": {"state": {"target": ["0", "22", "19", "20", "21", "22", "14", "16", "4", "3", "11", "27", "26", "25", "29", "28", "15", "17", "17", "15", "15", "17", "17", "15", "3", "5", "4", "7", "18"], "time": [1739, 1788, 1807, 1824, 2128, 4603, 4764, 5071, 7807, 7892, 8162, 10451, 10503, 10619, 11075, 13497, 13544, 13564, 13818, 14303, 14463, 14498, 14918, 17087, 17347, 17560, 19918, 20003, 20102]}, "edge": {"target": [], "time": []}}, "mouseout": {"state": {"target": ["0", "0", "22", "19", "20", "21", "22", "14", "16", "4", "3", "11", "27", "26", "25", "29", "28", "15", "17", "17", "15", "15", "17", "17", "15", "3", "5", "4", "7", "18"], "time": [376, 1756, 1804, 1821, 1838, 4397, 4715, 4798, 5667, 7861, 7909, 10390, 10470, 10552, 10737, 13466, 13512, 13561, 13578, 14285, 14332, 14480, 14530, 17079, 17112, 17426, 19738, 19972, 20035, 20135]}, "edge": {"target": [], "time": []}}}, "displayed_time": "23.95", "trialTime": 25414, "trial_type": "mouselab-mdp", "trial_index": 28, "time_elapsed": 1632020, "internal_node_id": "0.0-6.0-1.0-13.0"}}, {"uniqueid": "w45781164:a67739858", "current_trial": 29, "dateTime": 1693482569221, "trialdata": {"revealed_states": [], "clicked_states": ["9", "32", "21"], "num_clicks_accrued": [0, 0, 0, 0, 0, 0, 0, 0, 0, 0, 0, 0, 0], "stateRewards": ["", -2, 1, 6, -2, -10, -78, -69, 14, -15, 7, -1, 1, -1, -2, 13, 77, 32, 87, 5, -74, 30, -26, 1, 3, 4, 12, 39, 54, -43, 2, 10, 23, 13], "withholdReward": false, "trial_id": "mdp_trial_15", "block": "test", "trialIndex": 18, "score": 28.8, "costs": -4.199999999999999, "simulationMode": [null, null, null, null, null], "rewards": [1, -1, -2, 5, 30], "path": ["0", "0", "12", "13", "14", "19", "21"], "rt": [9204, 158, 195, 302, 202], "actions": ["right", "right", "right", "down", "down"], "actionTimes": [10974, 11636, 12324, 13133, 13836], "queries": {"click": {"state": {"target": ["9", "32", "21"], "time": [2568, 4855, 7573]}, "edge": {"target": [], "time": []}}, "mouseover": {"state": {"target": ["1", "8", "9", "8", "10", "32", "21", "21", "20", "19"], "time": [2096, 2230, 2410, 3481, 3501, 3916, 7064, 7398, 10325, 10422]}, "edge": {"target": [], "time": []}}, "mouseout": {"state": {"target": ["1", "8", "9", "8", "10", "32", "21", "21", "20", "19"], "time": [2115, 2366, 3463, 3498, 3516, 6965, 7111, 9841, 10405, 15983]}, "edge": {"target": [], "time": []}}}, "displayed_time": "15.77", "trialTime": 22205, "trial_type": "mouselab-mdp", "trial_index": 29, "time_elapsed": 1654581, "internal_node_id": "0.0-6.0-1.0-14.0"}}, {"uniqueid": "w45781164:a67739858", "current_trial": 30, "dateTime": 1693482590552, "trialdata": {"revealed_states": [], "clicked_states": ["5", "29", "17", "20"], "num_clicks_accrued": [0, 0, 0, 0, 0, 0, 0, 0, 0, 0, 0, 0, 0], "stateRewards": ["", 2, 4, 7, 7, -79, -2, -21, -5, -53, 47, -21, 1, -3, -1, 7, 83, 7, 84, -7, 80, -37, 69, 2, -4, 5, 2, 4, -20, -30, 7, 71, 44, -81], "withholdReward": false, "trial_id": "mdp_trial_16", "block": "test", "trialIndex": 19, "score": 64.4, "costs": -5.6, "simulationMode": [null, null, null, null, null], "rewards": [1, -3, -1, -7, 80], "path": ["0", "0", "12", "13", "14", "19", "20"], "rt": [11870, 158, 225, 587, 804], "actions": ["right", "right", "right", "down", "right"], "actionTimes": [14111, 14772, 15492, 16572, 17876], "queries": {"click": {"state": {"target": ["5", "29", "17", "20"], "time": [3390, 6166, 8662, 11075]}, "edge": {"target": [], "time": []}}, "mouseover": {"state": {"target": ["7", "4", "5", "11", "27", "29", "17", "20", "21"], "time": [2877, 2955, 3189, 5469, 5783, 5967, 8325, 10888, 13116]}, "edge": {"target": [], "time": []}}, "mouseout": {"state": {"target": ["0", "0", "7", "4", "5", "11", "27", "29", "17", "20", "20", "21"], "time": [1085, 2693, 2913, 3129, 4461, 5720, 5798, 8108, 10692, 11154, 12878, 13297]}, "edge": {"target": [], "time": []}}}, "displayed_time": "18.38", "trialTime": 20971, "trial_type": "mouselab-mdp", "trial_index": 30, "time_elapsed": 1675913, "internal_node_id": "0.0-6.0-1.0-15.0"}}, {"uniqueid": "w45781164:a67739858", "current_trial": 31, "dateTime": 1693482609037, "trialdata": {"revealed_states": [], "clicked_states": ["11", "6", "5", "17"], "num_clicks_accrued": [0, 0, 0, 0, 0, 0, 0, 0, 0, 0, 0, 0, 0], "stateRewards": ["", -2, -4, 4, -11, -63, -60, -7, 2, -14, 81, -43, -1, -1, -5, 7, 10, 69, 40, 8, -83, 52, 60, 1, 2, 5, -5, 16, 64, 14, -3, 29, 7, -51], "withholdReward": false, "trial_id": "mdp_trial_17", "block": "test", "trialIndex": 20, "score": 63.4, "costs": -5.6, "simulationMode": [null, null, null, null, null], "rewards": [-1, -1, -5, 7, 69], "path": ["0", "0", "12", "13", "14", "15", "17"], "rt": [11355, 73, 230, 192, 74], "actions": ["right", "right", "right", "up", "right"], "actionTimes": [12676, 13242, 13970, 14666, 15234], "queries": {"click": {"state": {"target": ["11", "6", "5", "17"], "time": [2358, 4813, 7106, 9813]}, "edge": {"target": [], "time": []}}, "mouseover": {"state": {"target": ["1", "10", "11", "8", "3", "4", "6", "5", "15", "14", "17"], "time": [1900, 1997, 2130, 4287, 4319, 4386, 4608, 6890, 9219, 9238, 9594]}, "edge": {"target": [], "time": []}}, "mouseout": {"state": {"target": ["0", "0", "1", "10", "11", "8", "3", "4", "6", "5", "15", "14", "17", "20"], "time": [477, 895, 1938, 2065, 4274, 4305, 4353, 4541, 6667, 9140, 9236, 9253, 11748, 17919]}, "edge": {"target": [], "time": []}}}, "displayed_time": "15.74", "trialTime": 18139, "trial_type": "mouselab-mdp", "trial_index": 31, "time_elapsed": 1694397, "internal_node_id": "0.0-6.0-1.0-16.0"}}, {"uniqueid": "w45781164:a67739858", "current_trial": 32, "dateTime": 1693482629324, "trialdata": {"revealed_states": [], "clicked_states": ["17", "21", "9", "29"], "num_clicks_accrued": [0, 0, 0, 0, 0, 0, 0, 0, 0, 0, 0, 0, 0], "stateRewards": ["", 2, 2, 3, -15, 23, -14, 73, -7, -32, -20, -6, 1, 1, -5, -12, 73, 6, -84, 11, -81, -57, 13, -2, -1, -4, -8, -52, -58, 49, 13, 5, -41, -41], "withholdReward": false, "trial_id": "mdp_trial_18", "block": "test", "trialIndex": 21, "score": 28.4, "costs": -5.6, "simulationMode": [null, null, null, null, null], "rewards": [-2, -1, -4, -8, 49], "path": ["0", "0", "23", "24", "25", "26", "29"], "rt": [12227, 216, 127, 144, 48], "actions": ["left", "left", "left", "up", "left"], "actionTimes": [13721, 14439, 15071, 15727, 16278], "queries": {"click": {"state": {"target": ["17", "21", "9", "29"], "time": [3499, 5834, 8160, 10736]}, "edge": {"target": [], "time": []}}, "mouseover": {"state": {"target": ["18", "15", "17", "17", "20", "21", "19", "14", "13", "2", "8", "9", "11", "27", "26", "29", "26", "28"], "time": [2486, 2525, 2705, 3336, 5409, 5631, 6611, 7499, 7536, 7704, 7818, 8022, 9354, 10242, 10263, 10529, 11713, 11780]}, "edge": {"target": [], "time": []}}, "mouseout": {"state": {"target": ["0", "18", "15", "17", "17", "17", "20", "21", "19", "14", "13", "2", "8", "9", "9", "11", "27", "26", "29", "29", "26", "28", "28"], "time": [1222, 2509, 2563, 2837, 3515, 4154, 5476, 5904, 6662, 7532, 7552, 7720, 7935, 8187, 9071, 10191, 10259, 10292, 10818, 11629, 11747, 13051, 18875]}, "edge": {"target": [], "time": []}}}, "displayed_time": "16.80", "trialTime": 19895, "trial_type": "mouselab-mdp", "trial_index": 32, "time_elapsed": 1714684, "internal_node_id": "0.0-6.0-1.0-17.0"}}, {"uniqueid": "w45781164:a67739858", "current_trial": 33, "dateTime": 1693482647382, "trialdata": {"revealed_states": [], "clicked_states": ["31", "10"], "num_clicks_accrued": [0, 0, 0, 0, 0, 0, 0, 0, 0, 0, 0, 0, 0], "stateRewards": ["", 1, 2, 3, 16, 63, -25, 16, -4, -14, 82, -66, -1, -3, -3, -11, -14, 19, 46, 3, -34, -82, 66, -2, -3, 4, -5, -63, 77, -37, -1, -45, -41, 84], "withholdReward": false, "trial_id": "mdp_trial_19", "block": "test", "trialIndex": 22, "score": 81.2, "costs": -2.8, "simulationMode": [null, null, null, null, null], "rewards": [1, 2, 3, -4, 82], "path": ["0", "0", "1", "2", "3", "8", "10"], "rt": [6873, 53, 152, 351, 241], "actions": ["up", "up", "up", "left", "down"], "actionTimes": [7866, 8423, 9088, 9944, 10688], "queries": {"click": {"state": {"target": ["31", "10"], "time": [2621, 4827]}, "edge": {"target": [], "time": []}}, "mouseover": {"state": {"target": ["0", "23", "30", "31", "10", "2", "17"], "time": [1412, 1476, 1932, 2282, 3819, 5407, 7114]}, "edge": {"target": [], "time": []}}, "mouseout": {"state": {"target": ["0", "23", "30", "31", "31", "10", "2", "17"], "time": [1446, 1494, 2252, 2832, 3374, 5122, 6970, 7130]}, "edge": {"target": [], "time": []}}}, "displayed_time": "14.99", "trialTime": 17681, "trial_type": "mouselab-mdp", "trial_index": 33, "time_elapsed": 1732742, "internal_node_id": "0.0-6.0-1.0-18.0"}}, {"uniqueid": "w45781164:a67739858", "current_trial": 34, "dateTime": 1693482669237, "trialdata": {"revealed_states": [], "clicked_states": ["7"], "num_clicks_accrued": [0, 0, 0, 0, 0, 0, 0, 0, 0, 0, 0, 0, 0], "stateRewards": ["", -1, -3, -5, -14, -13, -47, 79, 8, -60, -64, 41, -1, 2, 3, 13, -46, 61, -79, -11, -64, -65, 23, 1, -2, 6, -14, 46, 32, 21, 7, 75, -66, 15], "withholdReward": false, "trial_id": "mdp_trial_20", "block": "test", "trialIndex": 23, "score": 54.6, "costs": -1.4, "simulationMode": [null, null, null, null, null], "rewards": [-1, -3, -5, -14, 79], "path": ["0", "0", "1", "2", "3", "4", "7"], "rt": [5335, 94, 2605, 366, 31], "actions": ["up", "up", "up", "right", "down"], "actionTimes": [9553, 10151, 13262, 14135, 14670], "queries": {"click": {"state": {"target": ["7"], "time": [6769]}, "edge": {"target": [], "time": []}}, "mouseover": {"state": {"target": ["28", "26", "26", "28", "10", "2", "7", "18"], "time": [4772, 4819, 5114, 5659, 6059, 6304, 6442, 8366]}, "edge": {"target": [], "time": []}}, "mouseout": {"state": {"target": ["17", "15", "18", "28", "26", "26", "28", "10", "2", "7", "18", "18"], "time": [793, 822, 854, 4789, 4943, 5494, 5962, 6280, 6341, 8265, 19740, 20613]}, "edge": {"target": [], "time": []}}}, "displayed_time": "18.22", "trialTime": 21471, "trial_type": "mouselab-mdp", "trial_index": 34, "time_elapsed": 1754597, "internal_node_id": "0.0-6.0-1.0-19.0"}}, {"uniqueid": "w45781164:a67739858", "current_trial": 35, "dateTime": 1693482701940, "trialdata": {"revealed_states": [], "clicked_states": ["18", "22", "10", "7", "9", "21", "20", "17"], "num_clicks_accrued": [0, 0, 0, 0, 0, 0, 0, 0, 0, 0, 0, 0, 0], "stateRewards": ["", -1, 3, 8, 9, -53, 20, -84, 2, -28, -62, -31, -1, -2, -7, 2, 51, 58, 45, -4, -17, -41, 36, 2, -2, -7, -15, 29, -54, -37, -16, -43, 65, -17], "withholdReward": false, "trial_id": "mdp_trial_21", "block": "test", "trialIndex": 24, "score": 38.8, "costs": -11.200000000000001, "simulationMode": [null, null, null, null, null], "rewards": [-1, -2, -7, 2, 58], "path": ["0", "0", "12", "13", "14", "15", "17"], "rt": [24686, 55, 553, 33, 227], "actions": ["right", "right", "right", "up", "right"], "actionTimes": [26231, 26787, 27852, 28387, 29116], "queries": {"click": {"state": {"target": ["18", "22", "10", "7", "9", "21", "20", "17"], "time": [3430, 5553, 8829, 11517, 14031, 18287, 20807, 23486]}, "edge": {"target": [], "time": []}}, "mouseover": {"state": {"target": ["12", "17", "15", "18", "13", "22", "13", "7", "2", "10", "27", "10", "2", "7", "3", "9", "7", "18", "13", "22", "22", "14", "14", "19", "21", "19", "20", "17", "14"], "time": [2112, 2464, 2721, 2886, 3967, 4103, 7632, 7696, 7729, 7829, 8320, 8518, 11029, 11176, 13583, 13689, 16362, 16443, 16667, 16728, 16980, 17113, 17263, 17733, 18117, 20442, 20629, 23239, 25613]}, "edge": {"target": [], "time": []}}, "mouseout": {"state": {"target": ["12", "17", "15", "18", "13", "22", "13", "7", "2", "10", "27", "10", "2", "7", "3", "9", "7", "18", "13", "22", "22", "14", "14", "19", "21", "19", "20", "20", "17", "14", "13"], "time": [2131, 2701, 2742, 3917, 4017, 7603, 7653, 7712, 7779, 7949, 8401, 10997, 11126, 13539, 13617, 16049, 16396, 16478, 16694, 16745, 16997, 17197, 17632, 18089, 20382, 20475, 22499, 22952, 25169, 25643, 31697]}, "edge": {"target": [], "time": []}}}, "displayed_time": "29.61", "trialTime": 32316, "trial_type": "mouselab-mdp", "trial_index": 35, "time_elapsed": 1787300, "internal_node_id": "0.0-6.0-1.0-20.0"}}, {"uniqueid": "w45781164:a67739858", "current_trial": 36, "dateTime": 1693482721348, "trialdata": {"revealed_states": [], "clicked_states": [], "num_clicks_accrued": [0, 0, 0, 0, 0, 0, 0, 0, 0, 0, 0, 0, 0], "stateRewards": ["", -2, -2, -3, -6, -15, -11, 41, -12, -63, -76, 2, -2, -3, 8, 9, -36, -2, -18, -16, -32, -85, -17, -2, 1, 5, -16, 82, 35, -88, -1, 80, -82, -20], "withholdReward": false, "trial_id": "mdp_trial_22", "block": "test", "trialIndex": 25, "score": -100, "costs": 0, "simulationMode": [null, null, null, null, null], "rewards": [-2, 1, 5, -16, -88], "path": ["0", "0", "23", "24", "25", "26", "29"], "rt": [7663, 513, 642, 613, 109], "actions": ["left", "left", "left", "up", "left"], "actionTimes": [8793, 9799, 10951, 12055, 12655], "queries": {"click": {"state": {"target": [], "time": []}, "edge": {"target": [], "time": []}}, "mouseover": {"state": {"target": ["1", "2", "4", "4", "7", "15", "18", "1", "28", "27", "27"], "time": [1556, 1623, 1876, 2377, 2461, 2865, 2928, 3028, 3297, 4048, 5174]}, "edge": {"target": [], "time": []}}, "mouseout": {"state": {"target": ["12", "0", "1", "2", "4", "4", "7", "15", "18", "1", "28", "27", "27", "7", "18"], "time": [538, 1488, 1594, 1793, 2147, 2427, 2661, 2890, 2978, 3044, 3954, 4568, 18186, 18216, 18304]}, "edge": {"target": [], "time": []}}}, "displayed_time": "15.13", "trialTime": 18991, "trial_type": "mouselab-mdp", "trial_index": 36, "time_elapsed": 1806708, "internal_node_id": "0.0-6.0-1.0-21.0"}}, {"uniqueid": "w45781164:a67739858", "current_trial": 37, "dateTime": 1693482740900, "trialdata": {"revealed_states": [], "clicked_states": ["7", "31", "29", "9"], "num_clicks_accrued": [0, 0, 0, 0, 0, 0, 0, 0, 0, 0, 0, 0, 0], "stateRewards": ["", 1, -4, -6, -1, -21, 17, -72, 10, 77, 67, -46, -1, 4, -2, 14, -66, -49, -45, -15, -52, 23, -67, 2, -2, -2, 15, -3, 45, -64, 5, -44, 83, 61], "withholdReward": false, "trial_id": "mdp_trial_23", "block": "test", "trialIndex": 26, "score": 72.4, "costs": -5.6, "simulationMode": [null, null, null, null, null], "rewards": [1, -4, -6, 10, 77], "path": ["0", "0", "1", "2", "3", "8", "9"], "rt": [12504, 273, 167, 347, 208], "actions": ["up", "up", "up", "left", "up"], "actionTimes": [13581, 14347, 15010, 15859, 16579], "queries": {"click": {"state": {"target": ["7", "31", "29", "9"], "time": [2629, 5462, 8035, 10519]}, "edge": {"target": [], "time": []}}, "mouseover": {"state": {"target": ["1", "2", "3", "4", "7", "18", "15", "14", "13", "31", "30", "33", "30", "31", "25", "26", "29", "26", "28", "10", "8", "9", "8", "10", "28", "26"], "time": [1468, 1644, 1981, 2132, 2420, 2983, 3084, 4510, 4588, 4679, 4716, 4738, 4992, 5224, 7535, 7702, 7902, 9960, 9982, 10007, 10196, 10379, 12184, 12669, 12753, 12816]}, "edge": {"target": [], "time": []}}, "mouseout": {"state": {"target": ["18", "12", "0", "1", "2", "3", "4", "7", "18", "15", "14", "13", "31", "30", "33", "30", "31", "25", "26", "29", "26", "28", "10", "8", "9", "8", "10", "28", "26"], "time": [358, 542, 1363, 1579, 1947, 2081, 2182, 2850, 3017, 3200, 4556, 4605, 4709, 4733, 4806, 5190, 7433, 7565, 7835, 9930, 9979, 9990, 10023, 10275, 12167, 12231, 12719, 12786, 18458]}, "edge": {"target": [], "time": []}}}, "displayed_time": "17.09", "trialTime": 19130, "trial_type": "mouselab-mdp", "trial_index": 37, "time_elapsed": 1826259, "internal_node_id": "0.0-6.0-1.0-22.0"}}, {"uniqueid": "w45781164:a67739858", "current_trial": 38, "dateTime": 1693482757788, "trialdata": {"revealed_states": [], "clicked_states": ["17"], "num_clicks_accrued": [0, 0, 0, 0, 0, 0, 0, 0, 0, 0, 0, 0, 0], "stateRewards": ["", -2, 3, -1, 2, -72, 63, 20, -1, 62, -66, 39, -2, 3, -6, 14, 22, 47, 1, 8, -49, -1, -41, 2, 2, -6, -16, -64, -60, -34, 16, 54, 22, -7], "withholdReward": false, "trial_id": "mdp_trial_24", "block": "test", "trialIndex": 27, "score": 54.6, "costs": -1.4, "simulationMode": [null, null, null, null, null], "rewards": [-2, 3, -6, 14, 47], "path": ["0", "0", "12", "13", "14", "15", "17"], "rt": [7849, 296, 173, 408, 66], "actions": ["right", "right", "right", "up", "right"], "actionTimes": [8956, 9749, 10427, 11333, 11892], "queries": {"click": {"state": {"target": ["17"], "time": [2359]}, "edge": {"target": [], "time": []}}, "mouseover": {"state": {"target": ["18", "15", "17", "20", "19", "13", "2", "10"], "time": [1677, 1739, 1940, 4500, 4903, 6512, 6591, 6691]}, "edge": {"target": [], "time": []}}, "mouseout": {"state": {"target": ["28", "23", "0", "18", "15", "17", "20", "19", "13", "2", "10", "7", "1"], "time": [31, 167, 435, 1709, 1807, 2759, 4672, 4951, 6535, 6662, 15442, 15486, 16175]}, "edge": {"target": [], "time": []}}}, "displayed_time": "15.11", "trialTime": 16444, "trial_type": "mouselab-mdp", "trial_index": 38, "time_elapsed": 1843147, "internal_node_id": "0.0-6.0-1.0-23.0"}}, {"uniqueid": "w45781164:a67739858", "current_trial": 39, "dateTime": 1693482779149, "trialdata": {"revealed_states": [], "clicked_states": ["29", "9"], "num_clicks_accrued": [0, 0, 0, 0, 0, 0, 0, 0, 0, 0, 0, 0, 0], "stateRewards": ["", -1, -1, 4, -16, -75, 81, -51, -7, -84, 73, -30, -2, 1, -3, -16, -77, 33, 14, 1, 45, 87, -66, 2, 2, -5, -7, -19, -17, 79, -3, 8, 49, 47], "withholdReward": false, "trial_id": "mdp_trial_25", "block": "test", "trialIndex": 28, "score": 68.2, "costs": -2.8, "simulationMode": [null, null, null, null, null], "rewards": [2, 2, -5, -7, 79], "path": ["0", "0", "23", "24", "25", "26", "29"], "rt": [6020, 157, 161, 157, 648], "actions": ["left", "left", "left", "up", "left"], "actionTimes": [9165, 9818, 10475, 11122, 12267], "queries": {"click": {"state": {"target": ["29", "9"], "time": [4176, 6020]}, "edge": {"target": [], "time": []}}, "mouseover": {"state": {"target": ["23", "26", "29", "26", "8", "9"], "time": [3504, 3712, 3947, 4535, 5044, 5178]}, "edge": {"target": [], "time": []}}, "mouseout": {"state": {"target": ["1", "23", "26", "29", "26", "8", "9"], "time": [515, 3521, 3774, 4475, 4609, 5077, 6448]}, "edge": {"target": [], "time": []}}}, "displayed_time": "17.14", "trialTime": 20939, "trial_type": "mouselab-mdp", "trial_index": 39, "time_elapsed": 1864509, "internal_node_id": "0.0-6.0-1.0-24.0"}}, {"uniqueid": "w45781164:a67739858", "current_trial": 40, "dateTime": 1693482797228, "trialdata": {"revealed_states": [], "clicked_states": ["17", "32", "27"], "num_clicks_accrued": [0, 0, 0, 0, 0, 0, 0, 0, 0, 0, 0, 0, 0], "stateRewards": ["", -1, 3, 2, 9, 41, 4, -46, -12, -54, -87, -25, 2, 3, -1, 11, -77, 12, -33, -9, -32, 35, 72, 1, 3, -7, 4, 37, 65, -73, 6, 77, -43, 8], "withholdReward": false, "trial_id": "mdp_trial_26", "block": "test", "trialIndex": 29, "score": 33.8, "costs": -4.199999999999999, "simulationMode": [null, null, null, null, null], "rewards": [1, 3, -7, 4, 37], "path": ["0", "0", "23", "24", "25", "26", "27"], "rt": [8216, 299, 165, 211, 160], "actions": ["left", "left", "left", "up", "up"], "actionTimes": [9680, 10478, 11141, 11861, 12525], "queries": {"click": {"state": {"target": ["17", "32", "27"], "time": [2589, 4840, 6857]}, "edge": {"target": [], "time": []}}, "mouseover": {"state": {"target": ["12", "15", "15", "17", "20", "22", "31", "32", "30", "25", "26", "27", "8", "3", "4", "6", "7"], "time": [1507, 1899, 2116, 2496, 3216, 3468, 3611, 3937, 5305, 5389, 5489, 5673, 7212, 7312, 7480, 7613, 7831]}, "edge": {"target": [], "time": []}}, "mouseout": {"state": {"target": ["3", "2", "1", "12", "15", "15", "17", "20", "22", "31", "32", "30", "25", "26", "27", "8", "3", "4", "6", "7", "10"], "time": [539, 772, 907, 1541, 1978, 2328, 3034, 3334, 3507, 3684, 4920, 5355, 5439, 5590, 7095, 7263, 7363, 7530, 7663, 9103, 16428]}, "edge": {"target": [], "time": []}}}, "displayed_time": "15.46", "trialTime": 17621, "trial_type": "mouselab-mdp", "trial_index": 40, "time_elapsed": 1882587, "internal_node_id": "0.0-6.0-1.0-25.0"}}, {"uniqueid": "w45781164:a67739858", "current_trial": 41, "dateTime": 1693482836763, "trialdata": {"revealed_states": [], "clicked_states": ["14", "20", "7", "9", "5", "33", "29"], "num_clicks_accrued": [0, 0, 0, 0, 0, 0, 0, 0, 0, 0, 0, 0, 0], "stateRewards": ["", -2, 1, -8, 12, -65, -79, 16, 7, -80, -17, -45, -2, 2, -5, -2, -85, 23, -4, -7, 48, 27, -76, 2, 3, 5, 2, 43, 71, -13, 7, -49, 59, -31], "withholdReward": false, "trial_id": "mdp_trial_27", "block": "test", "trialIndex": 30, "score": 26.2, "costs": -9.8, "simulationMode": [null, null, null, null, null], "rewards": [-2, 2, -5, -7, 48], "path": ["0", "0", "12", "13", "14", "19", "20"], "rt": [16804, 245, 192, 431, 122], "actions": ["right", "right", "right", "down", "right"], "actionTimes": [33388, 34137, 34841, 35776, 36409], "queries": {"click": {"state": {"target": ["14", "20", "7", "9", "5", "33", "29"], "time": [17690, 19713, 21773, 24216, 26133, 28131, 30340]}, "edge": {"target": [], "time": []}}, "mouseover": {"state": {"target": ["12", "13", "14", "19", "20", "16", "6", "7", "2", "10", "8", "9", "5", "3", "10", "28", "26", "33", "30", "31", "22", "31", "25", "29", "26", "24", "24", "25"], "time": [16936, 16982, 17180, 18135, 18219, 20492, 20660, 21028, 22316, 22650, 23152, 23803, 25376, 26597, 26748, 26965, 27032, 27350, 28403, 28922, 29156, 29643, 30003, 30075, 30680, 32356, 32519, 32603]}, "edge": {"target": [], "time": []}}, "mouseout": {"state": {"target": ["12", "13", "14", "19", "20", "16", "6", "7", "7", "2", "10", "8", "9", "5", "3", "10", "28", "26", "33", "30", "31", "22", "31", "25", "29", "26", "24", "24", "25", "29", "24", "23"], "time": [16964, 17099, 17867, 18185, 20091, 20577, 20894, 21854, 22115, 22550, 23068, 23319, 25192, 26464, 26664, 26798, 26998, 27083, 28194, 28604, 28972, 29323, 29981, 30028, 30572, 30695, 32468, 32567, 32637, 38394, 38424, 38546]}, "edge": {"target": [], "time": []}}}, "displayed_time": "36.90", "trialTime": 39112, "trial_type": "mouselab-mdp", "trial_index": 41, "time_elapsed": 1922123, "internal_node_id": "0.0-6.0-1.0-26.0"}}, {"uniqueid": "w45781164:a67739858", "current_trial": 42, "dateTime": 1693482869843, "trialdata": {"revealed_states": [], "clicked_states": ["7", "31", "22", "10", "28", "27", "29", "5", "9", "6", "11"], "num_clicks_accrued": [0, 0, 0, 0, 0, 0, 0, 0, 0, 0, 0, 0, 0], "stateRewards": ["", -2, 4, -7, -3, -76, 39, -28, 10, 14, 12, 60, 2, -3, 6, -10, 88, -34, -41, -3, 72, -13, -56, 1, 3, 2, 8, -51, 23, -57, 1, 14, -46, -16], "withholdReward": false, "trial_id": "mdp_trial_28", "block": "test", "trialIndex": 31, "score": 49.599999999999994, "costs": -15.400000000000002, "simulationMode": [null, null, null, null, null], "rewards": [-2, 4, -7, 10, 60], "path": ["0", "0", "1", "2", "3", "8", "11"], "rt": [25840, 314, 145, 505, 60], "actions": ["up", "up", "up", "left", "left"], "actionTimes": [27123, 27936, 28592, 29600, 30159], "queries": {"click": {"state": {"target": ["7", "31", "22", "10", "28", "27", "29", "5", "9", "6", "11"], "time": [2716, 4803, 6883, 8844, 11147, 13410, 15426, 17460, 19516, 22063, 24187]}, "edge": {"target": [], "time": []}}, "mouseover": {"state": {"target": ["18", "15", "17", "16", "7", "2", "29", "25", "31", "22", "19", "20", "19", "22", "13", "18", "2", "10", "26", "28", "27", "27", "29", "26", "10", "3", "5", "4", "3", "9", "6", "3", "8", "11", "8", "8"], "time": [1737, 1780, 1815, 2183, 2522, 3137, 3236, 3604, 3939, 5160, 5196, 5595, 5795, 5896, 7334, 7434, 7903, 8053, 9620, 9792, 11649, 13206, 13941, 15747, 15830, 15863, 16248, 17904, 19024, 19208, 21907, 23155, 23222, 23289, 24544, 24896]}, "edge": {"target": [], "time": []}}, "mouseout": {"state": {"target": ["23", "0", "18", "15", "17", "16", "7", "7", "2", "29", "25", "31", "22", "19", "20", "19", "22", "13", "18", "2", "10", "26", "28", "27", "27", "29", "26", "10", "3", "5", "4", "3", "9", "9", "6", "3", "8", "11", "8", "8", "11"], "time": [480, 929, 1771, 1798, 2100, 2216, 2788, 3120, 3155, 3337, 3656, 5043, 5177, 5394, 5762, 5845, 7150, 7418, 7475, 7986, 9190, 9759, 11347, 13156, 13823, 15680, 15780, 15847, 15897, 17737, 18991, 19058, 19569, 19794, 23088, 23205, 23255, 24494, 24627, 24979, 32038]}, "edge": {"target": [], "time": []}}}, "displayed_time": "30.67", "trialTime": 32608, "trial_type": "mouselab-mdp", "trial_index": 42, "time_elapsed": 1955203, "internal_node_id": "0.0-6.0-1.0-27.0"}}, {"uniqueid": "w45781164:a67739858", "current_trial": 43, "dateTime": 1693482892289, "trialdata": {"revealed_states": [], "clicked_states": ["17", "6", "2", "10", "28"], "num_clicks_accrued": [0, 0, 0, 0, 0, 0, 0, 0, 0, 0, 0, 0, 0], "stateRewards": ["", 1, 1, 7, -11, 80, -20, -53, -14, 3, 31, 27, 2, -1, -8, -10, 33, 41, 86, 9, 78, -37, -13, -1, -2, -6, -8, -80, 75, 4, -16, -49, -74, 24], "withholdReward": false, "trial_id": "mdp_trial_29", "block": "test", "trialIndex": 32, "score": 51, "costs": -7, "simulationMode": [null, null, null, null, null], "rewards": [-1, -2, -6, -8, 75], "path": ["0", "0", "23", "24", "25", "26", "28"], "rt": [14351, 186, 181, 225, 239], "actions": ["left", "left", "left", "up", "right"], "actionTimes": [15842, 16530, 17210, 17946, 18690], "queries": {"click": {"state": {"target": ["17", "6", "2", "10", "28"], "time": [2725, 4723, 7076, 9156, 13006]}, "edge": {"target": [], "time": []}}, "mouseover": {"state": {"target": ["13", "14", "17", "15", "16", "6", "5", "4", "6", "7", "2", "10", "7", "11", "11", "27", "28"], "time": [2140, 2241, 2526, 3061, 3162, 3212, 3564, 3810, 4065, 6408, 6824, 7847, 11407, 11815, 11999, 12310, 12614]}, "edge": {"target": [], "time": []}}, "mouseout": {"state": {"target": ["0", "13", "14", "17", "15", "16", "6", "5", "4", "6", "6", "7", "2", "10", "2", "7", "11", "11", "27", "28", "28"], "time": [2041, 2207, 2328, 3012, 3078, 3179, 3245, 3731, 3898, 4792, 5621, 6794, 7845, 11340, 11390, 11596, 11893, 12263, 12484, 13075, 20580]}, "edge": {"target": [], "time": []}}}, "displayed_time": "19.19", "trialTime": 22014, "trial_type": "mouselab-mdp", "trial_index": 43, "time_elapsed": 1977648, "internal_node_id": "0.0-6.0-1.0-28.0"}}, {"uniqueid": "w45781164:a67739858", "current_trial": 44, "dateTime": 1693482912084, "trialdata": {"revealed_states": [], "clicked_states": ["22", "31", "28"], "num_clicks_accrued": [0, 0, 0, 0, 0, 0, 0, 0, 0, 0, 0, 0, 0], "stateRewards": ["", -1, -2, 8, -6, -79, -6, 87, 9, -5, -66, -38, 2, 2, 5, -6, -82, 74, 85, -8, 67, -30, -15, 1, -2, -2, -2, 87, 64, 49, 7, 2, -38, -9], "withholdReward": false, "trial_id": "mdp_trial_30", "block": "test", "trialIndex": 33, "score": 54.8, "costs": -4.199999999999999, "simulationMode": [null, null, null, null, null], "rewards": [1, -2, -2, -2, 64], "path": ["0", "0", "23", "24", "25", "26", "28"], "rt": [9818, 4, 312, 831, 167], "actions": ["left", "left", "left", "up", "right"], "actionTimes": [13358, 13858, 14686, 16022, 16694], "queries": {"click": {"state": {"target": ["22", "31", "28"], "time": [5225, 8063, 10288]}, "edge": {"target": [], "time": []}}, "mouseover": {"state": {"target": ["12", "17", "20", "19", "22", "31", "30", "30", "31", "25", "28", "10", "10", "10"], "time": [3988, 4084, 4501, 4837, 4969, 7262, 7284, 7588, 7797, 9050, 10141, 12145, 12450, 12645]}, "edge": {"target": [], "time": []}}, "mouseout": {"state": {"target": ["24", "23", "0", "0", "12", "17", "20", "19", "22", "31", "30", "30", "31", "25", "28", "10", "10", "10", "10"], "time": [317, 521, 621, 3663, 4019, 4303, 4521, 4936, 7178, 7279, 7326, 7646, 8832, 9905, 11981, 12289, 12531, 18942, 19088]}, "edge": {"target": [], "time": []}}}, "displayed_time": "17.54", "trialTime": 19366, "trial_type": "mouselab-mdp", "trial_index": 44, "time_elapsed": 1997444, "internal_node_id": "0.0-6.0-1.0-29.0"}}, {"uniqueid": "w45781164:a67739858", "current_trial": 45, "dateTime": 1693482932516, "trialdata": {"revealed_states": [], "clicked_states": ["17"], "num_clicks_accrued": [0, 0, 0, 0, 0, 0, 0, 0, 0, 0, 0, 0, 0], "stateRewards": ["", -1, -4, -6, -15, 21, -67, -63, 9, 51, 69, -14, -1, 3, 8, -8, 39, 72, 63, 15, 19, 47, 15, 1, 4, 5, 16, -18, 34, 35, -14, -80, 40, 1], "withholdReward": false, "trial_id": "mdp_trial_31", "block": "test", "trialIndex": 34, "score": 72.6, "costs": -1.4, "simulationMode": [null, null, null, null, null], "rewards": [-1, 3, 8, -8, 72], "path": ["0", "0", "12", "13", "14", "15", "17"], "rt": [4761, 447, 191, 248, 166], "actions": ["right", "right", "right", "up", "right"], "actionTimes": [5992, 6944, 7640, 8384, 9055], "queries": {"click": {"state": {"target": ["17"], "time": [2891]}, "edge": {"target": [], "time": []}}, "mouseover": {"state": {"target": ["12", "13", "17", "16"], "time": [2280, 2331, 2668, 3668]}, "edge": {"target": [], "time": []}}, "mouseout": {"state": {"target": ["10", "0", "0", "12", "13", "17", "16", "12"], "time": [347, 591, 2235, 2313, 2346, 3461, 3685, 19274]}, "edge": {"target": [], "time": []}}}, "displayed_time": "15.23", "trialTime": 20016, "trial_type": "mouselab-mdp", "trial_index": 45, "time_elapsed": 2017876, "internal_node_id": "0.0-6.0-1.0-30.0"}}, {"uniqueid": "w45781164:a67739858", "current_trial": 46, "dateTime": 1693482958859, "trialdata": {"revealed_states": [], "clicked_states": ["7", "10", "27", "29", "31", "32", "21"], "num_clicks_accrued": [0, 0, 0, 0, 0, 0, 0, 0, 0, 0, 0, 0, 0], "stateRewards": ["", -2, 2, -5, -6, 10, -66, -58, -10, -11, -63, -70, -1, -4, -5, 7, 66, -64, -43, -3, 45, -37, 4, -2, -2, -6, -4, -30, 33, 43, 15, -32, -65, -59], "withholdReward": false, "trial_id": "mdp_trial_32", "block": "test", "trialIndex": 35, "score": 19.2, "costs": -9.8, "simulationMode": [null, null, null, null, null], "rewards": [-2, -2, -6, -4, 43], "path": ["0", "0", "23", "24", "25", "26", "29"], "rt": [17913, 167, 117, 175, 10], "actions": ["left", "left", "left", "up", "left"], "actionTimes": [19300, 19971, 20595, 21267, 21770], "queries": {"click": {"state": {"target": ["7", "10", "27", "29", "31", "32", "21"], "time": [3356, 5270, 7140, 9093, 11285, 13818, 16445]}, "edge": {"target": [], "time": []}}, "mouseover": {"state": {"target": ["17", "7", "7", "7", "2", "10", "11", "27", "26", "29", "25", "30", "31", "32", "21", "21", "23"], "time": [2342, 2604, 2915, 3165, 4231, 4382, 5619, 6238, 7526, 7710, 9549, 9600, 10001, 13720, 15937, 16307, 18870]}, "edge": {"target": [], "time": []}}, "mouseout": {"state": {"target": ["17", "7", "7", "7", "2", "10", "11", "27", "26", "29", "25", "30", "31", "32", "31", "21", "21", "23"], "time": [2375, 2761, 2992, 4183, 4315, 5435, 5750, 7425, 7543, 9483, 9566, 9785, 13296, 13889, 15252, 15971, 18536, 25293]}, "edge": {"target": [], "time": []}}}, "displayed_time": "22.28", "trialTime": 25899, "trial_type": "mouselab-mdp", "trial_index": 46, "time_elapsed": 2044219, "internal_node_id": "0.0-6.0-1.0-31.0"}}, {"uniqueid": "w45781164:a67739858", "current_trial": 47, "dateTime": 1693482977412, "trialdata": {"revealed_states": [], "clicked_states": ["17", "5", "9"], "num_clicks_accrued": [0, 0, 0, 0, 0, 0, 0, 0, 0, 0, 0, 0, 0], "stateRewards": ["", -2, 2, -1, -6, 22, 6, 6, -5, 70, -42, 65, 1, 3, 5, -6, -67, -9, 3, 14, 7, -62, -13, -2, 4, 1, 16, 42, -21, -52, -8, 32, 53, 81], "withholdReward": false, "trial_id": "mdp_trial_33", "block": "test", "trialIndex": 36, "score": 59.8, "costs": -4.199999999999999, "simulationMode": [null, null, null, null, null], "rewards": [-2, 2, -1, -5, 70], "path": ["0", "0", "1", "2", "3", "8", "9"], "rt": [8983, 127, 85, 435, 395], "actions": ["up", "up", "up", "left", "up"], "actionTimes": [10478, 11102, 11694, 12630, 13526], "queries": {"click": {"state": {"target": ["17", "5", "9"], "time": [2748, 5283, 7529]}, "edge": {"target": [], "time": []}}, "mouseover": {"state": {"target": ["12", "15", "17", "15", "15", "6", "6", "5", "9", "28", "26", "29"], "time": [2130, 2224, 2511, 3194, 3713, 4368, 4685, 5054, 7244, 8178, 8262, 8530]}, "edge": {"target": [], "time": []}}, "mouseout": {"state": {"target": ["12", "0", "12", "15", "17", "15", "15", "6", "6", "5", "5", "9", "9", "28", "26", "29", "26", "24", "24", "31"], "time": [937, 2075, 2152, 2443, 3078, 3312, 4319, 4434, 4889, 5821, 6906, 7643, 7944, 8195, 8379, 17233, 17278, 17366, 17410, 17461]}, "edge": {"target": [], "time": []}}}, "displayed_time": "15.50", "trialTime": 18111, "trial_type": "mouselab-mdp", "trial_index": 47, "time_elapsed": 2062771, "internal_node_id": "0.0-6.0-1.0-32.0"}}, {"uniqueid": "w45781164:a67739858", "current_trial": 48, "dateTime": 1693483032853, "trialdata": {"revealed_states": [], "clicked_states": ["17", "21", "31"], "num_clicks_accrued": [0, 0, 0, 0, 0, 0, 0, 0, 0, 0, 0, 0, 0], "stateRewards": ["", 2, -3, -5, 5, 11, -9, -33, 6, 67, 6, -30, -1, -2, -6, 13, 55, 13, 72, -14, 75, 21, -66, -2, -4, 6, 15, -1, -35, 60, 2, 51, -73, 12], "withholdReward": false, "trial_id": "mdp_trial_34", "block": "test", "trialIndex": 37, "score": 48.8, "costs": -4.199999999999999, "simulationMode": [null, null, null, null, null], "rewards": [-2, -4, 6, 2, 51], "path": ["0", "0", "23", "24", "25", "30", "31"], "rt": [8860, 145, 221, 573, 175], "actions": ["left", "left", "left", "down", "right"], "actionTimes": [10023, 10671, 11383, 12455, 13127], "queries": {"click": {"state": {"target": ["17", "21", "31"], "time": [3471, 5378, 7241]}, "edge": {"target": [], "time": []}}, "mouseover": {"state": {"target": ["0", "15", "17", "20", "21", "30", "31", "25", "29"], "time": [2699, 2966, 3321, 4220, 4521, 6377, 6577, 8016, 8569]}, "edge": {"target": [], "time": []}}, "mouseout": {"state": {"target": ["0", "0", "15", "17", "17", "20", "21", "30", "31", "25", "29", "26", "13"], "time": [2549, 2917, 2983, 3574, 4103, 4354, 5825, 6528, 7915, 8184, 14227, 14270, 53363]}, "edge": {"target": [], "time": []}}}, "displayed_time": "15.17", "trialTime": 55008, "trial_type": "mouselab-mdp", "trial_index": 48, "time_elapsed": 2118213, "internal_node_id": "0.0-6.0-1.0-33.0"}}, {"uniqueid": "w45781164:a67739858", "current_trial": 49, "dateTime": 1693483056212, "trialdata": {"revealed_states": [], "clicked_states": ["17", "20", "32"], "num_clicks_accrued": [0, 0, 0, 0, 0, 0, 0, 0, 0, 0, 0, 0, 0], "stateRewards": ["", -1, 2, 6, 11, 21, -21, -21, -6, 48, -71, 88, -1, -3, 3, 7, 64, 2, 9, -4, 37, -67, 72, 2, 2, -8, -8, -10, 71, -40, -3, 73, 80, 47], "withholdReward": false, "trial_id": "mdp_trial_35", "block": "test", "trialIndex": 38, "score": 68.8, "costs": -4.199999999999999, "simulationMode": [null, null, null, null, null], "rewards": [2, 2, -8, -3, 80], "path": ["0", "0", "23", "24", "25", "30", "32"], "rt": [8289, 233, 168, 199, 173], "actions": ["left", "left", "left", "down", "down"], "actionTimes": [9162, 9889, 10561, 11265, 11937], "queries": {"click": {"state": {"target": ["17", "20", "32"], "time": [2037, 3957, 6117]}, "edge": {"target": [], "time": []}}, "mouseover": {"state": {"target": ["15", "17", "20", "19", "31", "32", "30", "25", "26", "26", "30"], "time": [1377, 1715, 2581, 4169, 4821, 5039, 7180, 7230, 7373, 8134, 8319]}, "edge": {"target": [], "time": []}}, "mouseout": {"state": {"target": ["12", "15", "17", "20", "19", "31", "32", "30", "25", "26", "26", "30", "30"], "time": [223, 1464, 2463, 4136, 4220, 4939, 7130, 7214, 7280, 7564, 8166, 8434, 17033]}, "edge": {"target": [], "time": []}}}, "displayed_time": "14.88", "trialTime": 22874, "trial_type": "mouselab-mdp", "trial_index": 49, "time_elapsed": 2141572, "internal_node_id": "0.0-6.0-1.0-34.0"}}, {"uniqueid": "w45781164:a67739858", "current_trial": 50, "dateTime": 1693483078228, "trialdata": {"revealed_states": [], "clicked_states": ["17", "5"], "num_clicks_accrued": [0, 0, 0, 0, 0, 0, 0, 0, 0, 0, 0, 0, 0], "stateRewards": ["", -1, 2, -2, 5, 80, -61, -27, 12, 44, -26, -75, -2, -4, 1, -16, 42, -49, -50, 4, -44, 2, 80, -2, -2, 5, -2, 59, 10, 24, 7, -48, -86, -44], "withholdReward": false, "trial_id": "mdp_trial_36", "block": "test", "trialIndex": 39, "score": 81.2, "costs": -2.8, "simulationMode": [null, null, null, null, null], "rewards": [-1, 2, -2, 5, 80], "path": ["0", "0", "1", "2", "3", "4", "5"], "rt": [5644, 87, 108, 275, 225], "actions": ["up", "up", "up", "right", "up"], "actionTimes": [9503, 10087, 10695, 11463, 12182], "queries": {"click": {"state": {"target": ["17", "5"], "time": [4883, 6827]}, "edge": {"target": [], "time": []}}, "mouseover": {"state": {"target": ["0", "12", "17", "15", "16", "6", "4", "5", "9", "9"], "time": [4072, 4338, 4649, 5409, 5751, 5935, 6019, 6170, 7406, 7557]}, "edge": {"target": [], "time": []}}, "mouseout": {"state": {"target": ["0", "0", "12", "17", "15", "16", "6", "4", "5", "9", "9", "3", "2", "1", "12", "13"], "time": [2639, 4315, 4362, 5283, 5535, 5801, 5987, 6086, 7107, 7457, 14370, 14651, 15725, 15803, 15871, 17243]}, "edge": {"target": [], "time": []}}}, "displayed_time": "17.86", "trialTime": 21552, "trial_type": "mouselab-mdp", "trial_index": 50, "time_elapsed": 2163588, "internal_node_id": "0.0-6.0-1.0-35.0"}}, {"uniqueid": "w45781164:a67739858", "current_trial": 51, "dateTime": 1693483095180, "trialdata": {"revealed_states": [], "clicked_states": ["9", "11", "5"], "num_clicks_accrued": [0, 0, 0, 0, 0, 0, 0, 0, 0, 0, 0, 0, 0], "stateRewards": ["", -2, -3, 1, -7, 39, -67, 16, 5, -20, 73, 66, -1, 4, 5, -3, 23, -68, -87, -8, 3, -3, 17, 1, -4, -2, -13, -32, 34, 61, -5, -11, -18, 12], "withholdReward": false, "trial_id": "mdp_trial_37", "block": "test", "trialIndex": 40, "score": 62.8, "costs": -4.199999999999999, "simulationMode": [null, null, null, null, null], "rewards": [-2, -3, 1, 5, 66], "path": ["0", "0", "1", "2", "3", "8", "11"], "rt": [8786, 216, 167, 107, 105], "actions": ["up", "up", "up", "left", "left"], "actionTimes": [10131, 10850, 11522, 12129, 12729], "queries": {"click": {"state": {"target": ["9", "11", "5"], "time": [2596, 5133, 7235]}, "edge": {"target": [], "time": []}}, "mouseover": {"state": {"target": ["1", "2", "3", "9", "11", "8", "3", "4", "5", "8"], "time": [1953, 2003, 2068, 2336, 3843, 5447, 5481, 5565, 5895, 8324]}, "edge": {"target": [], "time": []}}, "mouseout": {"state": {"target": ["12", "0", "1", "2", "3", "9", "11", "8", "3", "4", "5", "8", "1"], "time": [652, 1805, 1985, 2035, 2204, 3006, 5414, 5464, 5515, 5581, 7538, 13372, 15684]}, "edge": {"target": [], "time": []}}}, "displayed_time": "15.35", "trialTime": 16474, "trial_type": "mouselab-mdp", "trial_index": 51, "time_elapsed": 2180539, "internal_node_id": "0.0-6.0-1.0-36.0"}}, {"uniqueid": "w45781164:a67739858", "current_trial": 52, "dateTime": 1693483118540, "trialdata": {"revealed_states": [], "clicked_states": ["17", "27", "32", "21", "6", "9"], "num_clicks_accrued": [0, 0, 0, 0, 0, 0, 0, 0, 0, 0, 0, 0, 0], "stateRewards": ["", 1, 4, -4, 14, 35, 51, 19, -13, 54, 78, -74, -2, -1, -3, 13, -11, -42, -73, -15, -24, -3, -69, 2, -1, 5, 16, -27, 73, 58, 9, -60, 5, -60], "withholdReward": false, "trial_id": "mdp_trial_38", "block": "test", "trialIndex": 41, "score": 33.6, "costs": -8.4, "simulationMode": [null, null, null, null, null], "rewards": [1, 4, -4, -13, 54], "path": ["0", "0", "1", "2", "3", "8", "9"], "rt": [15175, 324, 31, 111, 173], "actions": ["up", "up", "up", "left", "up"], "actionTimes": [16953, 17777, 18320, 18929, 19593], "queries": {"click": {"state": {"target": ["17", "27", "32", "21", "6", "9"], "time": [3156, 5181, 7235, 9227, 11493, 13892]}, "edge": {"target": [], "time": []}}, "mouseover": {"state": {"target": ["12", "13", "14", "17", "15", "18", "1", "29", "27", "26", "25", "31", "32", "21", "19", "14", "15", "6", "5", "9", "5"], "time": [2511, 2544, 2562, 2829, 3530, 3549, 3566, 3697, 4383, 5620, 5771, 6005, 6832, 7678, 9685, 9770, 9819, 10321, 12394, 13731, 14387]}, "edge": {"target": [], "time": []}}, "mouseout": {"state": {"target": ["31", "13", "12", "12", "13", "14", "17", "17", "15", "18", "1", "29", "27", "26", "25", "31", "32", "21", "19", "14", "15", "6", "5", "9", "5"], "time": [603, 1005, 1142, 2528, 2560, 2577, 3221, 3513, 3547, 3563, 3580, 4048, 5437, 5738, 5821, 6490, 7544, 9586, 9736, 9802, 9870, 12110, 13232, 14184, 22051]}, "edge": {"target": [], "time": []}}}, "displayed_time": "20.09", "trialTime": 22881, "trial_type": "mouselab-mdp", "trial_index": 52, "time_elapsed": 2203899, "internal_node_id": "0.0-6.0-1.0-37.0"}}, {"uniqueid": "w45781164:a67739858", "current_trial": 53, "dateTime": 1693483141140, "trialdata": {"revealed_states": [], "clicked_states": ["6", "7", "10"], "num_clicks_accrued": [0, 0, 0, 0, 0, 0, 0, 0, 0, 0, 0, 0, 0], "stateRewards": ["", 1, 4, 5, 8, -55, -11, 8, 16, -37, 77, -22, -2, 3, -8, -10, 45, 87, -67, 4, 17, -33, -22, -1, -3, 7, 6, -39, -85, 75, -1, 7, -48, 45], "withholdReward": false, "trial_id": "mdp_trial_39", "block": "test", "trialIndex": 42, "score": 98.8, "costs": -4.199999999999999, "simulationMode": [null, null, null, null, null], "rewards": [1, 4, 5, 16, 77], "path": ["0", "0", "1", "2", "3", "8", "10"], "rt": [7917, 126, 237, 318, 154], "actions": ["up", "up", "up", "left", "down"], "actionTimes": [13044, 13683, 14419, 15236, 15891], "queries": {"click": {"state": {"target": ["6", "7", "10"], "time": [6468, 8319, 10143]}, "edge": {"target": [], "time": []}}, "mouseover": {"state": {"target": ["7", "4", "6", "4", "7", "2", "10", "28", "28", "28"], "time": [5703, 5922, 6236, 6872, 7106, 8612, 9180, 10785, 11053, 12440]}, "edge": {"target": [], "time": []}}, "mouseout": {"state": {"target": ["17", "15", "12", "7", "4", "6", "4", "7", "2", "10", "28", "28", "28", "24"], "time": [2525, 2556, 2694, 5817, 6169, 6755, 6905, 8561, 8996, 10669, 10853, 12360, 16895, 20954]}, "edge": {"target": [], "time": []}}}, "displayed_time": "19.13", "trialTime": 22163, "trial_type": "mouselab-mdp", "trial_index": 53, "time_elapsed": 2226499, "internal_node_id": "0.0-6.0-1.0-38.0"}}, {"uniqueid": "w45781164:a67739858", "current_trial": 54, "dateTime": 1693483160052, "trialdata": {"revealed_states": [], "clicked_states": ["18", "27", "31", "32"], "num_clicks_accrued": [0, 0, 0, 0, 0, 0, 0, 0, 0, 0, 0, 0, 0], "stateRewards": ["", 2, -1, -1, -9, -81, -30, 55, -6, 78, 25, 62, 2, 4, -1, 9, -85, 1, -19, 1, -60, 12, -34, 1, 4, -1, -13, -24, -16, -83, -8, 16, 43, 9], "withholdReward": false, "trial_id": "mdp_trial_40", "block": "test", "trialIndex": 43, "score": 33.4, "costs": -5.6, "simulationMode": [null, null, null, null, null], "rewards": [1, 4, -1, -8, 43], "path": ["0", "0", "23", "24", "25", "30", "32"], "rt": [11850, 429, 128, 57, 116], "actions": ["left", "left", "left", "down", "down"], "actionTimes": [13155, 14092, 14724, 15299, 15916], "queries": {"click": {"state": {"target": ["18", "27", "31", "32"], "time": [2494, 5231, 7732, 10152]}, "edge": {"target": [], "time": []}}, "mouseover": {"state": {"target": ["18", "29", "26", "27", "28", "24", "31", "32"], "time": [2238, 4762, 4826, 5080, 7219, 7353, 7554, 9929]}, "edge": {"target": [], "time": []}}, "mouseout": {"state": {"target": ["23", "0", "18", "29", "26", "27", "28", "24", "31", "32"], "time": [547, 1684, 4445, 4794, 4860, 7170, 7308, 7491, 9778, 10598]}, "edge": {"target": [], "time": []}}}, "displayed_time": "16.42", "trialTime": 18476, "trial_type": "mouselab-mdp", "trial_index": 54, "time_elapsed": 2245411, "internal_node_id": "0.0-6.0-1.0-39.0"}}, {"uniqueid": "w45781164:a67739858", "current_trial": 55, "dateTime": 1693483500062, "trialdata": {"rt": 339996, "response": {"Q0": "$-88 to $88", "Q1": "$-4 to $4", "Q2": "$-32 to $32", "Q3": "The cost for clicking on nodes varied between nodes.", "Q4": "Very motivated"}, "question_order": [0, 1, 2, 3, 4], "trial_id": "final_quiz_control", "trial_type": "survey-multi-choice", "trial_index": 55, "time_elapsed": 2585423, "internal_node_id": "0.0-6.0-2.0"}}, {"uniqueid": "w45781164:a67739858", "current_trial": 56, "dateTime": 1693483925045, "trialdata": {"rt": 424961, "response": {"Q0": "I first start by selecting the nodes that are furtherest from the spider . Then navigate in a circular way.", "Q1": "I did not improve it because the structure of the game kept changing.", "Q2": "The change of numbers inside the nodes made it difficult. "}, "trial_id": "self_report_control", "trial_type": "survey-text", "trial_index": 56, "time_elapsed": 3010406, "internal_node_id": "0.0-6.0-3.0"}}, {"uniqueid": "w45781164:a67739858", "current_trial": 57, "dateTime": 1693483998810, "trialdata": {"rt": 73760, "response": {"gender": "male", "age": "23", "colorblind": "0", "effort": "0"}, "trial_type": "survey-html-form", "trial_index": 57, "time_elapsed": 3084171, "internal_node_id": "0.0-6.0-4.0"}}, {"uniqueid": "w45781164:a67739858", "current_trial": 58, "dateTime": 1693484261700, "trialdata": {"rt": 262884, "response": {"Q0": "Not at all .", "Q1": "i could not remember", "Q2": "No comment"}, "trial_type": "survey-text", "trial_index": 58, "time_elapsed": 3347061, "internal_node_id": "0.0-6.0-5.0"}}, {"uniqueid": "w45781164:a67739858", "current_trial": 59, "dateTime": 1693484295988, "trialdata": {"rt": 34285, "stimulus": "<h1>Completion Code Instructions (1/2)</h1>\n<br><br><br><br>\nYou have reached the end of the experiment! The completion code consists of two parts: (1) a code with 2 characters (2) a code with 6 characters. On this page, you will receive the second part of the code. The first part of the completion code will be on the next page.\n<br><br>\nThe second part of your completion code is: <b>EWEK22</b>\n<br><br>\nPlease note this down. Then, press 'Finish HIT' in order to find the first part of your completion code. Once the data has been saved, you will receive this code either in this window or in the original browser window where you started the experiment.\n", "response": 0, "trial_type": "html-button-response", "trial_index": 59, "time_elapsed": 3381349, "internal_node_id": "0.0-6.0-6.0"}}, {"uniqueid": "w45781164:a67739858", "current_trial": 60, "dateTime": 1693484296992, "trialdata": {"success": true, "trial_type": "fullscreen", "trial_index": 60, "time_elapsed": 3382353, "internal_node_id": "0.0-7.0"}}], "questiondata": {"params": {"CODE": "C6DMOQA6", "MIN_TIME": 14, "inspectCost": 1, "startTime": "Thu Aug 31 2023 13:21:51 GMT+0200 (South Africa Standard Time)", "bonusRate": 0.002, "variance": "1_2_4_8_44", "branching": "31123"}, "final_score": 1993.4}, "eventdata": [{"eventtype": "initialized", "value": null, "timestamp": 1693480911103, "interval": 0}, {"eventtype": "window_resize", "value": [1024, 646], "timestamp": 1693480911103, "interval": 0}, {"eventtype": "window_resize", "value": [1366, 662], "timestamp": 1693480911634, "interval": 531}, {"eventtype": "window_resize", "value": [1366, 768], "timestamp": 1693480921286, "interval": 9652}, {"eventtype": "focus", "value": "off", "timestamp": 1693481643413, "interval": 722127}, {"eventtype": "focus", "value": "on", "timestamp": 1693481643413, "interval": 0}, {"eventtype": "window_resize", "value": [1366, 662], "timestamp": 1693481643621, "interval": 208}, {"eventtype": "window_resize", "value": [1366, 768], "timestamp": 1693481646213, "interval": 2592}, {"eventtype": "window_resize", "value": [1366, 662], "timestamp": 1693484296210, "interval": 2649997}], "useragent": "Mozilla/5.0 (Windows NT 10.0; Win64; x64) AppleWebKit/537.36 (KHTML, like Gecko) Chrome/116.0.0.0 Safari/537.36", "mode": "live", "id": "w45781164:a67739858", "status": "user data saved", "Beginhit": "2023-08-31 11:21:48.379015", "Beginexp": "2023-08-31 11:22:03.506393", "Endhit": "2023-08-31 12:18:19.572931", "psiturkStatus": 3, "browser": "<redacted>", "platform": "windows", "language": "en-US"}