{"condition": 1, "counterbalance": 0, "assignmentId": "a90311923", "workerId": "w87389797", "hitId": "h59677292", "currenttrial": 56, "bonus": 0, "data": [{"uniqueid": "w87389797:a90311923", "current_trial": 0, "dateTime": 1693481019573, "trialdata": {"success": true, "trial_type": "fullscreen", "trial_index": 0, "time_elapsed": 4183, "internal_node_id": "0.0-0.0"}}, {"uniqueid": "w87389797:a90311923", "current_trial": 1, "dateTime": 1693481025102, "trialdata": {"view_history": [{"page_index": 0, "viewing_time": 5518}], "rt": 5518, "trial_id": "exp_instructions_misaligned", "trial_type": "instructions", "trial_index": 1, "time_elapsed": 9713, "internal_node_id": "0.0-1.0"}}, {"uniqueid": "w87389797:a90311923", "current_trial": 2, "dateTime": 1693481215386, "trialdata": {"view_history": [{"page_index": 0, "viewing_time": 77058}, {"page_index": 1, "viewing_time": 72128}, {"page_index": 2, "viewing_time": 15363}, {"page_index": 3, "viewing_time": 25729}], "rt": 190279, "trial_id": "mouselab_instructions_1_misaligned", "trial_type": "instructions", "trial_index": 2, "time_elapsed": 199996, "internal_node_id": "0.0-2.0-1.0"}}, {"uniqueid": "w87389797:a90311923", "current_trial": 3, "dateTime": 1693481226820, "trialdata": {"revealed_states": [], "clicked_states": [], "num_clicks_accrued": [0, 0, 0, 0, 0, 0, 0, 0, 0, 0, 0, 0, 0], "stateRewards": ["", 10, -10, -10, 10, 10, -10, -10, -10, 10, -10, 10, 10, 10, -10, 10, 10, 10, -10, 10, 10, -10, 10, -10, -10, -10, -10, 10, 10, 10, -10, 10, -10, 10], "withholdReward": false, "trial_id": "practice_1", "block": "test", "trialIndex": 0, "score": -6.5, "costs": 0, "simulationMode": [null, null, null, null, null], "rewards": [10, -10, -10, -10, 10], "path": ["0", "0", "1", "2", "3", "8", "9"], "rt": [1691, 792, 286, 43, 135], "actions": ["up", "up", "up", "left", "up"], "actionTimes": [4630, 5925, 6723, 7258, 7903], "queries": {"click": {"state": {"target": [], "time": []}, "edge": {"target": [], "time": []}}, "mouseover": {"state": {"target": [], "time": []}, "edge": {"target": [], "time": []}}, "mouseout": {"state": {"target": ["0"], "time": [1263]}, "edge": {"target": [], "time": []}}}, "displayed_time": "8.42", "trialTime": 10727, "trial_type": "mouselab-mdp", "trial_index": 3, "time_elapsed": 211430, "internal_node_id": "0.0-2.0-2.0-0.0"}}, {"uniqueid": "w87389797:a90311923", "current_trial": 4, "dateTime": 1693481235570, "trialdata": {"revealed_states": [], "clicked_states": [], "num_clicks_accrued": [0, 0, 0, 0, 0, 0, 0, 0, 0, 0, 0, 0, 0], "stateRewards": ["", 10, 10, -10, 10, 10, -10, -10, 10, 10, 10, -10, 10, 10, 10, 10, 10, -10, 10, 10, -10, -10, 10, 10, 10, 10, 10, -10, 10, 10, -10, 10, -10, 10], "withholdReward": false, "trial_id": "practice_2", "block": "test", "trialIndex": 1, "score": 53.5, "costs": 0, "simulationMode": [null, null, null, null, null], "rewards": [10, 10, 10, 10, 10], "path": ["0", "0", "12", "13", "14", "15", "16"], "rt": [657, 4, 807, 340, 21], "actions": ["right", "right", "right", "up", "up"], "actionTimes": [2553, 3073, 4389, 5237, 5750], "queries": {"click": {"state": {"target": [], "time": []}, "edge": {"target": [], "time": []}}, "mouseover": {"state": {"target": [], "time": []}, "edge": {"target": [], "time": []}}, "mouseout": {"state": {"target": ["0"], "time": [1612]}, "edge": {"target": [], "time": []}}}, "displayed_time": "6.28", "trialTime": 7941, "trial_type": "mouselab-mdp", "trial_index": 4, "time_elapsed": 220180, "internal_node_id": "0.0-2.0-2.0-1.0"}}, {"uniqueid": "w87389797:a90311923", "current_trial": 5, "dateTime": 1693481251347, "trialdata": {"view_history": [{"page_index": 0, "viewing_time": 11854}, {"page_index": 1, "viewing_time": 3920}], "rt": 15774, "trial_id": "mouselab_instructions_2_misaligned", "trial_type": "instructions", "trial_index": 5, "time_elapsed": 235958, "internal_node_id": "0.0-2.0-3.0"}}, {"uniqueid": "w87389797:a90311923", "current_trial": 6, "dateTime": 1693481291655, "trialdata": {"rt": 40298, "response": {"Q0": "The cost for clicking on nodes may vary between nodes.", "Q1": "The better I perform the higher my bonus will be.", "Q2": "No, the amount of cash at each node of the web may be different each time.", "Q3": "To get the highest total score.", "Q4": "Only before moving the spider.", "Q5": "3 seconds"}, "question_order": [0, 1, 2, 3, 4, 5], "correct": {"Q0": "The cost for clicking on nodes may vary between nodes.", "Q1": "The better I perform the higher my bonus will be.", "Q2": "No, the amount of cash at each node of the web may be different each time.", "Q3": "To get the highest total score.", "Q4": "Only before moving the spider.", "Q5": "3 seconds"}, "trial_id": "mouselab_quiz_misaligned", "trial_type": "survey-multi-choice", "trial_index": 6, "time_elapsed": 276266, "internal_node_id": "0.0-2.0-4.0"}}, {"uniqueid": "w87389797:a90311923", "current_trial": 7, "dateTime": 1693481295622, "trialdata": {"rt": 3952, "response": {"Q0": "No"}, "question_order": [0], "trial_id": "repeat_check", "trial_type": "survey-multi-choice", "trial_index": 7, "time_elapsed": 280233, "internal_node_id": "0.0-4.0-0.0"}}, {"uniqueid": "w87389797:a90311923", "current_trial": 8, "dateTime": 1693481300407, "trialdata": {"rt": 4775, "stimulus": "\n<h1> Get ready to start the game! </h1>\n\nThank you for reading the instructions. Get ready start with the 40 rounds of this game.\n<br><br>\nIf you need to take a break, feel free to take one after the end of a round, before continuing to the next one.\n<br><br>\nRemember, the more money the spider gets, the bigger your bonus will be!\n<br><br>\n<div style='text-align: center;'>Press <code>space</code> to begin.</div>\n\n<br><br>\n(If, at any point, the <code>space</code> key does not take you to the next page, click once on the text and try again.)", "response": " ", "trial_id": "mdp_ready", "trial_type": "html-keyboard-response", "trial_index": 8, "time_elapsed": 285018, "internal_node_id": "0.0-6.0-0.0"}}, {"uniqueid": "w87389797:a90311923", "current_trial": 9, "dateTime": 1693481318267, "trialdata": {"revealed_states": [], "clicked_states": [], "num_clicks_accrued": [0, 0, 0, 0, 0, 0, 0, 0, 0, 0, 0, 0, 0], "stateRewards": ["", -2, 2, -5, -6, 10, -66, -58, -10, -11, -63, -70, -1, -4, -5, 7, 66, -64, -43, -3, 45, -37, 4, -2, -2, -6, -4, -30, 33, 43, 15, -32, -65, -59], "withholdReward": false, "trial_id": "mdp_trial_1", "block": "test", "trialIndex": 2, "score": -1, "costs": 0, "simulationMode": [null, null, null, null, null], "rewards": [-2, 2, -5, -6, 10], "path": ["0", "0", "1", "2", "3", "4", "5"], "rt": [15, 144, 388, 36, 31], "actions": ["up", "up", "up", "right", "up"], "actionTimes": [2593, 2908, 3800, 4348, 4877], "queries": {"click": {"state": {"target": [], "time": []}, "edge": {"target": [], "time": []}}, "mouseover": {"state": {"target": [], "time": []}, "edge": {"target": [], "time": []}}, "mouseout": {"state": {"target": ["2", "3", "2", "1"], "time": [192, 559, 1242, 1509]}, "edge": {"target": [], "time": []}}}, "displayed_time": "16.58", "trialTime": 17339, "trial_type": "mouselab-mdp", "trial_index": 9, "time_elapsed": 302878, "internal_node_id": "0.0-6.0-1.0-0.0"}}, {"uniqueid": "w87389797:a90311923", "current_trial": 10, "dateTime": 1693481334860, "trialdata": {"revealed_states": [], "clicked_states": [], "num_clicks_accrued": [0, 0, 0, 0, 0, 0, 0, 0, 0, 0, 0, 0, 0], "stateRewards": ["", 1, 1, 1, -3, -7, -1, -41, -10, 20, -72, -63, 1, -4, -2, 2, -66, 30, -84, -2, 49, 23, 71, -1, -4, 4, -12, 67, 5, 18, -16, 88, 56, -5], "withholdReward": false, "trial_id": "mdp_trial_2", "block": "test", "trialIndex": 3, "score": 5, "costs": 0, "simulationMode": [null, null, null, null, null], "rewards": [-1, -4, 4, -12, 18], "path": ["0", "0", "23", "24", "25", "26", "29"], "rt": [980, 90, 136, 445, 554], "actions": ["left", "left", "left", "up", "left"], "actionTimes": [1928, 2519, 3150, 4107, 5167], "queries": {"click": {"state": {"target": [], "time": []}, "edge": {"target": [], "time": []}}, "mouseover": {"state": {"target": [], "time": []}, "edge": {"target": [], "time": []}}, "mouseout": {"state": {"target": ["0"], "time": [642]}, "edge": {"target": [], "time": []}}}, "displayed_time": "14.95", "trialTime": 16067, "trial_type": "mouselab-mdp", "trial_index": 10, "time_elapsed": 319471, "internal_node_id": "0.0-6.0-1.0-1.0"}}, {"uniqueid": "w87389797:a90311923", "current_trial": 11, "dateTime": 1693481350804, "trialdata": {"revealed_states": [], "clicked_states": [], "num_clicks_accrued": [0, 0, 0, 0, 0, 0, 0, 0, 0, 0, 0, 0, 0], "stateRewards": ["", -1, 3, 1, -7, 56, 76, 57, 3, 11, -9, 14, 1, -2, 2, 8, -77, -3, 79, -5, 88, 24, -66, -2, -1, 7, -7, -30, 14, -76, 11, -36, 28, -6], "withholdReward": false, "trial_id": "mdp_trial_3", "block": "test", "trialIndex": 4, "score": -70, "costs": 0, "simulationMode": [null, null, null, null, null], "rewards": [1, -2, 2, -5, -66], "path": ["0", "0", "12", "13", "14", "19", "22"], "rt": [605, 560, 951, 41, 2620], "actions": ["right", "right", "right", "down", "left"], "actionTimes": [1449, 2504, 3962, 4522, 7766], "queries": {"click": {"state": {"target": [], "time": []}, "edge": {"target": [], "time": []}}, "mouseover": {"state": {"target": [], "time": []}, "edge": {"target": [], "time": []}}, "mouseout": {"state": {"target": ["0"], "time": [494]}, "edge": {"target": [], "time": []}}}, "displayed_time": "14.85", "trialTime": 15273, "trial_type": "mouselab-mdp", "trial_index": 11, "time_elapsed": 335415, "internal_node_id": "0.0-6.0-1.0-2.0"}}, {"uniqueid": "w87389797:a90311923", "current_trial": 12, "dateTime": 1693481368033, "trialdata": {"revealed_states": [], "clicked_states": [], "num_clicks_accrued": [0, 0, 0, 0, 0, 0, 0, 0, 0, 0, 0, 0, 0], "stateRewards": ["", -2, 2, -2, -7, -50, -62, -45, 7, 36, -24, -72, -1, -1, 8, -1, -67, 20, -52, 2, 35, -50, 80, -1, 1, 6, -6, -70, 6, 88, 8, -47, 74, -19], "withholdReward": false, "trial_id": "mdp_trial_4", "block": "test", "trialIndex": 5, "score": -59, "costs": 0, "simulationMode": [null, null, null, null, null], "rewards": [-2, 2, -2, -7, -50], "path": ["0", "0", "1", "2", "3", "4", "5"], "rt": [653, 70, 457, 73, 217], "actions": ["up", "up", "up", "right", "up"], "actionTimes": [2740, 3316, 4297, 4869, 5596], "queries": {"click": {"state": {"target": [], "time": []}, "edge": {"target": [], "time": []}}, "mouseover": {"state": {"target": [], "time": []}, "edge": {"target": [], "time": []}}, "mouseout": {"state": {"target": ["0"], "time": [1366]}, "edge": {"target": [], "time": []}}}, "displayed_time": "16.09", "trialTime": 16570, "trial_type": "mouselab-mdp", "trial_index": 12, "time_elapsed": 352643, "internal_node_id": "0.0-6.0-1.0-3.0"}}, {"uniqueid": "w87389797:a90311923", "current_trial": 13, "dateTime": 1693481385260, "trialdata": {"revealed_states": [], "clicked_states": [], "num_clicks_accrued": [0, 0, 0, 0, 0, 0, 0, 0, 0, 0, 0, 0, 0], "stateRewards": ["", -1, 1, 6, -6, 70, 66, 67, -16, -75, -35, 37, -1, 4, 4, -6, 47, -9, 63, 15, 21, -63, 13, 1, 3, -6, 10, 79, -29, 18, -15, 9, -67, -19], "withholdReward": false, "trial_id": "mdp_trial_5", "block": "test", "trialIndex": 6, "score": 27, "costs": 0, "simulationMode": [null, null, null, null, null], "rewards": [-1, 1, 6, -16, 37], "path": ["0", "0", "1", "2", "3", "8", "11"], "rt": [435, 188, 386, 342, 45], "actions": ["up", "up", "up", "left", "left"], "actionTimes": [2196, 2879, 3760, 4597, 5152], "queries": {"click": {"state": {"target": [], "time": []}, "edge": {"target": [], "time": []}}, "mouseover": {"state": {"target": [], "time": []}, "edge": {"target": [], "time": []}}, "mouseout": {"state": {"target": ["0"], "time": [1313]}, "edge": {"target": [], "time": []}}}, "displayed_time": "15.76", "trialTime": 16576, "trial_type": "mouselab-mdp", "trial_index": 13, "time_elapsed": 369871, "internal_node_id": "0.0-6.0-1.0-4.0"}}, {"uniqueid": "w87389797:a90311923", "current_trial": 14, "dateTime": 1693481401070, "trialdata": {"revealed_states": [], "clicked_states": [], "num_clicks_accrued": [0, 0, 0, 0, 0, 0, 0, 0, 0, 0, 0, 0, 0], "stateRewards": ["", 1, -3, -4, -11, -56, 61, -47, -16, -28, -9, 69, -2, -3, -4, -8, 40, -86, 59, -4, 80, 27, 54, -1, 3, -1, 8, 67, 23, 50, 6, 83, -43, -29], "withholdReward": false, "trial_id": "mdp_trial_6", "block": "test", "trialIndex": 7, "score": 76, "costs": 0, "simulationMode": [null, null, null, null, null], "rewards": [-1, 3, -1, 8, 67], "path": ["0", "0", "23", "24", "25", "26", "27"], "rt": [655, 148, 39, 343, 327], "actions": ["left", "left", "left", "up", "up"], "actionTimes": [1352, 2007, 2546, 3402, 4250], "queries": {"click": {"state": {"target": [], "time": []}, "edge": {"target": [], "time": []}}, "mouseover": {"state": {"target": [], "time": []}, "edge": {"target": [], "time": []}}, "mouseout": {"state": {"target": ["0"], "time": [253]}, "edge": {"target": [], "time": []}}}, "displayed_time": "14.70", "trialTime": 15104, "trial_type": "mouselab-mdp", "trial_index": 14, "time_elapsed": 385680, "internal_node_id": "0.0-6.0-1.0-5.0"}}, {"uniqueid": "w87389797:a90311923", "current_trial": 15, "dateTime": 1693481417796, "trialdata": {"revealed_states": [], "clicked_states": [], "num_clicks_accrued": [0, 0, 0, 0, 0, 0, 0, 0, 0, 0, 0, 0, 0], "stateRewards": ["", 2, 4, 7, -6, -76, -81, 2, 5, -66, -3, 36, -2, -4, 6, -2, -69, 4, -49, -6, 67, 38, -67, 2, 1, 1, 6, -68, -21, 52, -16, -16, 6, -70], "withholdReward": false, "trial_id": "mdp_trial_7", "block": "test", "trialIndex": 8, "score": 61, "costs": 0, "simulationMode": [null, null, null, null, null], "rewards": [-2, -4, 6, -6, 67], "path": ["0", "0", "12", "13", "14", "19", "20"], "rt": [500, 45, 590, 363, 590], "actions": ["right", "right", "right", "down", "right"], "actionTimes": [2040, 2579, 3688, 4544, 5663], "queries": {"click": {"state": {"target": [], "time": []}, "edge": {"target": [], "time": []}}, "mouseover": {"state": {"target": [], "time": []}, "edge": {"target": [], "time": []}}, "mouseout": {"state": {"target": ["0"], "time": [1022]}, "edge": {"target": [], "time": []}}}, "displayed_time": "15.54", "trialTime": 16089, "trial_type": "mouselab-mdp", "trial_index": 15, "time_elapsed": 402406, "internal_node_id": "0.0-6.0-1.0-6.0"}}, {"uniqueid": "w87389797:a90311923", "current_trial": 16, "dateTime": 1693481434864, "trialdata": {"revealed_states": [], "clicked_states": [], "num_clicks_accrued": [0, 0, 0, 0, 0, 0, 0, 0, 0, 0, 0, 0, 0], "stateRewards": ["", 2, -2, -3, 10, -4, -1, -11, -8, -9, -36, -78, 2, 1, 7, -7, 44, -1, -31, -1, 26, 47, 83, 2, -4, -4, -6, -52, -76, -81, -1, -59, 45, 67], "withholdReward": false, "trial_id": "mdp_trial_8", "block": "test", "trialIndex": 9, "score": 38, "costs": 0, "simulationMode": [null, null, null, null, null], "rewards": [2, -4, -4, -1, 45], "path": ["0", "0", "23", "24", "25", "30", "32"], "rt": [435, 496, 131, 90, 29], "actions": ["left", "left", "left", "down", "down"], "actionTimes": [1312, 2309, 2969, 3570, 4106], "queries": {"click": {"state": {"target": [], "time": []}, "edge": {"target": [], "time": []}}, "mouseover": {"state": {"target": [], "time": []}, "edge": {"target": [], "time": []}}, "mouseout": {"state": {"target": ["0"], "time": [486]}, "edge": {"target": [], "time": []}}}, "displayed_time": "14.88", "trialTime": 16471, "trial_type": "mouselab-mdp", "trial_index": 16, "time_elapsed": 419475, "internal_node_id": "0.0-6.0-1.0-7.0"}}, {"uniqueid": "w87389797:a90311923", "current_trial": 17, "dateTime": 1693481452061, "trialdata": {"revealed_states": [], "clicked_states": [], "num_clicks_accrued": [0, 0, 0, 0, 0, 0, 0, 0, 0, 0, 0, 0, 0], "stateRewards": ["", -1, 2, -2, 13, -56, -28, 10, 14, 53, -80, -29, 1, -3, -3, -14, 14, 9, -40, -9, 18, 18, 48, 1, 1, 1, -9, 64, -39, -9, 7, -52, -78, 7], "withholdReward": false, "trial_id": "mdp_trial_9", "block": "test", "trialIndex": 10, "score": -67, "costs": 0, "simulationMode": [null, null, null, null, null], "rewards": [-1, 2, -2, 14, -80], "path": ["0", "0", "1", "2", "3", "8", "10"], "rt": [457, 5, 52, 363, 457], "actions": ["up", "up", "up", "left", "down"], "actionTimes": [2305, 2854, 3429, 4321, 5282], "queries": {"click": {"state": {"target": [], "time": []}, "edge": {"target": [], "time": []}}, "mouseover": {"state": {"target": [], "time": []}, "edge": {"target": [], "time": []}}, "mouseout": {"state": {"target": ["0"], "time": [1435]}, "edge": {"target": [], "time": []}}}, "displayed_time": "15.85", "trialTime": 16649, "trial_type": "mouselab-mdp", "trial_index": 17, "time_elapsed": 436671, "internal_node_id": "0.0-6.0-1.0-8.0"}}, {"uniqueid": "w87389797:a90311923", "current_trial": 18, "dateTime": 1693481469422, "trialdata": {"revealed_states": [], "clicked_states": [], "num_clicks_accrued": [0, 0, 0, 0, 0, 0, 0, 0, 0, 0, 0, 0, 0], "stateRewards": ["", -1, 2, -6, 6, -82, -19, -39, -16, -83, 11, -33, -2, -2, 4, -6, -82, -1, -19, -6, -10, -67, -41, -2, 1, -7, 16, -23, -78, -52, 14, 31, -71, 74], "withholdReward": false, "trial_id": "mdp_trial_10", "block": "test", "trialIndex": 11, "score": -81, "costs": 0, "simulationMode": [null, null, null, null, null], "rewards": [-1, 2, -6, 6, -82], "path": ["0", "0", "1", "2", "3", "4", "5"], "rt": [459, 61, 41, 524, 257], "actions": ["up", "up", "up", "right", "up"], "actionTimes": [2048, 2615, 3162, 4216, 4978], "queries": {"click": {"state": {"target": [], "time": []}, "edge": {"target": [], "time": []}}, "mouseover": {"state": {"target": [], "time": []}, "edge": {"target": [], "time": []}}, "mouseout": {"state": {"target": ["0"], "time": [1006]}, "edge": {"target": [], "time": []}}}, "displayed_time": "15.61", "trialTime": 16572, "trial_type": "mouselab-mdp", "trial_index": 18, "time_elapsed": 454032, "internal_node_id": "0.0-6.0-1.0-9.0"}}, {"uniqueid": "w87389797:a90311923", "current_trial": 19, "dateTime": 1693481487556, "trialdata": {"revealed_states": [], "clicked_states": [], "num_clicks_accrued": [0, 0, 0, 0, 0, 0, 0, 0, 0, 0, 0, 0, 0], "stateRewards": ["", -1, -2, -1, -10, -57, 73, -72, -16, 75, -14, -46, -2, -3, -7, -1, -61, -60, 76, -4, 50, 4, 14, 2, 2, -7, 12, -65, -32, 15, -8, -76, -25, -61], "withholdReward": false, "trial_id": "mdp_trial_11", "block": "test", "trialIndex": 12, "score": -34, "costs": 0, "simulationMode": [null, null, null, null, null], "rewards": [-1, -2, -1, -16, -14], "path": ["0", "0", "1", "2", "3", "8", "10"], "rt": [498, 469, 84, 418, 546], "actions": ["up", "up", "up", "left", "down"], "actionTimes": [1971, 2950, 3532, 4468, 5534], "queries": {"click": {"state": {"target": [], "time": []}, "edge": {"target": [], "time": []}}, "mouseover": {"state": {"target": [], "time": []}, "edge": {"target": [], "time": []}}, "mouseout": {"state": {"target": ["0"], "time": [723]}, "edge": {"target": [], "time": []}}}, "displayed_time": "15.48", "trialTime": 16951, "trial_type": "mouselab-mdp", "trial_index": 19, "time_elapsed": 472166, "internal_node_id": "0.0-6.0-1.0-10.0"}}, {"uniqueid": "w87389797:a90311923", "current_trial": 20, "dateTime": 1693481505525, "trialdata": {"revealed_states": [], "clicked_states": ["15"], "num_clicks_accrued": [0, 0, 0, 0, 0, 0, 0, 0, 0, 0, 0, 0, 0], "stateRewards": ["", 1, 1, -5, 8, -6, 45, 16, -6, -7, -22, -38, -1, -4, 8, -11, -16, 21, -45, -15, -59, -32, 42, -1, 3, 6, 11, -7, 34, -27, -8, 85, 43, -9], "withholdReward": false, "trial_id": "mdp_trial_12", "block": "test", "trialIndex": 13, "score": -45.55, "costs": -1.55, "simulationMode": [null, null, null, null, null], "rewards": [-1, -4, 8, -15, -32], "path": ["0", "0", "12", "13", "14", "19", "21"], "rt": [2963, 187, 138, 443, 49], "actions": ["right", "right", "right", "down", "down"], "actionTimes": [4756, 5453, 6087, 7024, 7581], "queries": {"click": {"state": {"target": ["15"], "time": [3324]}, "edge": {"target": [], "time": []}}, "mouseover": {"state": {"target": ["15"], "time": [2562]}, "edge": {"target": [], "time": []}}, "mouseout": {"state": {"target": ["0"], "time": [1382]}, "edge": {"target": [], "time": []}}}, "displayed_time": "15.79", "trialTime": 17184, "trial_type": "mouselab-mdp", "trial_index": 20, "time_elapsed": 490135, "internal_node_id": "0.0-6.0-1.0-11.0"}}, {"uniqueid": "w87389797:a90311923", "current_trial": 21, "dateTime": 1693481523790, "trialdata": {"revealed_states": [], "clicked_states": ["7"], "num_clicks_accrued": [0, 0, 0, 0, 0, 0, 0, 0, 0, 0, 0, 0, 0], "stateRewards": ["", -1, -3, 4, -10, -5, 79, -87, -2, 53, 29, -20, -2, -1, -5, 10, 27, 86, 46, -16, -29, 40, 3, 2, 4, -1, -6, 37, 79, -29, 7, 86, -62, 29], "withholdReward": false, "trial_id": "mdp_trial_13", "block": "test", "trialIndex": 14, "score": 24.85, "costs": -2.15, "simulationMode": [null, null, null, null, null, null], "rewards": [-1, -3, 4, -2, 29], "path": ["0", "0", "1", "2", "3", "8", "10"], "rt": [1757, 254, 96, 326, 508, 437], "actions": ["up", "up", "up", "up", "left", "down"], "actionTimes": [4628, 4886, 5517, 6379, 7392, 8339], "queries": {"click": {"state": {"target": ["7"], "time": [3726]}, "edge": {"target": [], "time": []}}, "mouseover": {"state": {"target": ["7"], "time": [3431]}, "edge": {"target": [], "time": []}}, "mouseout": {"state": {"target": ["15", "12", "0", "0", "7"], "time": [980, 1030, 1113, 3178, 3862]}, "edge": {"target": [], "time": []}}}, "displayed_time": "16.87", "trialTime": 17504, "trial_type": "mouselab-mdp", "trial_index": 21, "time_elapsed": 508401, "internal_node_id": "0.0-6.0-1.0-12.0"}}, {"uniqueid": "w87389797:a90311923", "current_trial": 22, "dateTime": 1693481541698, "trialdata": {"revealed_states": [], "clicked_states": [], "num_clicks_accrued": [0, 0, 0, 0, 0, 0, 0, 0, 0, 0, 0, 0, 0], "stateRewards": ["", 2, 3, -1, 6, 44, -4, -59, -14, -3, 64, 16, 1, -3, 3, 6, 3, 49, 19, 3, -49, -14, -86, 1, 2, -3, -8, -33, 14, 32, -13, -77, -47, -67], "withholdReward": false, "trial_id": "mdp_trial_14", "block": "test", "trialIndex": 15, "score": -13, "costs": 0, "simulationMode": [null, null, null, null, null], "rewards": [2, 3, -1, -14, -3], "path": ["0", "0", "1", "2", "3", "8", "9"], "rt": [422, 342, 112, 428, 10], "actions": ["up", "up", "up", "left", "up"], "actionTimes": [1880, 2732, 3368, 4301, 4834], "queries": {"click": {"state": {"target": [], "time": []}, "edge": {"target": [], "time": []}}, "mouseover": {"state": {"target": [], "time": []}, "edge": {"target": [], "time": []}}, "mouseout": {"state": {"target": ["7", "1"], "time": [275, 686]}, "edge": {"target": [], "time": []}}}, "displayed_time": "15.46", "trialTime": 17017, "trial_type": "mouselab-mdp", "trial_index": 22, "time_elapsed": 526308, "internal_node_id": "0.0-6.0-1.0-13.0"}}, {"uniqueid": "w87389797:a90311923", "current_trial": 23, "dateTime": 1693481558467, "trialdata": {"revealed_states": [], "clicked_states": [], "num_clicks_accrued": [0, 0, 0, 0, 0, 0, 0, 0, 0, 0, 0, 0, 0], "stateRewards": ["", -1, -1, 4, -16, -75, 81, -51, -7, -84, 73, -30, -2, 1, -3, -16, -77, 33, 14, 1, 45, 87, -66, 2, 2, -5, -7, -19, -17, 79, -3, 8, 49, 47], "withholdReward": false, "trial_id": "mdp_trial_15", "block": "test", "trialIndex": 16, "score": 68, "costs": 0, "simulationMode": [null, null, null, null, null], "rewards": [-1, -1, 4, -7, 73], "path": ["0", "0", "1", "2", "3", "8", "10"], "rt": [518, 76, 435, 418, 73], "actions": ["up", "up", "up", "left", "down"], "actionTimes": [1882, 2456, 3414, 4348, 4938], "queries": {"click": {"state": {"target": [], "time": []}, "edge": {"target": [], "time": []}}, "mouseover": {"state": {"target": [], "time": []}, "edge": {"target": [], "time": []}}, "mouseout": {"state": {"target": [], "time": []}, "edge": {"target": [], "time": []}}}, "displayed_time": "15.37", "trialTime": 16010, "trial_type": "mouselab-mdp", "trial_index": 23, "time_elapsed": 543078, "internal_node_id": "0.0-6.0-1.0-14.0"}}, {"uniqueid": "w87389797:a90311923", "current_trial": 24, "dateTime": 1693481575608, "trialdata": {"revealed_states": [], "clicked_states": [], "num_clicks_accrued": [0, 0, 0, 0, 0, 0, 0, 0, 0, 0, 0, 0, 0], "stateRewards": ["", 2, -4, -8, -15, 71, -43, -41, 7, -17, 20, 67, -1, -1, -4, 6, 37, -24, -47, 9, 34, 57, 45, 1, 2, -4, -5, -23, 88, -5, 13, -40, 43, 44], "withholdReward": false, "trial_id": "mdp_trial_16", "block": "test", "trialIndex": 17, "score": 17, "costs": 0, "simulationMode": [null, null, null, null, null], "rewards": [2, -4, -8, 7, 20], "path": ["0", "0", "1", "2", "3", "8", "10"], "rt": [566, 132, 378, 421, 396], "actions": ["up", "up", "up", "left", "down"], "actionTimes": [1722, 2352, 3247, 4172, 5064], "queries": {"click": {"state": {"target": [], "time": []}, "edge": {"target": [], "time": []}}, "mouseover": {"state": {"target": [], "time": []}, "edge": {"target": [], "time": []}}, "mouseout": {"state": {"target": ["0"], "time": [783]}, "edge": {"target": [], "time": []}}}, "displayed_time": "15.16", "trialTime": 16024, "trial_type": "mouselab-mdp", "trial_index": 24, "time_elapsed": 560218, "internal_node_id": "0.0-6.0-1.0-15.0"}}, {"uniqueid": "w87389797:a90311923", "current_trial": 25, "dateTime": 1693481593145, "trialdata": {"revealed_states": [], "clicked_states": [], "num_clicks_accrued": [0, 0, 0, 0, 0, 0, 0, 0, 0, 0, 0, 0, 0], "stateRewards": ["", 2, 2, 3, -15, 23, -14, 73, -7, -32, -20, -6, 1, 1, -5, -12, 73, 6, -84, 11, -81, -57, 13, -2, -1, -4, -8, -52, -58, 49, 13, 5, -41, -41], "withholdReward": false, "trial_id": "mdp_trial_17", "block": "test", "trialIndex": 18, "score": 15, "costs": 0, "simulationMode": [null, null, null, null, null], "rewards": [2, 2, 3, -15, 23], "path": ["0", "0", "1", "2", "3", "4", "5"], "rt": [646, 399, 71, 504, 103], "actions": ["up", "up", "up", "right", "up"], "actionTimes": [2456, 3351, 3939, 4956, 5555], "queries": {"click": {"state": {"target": [], "time": []}, "edge": {"target": [], "time": []}}, "mouseover": {"state": {"target": [], "time": []}, "edge": {"target": [], "time": []}}, "mouseout": {"state": {"target": ["0"], "time": [1456]}, "edge": {"target": [], "time": []}}}, "displayed_time": "15.81", "trialTime": 16611, "trial_type": "mouselab-mdp", "trial_index": 25, "time_elapsed": 577756, "internal_node_id": "0.0-6.0-1.0-16.0"}}, {"uniqueid": "w87389797:a90311923", "current_trial": 26, "dateTime": 1693481610214, "trialdata": {"revealed_states": [], "clicked_states": [], "num_clicks_accrued": [0, 0, 0, 0, 0, 0, 0, 0, 0, 0, 0, 0, 0], "stateRewards": ["", -2, 1, -7, 9, 8, 25, 61, -7, -17, 69, -81, 1, 4, -4, -11, 16, 67, 44, 3, 6, -45, -54, -2, 3, 6, -11, -15, 32, -47, 3, -39, -6, -88], "withholdReward": false, "trial_id": "mdp_trial_18", "block": "test", "trialIndex": 19, "score": -19, "costs": 0, "simulationMode": [null, null, null, null, null], "rewards": [-2, 3, 6, -11, -15], "path": ["0", "0", "23", "24", "25", "26", "27"], "rt": [635, 189, 290, 319, 560], "actions": ["left", "left", "left", "up", "up"], "actionTimes": [1537, 2234, 3016, 3849, 4939], "queries": {"click": {"state": {"target": [], "time": []}, "edge": {"target": [], "time": []}}, "mouseover": {"state": {"target": [], "time": []}, "edge": {"target": [], "time": []}}, "mouseout": {"state": {"target": ["0"], "time": [562]}, "edge": {"target": [], "time": []}}}, "displayed_time": "14.90", "trialTime": 16190, "trial_type": "mouselab-mdp", "trial_index": 26, "time_elapsed": 594824, "internal_node_id": "0.0-6.0-1.0-17.0"}}, {"uniqueid": "w87389797:a90311923", "current_trial": 27, "dateTime": 1693481626977, "trialdata": {"revealed_states": [], "clicked_states": [], "num_clicks_accrued": [0, 0, 0, 0, 0, 0, 0, 0, 0, 0, 0, 0, 0], "stateRewards": ["", -2, -4, -8, 8, 63, -50, -19, -7, -17, -31, 31, 1, 3, -5, 12, -35, -63, -29, -4, -17, -75, -79, -2, -3, -2, 8, -3, -85, 10, -2, -82, -82, 56], "withholdReward": false, "trial_id": "mdp_trial_19", "block": "test", "trialIndex": 20, "score": -80, "costs": 0, "simulationMode": [null, null, null, null, null], "rewards": [1, 3, -5, -4, -75], "path": ["0", "0", "12", "13", "14", "19", "21"], "rt": [507, 160, 20, 193, 6], "actions": ["right", "right", "right", "down", "down"], "actionTimes": [1649, 2315, 2861, 3548, 4062], "queries": {"click": {"state": {"target": [], "time": []}, "edge": {"target": [], "time": []}}, "mouseover": {"state": {"target": [], "time": []}, "edge": {"target": [], "time": []}}, "mouseout": {"state": {"target": ["0"], "time": [741]}, "edge": {"target": [], "time": []}}}, "displayed_time": "15.14", "trialTime": 15947, "trial_type": "mouselab-mdp", "trial_index": 27, "time_elapsed": 611588, "internal_node_id": "0.0-6.0-1.0-18.0"}}, {"uniqueid": "w87389797:a90311923", "current_trial": 28, "dateTime": 1693481643932, "trialdata": {"revealed_states": [], "clicked_states": [], "num_clicks_accrued": [0, 0, 0, 0, 0, 0, 0, 0, 0, 0, 0, 0, 0], "stateRewards": ["", 1, 4, 7, -16, -84, -6, -46, -12, -7, -49, -26, -1, 2, -4, 2, 22, 37, -64, 1, 88, -13, -10, 1, -4, -2, 5, 2, -10, -34, 9, 66, 55, 38], "withholdReward": false, "trial_id": "mdp_trial_20", "block": "test", "trialIndex": 21, "score": 59, "costs": 0, "simulationMode": [null, null, null, null, null], "rewards": [1, -4, -2, 9, 55], "path": ["0", "0", "23", "24", "25", "30", "32"], "rt": [876, 118, 22, 132, 114], "actions": ["left", "left", "left", "down", "down"], "actionTimes": [2222, 2841, 3378, 4041, 4674], "queries": {"click": {"state": {"target": [], "time": []}, "edge": {"target": [], "time": []}}, "mouseover": {"state": {"target": [], "time": []}, "edge": {"target": [], "time": []}}, "mouseout": {"state": {"target": ["0"], "time": [837]}, "edge": {"target": [], "time": []}}}, "displayed_time": "15.36", "trialTime": 16121, "trial_type": "mouselab-mdp", "trial_index": 28, "time_elapsed": 628542, "internal_node_id": "0.0-6.0-1.0-19.0"}}, {"uniqueid": "w87389797:a90311923", "current_trial": 29, "dateTime": 1693481661580, "trialdata": {"revealed_states": [], "clicked_states": [], "num_clicks_accrued": [0, 0, 0, 0, 0, 0, 0, 0, 0, 0, 0, 0, 0], "stateRewards": ["", -1, 2, -6, 6, 43, 78, 78, -2, 55, -29, -17, -2, -4, 1, -15, 13, 7, -79, 8, -28, -68, 36, -1, -3, 3, -16, 84, -18, 87, 10, 32, 13, -81], "withholdReward": false, "trial_id": "mdp_trial_21", "block": "test", "trialIndex": 22, "score": 70, "costs": 0, "simulationMode": [null, null, null, null, null], "rewards": [-1, -3, 3, -16, 87], "path": ["0", "0", "23", "24", "25", "26", "29"], "rt": [988, 185, 248, 455, 34], "actions": ["left", "left", "left", "up", "left"], "actionTimes": [2356, 3040, 3805, 4778, 5306], "queries": {"click": {"state": {"target": [], "time": []}, "edge": {"target": [], "time": []}}, "mouseover": {"state": {"target": [], "time": []}, "edge": {"target": [], "time": []}}, "mouseout": {"state": {"target": ["0"], "time": [706]}, "edge": {"target": [], "time": []}}}, "displayed_time": "15.37", "trialTime": 15984, "trial_type": "mouselab-mdp", "trial_index": 29, "time_elapsed": 646191, "internal_node_id": "0.0-6.0-1.0-20.0"}}, {"uniqueid": "w87389797:a90311923", "current_trial": 30, "dateTime": 1693481678803, "trialdata": {"revealed_states": [], "clicked_states": [], "num_clicks_accrued": [0, 0, 0, 0, 0, 0, 0, 0, 0, 0, 0, 0, 0], "stateRewards": ["", -1, 1, -2, 5, 73, 15, 61, 8, 7, 38, 76, 2, 2, -4, -6, -6, -26, 43, -5, -45, -85, -35, -2, 1, -4, 15, -10, 69, 72, -11, 84, -49, -38], "withholdReward": false, "trial_id": "mdp_trial_22", "block": "test", "trialIndex": 23, "score": -32, "costs": 0, "simulationMode": [null, null, null, null, null], "rewards": [2, 2, -4, -6, -26], "path": ["0", "0", "12", "13", "14", "15", "17"], "rt": [538, 8, 434, 7, 390], "actions": ["right", "right", "right", "up", "right"], "actionTimes": [2154, 2669, 3628, 4135, 5034], "queries": {"click": {"state": {"target": [], "time": []}, "edge": {"target": [], "time": []}}, "mouseover": {"state": {"target": [], "time": []}, "edge": {"target": [], "time": []}}, "mouseout": {"state": {"target": ["0"], "time": [1174]}, "edge": {"target": [], "time": []}}}, "displayed_time": "15.62", "trialTime": 16444, "trial_type": "mouselab-mdp", "trial_index": 30, "time_elapsed": 663413, "internal_node_id": "0.0-6.0-1.0-21.0"}}, {"uniqueid": "w87389797:a90311923", "current_trial": 31, "dateTime": 1693481694984, "trialdata": {"revealed_states": [], "clicked_states": [], "num_clicks_accrued": [0, 0, 0, 0, 0, 0, 0, 0, 0, 0, 0, 0, 0], "stateRewards": ["", -1, 3, -4, -14, 78, 67, 2, 13, -32, 28, 39, -2, 1, -4, -4, -4, -42, -86, 11, 64, -29, -32, -1, -4, 2, -7, 5, 68, -61, 2, -21, 85, 50], "withholdReward": false, "trial_id": "mdp_trial_23", "block": "test", "trialIndex": 24, "score": 50, "costs": 0, "simulationMode": [null, null, null, null, null], "rewards": [-1, 3, -4, 13, 39], "path": ["0", "0", "1", "2", "3", "8", "11"], "rt": [543, 7, 435, 345, 144], "actions": ["up", "up", "up", "left", "left"], "actionTimes": [1315, 1840, 2844, 3689, 4355], "queries": {"click": {"state": {"target": [], "time": []}, "edge": {"target": [], "time": []}}, "mouseover": {"state": {"target": [], "time": []}, "edge": {"target": [], "time": []}}, "mouseout": {"state": {"target": ["0"], "time": [370]}, "edge": {"target": [], "time": []}}}, "displayed_time": "14.77", "trialTime": 15360, "trial_type": "mouselab-mdp", "trial_index": 31, "time_elapsed": 679594, "internal_node_id": "0.0-6.0-1.0-22.0"}}, {"uniqueid": "w87389797:a90311923", "current_trial": 32, "dateTime": 1693481711443, "trialdata": {"revealed_states": [], "clicked_states": [], "num_clicks_accrued": [0, 0, 0, 0, 0, 0, 0, 0, 0, 0, 0, 0, 0], "stateRewards": ["", 1, 1, 1, 15, -76, 52, -32, 14, -57, 37, 49, 1, -4, -3, 6, 83, -76, 25, 9, 36, -1, -17, -1, 4, 4, -2, -22, -21, 58, -15, -57, 49, -24], "withholdReward": false, "trial_id": "mdp_trial_24", "block": "test", "trialIndex": 25, "score": 63, "costs": 0, "simulationMode": [null, null, null, null, null], "rewards": [-1, 4, 4, -2, 58], "path": ["0", "0", "23", "24", "25", "26", "29"], "rt": [509, 84, 65, 426, 93], "actions": ["left", "left", "left", "up", "left"], "actionTimes": [1569, 2154, 2719, 3647, 4265], "queries": {"click": {"state": {"target": [], "time": []}, "edge": {"target": [], "time": []}}, "mouseover": {"state": {"target": [], "time": []}, "edge": {"target": [], "time": []}}, "mouseout": {"state": {"target": ["0"], "time": [657]}, "edge": {"target": [], "time": []}}}, "displayed_time": "15.06", "trialTime": 15563, "trial_type": "mouselab-mdp", "trial_index": 32, "time_elapsed": 696054, "internal_node_id": "0.0-6.0-1.0-23.0"}}, {"uniqueid": "w87389797:a90311923", "current_trial": 33, "dateTime": 1693481728772, "trialdata": {"revealed_states": [], "clicked_states": [], "num_clicks_accrued": [0, 0, 0, 0, 0, 0, 0, 0, 0, 0, 0, 0, 0], "stateRewards": ["", 1, 1, -7, -9, -44, 24, -83, -15, 44, -24, 72, -2, -3, 4, -5, 57, 55, 29, -11, 22, 12, -25, -1, 2, 7, 12, 33, -8, 47, -4, 8, 50, -4], "withholdReward": false, "trial_id": "mdp_trial_25", "block": "test", "trialIndex": 26, "score": -97, "costs": 0, "simulationMode": [null, null, null, null, null], "rewards": [1, 1, -7, -9, -83], "path": ["0", "0", "1", "2", "3", "4", "7"], "rt": [385, 347, 125, 11, 36], "actions": ["up", "up", "up", "right", "down"], "actionTimes": [2009, 2849, 3492, 3995, 4553], "queries": {"click": {"state": {"target": [], "time": []}, "edge": {"target": [], "time": []}}, "mouseover": {"state": {"target": [], "time": []}, "edge": {"target": [], "time": []}}, "mouseout": {"state": {"target": ["0"], "time": [1060]}, "edge": {"target": [], "time": []}}}, "displayed_time": "15.63", "trialTime": 16489, "trial_type": "mouselab-mdp", "trial_index": 33, "time_elapsed": 713382, "internal_node_id": "0.0-6.0-1.0-24.0"}}, {"uniqueid": "w87389797:a90311923", "current_trial": 34, "dateTime": 1693481745808, "trialdata": {"revealed_states": [], "clicked_states": [], "num_clicks_accrued": [0, 0, 0, 0, 0, 0, 0, 0, 0, 0, 0, 0, 0], "stateRewards": ["", 1, -1, 1, -14, -10, 67, -28, -11, 72, 40, -65, -1, 1, 1, -2, 8, -55, 34, -10, 61, 33, -15, 2, -4, 7, 4, -75, 63, -21, -16, 61, 19, 21], "withholdReward": false, "trial_id": "mdp_trial_26", "block": "test", "trialIndex": 27, "score": 8, "costs": 0, "simulationMode": [null, null, null, null, null], "rewards": [2, -4, 7, -16, 19], "path": ["0", "0", "23", "24", "25", "30", "32"], "rt": [474, 5, 5, 202, 41], "actions": ["left", "left", "left", "down", "down"], "actionTimes": [1969, 2465, 3000, 3729, 4266], "queries": {"click": {"state": {"target": [], "time": []}, "edge": {"target": [], "time": []}}, "mouseover": {"state": {"target": [], "time": []}, "edge": {"target": [], "time": []}}, "mouseout": {"state": {"target": ["0"], "time": [969]}, "edge": {"target": [], "time": []}}}, "displayed_time": "15.50", "trialTime": 16150, "trial_type": "mouselab-mdp", "trial_index": 34, "time_elapsed": 730417, "internal_node_id": "0.0-6.0-1.0-25.0"}}, {"uniqueid": "w87389797:a90311923", "current_trial": 35, "dateTime": 1693481762775, "trialdata": {"revealed_states": [], "clicked_states": [], "num_clicks_accrued": [0, 0, 0, 0, 0, 0, 0, 0, 0, 0, 0, 0, 0], "stateRewards": ["", 1, 1, 4, 11, 83, -66, 18, -16, -23, 5, 25, 1, -3, 1, -12, 18, 24, -86, -11, -64, 36, 40, 2, 1, -6, 13, 55, 29, 72, -2, 81, -72, -41], "withholdReward": false, "trial_id": "mdp_trial_27", "block": "test", "trialIndex": 28, "score": -99, "costs": 0, "simulationMode": [null, null, null, null, null], "rewards": [1, -3, 1, -12, -86], "path": ["0", "0", "12", "13", "14", "15", "18"], "rt": [454, 356, 100, 389, 7], "actions": ["right", "right", "right", "up", "left"], "actionTimes": [2021, 2868, 3479, 4384, 4903], "queries": {"click": {"state": {"target": [], "time": []}, "edge": {"target": [], "time": []}}, "mouseover": {"state": {"target": [], "time": []}, "edge": {"target": [], "time": []}}, "mouseout": {"state": {"target": ["0"], "time": [1069]}, "edge": {"target": [], "time": []}}}, "displayed_time": "15.57", "trialTime": 16187, "trial_type": "mouselab-mdp", "trial_index": 35, "time_elapsed": 747386, "internal_node_id": "0.0-6.0-1.0-26.0"}}, {"uniqueid": "w87389797:a90311923", "current_trial": 36, "dateTime": 1693481779078, "trialdata": {"revealed_states": [], "clicked_states": [], "num_clicks_accrued": [0, 0, 0, 0, 0, 0, 0, 0, 0, 0, 0, 0, 0], "stateRewards": ["", 1, 1, -2, 7, -31, -6, 76, 1, -36, -16, -53, 2, 1, 7, 13, -47, -10, 47, -7, 72, 46, -56, -2, -2, -2, 11, -80, 44, 38, 16, 67, 85, -78], "withholdReward": false, "trial_id": "mdp_trial_28", "block": "test", "trialIndex": 29, "score": -68, "costs": 0, "simulationMode": [null, null, null, null, null], "rewards": [-2, -2, -2, 16, -78], "path": ["0", "0", "23", "24", "25", "30", "33"], "rt": [374, 207, 112, 261, 190], "actions": ["left", "left", "left", "down", "left"], "actionTimes": [1154, 1878, 2483, 3266, 3960], "queries": {"click": {"state": {"target": [], "time": []}, "edge": {"target": [], "time": []}}, "mouseover": {"state": {"target": [], "time": []}, "edge": {"target": [], "time": []}}, "mouseout": {"state": {"target": ["0"], "time": [410]}, "edge": {"target": [], "time": []}}}, "displayed_time": "14.78", "trialTime": 15481, "trial_type": "mouselab-mdp", "trial_index": 36, "time_elapsed": 763688, "internal_node_id": "0.0-6.0-1.0-27.0"}}, {"uniqueid": "w87389797:a90311923", "current_trial": 37, "dateTime": 1693481795452, "trialdata": {"revealed_states": [], "clicked_states": [], "num_clicks_accrued": [0, 0, 0, 0, 0, 0, 0, 0, 0, 0, 0, 0, 0], "stateRewards": ["", -2, 2, 5, -14, -56, 64, 84, -5, 52, 39, 85, -2, 1, 7, 8, 21, 29, -78, -9, -10, -69, 10, -2, -1, -7, 15, 72, 20, 41, -2, 52, 80, 22], "withholdReward": false, "trial_id": "mdp_trial_29", "block": "test", "trialIndex": 30, "score": 25, "costs": 0, "simulationMode": [null, null, null, null, null], "rewards": [-2, -1, -7, 15, 20], "path": ["0", "0", "23", "24", "25", "26", "28"], "rt": [380, 259, 418, 334, 373], "actions": ["left", "left", "left", "up", "right"], "actionTimes": [1232, 2001, 2943, 3774, 4646], "queries": {"click": {"state": {"target": [], "time": []}, "edge": {"target": [], "time": []}}, "mouseover": {"state": {"target": [], "time": []}, "edge": {"target": [], "time": []}}, "mouseout": {"state": {"target": ["0"], "time": [378]}, "edge": {"target": [], "time": []}}}, "displayed_time": "14.86", "trialTime": 15590, "trial_type": "mouselab-mdp", "trial_index": 37, "time_elapsed": 780062, "internal_node_id": "0.0-6.0-1.0-28.0"}}, {"uniqueid": "w87389797:a90311923", "current_trial": 38, "dateTime": 1693481812560, "trialdata": {"revealed_states": [], "clicked_states": [], "num_clicks_accrued": [0, 0, 0, 0, 0, 0, 0, 0, 0, 0, 0, 0, 0], "stateRewards": ["", -1, 4, -6, -5, -22, -38, -38, -2, -56, 88, 14, -1, -1, -7, -6, 61, -60, 21, 11, 57, 31, -30, -2, -2, 6, -9, -44, -70, -44, -15, 34, 16, -78], "withholdReward": false, "trial_id": "mdp_trial_30", "block": "test", "trialIndex": 31, "score": -91, "costs": 0, "simulationMode": [null, null, null, null, null], "rewards": [-2, -2, 6, -15, -78], "path": ["0", "0", "23", "24", "25", "30", "33"], "rt": [922, 33, 293, 74, 163], "actions": ["left", "left", "left", "down", "left"], "actionTimes": [2465, 2994, 3804, 4388, 5075], "queries": {"click": {"state": {"target": [], "time": []}, "edge": {"target": [], "time": []}}, "mouseover": {"state": {"target": [], "time": []}, "edge": {"target": [], "time": []}}, "mouseout": {"state": {"target": ["0"], "time": [1076]}, "edge": {"target": [], "time": []}}}, "displayed_time": "15.54", "trialTime": 16356, "trial_type": "mouselab-mdp", "trial_index": 38, "time_elapsed": 797171, "internal_node_id": "0.0-6.0-1.0-29.0"}}, {"uniqueid": "w87389797:a90311923", "current_trial": 39, "dateTime": 1693481829860, "trialdata": {"revealed_states": [], "clicked_states": [], "num_clicks_accrued": [0, 0, 0, 0, 0, 0, 0, 0, 0, 0, 0, 0, 0], "stateRewards": ["", 1, -3, 4, 13, -72, 52, 5, 5, -58, 5, 14, 2, 1, 3, -14, -86, -4, 73, 6, -58, -50, 49, 2, -3, -4, 2, 33, -41, 42, -11, 81, 45, 53], "withholdReward": false, "trial_id": "mdp_trial_31", "block": "test", "trialIndex": 32, "score": 65, "costs": 0, "simulationMode": [null, null, null, null, null], "rewards": [2, 1, 3, -14, 73], "path": ["0", "0", "12", "13", "14", "15", "18"], "rt": [615, 623, 344, 62, 6], "actions": ["right", "right", "right", "up", "left"], "actionTimes": [2401, 3522, 4375, 4943, 5471], "queries": {"click": {"state": {"target": [], "time": []}, "edge": {"target": [], "time": []}}, "mouseover": {"state": {"target": [], "time": []}, "edge": {"target": [], "time": []}}, "mouseout": {"state": {"target": ["0"], "time": [1277]}, "edge": {"target": [], "time": []}}}, "displayed_time": "15.79", "trialTime": 16524, "trial_type": "mouselab-mdp", "trial_index": 39, "time_elapsed": 814470, "internal_node_id": "0.0-6.0-1.0-30.0"}}, {"uniqueid": "w87389797:a90311923", "current_trial": 40, "dateTime": 1693481847198, "trialdata": {"revealed_states": [], "clicked_states": [], "num_clicks_accrued": [0, 0, 0, 0, 0, 0, 0, 0, 0, 0, 0, 0, 0], "stateRewards": ["", 2, -1, 5, 6, 10, 86, 55, 10, -45, 63, -71, 1, -2, 5, -8, -50, -72, 36, 15, 61, 12, 33, -1, -4, 6, 5, 79, -56, -21, -16, -87, 60, -81], "withholdReward": false, "trial_id": "mdp_trial_32", "block": "test", "trialIndex": 33, "score": -29, "costs": 0, "simulationMode": [null, null, null, null, null], "rewards": [2, -1, 5, 10, -45], "path": ["0", "0", "1", "2", "3", "8", "9"], "rt": [476, 8, 354, 291, 434], "actions": ["up", "up", "up", "left", "up"], "actionTimes": [2254, 2764, 3642, 4447, 5373], "queries": {"click": {"state": {"target": [], "time": []}, "edge": {"target": [], "time": []}}, "mouseover": {"state": {"target": [], "time": []}, "edge": {"target": [], "time": []}}, "mouseout": {"state": {"target": ["0"], "time": [1172]}, "edge": {"target": [], "time": []}}}, "displayed_time": "15.78", "trialTime": 16489, "trial_type": "mouselab-mdp", "trial_index": 40, "time_elapsed": 831809, "internal_node_id": "0.0-6.0-1.0-31.0"}}, {"uniqueid": "w87389797:a90311923", "current_trial": 41, "dateTime": 1693481864842, "trialdata": {"revealed_states": [], "clicked_states": [], "num_clicks_accrued": [0, 0, 0, 0, 0, 0, 0, 0, 0, 0, 0, 0, 0], "stateRewards": ["", 2, 3, 6, -12, -29, 12, 87, 4, 35, -30, 67, 2, 3, -5, -9, 44, 69, -8, 1, 45, -8, 28, -2, -1, -8, 11, -12, -5, 81, 9, 87, 82, 88], "withholdReward": false, "trial_id": "mdp_trial_33", "block": "test", "trialIndex": 34, "score": 50, "costs": 0, "simulationMode": [null, null, null, null, null], "rewards": [2, 3, 6, 4, 35], "path": ["0", "0", "1", "2", "3", "8", "9"], "rt": [516, 50, 6, 430, 476], "actions": ["up", "up", "up", "left", "up"], "actionTimes": [2402, 2958, 3500, 4472, 5452], "queries": {"click": {"state": {"target": [], "time": []}, "edge": {"target": [], "time": []}}, "mouseover": {"state": {"target": [], "time": []}, "edge": {"target": [], "time": []}}, "mouseout": {"state": {"target": ["0"], "time": [1342]}, "edge": {"target": [], "time": []}}}, "displayed_time": "15.89", "trialTime": 16755, "trial_type": "mouselab-mdp", "trial_index": 41, "time_elapsed": 849453, "internal_node_id": "0.0-6.0-1.0-32.0"}}, {"uniqueid": "w87389797:a90311923", "current_trial": 42, "dateTime": 1693481881562, "trialdata": {"revealed_states": [], "clicked_states": ["18"], "num_clicks_accrued": [0, 0, 0, 0, 0, 0, 0, 0, 0, 0, 0, 0, 0], "stateRewards": ["", 1, -1, 4, 5, -32, 18, 20, 6, -88, -74, 9, -2, 1, -2, -14, 34, -77, -38, -1, 80, -36, 73, 2, 3, -8, 10, -48, -73, -71, -11, -22, 20, 54], "withholdReward": false, "trial_id": "mdp_trial_34", "block": "test", "trialIndex": 35, "score": 14.850000000000001, "costs": -2.15, "simulationMode": [null, null, null, null, null, null], "rewards": [-2, 1, -2, -14, 34], "path": ["0", "0", "12", "13", "14", "15", "16"], "rt": [2236, 311, 42, 318, 286, 75], "actions": ["right", "right", "right", "right", "up", "up"], "actionTimes": [3439, 3755, 4320, 5171, 5986, 6558], "queries": {"click": {"state": {"target": ["18"], "time": [2595]}, "edge": {"target": [], "time": []}}, "mouseover": {"state": {"target": ["15", "15", "18"], "time": [1728, 2078, 2260]}, "edge": {"target": [], "time": []}}, "mouseout": {"state": {"target": ["0", "15", "15"], "time": [814, 1861, 2213]}, "edge": {"target": [], "time": []}}}, "displayed_time": "15.21", "trialTime": 15696, "trial_type": "mouselab-mdp", "trial_index": 42, "time_elapsed": 866173, "internal_node_id": "0.0-6.0-1.0-33.0"}}, {"uniqueid": "w87389797:a90311923", "current_trial": 43, "dateTime": 1693481899566, "trialdata": {"revealed_states": [], "clicked_states": ["28"], "num_clicks_accrued": [0, 0, 0, 0, 0, 0, 0, 0, 0, 0, 0, 0, 0], "stateRewards": ["", 1, 3, 3, -10, 52, 68, 59, 12, 7, 49, 21, -2, -3, -4, -2, -2, 63, 63, -4, 44, 43, -76, -2, -3, -6, 13, 48, 36, 12, -5, -36, -33, -11], "withholdReward": false, "trial_id": "mdp_trial_35", "block": "test", "trialIndex": 36, "score": 35.85, "costs": -2.15, "simulationMode": [null, null, null, null, null, null], "rewards": [-2, -3, -6, 13, 36], "path": ["0", "0", "23", "24", "25", "26", "28"], "rt": [2760, 264, 126, 252, 36, 17], "actions": ["left", "left", "left", "left", "up", "right"], "actionTimes": [5513, 5780, 6437, 7214, 7775, 8289], "queries": {"click": {"state": {"target": ["28"], "time": [4904]}, "edge": {"target": [], "time": []}}, "mouseover": {"state": {"target": ["28", "26", "28"], "time": [4054, 4438, 4670]}, "edge": {"target": [], "time": []}}, "mouseout": {"state": {"target": ["18", "12", "0", "28", "26"], "time": [1520, 1670, 3932, 4286, 4486]}, "edge": {"target": [], "time": []}}}, "displayed_time": "16.75", "trialTime": 17192, "trial_type": "mouselab-mdp", "trial_index": 43, "time_elapsed": 884177, "internal_node_id": "0.0-6.0-1.0-34.0"}}, {"uniqueid": "w87389797:a90311923", "current_trial": 44, "dateTime": 1693481917417, "trialdata": {"revealed_states": [], "clicked_states": ["11"], "num_clicks_accrued": [0, 0, 0, 0, 0, 0, 0, 0, 0, 0, 0, 0, 0], "stateRewards": ["", -2, -4, 6, 14, -34, 49, 36, -8, -3, 32, -4, 1, -2, 1, -8, -20, -71, -57, -7, -86, -62, -16, -2, -3, -5, 11, 23, -21, 53, 5, -5, 85, 73], "withholdReward": false, "trial_id": "mdp_trial_36", "block": "test", "trialIndex": 37, "score": -13.15, "costs": -2.15, "simulationMode": [null, null, null, null, null], "rewards": [-2, -4, 6, -8, -3], "path": ["0", "0", "1", "2", "3", "8", "9"], "rt": [4345, 161, 153, 529, 25], "actions": ["up", "up", "up", "left", "up"], "actionTimes": [6180, 6845, 7521, 8546, 9076], "queries": {"click": {"state": {"target": ["11"], "time": [3002]}, "edge": {"target": [], "time": []}}, "mouseover": {"state": {"target": ["10", "11"], "time": [2349, 2715]}, "edge": {"target": [], "time": []}}, "mouseout": {"state": {"target": ["28", "10", "11"], "time": [534, 2548, 4850]}, "edge": {"target": [], "time": []}}}, "displayed_time": "15.84", "trialTime": 16987, "trial_type": "mouselab-mdp", "trial_index": 44, "time_elapsed": 902027, "internal_node_id": "0.0-6.0-1.0-35.0"}}, {"uniqueid": "w87389797:a90311923", "current_trial": 45, "dateTime": 1693481934890, "trialdata": {"revealed_states": [], "clicked_states": ["7"], "num_clicks_accrued": [0, 0, 0, 0, 0, 0, 0, 0, 0, 0, 0, 0, 0], "stateRewards": ["", -1, -3, -7, -7, -76, 30, -49, 11, -70, 56, 2, 1, 4, -3, -14, -59, -83, -25, -9, -21, -67, -73, -2, 4, 4, -9, -11, -32, 60, 9, -87, 22, -64], "withholdReward": false, "trial_id": "mdp_trial_37", "block": "test", "trialIndex": 38, "score": 9.850000000000001, "costs": -2.15, "simulationMode": [null, null, null, null, null, null], "rewards": [-1, -3, -7, -7, 30], "path": ["0", "0", "1", "2", "3", "4", "6"], "rt": [2128, 721, 300, 308, 27, 40], "actions": ["up", "up", "up", "up", "right", "right"], "actionTimes": [3985, 4709, 5538, 6384, 6912, 7457], "queries": {"click": {"state": {"target": ["7"], "time": [3234]}, "edge": {"target": [], "time": []}}, "mouseover": {"state": {"target": ["23", "1", "2", "7"], "time": [2365, 2480, 2681, 2848]}, "edge": {"target": [], "time": []}}, "mouseout": {"state": {"target": ["0", "23", "1", "2", "7", "12"], "time": [2332, 2382, 2546, 2748, 8497, 15819]}, "edge": {"target": [], "time": []}}}, "displayed_time": "15.87", "trialTime": 16625, "trial_type": "mouselab-mdp", "trial_index": 45, "time_elapsed": 919500, "internal_node_id": "0.0-6.0-1.0-36.0"}}, {"uniqueid": "w87389797:a90311923", "current_trial": 46, "dateTime": 1693481955752, "trialdata": {"revealed_states": [], "clicked_states": ["17"], "num_clicks_accrued": [0, 0, 0, 0, 0, 0, 0, 0, 0, 0, 0, 0, 0], "stateRewards": ["", 1, 1, -3, 7, 49, 78, 26, -5, 26, 48, -43, -1, -3, 2, -5, 4, -1, -60, 10, -35, 51, 81, -2, 1, -7, -5, -39, -86, -54, 4, -3, 74, 77], "withholdReward": false, "trial_id": "mdp_trial_38", "block": "test", "trialIndex": 39, "score": -5.15, "costs": -2.15, "simulationMode": [null, null, null, null, null, null], "rewards": [-1, -3, 2, -5, 4], "path": ["0", "0", "12", "13", "14", "15", "16"], "rt": [1885, 645, 235, 275, 477, 101], "actions": ["right", "right", "right", "right", "up", "up"], "actionTimes": [4018, 4666, 5436, 6243, 7229, 7843], "queries": {"click": {"state": {"target": ["17"], "time": [3295]}, "edge": {"target": [], "time": []}}, "mouseover": {"state": {"target": ["12", "13", "14", "17"], "time": [2332, 2487, 2695, 2945]}, "edge": {"target": [], "time": []}}, "mouseout": {"state": {"target": ["0", "12", "13", "14", "17"], "time": [2329, 2485, 2595, 2778, 17313]}, "edge": {"target": [], "time": []}}}, "displayed_time": "16.14", "trialTime": 19887, "trial_type": "mouselab-mdp", "trial_index": 46, "time_elapsed": 940362, "internal_node_id": "0.0-6.0-1.0-37.0"}}, {"uniqueid": "w87389797:a90311923", "current_trial": 47, "dateTime": 1693481972709, "trialdata": {"revealed_states": [], "clicked_states": [], "num_clicks_accrued": [0, 0, 0, 0, 0, 0, 0, 0, 0, 0, 0, 0, 0], "stateRewards": ["", -1, 4, -5, 9, 29, -75, -42, -16, 24, -28, -41, 2, -3, 1, 10, 60, 47, 55, -1, -53, 22, -40, 2, -3, -6, 4, -26, 44, 54, 15, -76, 42, 14], "withholdReward": false, "trial_id": "mdp_trial_39", "block": "test", "trialIndex": 40, "score": -59, "costs": 0, "simulationMode": [null, null, null, null, null], "rewards": [-1, 4, -5, -16, -41], "path": ["0", "0", "1", "2", "3", "8", "11"], "rt": [412, 449, 116, 243, 171], "actions": ["up", "up", "up", "left", "left"], "actionTimes": [1778, 2736, 3344, 4113, 4782], "queries": {"click": {"state": {"target": [], "time": []}, "edge": {"target": [], "time": []}}, "mouseover": {"state": {"target": [], "time": []}, "edge": {"target": [], "time": []}}, "mouseout": {"state": {"target": ["12", "0"], "time": [491, 15826]}, "edge": {"target": [], "time": []}}}, "displayed_time": "15.38", "trialTime": 16058, "trial_type": "mouselab-mdp", "trial_index": 47, "time_elapsed": 957319, "internal_node_id": "0.0-6.0-1.0-38.0"}}, {"uniqueid": "w87389797:a90311923", "current_trial": 48, "dateTime": 1693481990055, "trialdata": {"revealed_states": [], "clicked_states": ["31"], "num_clicks_accrued": [0, 0, 0, 0, 0, 0, 0, 0, 0, 0, 0, 0, 0], "stateRewards": ["", -1, 1, -6, -1, 80, 23, 2, -11, 73, -81, 59, 1, 3, 5, -1, -26, 28, -3, 16, -59, -13, -50, -2, -2, 2, 15, -50, 86, 17, -4, 37, 35, 44], "withholdReward": false, "trial_id": "mdp_trial_40", "block": "test", "trialIndex": 41, "score": 28.85, "costs": -2.15, "simulationMode": [null, null, null, null, null, null], "rewards": [-2, -2, 2, -4, 37], "path": ["0", "0", "23", "24", "25", "30", "31"], "rt": [2439, 597, 239, 228, 498, 25], "actions": ["left", "left", "left", "left", "down", "right"], "actionTimes": [3757, 4357, 5127, 5876, 6882, 7411], "queries": {"click": {"state": {"target": ["31"], "time": [2815]}, "edge": {"target": [], "time": []}}, "mouseover": {"state": {"target": ["31", "31"], "time": [1815, 2632]}, "edge": {"target": [], "time": []}}, "mouseout": {"state": {"target": ["0", "31"], "time": [1514, 2298]}, "edge": {"target": [], "time": []}}}, "displayed_time": "15.32", "trialTime": 15911, "trial_type": "mouselab-mdp", "trial_index": 48, "time_elapsed": 974666, "internal_node_id": "0.0-6.0-1.0-39.0"}}, {"uniqueid": "w87389797:a90311923", "current_trial": 49, "dateTime": 1693482052387, "trialdata": {"rt": 62316, "response": {"Q0": "$-16 to 16", "Q1": "$-16 to $16", "Q2": "$-88 to $88", "Q3": "The cost for clicking on nodes varied between nodes.", "Q4": "Very motivated"}, "question_order": [0, 1, 2, 3, 4], "trial_id": "final_quiz_control", "trial_type": "survey-multi-choice", "trial_index": 49, "time_elapsed": 1036998, "internal_node_id": "0.0-6.0-2.0"}}, {"uniqueid": "w87389797:a90311923", "current_trial": 50, "dateTime": 1693482093671, "trialdata": {"rt": 41259, "response": {"Q0": "My strategy was mostly completely random. I just went to random nodes.", "Q1": "My strategy stayed mostly the same.", "Q2": "It was difficult to improve due to the randomness."}, "trial_id": "self_report_control", "trial_type": "survey-text", "trial_index": 50, "time_elapsed": 1078281, "internal_node_id": "0.0-6.0-3.0"}}, {"uniqueid": "w87389797:a90311923", "current_trial": 51, "dateTime": 1693482133474, "trialdata": {"rt": 39796, "response": {"Q0": "Disagree", "Q1": "Disagree", "Q2": "Agree", "Q3": "Agree", "Q4": "Disagree", "Q5": "Agree", "Q6": "Disagree"}, "question_order": [0, 1, 2, 3, 4, 5, 6], "trial_id": "self_report_2", "trial_type": "survey-multi-choice", "trial_index": 51, "time_elapsed": 1118085, "internal_node_id": "0.0-6.0-4.0"}}, {"uniqueid": "w87389797:a90311923", "current_trial": 52, "dateTime": 1693482149100, "trialdata": {"rt": 15607, "response": {"gender": "male", "age": "46", "colorblind": "0", "effort": "0"}, "trial_type": "survey-html-form", "trial_index": 52, "time_elapsed": 1133706, "internal_node_id": "0.0-6.0-5.0"}}, {"uniqueid": "w87389797:a90311923", "current_trial": 53, "dateTime": 1693482162219, "trialdata": {"rt": 13099, "response": {"Q0": "no", "Q1": "no", "Q2": "none"}, "trial_type": "survey-text", "trial_index": 53, "time_elapsed": 1146830, "internal_node_id": "0.0-6.0-6.0"}}, {"uniqueid": "w87389797:a90311923", "current_trial": 54, "dateTime": 1693482189597, "trialdata": {"rt": 27367, "stimulus": "<h1>Completion Code Instructions (1/2)</h1>\n<br><br><br><br>\nYou have reached the end of the experiment! The completion code consists of two parts: (1) a code with 2 characters (2) a code with 6 characters. On this page, you will receive the second part of the code. The first part of the completion code will be on the next page.\n<br><br>\nThe second part of your completion code is: <b>EWEK22</b>\n<br><br>\nPlease note this down. Then, press 'Finish HIT' in order to find the first part of your completion code. Once the data has been saved, you will receive this code either in this window or in the original browser window where you started the experiment.\n", "response": 0, "trial_type": "html-button-response", "trial_index": 54, "time_elapsed": 1174208, "internal_node_id": "0.0-6.0-7.0"}}, {"uniqueid": "w87389797:a90311923", "current_trial": 55, "dateTime": 1693482190606, "trialdata": {"success": true, "trial_type": "fullscreen", "trial_index": 55, "time_elapsed": 1175217, "internal_node_id": "0.0-7.0"}}], "questiondata": {"params": {"CODE": "C6DMOQA6", "MIN_TIME": 14, "inspectCost": 1, "startTime": "Thu Aug 31 2023 12:23:34 GMT+0100 (British Summer Time)", "bonusRate": 0.002, "variance": "1_2_4_8_44", "branching": "31123"}, "final_score": -151.6}, "eventdata": [{"eventtype": "initialized", "value": null, "timestamp": 1693481013846, "interval": 0}, {"eventtype": "window_resize", "value": [1024, 767], "timestamp": 1693481013846, "interval": 0}, {"eventtype": "window_resize", "value": [1024, 767], "timestamp": 1693481014311, "interval": 465}, {"eventtype": "window_resize", "value": [1920, 1080], "timestamp": 1693481018825, "interval": 4514}, {"eventtype": "window_resize", "value": [1024, 767], "timestamp": 1693482190042, "interval": 1171217}], "useragent": "Mozilla/5.0 (Windows NT 10.0; Win64; x64) AppleWebKit/537.36 (KHTML, like Gecko) Chrome/116.0.0.0 Safari/537.36", "mode": "live", "id": "w87389797:a90311923", "status": "user data saved", "Beginhit": "2023-08-31 11:23:28.77265", "Beginexp": "2023-08-31 11:23:39.840706", "Endhit": "2023-08-31 11:43:11.385649", "psiturkStatus": 3, "browser": "<redacted>", "platform": "windows", "language": "en-GB"}