{"condition": 1, "counterbalance": 0, "assignmentId": "a80697086", "workerId": "w52624552", "hitId": "h66003546", "currenttrial": 56, "bonus": 0, "data": [{"uniqueid": "w52624552:a80697086", "current_trial": 0, "dateTime": 1691075852839, "trialdata": {"success": true, "trial_type": "fullscreen", "trial_index": 0, "time_elapsed": 46294, "internal_node_id": "0.0-0.0"}}, {"uniqueid": "w52624552:a80697086", "current_trial": 1, "dateTime": 1691075945557, "trialdata": {"view_history": [{"page_index": 0, "viewing_time": 92709}], "rt": 92710, "trial_id": "exp_instructions_misaligned", "trial_type": "instructions", "trial_index": 1, "time_elapsed": 139013, "internal_node_id": "0.0-1.0"}}, {"uniqueid": "w52624552:a80697086", "current_trial": 2, "dateTime": 1691075952053, "trialdata": {"success": true, "trial_type": "fullscreen", "trial_index": 2, "time_elapsed": 145509, "internal_node_id": "0.0-2.0-0.0"}}, {"uniqueid": "w52624552:a80697086", "current_trial": 3, "dateTime": 1691076460347, "trialdata": {"view_history": [{"page_index": 0, "viewing_time": 205324}, {"page_index": 1, "viewing_time": 1353}, {"page_index": 0, "viewing_time": 34002}, {"page_index": 1, "viewing_time": 148646}, {"page_index": 2, "viewing_time": 50590}, {"page_index": 3, "viewing_time": 68377}], "rt": 508292, "trial_id": "mouselab_instructions_1_misaligned", "trial_type": "instructions", "trial_index": 3, "time_elapsed": 653803, "internal_node_id": "0.0-2.0-1.0"}}, {"uniqueid": "w52624552:a80697086", "current_trial": 4, "dateTime": 1691076537048, "trialdata": {"revealed_states": [], "clicked_states": ["1", "2", "3", "4", "12", "14", "19", "21", "23", "24", "25", "30", "32", "26", "27", "15", "16"], "num_clicks_accrued": [0, 0, 0, 0, 0, 0, 0, 0, 0, 0, 0, 0, 0], "stateRewards": ["", -10, 10, -10, -10, 10, 10, 10, -10, 10, -10, -10, 10, 10, -10, -10, -10, 10, -10, 10, -10, 10, -10, -10, 10, -10, 10, -10, -10, 10, -10, 10, 10, -10], "withholdReward": false, "trial_id": "practice_1", "block": "test", "trialIndex": 0, "score": -15, "costs": -8.5, "simulationMode": [null, null, null, null, null], "rewards": [-10, 10, -10, -10, 10], "path": ["0", "0", "1", "2", "3", "4", "6"], "rt": [37853, 224, 101, 390, 594], "actions": ["up", "up", "up", "right", "right"], "actionTimes": [55380, 56130, 56751, 57659, 58774], "queries": {"click": {"state": {"target": ["1", "2", "3", "4", "12", "14", "19", "21", "23", "24", "25", "30", "32", "26", "27", "15", "16"], "time": [25189, 26335, 27763, 29602, 32338, 34566, 36510, 38205, 39944, 40994, 42123, 43260, 44400, 46285, 47397, 49649, 50765]}, "edge": {"target": [], "time": []}}, "mouseover": {"state": {"target": ["1", "0", "0", "1", "2", "3", "12", "4", "6", "18", "13", "12", "13", "14", "19", "21", "31", "25", "24", "23", "24", "25", "30", "32", "28", "26", "27", "13", "15", "16", "14", "22"], "time": [18617, 21483, 24067, 24631, 25613, 27001, 28681, 29076, 30080, 31093, 31228, 31710, 32842, 33993, 36009, 37418, 38940, 39038, 39272, 39439, 40380, 41656, 42705, 43871, 45568, 45769, 46883, 48718, 49098, 50170, 51814, 52118]}, "edge": {"target": [], "time": []}}, "mouseout": {"state": {"target": ["0", "12", "17", "16", "0", "1", "0", "0", "1", "2", "3", "2", "12", "4", "6", "18", "13", "12", "13", "14", "19", "21", "31", "25", "24", "23", "24", "25", "30", "32", "30", "25", "28", "26", "27", "13", "15", "16", "15", "14", "22", "0", "1", "2", "8", "3"], "time": [8421, 8454, 8520, 13002, 18306, 21435, 21534, 24198, 25515, 26787, 28219, 28333, 28894, 30047, 30961, 31161, 31278, 32738, 33844, 35911, 37281, 38729, 38988, 39208, 39391, 40345, 41556, 42601, 43791, 45018, 45076, 45142, 45617, 46673, 48319, 48749, 50106, 51484, 51617, 51863, 52148, 69091, 69123, 69256, 70642, 70672]}, "edge": {"target": [], "time": []}}}, "displayed_time": "59.30", "trialTime": 75548, "trial_type": "mouselab-mdp", "trial_index": 4, "time_elapsed": 730503, "internal_node_id": "0.0-2.0-2.0-0.0"}}, {"uniqueid": "w52624552:a80697086", "current_trial": 5, "dateTime": 1691076597053, "trialdata": {"revealed_states": [], "clicked_states": ["1", "3", "8", "11", "4", "6", "12", "13", "19", "21", "15", "16", "23", "25", "26", "27", "30"], "num_clicks_accrued": [0, 0, 0, 0, 0, 0, 0, 0, 0, 0, 0, 0, 0], "stateRewards": ["", 10, -10, 10, -10, 10, 10, 10, 10, -10, -10, -10, -10, 10, 10, -10, -10, -10, -10, 10, -10, -10, 10, -10, -10, -10, -10, -10, -10, -10, 10, 10, 10, 10], "withholdReward": false, "trial_id": "practice_2", "block": "test", "trialIndex": 1, "score": 5, "costs": -8.5, "simulationMode": [null, null, null, null, null], "rewards": [10, -10, 10, 10, -10], "path": ["0", "0", "1", "2", "3", "8", "11"], "rt": [31272, 214, 286, 1792, 100], "actions": ["up", "up", "up", "left", "left"], "actionTimes": [38996, 39721, 40525, 42832, 43437], "queries": {"click": {"state": {"target": ["1", "3", "8", "11", "4", "6", "12", "13", "19", "21", "15", "16", "23", "25", "26", "27", "30"], "time": [9379, 11412, 12733, 14177, 15610, 16775, 18231, 20428, 23120, 24418, 26824, 27970, 29455, 31585, 32706, 33801, 34975]}, "edge": {"target": [], "time": []}}, "mouseover": {"state": {"target": ["1", "2", "3", "8", "11", "10", "2", "4", "6", "12", "13", "13", "14", "19", "19", "19", "21", "14", "15", "15", "14", "15", "16", "18", "23", "24", "25", "26", "27", "30", "30", "32", "31", "32", "12"], "time": [8244, 9927, 10792, 12141, 13466, 14728, 14795, 15096, 16123, 17557, 18623, 20069, 20868, 21986, 22384, 22701, 23849, 25387, 25565, 25815, 26014, 26267, 27467, 28584, 28831, 30016, 31013, 32179, 33128, 34295, 34595, 35426, 36992, 37177, 38221]}, "edge": {"target": [], "time": []}}, "mouseout": {"state": {"target": ["14", "12", "0", "0", "1", "2", "3", "8", "11", "10", "2", "4", "6", "12", "13", "13", "14", "19", "19", "19", "21", "19", "14", "15", "15", "14", "15", "16", "18", "23", "24", "25", "26", "27", "26", "25", "30", "30", "32", "31", "32", "12", "15", "17"], "time": [1911, 1962, 2329, 7960, 9711, 10709, 12073, 13305, 14662, 14744, 14877, 16039, 17296, 18551, 19768, 20807, 21919, 22314, 22455, 23632, 25138, 25336, 25531, 25631, 25901, 26249, 27302, 28534, 28603, 29884, 30931, 32080, 33076, 34126, 34192, 34260, 34427, 35377, 36576, 37127, 37806, 38454, 50665, 50683]}, "edge": {"target": [], "time": []}}}, "displayed_time": "43.96", "trialTime": 59483, "trial_type": "mouselab-mdp", "trial_index": 5, "time_elapsed": 790508, "internal_node_id": "0.0-2.0-2.0-1.0"}}, {"uniqueid": "w52624552:a80697086", "current_trial": 6, "dateTime": 1691076695886, "trialdata": {"view_history": [{"page_index": 0, "viewing_time": 79661}, {"page_index": 1, "viewing_time": 19164}], "rt": 98826, "trial_id": "mouselab_instructions_2_misaligned", "trial_type": "instructions", "trial_index": 6, "time_elapsed": 889342, "internal_node_id": "0.0-2.0-3.0"}}, {"uniqueid": "w52624552:a80697086", "current_trial": 7, "dateTime": 1691076767478, "trialdata": {"rt": 71585, "response": {"Q0": "The cost for clicking on nodes may vary between nodes.", "Q1": "The better I perform the higher my bonus will be.", "Q2": "No, the amount of cash at each node of the web may be different each time.", "Q3": "To get the highest total score.", "Q4": "Only before moving the spider.", "Q5": "3 seconds"}, "question_order": [0, 1, 2, 3, 4, 5], "correct": {"Q0": "The cost for clicking on nodes may vary between nodes.", "Q1": "The better I perform the higher my bonus will be.", "Q2": "No, the amount of cash at each node of the web may be different each time.", "Q3": "To get the highest total score.", "Q4": "Only before moving the spider.", "Q5": "3 seconds"}, "trial_id": "mouselab_quiz_misaligned", "trial_type": "survey-multi-choice", "trial_index": 7, "time_elapsed": 960934, "internal_node_id": "0.0-2.0-4.0"}}, {"uniqueid": "w52624552:a80697086", "current_trial": 8, "dateTime": 1691076818748, "trialdata": {"rt": 51205, "stimulus": "\n<h1> Get ready to start the game! </h1>\n\nThank you for reading the instructions. Get ready start with the 40 rounds of this game.\n<br><br>\nIf you need to take a break, feel free to take one after the end of a round, before continuing to the next one.\n<br><br>\nRemember, the more money the spider gets, the bigger your bonus will be!\n<br><br>\n<div style='text-align: center;'>Press <code>space</code> to begin.</div>\n\n<br><br>\n(If, at any point, the <code>space</code> key does not take you to the next page, click once on the text and try again.)", "response": " ", "trial_id": "mdp_ready", "trial_type": "html-keyboard-response", "trial_index": 8, "time_elapsed": 1012204, "internal_node_id": "0.0-4.0-0.0"}}, {"uniqueid": "w52624552:a80697086", "current_trial": 9, "dateTime": 1691076867786, "trialdata": {"revealed_states": [], "clicked_states": ["1", "2", "3", "8", "11", "4", "6", "14", "19", "21", "23", "24", "25", "30", "32"], "num_clicks_accrued": [0, 0, 0, 0, 0, 0, 0, 0, 0, 0, 0, 0, 0], "stateRewards": ["", -1, 2, 5, -6, 13, -64, -47, 8, -79, -80, -33, 1, 2, -2, -16, 56, -71, -10, 3, 29, 44, 85, -1, 4, 5, 4, -36, -56, 19, 8, 52, -13, -2], "withholdReward": false, "trial_id": "mdp_trial_1", "block": "test", "trialIndex": 2, "score": -36.849999999999994, "costs": -17.849999999999998, "simulationMode": [null, null, null, null, null, null], "rewards": [-1, 2, 5, 8, -33], "path": ["0", "0", "1", "2", "3", "8", "11"], "rt": [22632, 1364, 144, 97, 363, 110], "actions": ["up", "up", "up", "up", "left", "left"], "actionTimes": [32300, 33669, 34336, 34952, 35836, 36468], "queries": {"click": {"state": {"target": ["1", "2", "3", "8", "11", "4", "6", "14", "19", "21", "23", "24", "25", "30", "32"], "time": [10386, 11201, 11933, 12738, 13595, 17045, 18077, 21088, 21955, 22879, 25820, 26825, 27923, 28869, 29795]}, "edge": {"target": [], "time": []}}, "mouseover": {"state": {"target": ["1", "2", "3", "8", "11", "4", "4", "6", "4", "6", "12", "13", "14", "19", "21", "12", "13", "12", "0", "23", "24", "25", "30", "32", "31", "7", "2"], "time": [9817, 10747, 11515, 12347, 13148, 14080, 14353, 15517, 16647, 17722, 18664, 19650, 20696, 21509, 22450, 23492, 24432, 25137, 25214, 25461, 26325, 27365, 28372, 29339, 30484, 30824, 31022]}, "edge": {"target": [], "time": []}}, "mouseout": {"state": {"target": ["12", "18", "16", "20", "19", "22", "0", "1", "2", "3", "3", "8", "11", "8", "3", "4", "4", "6", "4", "4", "6", "12", "13", "14", "19", "21", "12", "13", "12", "0", "23", "24", "25", "25", "30", "32", "31", "7", "2", "13"], "time": [1905, 1956, 1988, 6888, 7052, 7170, 9674, 10664, 11481, 12156, 12280, 13097, 13915, 13947, 14001, 14148, 15482, 16579, 17516, 17626, 18482, 19554, 20601, 21477, 22382, 23342, 24400, 25118, 25171, 25411, 26275, 27282, 28147, 28305, 29271, 30358, 30542, 30974, 31121, 45466]}, "edge": {"target": [], "time": []}}}, "displayed_time": "36.99", "trialTime": 48478, "trial_type": "mouselab-mdp", "trial_index": 9, "time_elapsed": 1061240, "internal_node_id": "0.0-4.0-1.0-0.0"}}, {"uniqueid": "w52624552:a80697086", "current_trial": 10, "dateTime": 1691076910433, "trialdata": {"revealed_states": [], "clicked_states": ["1", "2", "3", "8", "23", "24", "25", "30", "32", "12", "13", "14", "19", "21", "4", "6"], "num_clicks_accrued": [0, 0, 0, 0, 0, 0, 0, 0, 0, 0, 0, 0, 0], "stateRewards": ["", -2, -2, -3, -6, -15, -11, 41, -12, -63, -76, 2, -2, -3, 8, 9, -36, -2, -18, -16, -32, -85, -17, -2, 1, 5, -16, 82, 35, -88, -1, 80, -82, -20], "withholdReward": false, "trial_id": "mdp_trial_2", "block": "test", "trialIndex": 3, "score": -113.8, "costs": -15.8, "simulationMode": [null, null, null, null, null, null], "rewards": [-2, -3, 8, -16, -85], "path": ["0", "0", "12", "13", "14", "19", "21"], "rt": [23142, 1813, 295, 244, 683, 450], "actions": ["right", "right", "right", "right", "down", "down"], "actionTimes": [28647, 30468, 31287, 32050, 33256, 34223], "queries": {"click": {"state": {"target": ["1", "2", "3", "8", "23", "24", "25", "30", "32", "12", "13", "14", "19", "21", "4", "6"], "time": [6344, 7212, 8112, 8971, 10331, 11420, 12464, 13372, 14259, 18002, 18943, 20014, 20966, 21922, 25542, 26592]}, "edge": {"target": [], "time": []}}, "mouseover": {"state": {"target": ["1", "2", "3", "8", "28", "24", "23", "24", "25", "30", "32", "12", "13", "12", "13", "14", "19", "21", "18", "7", "4", "4", "4", "6", "12"], "time": [5926, 6738, 7665, 8541, 9574, 9810, 10038, 10902, 11965, 12911, 13832, 15315, 16158, 17460, 18542, 19442, 20493, 21557, 22958, 23064, 23636, 24731, 25225, 26225, 27672]}, "edge": {"target": [], "time": []}}, "mouseout": {"state": {"target": ["14", "13", "12", "0", "1", "2", "3", "8", "28", "24", "23", "24", "25", "30", "32", "12", "13", "12", "13", "14", "19", "21", "19", "18", "7", "4", "4", "4", "6", "12"], "time": [2693, 2774, 2960, 5527, 6696, 7591, 8492, 9486, 9640, 9974, 10783, 11851, 12881, 13782, 14710, 16055, 17210, 18491, 19408, 20384, 21429, 22134, 22778, 23009, 23156, 24442, 24772, 26155, 27423, 27723]}, "edge": {"target": [], "time": []}}}, "displayed_time": "34.74", "trialTime": 42059, "trial_type": "mouselab-mdp", "trial_index": 10, "time_elapsed": 1103888, "internal_node_id": "0.0-4.0-1.0-1.0"}}, {"uniqueid": "w52624552:a80697086", "current_trial": 11, "dateTime": 1691076940943, "trialdata": {"revealed_states": [], "clicked_states": ["23", "24", "25", "26", "27", "12", "13", "14", "15", "16"], "num_clicks_accrued": [0, 0, 0, 0, 0, 0, 0, 0, 0, 0, 0, 0, 0], "stateRewards": ["", -2, 2, -2, -7, -50, -62, -45, 7, 36, -24, -72, -1, -1, 8, -1, -67, 20, -52, 2, 35, -50, 80, -1, 1, 6, -6, -70, 6, 88, 8, -47, 74, -19], "withholdReward": false, "trial_id": "mdp_trial_3", "block": "test", "trialIndex": 4, "score": -71.5, "costs": -9.5, "simulationMode": [null, null, null, null, null], "rewards": [-1, -1, 8, -1, -67], "path": ["0", "0", "12", "13", "14", "15", "16"], "rt": [17279, 184, 194, 823, 130], "actions": ["right", "right", "right", "up", "up"], "actionTimes": [20297, 21000, 21691, 23034, 23675], "queries": {"click": {"state": {"target": ["23", "24", "25", "26", "27", "12", "13", "14", "15", "16"], "time": [3743, 4572, 5436, 6545, 7665, 11917, 12948, 13899, 14938, 15899]}, "edge": {"target": [], "time": []}}, "mouseover": {"state": {"target": ["23", "24", "25", "26", "27", "12", "12", "12", "13", "14", "15", "16", "13", "22", "12", "6", "6"], "time": [3387, 4137, 4995, 5936, 7239, 8953, 10105, 11500, 12469, 13520, 14382, 15515, 16854, 16948, 17900, 18061, 18327]}, "edge": {"target": [], "time": []}}, "mouseout": {"state": {"target": ["0", "23", "24", "25", "26", "27", "26", "25", "12", "12", "12", "13", "14", "15", "16", "13", "22", "12", "6", "6", "0"], "time": [3253, 4076, 4959, 5821, 6950, 8201, 8291, 8385, 9436, 10916, 12399, 13435, 14282, 15396, 16631, 16899, 17045, 17920, 18194, 28344, 28496]}, "edge": {"target": [], "time": []}}}, "displayed_time": "24.20", "trialTime": 29913, "trial_type": "mouselab-mdp", "trial_index": 11, "time_elapsed": 1134398, "internal_node_id": "0.0-4.0-1.0-2.0"}}, {"uniqueid": "w52624552:a80697086", "current_trial": 12, "dateTime": 1691076976995, "trialdata": {"revealed_states": [], "clicked_states": ["12", "13", "14", "15", "18", "23", "24", "25"], "num_clicks_accrued": [0, 0, 0, 0, 0, 0, 0, 0, 0, 0, 0, 0, 0], "stateRewards": ["", -2, -3, -6, -7, 9, 16, 65, 5, -41, 20, -25, -1, -4, 1, -11, -49, -4, 71, 1, 39, -62, 52, -2, -3, 7, -9, -28, -70, 84, 8, 24, -58, 82], "withholdReward": false, "trial_id": "mdp_trial_4", "block": "test", "trialIndex": 5, "score": 50.2, "costs": -5.8, "simulationMode": [null, null, null, null, null], "rewards": [-1, -4, 1, -11, 71], "path": ["0", "0", "12", "13", "14", "15", "18"], "rt": [12996, 353, 259, 805, 450], "actions": ["right", "right", "right", "up", "left"], "actionTimes": [22176, 23057, 23843, 25170, 26132], "queries": {"click": {"state": {"target": ["12", "13", "14", "15", "18", "23", "24", "25"], "time": [10059, 11028, 11881, 12697, 13550, 16866, 18272, 19542]}, "edge": {"target": [], "time": []}}, "mouseover": {"state": {"target": ["12", "13", "14", "15", "18", "12", "0", "23", "24", "23", "24", "25"], "time": [9654, 10495, 11535, 12260, 13142, 14121, 14195, 14457, 15354, 15619, 17770, 18856]}, "edge": {"target": [], "time": []}}, "mouseout": {"state": {"target": ["0", "12", "13", "14", "15", "15", "18", "12", "0", "23", "24", "23", "24", "25"], "time": [9605, 10406, 11440, 12225, 12907, 13075, 14019, 14143, 14265, 15274, 15537, 17656, 18821, 20109]}, "edge": {"target": [], "time": []}}}, "displayed_time": "26.65", "trialTime": 35448, "trial_type": "mouselab-mdp", "trial_index": 12, "time_elapsed": 1170450, "internal_node_id": "0.0-4.0-1.0-3.0"}}, {"uniqueid": "w52624552:a80697086", "current_trial": 13, "dateTime": 1691077045637, "trialdata": {"revealed_states": [], "clicked_states": ["18", "17", "20", "33", "27", "11", "9", "5", "6"], "num_clicks_accrued": [0, 0, 0, 0, 0, 0, 0, 0, 0, 0, 0, 0, 0], "stateRewards": ["", 2, -1, -3, 16, -3, -16, -62, -1, 13, -26, 43, -1, 4, 3, -9, -54, -37, -3, -12, -71, -68, -57, 1, -3, 2, -9, 2, -2, -9, -11, 84, -52, 55], "withholdReward": false, "trial_id": "mdp_trial_5", "block": "test", "trialIndex": 6, "score": 24.650000000000002, "costs": -19.349999999999998, "simulationMode": [null, null, null, null, null], "rewards": [1, -3, 2, -11, 55], "path": ["0", "0", "23", "24", "25", "30", "33"], "rt": [40215, 340, 365, 358, 355], "actions": ["left", "left", "left", "down", "left"], "actionTimes": [52421, 53294, 54182, 55067, 55946], "queries": {"click": {"state": {"target": ["18", "17", "20", "33", "27", "11", "9", "5", "6"], "time": [13368, 16711, 20498, 24266, 28418, 32448, 35802, 39535, 42402]}, "edge": {"target": [], "time": []}}, "mouseover": {"state": {"target": ["12", "18", "16", "16", "17", "16", "15", "14", "19", "21", "20", "19", "22", "31", "32", "33", "30", "31", "25", "29", "29", "27", "11", "11", "9", "8", "11", "9", "9", "5", "4", "6", "7", "1", "23", "31", "32"], "time": [12630, 12963, 13951, 15203, 16343, 17464, 18333, 18383, 18481, 18828, 19911, 20981, 21167, 22372, 22579, 23603, 24891, 25006, 26023, 26355, 26611, 27602, 29093, 29404, 30952, 31885, 31969, 33006, 33501, 37052, 40501, 41047, 47873, 48090, 48257, 48423, 48639]}, "edge": {"target": [], "time": []}}, "mouseout": {"state": {"target": ["0", "0", "12", "18", "16", "16", "17", "16", "15", "14", "19", "21", "20", "20", "19", "22", "31", "32", "33", "30", "31", "25", "29", "29", "27", "11", "11", "9", "8", "11", "9", "9", "5", "4", "6", "7", "1", "23", "31", "32", "21"], "time": [1666, 12530, 12746, 13752, 15051, 16087, 17231, 18316, 18365, 18416, 18763, 19814, 20716, 20964, 21054, 22234, 22421, 23572, 24751, 24973, 25972, 26241, 26470, 27468, 29051, 29238, 30774, 31850, 31902, 32905, 33333, 36762, 40386, 40667, 43461, 47991, 48180, 48341, 48472, 50109, 64249]}, "edge": {"target": [], "time": []}}}, "displayed_time": "56.48", "trialTime": 67957, "trial_type": "mouselab-mdp", "trial_index": 13, "time_elapsed": 1239092, "internal_node_id": "0.0-4.0-1.0-4.0"}}, {"uniqueid": "w52624552:a80697086", "current_trial": 14, "dateTime": 1691077099160, "trialdata": {"revealed_states": [], "clicked_states": ["31", "33", "27", "11", "5", "16", "17", "18", "20", "21", "22"], "num_clicks_accrued": [0, 0, 0, 0, 0, 0, 0, 0, 0, 0, 0, 0, 0], "stateRewards": ["", 1, -1, 8, -3, 38, 85, -20, -4, 8, 23, 73, 2, -4, 6, -13, 44, 7, -28, -11, -77, 45, -69, 1, -1, -7, -11, 75, -51, -87, 7, 36, -53, -26], "withholdReward": false, "trial_id": "mdp_trial_6", "block": "test", "trialIndex": 7, "score": 33.35000000000001, "costs": -23.649999999999995, "simulationMode": [null, null, null, null, null], "rewards": [1, -1, -7, -11, 75], "path": ["0", "0", "23", "24", "25", "26", "27"], "rt": [40997, 351, 772, 673, 191], "actions": ["left", "left", "left", "up", "up"], "actionTimes": [43914, 44803, 46091, 47274, 48010], "queries": {"click": {"state": {"target": ["31", "33", "27", "11", "5", "16", "17", "18", "20", "21", "22"], "time": [4000, 7261, 10668, 14333, 18002, 22513, 25826, 28962, 32156, 35298, 38608]}, "edge": {"target": [], "time": []}}, "mouseover": {"state": {"target": ["0", "31", "32", "33", "29", "27", "28", "11", "9", "5", "6", "16", "17", "20", "14", "18", "14", "20", "21", "22"], "time": [2943, 3552, 4522, 6737, 8202, 9823, 11520, 13270, 15117, 16966, 18867, 21579, 23121, 27628, 27956, 28145, 29894, 30159, 32939, 36230]}, "edge": {"target": [], "time": []}}, "mouseout": {"state": {"target": ["0", "0", "31", "32", "33", "29", "27", "28", "11", "9", "5", "6", "16", "17", "20", "14", "18", "14", "20", "21", "22"], "time": [2134, 2971, 4473, 6624, 7869, 9688, 11227, 12830, 14832, 16731, 18601, 20626, 23035, 26781, 27880, 28041, 29760, 29957, 32773, 36073, 42003]}, "edge": {"target": [], "time": []}}}, "displayed_time": "48.53", "trialTime": 52857, "trial_type": "mouselab-mdp", "trial_index": 14, "time_elapsed": 1292614, "internal_node_id": "0.0-4.0-1.0-5.0"}}, {"uniqueid": "w52624552:a80697086", "current_trial": 15, "dateTime": 1691077168933, "trialdata": {"revealed_states": [], "clicked_states": ["31", "32", "33", "29", "27", "28", "11", "9", "10", "5", "7", "6", "16", "18", "22"], "num_clicks_accrued": [0, 0, 0, 0, 0, 0, 0, 0, 0, 0, 0, 0, 0], "stateRewards": ["", 1, -2, -3, 14, -42, -87, -37, -11, -50, 33, -44, -2, 4, -7, 13, 48, -75, -66, 12, 23, -2, 82, 1, -4, 3, 12, 51, -15, -26, -11, -52, -29, 82], "withholdReward": false, "trial_id": "mdp_trial_7", "block": "test", "trialIndex": 8, "score": 56.75000000000001, "costs": -32.24999999999999, "simulationMode": [null, null, null, null, null], "rewards": [-2, 4, -7, 12, 82], "path": ["0", "0", "12", "13", "14", "19", "22"], "rt": [56201, 302, 344, 444, 751], "actions": ["right", "right", "right", "down", "left"], "actionTimes": [59076, 59904, 60746, 61711, 62982], "queries": {"click": {"state": {"target": ["31", "32", "33", "29", "27", "28", "11", "9", "10", "5", "7", "6", "16", "18", "22"], "time": [3922, 7885, 10965, 14203, 16992, 20045, 24357, 27598, 30949, 34410, 37458, 40827, 43963, 47918, 52715]}, "edge": {"target": [], "time": []}}, "mouseover": {"state": {"target": ["0", "31", "32", "33", "32", "33", "29", "27", "28", "11", "11", "11", "11", "9", "3", "10", "3", "5", "4", "7", "6", "16", "18", "23", "25", "29", "29", "26", "23", "22", "21"], "time": [3034, 3450, 4498, 6120, 6964, 8612, 11961, 15013, 17945, 20852, 21140, 23726, 23952, 25051, 28597, 28798, 32417, 32699, 35380, 35730, 38114, 42626, 44955, 49205, 49256, 49523, 49808, 51163, 51203, 51903, 53419]}, "edge": {"target": [], "time": []}}, "mouseout": {"state": {"target": ["0", "0", "31", "32", "33", "32", "33", "29", "27", "28", "11", "11", "11", "11", "9", "3", "10", "3", "5", "4", "7", "6", "16", "18", "23", "25", "29", "29", "26", "23", "22"], "time": [1600, 3101, 4435, 5852, 6569, 8452, 11663, 14762, 17745, 20752, 20953, 23552, 23768, 24846, 28222, 28764, 32148, 32466, 35348, 35464, 37996, 42318, 44857, 49155, 49223, 49322, 49672, 51138, 51180, 51220, 53271]}, "edge": {"target": [], "time": []}}}, "displayed_time": "63.48", "trialTime": 69122, "trial_type": "mouselab-mdp", "trial_index": 15, "time_elapsed": 1362388, "internal_node_id": "0.0-4.0-1.0-6.0"}}, {"uniqueid": "w52624552:a80697086", "current_trial": 16, "dateTime": 1691077217954, "trialdata": {"revealed_states": [], "clicked_states": ["22", "21", "20", "17", "16", "18", "7", "6", "5"], "num_clicks_accrued": [0, 0, 0, 0, 0, 0, 0, 0, 0, 0, 0, 0, 0], "stateRewards": ["", 1, -1, 4, 5, -32, 18, 20, 6, -88, -74, 9, -2, 1, -2, -14, 34, -77, -38, -1, 80, -36, 73, 2, 3, -8, 10, -48, -73, -71, -11, -22, 20, 54], "withholdReward": false, "trial_id": "mdp_trial_8", "block": "test", "trialIndex": 9, "score": 56.650000000000006, "costs": -19.349999999999998, "simulationMode": [null, null, null, null, null], "rewards": [-2, 1, -2, -1, 80], "path": ["0", "0", "12", "13", "14", "19", "20"], "rt": [31008, 363, 272, 488, 766], "actions": ["right", "right", "right", "down", "right"], "actionTimes": [35442, 36333, 37126, 38139, 39434], "queries": {"click": {"state": {"target": ["22", "21", "20", "17", "16", "18", "7", "6", "5"], "time": [5401, 8698, 11988, 15884, 19515, 22318, 25579, 28534, 31414]}, "edge": {"target": [], "time": []}}, "mouseover": {"state": {"target": ["22", "21", "20", "17", "16", "18", "7", "6", "5"], "time": [4914, 6151, 9449, 12986, 16825, 20792, 24175, 26719, 29517]}, "edge": {"target": [], "time": []}}, "mouseout": {"state": {"target": ["21", "0", "0", "0", "22", "21", "20", "17", "16", "18", "7", "6", "5", "11", "27", "28", "23"], "time": [216, 1098, 2199, 4563, 5891, 9279, 12703, 16641, 20677, 24073, 26451, 29303, 45383, 45607, 45977, 46028, 46059]}, "edge": {"target": [], "time": []}}}, "displayed_time": "39.95", "trialTime": 48320, "trial_type": "mouselab-mdp", "trial_index": 16, "time_elapsed": 1411409, "internal_node_id": "0.0-4.0-1.0-7.0"}}, {"uniqueid": "w52624552:a80697086", "current_trial": 17, "dateTime": 1691077263131, "trialdata": {"revealed_states": [], "clicked_states": ["31", "32", "33", "21", "20", "22", "17", "16"], "num_clicks_accrued": [0, 0, 0, 0, 0, 0, 0, 0, 0, 0, 0, 0, 0], "stateRewards": ["", -2, -1, -2, -15, 87, 57, 29, -10, 77, -80, -7, 1, -3, 6, 14, -11, 87, -59, 4, -71, 16, -11, 2, 2, -7, 2, -47, 61, 50, 14, -20, 17, 81], "withholdReward": false, "trial_id": "mdp_trial_9", "block": "test", "trialIndex": 10, "score": 87.8, "costs": -17.2, "simulationMode": [null, null, null, null, null], "rewards": [1, -3, 6, 14, 87], "path": ["0", "0", "12", "13", "14", "15", "17"], "rt": [29812, 280, 246, 450, 289], "actions": ["right", "right", "right", "up", "right"], "actionTimes": [33173, 33982, 34744, 35716, 36504], "queries": {"click": {"state": {"target": ["31", "32", "33", "21", "20", "22", "17", "16"], "time": [5844, 8902, 12691, 16400, 19970, 23120, 26106, 29320]}, "edge": {"target": [], "time": []}}, "mouseover": {"state": {"target": ["23", "31", "31", "32", "32", "33", "30", "30", "31", "21", "20", "19", "22", "17", "16"], "time": [3965, 4468, 5315, 6545, 8515, 9723, 13425, 13696, 13968, 14627, 17319, 20667, 20849, 25171, 28766]}, "edge": {"target": [], "time": []}}, "mouseout": {"state": {"target": ["0", "23", "31", "31", "31", "32", "32", "33", "30", "30", "31", "21", "20", "19", "22", "17", "16", "4", "3", "27", "26", "24"], "time": [3682, 4383, 4865, 6066, 6370, 8315, 9544, 13398, 13467, 13892, 13991, 17021, 20641, 20770, 24485, 28636, 41991, 42073, 42108, 42974, 43024, 43107]}, "edge": {"target": [], "time": []}}}, "displayed_time": "37.02", "trialTime": 44476, "trial_type": "mouselab-mdp", "trial_index": 17, "time_elapsed": 1456586, "internal_node_id": "0.0-4.0-1.0-8.0"}}, {"uniqueid": "w52624552:a80697086", "current_trial": 18, "dateTime": 1691077321113, "trialdata": {"revealed_states": [], "clicked_states": ["16", "17", "18", "20", "21", "22", "32", "33", "31", "29", "27", "28", "11"], "num_clicks_accrued": [0, 0, 0, 0, 0, 0, 0, 0, 0, 0, 0, 0, 0], "stateRewards": ["", 1, 4, -4, 14, 35, 51, 19, -13, 54, 78, -74, -2, -1, -3, 13, -11, -42, -73, -15, -24, -3, -69, 2, -1, 5, 16, -27, 73, 58, 9, -60, 5, -60], "withholdReward": false, "trial_id": "mdp_trial_10", "block": "test", "trialIndex": 11, "score": 67.05000000000001, "costs": -27.949999999999992, "simulationMode": [null, null, null, null, null], "rewards": [2, -1, 5, 16, 73], "path": ["0", "0", "23", "24", "25", "26", "28"], "rt": [45012, 152, 261, 638, 287], "actions": ["left", "left", "left", "up", "right"], "actionTimes": [49644, 50329, 51101, 52262, 53059], "queries": {"click": {"state": {"target": ["16", "17", "18", "20", "21", "22", "32", "33", "31", "29", "27", "28", "11"], "time": [5828, 9254, 12345, 16272, 19692, 22750, 26086, 29409, 32662, 36102, 39360, 42693, 45661]}, "edge": {"target": [], "time": []}}, "mouseover": {"state": {"target": ["18", "16", "17", "15", "18", "14", "19", "20", "21", "22", "32", "33", "30", "31", "25", "29", "27", "28", "11", "11", "24", "23"], "time": [4957, 5091, 6654, 10066, 10275, 12956, 13070, 13305, 17087, 20502, 23812, 26855, 29819, 30097, 33278, 33494, 36666, 39972, 43471, 43755, 47627, 47935]}, "edge": {"target": [], "time": []}}, "mouseout": {"state": {"target": ["0", "0", "18", "16", "17", "15", "18", "14", "19", "20", "21", "22", "32", "33", "30", "31", "25", "29", "27", "28", "11", "11", "24", "23"], "time": [3524, 4774, 5023, 6484, 10014, 10158, 12871, 12987, 13157, 16958, 20384, 23318, 26685, 29784, 29949, 33228, 33395, 36614, 39890, 43272, 43604, 47222, 47737, 56533]}, "edge": {"target": [], "time": []}}}, "displayed_time": "53.59", "trialTime": 57298, "trial_type": "mouselab-mdp", "trial_index": 18, "time_elapsed": 1514567, "internal_node_id": "0.0-4.0-1.0-9.0"}}, {"uniqueid": "w52624552:a80697086", "current_trial": 19, "dateTime": 1691077405052, "trialdata": {"revealed_states": [], "clicked_states": ["10", "11", "9", "5", "6", "7", "27", "28", "29"], "num_clicks_accrued": [0, 0, 0, 0, 0, 0, 0, 0, 0, 0, 0, 0, 0], "stateRewards": ["", -1, 4, -8, 12, 14, 69, -8, 5, -72, -14, 56, -1, -1, -1, 9, 67, 19, 11, -9, -88, -58, 3, 2, -4, -8, 4, 62, 77, -74, 5, -31, 65, 88], "withholdReward": false, "trial_id": "mdp_trial_11", "block": "test", "trialIndex": 12, "score": 51.650000000000006, "costs": -19.349999999999998, "simulationMode": [null, null, null, null, null], "rewards": [2, -4, -8, 4, 77], "path": ["0", "0", "23", "24", "25", "26", "28"], "rt": [35092, 165, 209, 748, 114], "actions": ["left", "left", "left", "up", "right"], "actionTimes": [73890, 74608, 75341, 76614, 77250], "queries": {"click": {"state": {"target": ["10", "11", "9", "5", "6", "7", "27", "28", "29"], "time": [40722, 44364, 47794, 51122, 54427, 57624, 61063, 64816, 68569]}, "edge": {"target": [], "time": []}}, "mouseover": {"state": {"target": ["1", "2", "10", "11", "9", "5", "5", "6", "7", "27", "28", "26", "29", "29", "30", "32"], "time": [39866, 39966, 40149, 41552, 44978, 48564, 49029, 51800, 55076, 58976, 61989, 65517, 65606, 66052, 69850, 69983]}, "edge": {"target": [], "time": []}}, "mouseout": {"state": {"target": ["0", "13", "0", "0", "1", "2", "10", "11", "9", "5", "5", "6", "7", "27", "28", "26", "29", "29", "30", "32", "5", "2", "1", "0"], "time": [4951, 9281, 35148, 39800, 39933, 40083, 41357, 44896, 48431, 48847, 51668, 54959, 58356, 61819, 65487, 65559, 65633, 69433, 69934, 70030, 81707, 81792, 81824, 81874]}, "edge": {"target": [], "time": []}}}, "displayed_time": "77.77", "trialTime": 83147, "trial_type": "mouselab-mdp", "trial_index": 19, "time_elapsed": 1598506, "internal_node_id": "0.0-4.0-1.0-10.0"}}, {"uniqueid": "w52624552:a80697086", "current_trial": 20, "dateTime": 1691077439256, "trialdata": {"revealed_states": [], "clicked_states": ["31", "32", "33"], "num_clicks_accrued": [0, 0, 0, 0, 0, 0, 0, 0, 0, 0, 0, 0, 0], "stateRewards": ["", 1, 1, -6, -2, 7, 77, 3, 16, -16, 66, 31, -1, 3, -8, -6, 33, -50, -48, 7, -60, -66, 36, 2, -3, 3, -7, -12, -61, -79, -4, 8, 74, -70], "withholdReward": false, "trial_id": "mdp_trial_12", "block": "test", "trialIndex": 13, "score": 65.55, "costs": -6.449999999999999, "simulationMode": [null, null, null, null, null], "rewards": [2, -3, 3, -4, 74], "path": ["0", "0", "23", "24", "25", "30", "32"], "rt": [11759, 239, 214, 586, 254], "actions": ["left", "left", "left", "down", "down"], "actionTimes": [16704, 17479, 18216, 19306, 20078], "queries": {"click": {"state": {"target": ["31", "32", "33"], "time": [6248, 9849, 13016]}, "edge": {"target": [], "time": []}}, "mouseover": {"state": {"target": ["31", "32", "33", "24"], "time": [5701, 7133, 10816, 14744]}, "edge": {"target": [], "time": []}}, "mouseout": {"state": {"target": ["0", "31", "32", "33", "24", "21"], "time": [5202, 6966, 10567, 13778, 14797, 22429]}, "edge": {"target": [], "time": []}}}, "displayed_time": "20.60", "trialTime": 33516, "trial_type": "mouselab-mdp", "trial_index": 20, "time_elapsed": 1632711, "internal_node_id": "0.0-4.0-1.0-11.0"}}, {"uniqueid": "w52624552:a80697086", "current_trial": 21, "dateTime": 1691077469752, "trialdata": {"revealed_states": [], "clicked_states": ["31", "32", "33"], "num_clicks_accrued": [0, 0, 0, 0, 0, 0, 0, 0, 0, 0, 0, 0, 0], "stateRewards": ["", -1, 3, -4, -14, 78, 67, 2, 13, -32, 28, 39, -2, 1, -4, -4, -4, -42, -86, 11, 64, -29, -32, -1, -4, 2, -7, 5, 68, -61, 2, -21, 85, 50], "withholdReward": false, "trial_id": "mdp_trial_13", "block": "test", "trialIndex": 14, "score": 77.55, "costs": -6.449999999999999, "simulationMode": [null, null, null, null, null], "rewards": [-1, -4, 2, 2, 85], "path": ["0", "0", "23", "24", "25", "30", "32"], "rt": [11290, 264, 233, 196, 245], "actions": ["left", "left", "left", "down", "down"], "actionTimes": [19695, 20484, 21257, 21977, 22780], "queries": {"click": {"state": {"target": ["31", "32", "33"], "time": [9454, 12267, 15501]}, "edge": {"target": [], "time": []}}, "mouseover": {"state": {"target": ["31", "32", "33", "30"], "time": [8852, 10270, 13113, 16215]}, "edge": {"target": [], "time": []}}, "mouseout": {"state": {"target": ["0", "0", "31", "32", "33", "30"], "time": [1473, 8536, 10039, 12894, 16180, 16247]}, "edge": {"target": [], "time": []}}}, "displayed_time": "23.30", "trialTime": 29699, "trial_type": "mouselab-mdp", "trial_index": 21, "time_elapsed": 1663207, "internal_node_id": "0.0-4.0-1.0-12.0"}}, {"uniqueid": "w52624552:a80697086", "current_trial": 22, "dateTime": 1691077506733, "trialdata": {"revealed_states": [], "clicked_states": ["31", "32", "33", "29", "27", "28"], "num_clicks_accrued": [0, 0, 0, 0, 0, 0, 0, 0, 0, 0, 0, 0, 0], "stateRewards": ["", -1, -4, -1, -11, 43, 69, 39, 4, 17, -20, -82, -2, -1, 4, 8, -79, 24, -79, 11, 36, 64, 41, 2, 4, -1, 11, -79, -47, 75, -3, 63, -36, -19], "withholdReward": false, "trial_id": "mdp_trial_14", "block": "test", "trialIndex": 15, "score": 78.1, "costs": -12.9, "simulationMode": [null, null, null, null, null], "rewards": [2, 4, -1, 11, 75], "path": ["0", "0", "23", "24", "25", "26", "29"], "rt": [22453, 169, 191, 665, 374], "actions": ["left", "left", "left", "up", "left"], "actionTimes": [27375, 28059, 28771, 29957, 30847], "queries": {"click": {"state": {"target": ["31", "32", "33", "29", "27", "28"], "time": [6015, 9741, 12816, 16138, 19270, 22660]}, "edge": {"target": [], "time": []}}, "mouseover": {"state": {"target": ["0", "31", "32", "33", "29", "27", "24", "24", "28", "28", "24", "21"], "time": [5223, 5452, 6948, 10734, 14246, 17185, 20314, 20856, 20934, 21261, 23587, 26087]}, "edge": {"target": [], "time": []}}, "mouseout": {"state": {"target": ["0", "0", "31", "32", "33", "29", "27", "24", "24", "28", "28", "24", "21"], "time": [1338, 5284, 6718, 10548, 13762, 16978, 20173, 20340, 20907, 21076, 23439, 23621, 26188]}, "edge": {"target": [], "time": []}}}, "displayed_time": "31.36", "trialTime": 36262, "trial_type": "mouselab-mdp", "trial_index": 22, "time_elapsed": 1700188, "internal_node_id": "0.0-4.0-1.0-13.0"}}, {"uniqueid": "w52624552:a80697086", "current_trial": 23, "dateTime": 1691077551173, "trialdata": {"revealed_states": [], "clicked_states": ["22", "21", "20", "17", "16", "18", "7", "6", "5"], "num_clicks_accrued": [0, 0, 0, 0, 0, 0, 0, 0, 0, 0, 0, 0, 0], "stateRewards": ["", 2, 4, -5, 7, 81, 35, 6, 11, 14, -72, 42, -1, 2, 3, -7, -77, -44, -40, -15, -85, 51, -32, -2, -1, -5, 7, -74, 47, 52, 16, -49, 48, -46], "withholdReward": false, "trial_id": "mdp_trial_15", "block": "test", "trialIndex": 16, "score": 69.65, "costs": -19.349999999999998, "simulationMode": [null, null, null, null, null], "rewards": [2, 4, -5, 7, 81], "path": ["0", "0", "1", "2", "3", "4", "5"], "rt": [32662, 231, 286, 527, 229], "actions": ["up", "up", "up", "right", "up"], "actionTimes": [35329, 36084, 36887, 37925, 38677], "queries": {"click": {"state": {"target": ["22", "21", "20", "17", "16", "18", "7", "6", "5"], "time": [3768, 7534, 11074, 13854, 16832, 20343, 23899, 27195, 30370]}, "edge": {"target": [], "time": []}}, "mouseover": {"state": {"target": ["22", "21", "20", "20", "14", "17", "16", "18", "7", "6", "5", "9"], "time": [3283, 4885, 8238, 8645, 12156, 12476, 15282, 17977, 21204, 24563, 27870, 31508]}, "edge": {"target": [], "time": []}}, "mouseout": {"state": {"target": ["0", "22", "21", "20", "20", "14", "17", "16", "18", "7", "6", "5", "5", "9", "8", "10", "23"], "time": [2870, 4287, 8133, 8462, 11987, 12319, 15157, 17851, 20998, 24463, 27715, 30593, 31102, 42710, 42730, 42776, 42859]}, "edge": {"target": [], "time": []}}}, "displayed_time": "39.20", "trialTime": 43759, "trial_type": "mouselab-mdp", "trial_index": 23, "time_elapsed": 1744628, "internal_node_id": "0.0-4.0-1.0-14.0"}}, {"uniqueid": "w52624552:a80697086", "current_trial": 24, "dateTime": 1691077633851, "trialdata": {"revealed_states": [], "clicked_states": ["9", "11", "10", "5", "6", "7", "18", "16", "17", "20", "21", "22", "31", "32", "33", "29", "27", "28"], "num_clicks_accrued": [0, 0, 0, 0, 0, 0, 0, 0, 0, 0, 0, 0, 0], "stateRewards": ["", 2, 3, -1, 6, 44, -4, -59, -14, -3, 64, 16, 1, -3, 3, 6, 3, 49, 19, 3, -49, -14, -86, 1, 2, -3, -8, -33, 14, 32, -13, -77, -47, -67], "withholdReward": false, "trial_id": "mdp_trial_16", "block": "test", "trialIndex": 17, "score": -32.69999999999999, "costs": -38.69999999999999, "simulationMode": [null, null, null, null, null], "rewards": [2, 3, -1, -14, 16], "path": ["0", "0", "1", "2", "3", "8", "11"], "rt": [63672, 69, 201, 632, 191], "actions": ["up", "up", "up", "left", "left"], "actionTimes": [72144, 72736, 73466, 74624, 75327], "queries": {"click": {"state": {"target": ["9", "11", "10", "5", "6", "7", "18", "16", "17", "20", "21", "22", "31", "32", "33", "29", "27", "28"], "time": [10075, 13445, 16287, 19484, 22993, 25958, 29030, 31829, 35643, 39221, 42388, 45170, 48905, 52014, 55390, 58867, 62332, 65620]}, "edge": {"target": [], "time": []}}, "mouseover": {"state": {"target": ["10", "8", "9", "9", "11", "10", "3", "5", "4", "6", "7", "18", "16", "17", "20", "21", "21", "22", "31", "32", "33", "25", "29", "27", "28", "11"], "time": [8920, 9153, 9218, 9567, 10865, 14238, 17348, 17516, 20110, 20610, 23676, 26923, 29841, 33436, 36820, 39864, 40549, 43069, 46490, 50207, 52792, 56505, 56791, 59537, 63286, 67276]}, "edge": {"target": [], "time": []}}, "mouseout": {"state": {"target": ["0", "10", "8", "9", "9", "11", "10", "3", "5", "4", "6", "7", "18", "16", "17", "20", "21", "21", "22", "31", "32", "33", "25", "29", "27", "28", "11", "28"], "time": [8802, 9135, 9185, 9334, 10715, 13988, 17273, 17399, 20044, 20243, 23491, 26690, 29555, 33369, 36271, 39757, 40267, 42938, 46069, 49743, 52625, 56223, 56590, 59438, 63000, 66383, 79399, 79476]}, "edge": {"target": [], "time": []}}}, "displayed_time": "75.85", "trialTime": 81834, "trial_type": "mouselab-mdp", "trial_index": 24, "time_elapsed": 1827306, "internal_node_id": "0.0-4.0-1.0-15.0"}}, {"uniqueid": "w52624552:a80697086", "current_trial": 25, "dateTime": 1691077662284, "trialdata": {"revealed_states": [], "clicked_states": ["31", "32", "33"], "num_clicks_accrued": [0, 0, 0, 0, 0, 0, 0, 0, 0, 0, 0, 0, 0], "stateRewards": ["", -1, -4, -1, -5, -28, -23, -15, -15, -38, 59, -87, 2, 2, -5, 9, -55, -39, -71, -6, 85, -85, -11, -1, -2, 5, -10, 1, 25, 41, -4, 69, -35, 86], "withholdReward": false, "trial_id": "mdp_trial_17", "block": "test", "trialIndex": 18, "score": -43.45, "costs": -6.449999999999999, "simulationMode": [null, null, null, null, null], "rewards": [-1, -2, 5, -4, -35], "path": ["0", "0", "23", "24", "25", "30", "32"], "rt": [13453, 121, 116, 527, 63], "actions": ["left", "left", "left", "down", "down"], "actionTimes": [16712, 17358, 17999, 19038, 19633], "queries": {"click": {"state": {"target": ["31", "32", "33"], "time": [4778, 7922, 11053]}, "edge": {"target": [], "time": []}}, "mouseover": {"state": {"target": ["31", "32", "33", "29"], "time": [4135, 5607, 8833, 12179]}, "edge": {"target": [], "time": []}}, "mouseout": {"state": {"target": ["0", "0", "31", "32", "33"], "time": [1320, 3850, 5442, 8699, 11778]}, "edge": {"target": [], "time": []}}}, "displayed_time": "20.16", "trialTime": 27665, "trial_type": "mouselab-mdp", "trial_index": 25, "time_elapsed": 1855739, "internal_node_id": "0.0-4.0-1.0-16.0"}}, {"uniqueid": "w52624552:a80697086", "current_trial": 26, "dateTime": 1691077686109, "trialdata": {"revealed_states": [], "clicked_states": ["31", "32", "33"], "num_clicks_accrued": [0, 0, 0, 0, 0, 0, 0, 0, 0, 0, 0, 0, 0], "stateRewards": ["", -2, -4, 6, 14, -34, 49, 36, -8, -3, 32, -4, 1, -2, 1, -8, -20, -71, -57, -7, -86, -62, -16, -2, -3, -5, 11, 23, -21, 53, 5, -5, 85, 73], "withholdReward": false, "trial_id": "mdp_trial_18", "block": "test", "trialIndex": 19, "score": 73.55, "costs": -6.449999999999999, "simulationMode": [null, null, null, null, null], "rewards": [-2, -3, -5, 5, 85], "path": ["0", "0", "23", "24", "25", "30", "32"], "rt": [11550, 109, 251, 547, 226], "actions": ["left", "left", "left", "down", "down"], "actionTimes": [14394, 15026, 15799, 16865, 17607], "queries": {"click": {"state": {"target": ["31", "32", "33"], "time": [4028, 6888, 10670]}, "edge": {"target": [], "time": []}}, "mouseover": {"state": {"target": ["31", "32", "33"], "time": [3468, 4828, 7899]}, "edge": {"target": [], "time": []}}, "mouseout": {"state": {"target": ["29", "28", "23", "0", "31", "32", "33", "32"], "time": [650, 938, 1402, 3269, 4709, 7665, 11753, 12200]}, "edge": {"target": [], "time": []}}}, "displayed_time": "18.13", "trialTime": 22989, "trial_type": "mouselab-mdp", "trial_index": 26, "time_elapsed": 1879563, "internal_node_id": "0.0-4.0-1.0-17.0"}}, {"uniqueid": "w52624552:a80697086", "current_trial": 27, "dateTime": 1691077761264, "trialdata": {"revealed_states": [], "clicked_states": ["31", "32", "33", "21", "20", "22", "17", "16", "18", "29", "27", "28", "11", "9", "10", "5", "6", "7"], "num_clicks_accrued": [0, 0, 0, 0, 0, 0, 0, 0, 0, 0, 0, 0, 0], "stateRewards": ["", -1, -3, -7, -7, -76, 30, -49, 11, -70, 56, 2, 1, 4, -3, -14, -59, -83, -25, -9, -21, -67, -73, -2, 4, 4, -9, -11, -32, 60, 9, -87, 22, -64], "withholdReward": false, "trial_id": "mdp_trial_19", "block": "test", "trialIndex": 20, "score": 18.30000000000001, "costs": -38.69999999999999, "simulationMode": [null, null, null, null, null], "rewards": [-2, 4, 4, -9, 60], "path": ["0", "0", "23", "24", "25", "26", "29"], "rt": [64057, 205, 309, 741, 680], "actions": ["left", "left", "left", "up", "left"], "actionTimes": [66912, 67648, 68484, 69747, 70953], "queries": {"click": {"state": {"target": ["31", "32", "33", "21", "20", "22", "17", "16", "18", "29", "27", "28", "11", "9", "10", "5", "6", "7"], "time": [4016, 6994, 10238, 14125, 17955, 21673, 25515, 28599, 31857, 34723, 37950, 41583, 46130, 48995, 52222, 56097, 59501, 62903]}, "edge": {"target": [], "time": []}}, "mouseover": {"state": {"target": ["31", "32", "33", "29", "28", "19", "21", "20", "19", "22", "14", "15", "17", "15", "16", "18", "1", "28", "27", "25", "29", "27", "28", "11", "11", "9", "8", "10", "3", "5", "6", "7"], "time": [3506, 4889, 7975, 11204, 12520, 12604, 13450, 15287, 18477, 19100, 22545, 22828, 23028, 26244, 26394, 29378, 32505, 32605, 32791, 33338, 33724, 36072, 38771, 42701, 43018, 47897, 50398, 50666, 53629, 54111, 57926, 61006]}, "edge": {"target": [], "time": []}}, "mouseout": {"state": {"target": ["0", "31", "32", "33", "29", "28", "19", "21", "20", "19", "22", "14", "15", "17", "15", "16", "18", "1", "28", "27", "25", "29", "27", "28", "11", "11", "9", "8", "10", "3", "5", "6", "7", "18", "14", "20"], "time": [3108, 4610, 7708, 10888, 12488, 12536, 12620, 14920, 18440, 18525, 22265, 22595, 22864, 26145, 26309, 29211, 32425, 32538, 32621, 33072, 33624, 35841, 38509, 42436, 42723, 47565, 50347, 50549, 52435, 53846, 57430, 60605, 73282, 73365, 73467, 73614]}, "edge": {"target": [], "time": []}}}, "displayed_time": "71.47", "trialTime": 74397, "trial_type": "mouselab-mdp", "trial_index": 27, "time_elapsed": 1954719, "internal_node_id": "0.0-4.0-1.0-18.0"}}, {"uniqueid": "w52624552:a80697086", "current_trial": 28, "dateTime": 1691077825640, "trialdata": {"revealed_states": [], "clicked_states": ["31", "32", "33", "29", "27", "28", "11", "9", "10", "5", "7", "6", "21", "22", "20"], "num_clicks_accrued": [0, 0, 0, 0, 0, 0, 0, 0, 0, 0, 0, 0, 0], "stateRewards": ["", -2, 2, 2, -6, 9, 37, 50, -13, -7, -18, -75, -2, -4, 4, 7, 23, -57, -66, -7, -81, -48, -76, 1, 1, -8, 1, 51, -2, 70, 14, 59, 71, -37], "withholdReward": false, "trial_id": "mdp_trial_20", "block": "test", "trialIndex": 21, "score": 46.75000000000001, "costs": -32.24999999999999, "simulationMode": [null, null, null, null, null], "rewards": [1, 1, -8, 14, 71], "path": ["0", "0", "23", "24", "25", "30", "32"], "rt": [52255, 102, 118, 571, 179], "actions": ["left", "left", "left", "down", "down"], "actionTimes": [56454, 57086, 57724, 58817, 59513], "queries": {"click": {"state": {"target": ["31", "32", "33", "29", "27", "28", "11", "9", "10", "5", "7", "6", "21", "22", "20"], "time": [5414, 8511, 11715, 15175, 19091, 22243, 25568, 28638, 32200, 35363, 38956, 42049, 45524, 48926, 51838]}, "edge": {"target": [], "time": []}}, "mouseover": {"state": {"target": ["31", "32", "33", "33", "29", "27", "28", "11", "9", "8", "10", "3", "5", "4", "7", "6", "15", "19", "21", "22", "19", "20", "19", "14", "15", "17", "17"], "time": [4766, 6279, 11093, 11244, 14307, 16277, 20351, 23680, 26803, 29447, 29780, 32846, 33310, 36028, 36393, 39537, 43607, 43787, 44220, 46517, 49549, 49718, 52510, 52799, 53083, 53150, 53397]}, "edge": {"target": [], "time": []}}, "mouseout": {"state": {"target": ["0", "0", "31", "32", "33", "33", "29", "27", "28", "11", "9", "8", "10", "3", "5", "4", "7", "6", "15", "19", "21", "22", "19", "20", "19", "14", "15", "17", "17", "15", "18", "12"], "time": [2981, 4565, 6131, 10904, 11110, 13944, 15893, 19959, 23263, 26285, 29347, 29648, 32744, 33009, 35979, 36192, 39455, 43140, 43643, 43810, 45741, 49501, 49648, 52467, 52627, 52998, 53100, 53231, 61432, 62743, 62775, 62825]}, "edge": {"target": [], "time": []}}}, "displayed_time": "60.03", "trialTime": 63626, "trial_type": "mouselab-mdp", "trial_index": 28, "time_elapsed": 2019095, "internal_node_id": "0.0-4.0-1.0-19.0"}}, {"uniqueid": "w52624552:a80697086", "current_trial": 29, "dateTime": 1691077886219, "trialdata": {"revealed_states": [], "clicked_states": ["31", "32", "33", "29", "27", "28", "21", "22", "20", "16", "17", "18", "5", "9"], "num_clicks_accrued": [0, 0, 0, 0, 0, 0, 0, 0, 0, 0, 0, 0, 0], "stateRewards": ["", 2, 3, -3, 4, 72, -28, 34, -12, 57, -64, -15, 2, 1, -4, -15, 2, 49, 31, -1, -42, -58, 31, -2, 1, -2, -13, -75, -19, -22, -6, 61, 10, -56], "withholdReward": false, "trial_id": "mdp_trial_21", "block": "test", "trialIndex": 22, "score": 47.900000000000006, "costs": -30.09999999999999, "simulationMode": [null, null, null, null, null, null], "rewards": [2, 3, -3, 4, 72], "path": ["0", "0", "1", "2", "3", "4", "5"], "rt": [49078, 1917, 191, 195, 563, 303], "actions": ["up", "up", "up", "up", "right", "up"], "actionTimes": [51397, 53320, 54034, 54749, 55830, 56656], "queries": {"click": {"state": {"target": ["31", "32", "33", "29", "27", "28", "21", "22", "20", "16", "17", "18", "5", "9"], "time": [3871, 7459, 10325, 14436, 17591, 20734, 23596, 26875, 29840, 33002, 36255, 39454, 43556, 48988]}, "edge": {"target": [], "time": []}}, "mouseover": {"state": {"target": ["31", "32", "33", "29", "27", "28", "22", "21", "22", "19", "20", "14", "15", "16", "17", "15", "18", "4", "5", "9"], "time": [3461, 4540, 8145, 11337, 15559, 18352, 21534, 21651, 24505, 27351, 27456, 30650, 30834, 30999, 33915, 36915, 37198, 40354, 40506, 44320]}, "edge": {"target": [], "time": []}}, "mouseout": {"state": {"target": ["0", "0", "31", "32", "33", "29", "27", "28", "22", "21", "22", "19", "20", "14", "15", "16", "17", "15", "18", "4", "5", "9", "28", "24", "31"], "time": [1394, 3112, 4387, 8006, 11004, 15042, 18138, 21288, 21587, 24237, 27319, 27395, 30532, 30766, 30948, 33713, 36897, 37062, 40210, 40429, 44172, 58698, 58797, 58816, 58847]}, "edge": {"target": [], "time": []}}}, "displayed_time": "57.17", "trialTime": 59827, "trial_type": "mouselab-mdp", "trial_index": 29, "time_elapsed": 2079674, "internal_node_id": "0.0-4.0-1.0-20.0"}}, {"uniqueid": "w52624552:a80697086", "current_trial": 30, "dateTime": 1691077940837, "trialdata": {"revealed_states": [], "clicked_states": ["7", "6", "5", "9", "11", "10", "18", "16", "17", "20", "21", "22"], "num_clicks_accrued": [0, 0, 0, 0, 0, 0, 0, 0, 0, 0, 0, 0, 0], "stateRewards": ["", 1, -2, -2, 10, -31, -77, 35, 9, -47, 8, 48, -2, 1, -4, -3, -26, -50, 43, -11, 76, -38, 17, 1, -1, 6, 10, 15, -9, 12, -8, 85, 11, -55], "withholdReward": false, "trial_id": "mdp_trial_22", "block": "test", "trialIndex": 23, "score": 34.2, "costs": -25.799999999999994, "simulationMode": [null, null, null, null, null], "rewards": [-2, 1, -4, -11, 76], "path": ["0", "0", "12", "13", "14", "19", "20"], "rt": [43296, 761, 415, 566, 645], "actions": ["right", "right", "right", "down", "right"], "actionTimes": [46353, 47651, 48584, 49670, 50889], "queries": {"click": {"state": {"target": ["7", "6", "5", "9", "11", "10", "18", "16", "17", "20", "21", "22"], "time": [4392, 7528, 10592, 13743, 17346, 21021, 25082, 29891, 32679, 35900, 38942, 43032]}, "edge": {"target": [], "time": []}}, "mouseover": {"state": {"target": ["1", "7", "6", "5", "9", "11", "10", "18", "15", "18", "16", "17", "20", "21", "22"], "time": [3236, 3936, 5134, 8127, 13231, 14766, 18328, 22645, 22745, 22964, 26046, 31158, 34073, 36671, 41535]}, "edge": {"target": [], "time": []}}, "mouseout": {"state": {"target": ["0", "1", "7", "6", "5", "9", "11", "10", "18", "15", "18", "16", "17", "20", "21", "22"], "time": [3169, 3253, 4948, 8073, 12816, 14695, 17990, 22547, 22696, 22930, 25667, 30596, 33707, 36540, 41223, 52863]}, "edge": {"target": [], "time": []}}}, "displayed_time": "51.41", "trialTime": 53839, "trial_type": "mouselab-mdp", "trial_index": 30, "time_elapsed": 2134292, "internal_node_id": "0.0-4.0-1.0-21.0"}}, {"uniqueid": "w52624552:a80697086", "current_trial": 31, "dateTime": 1691077971717, "trialdata": {"revealed_states": [], "clicked_states": ["31", "32", "33", "29"], "num_clicks_accrued": [0, 0, 0, 0, 0, 0, 0, 0, 0, 0, 0, 0, 0], "stateRewards": ["", -2, -3, -3, 9, 79, 67, 22, -15, -56, 27, -85, -2, 4, -4, -15, -20, -32, 60, 15, 71, 57, 17, 1, 2, -8, 15, -37, -81, 82, 15, 21, -3, 2], "withholdReward": false, "trial_id": "mdp_trial_23", "block": "test", "trialIndex": 24, "score": 83.4, "costs": -8.6, "simulationMode": [null, null, null, null, null], "rewards": [1, 2, -8, 15, 82], "path": ["0", "0", "23", "24", "25", "26", "29"], "rt": [16461, 359, 450, 595, 375], "actions": ["left", "left", "left", "up", "left"], "actionTimes": [19793, 20650, 21621, 22737, 23635], "queries": {"click": {"state": {"target": ["31", "32", "33", "29"], "time": [4494, 7980, 11105, 13970]}, "edge": {"target": [], "time": []}}, "mouseover": {"state": {"target": ["31", "32", "33", "29", "27"], "time": [3979, 5482, 8927, 12229, 15226]}, "edge": {"target": [], "time": []}}, "mouseout": {"state": {"target": ["0", "31", "32", "33", "29", "27", "26", "24"], "time": [3615, 5232, 8736, 11833, 14788, 25753, 25801, 25867]}, "edge": {"target": [], "time": []}}}, "displayed_time": "24.16", "trialTime": 30142, "trial_type": "mouselab-mdp", "trial_index": 31, "time_elapsed": 2165171, "internal_node_id": "0.0-4.0-1.0-22.0"}}, {"uniqueid": "w52624552:a80697086", "current_trial": 32, "dateTime": 1691078032067, "trialdata": {"revealed_states": [], "clicked_states": ["29", "27", "28", "10", "11", "9", "5", "6", "7", "16", "17", "21", "22", "20"], "num_clicks_accrued": [0, 0, 0, 0, 0, 0, 0, 0, 0, 0, 0, 0, 0], "stateRewards": ["", 2, 3, 6, -5, -74, -53, 17, -12, 46, 44, 18, -2, 4, 1, -8, 22, -23, -49, 9, -45, 55, 81, 1, -1, -7, -16, -83, -71, -45, 2, 51, 82, 61], "withholdReward": false, "trial_id": "mdp_trial_24", "block": "test", "trialIndex": 25, "score": 62.900000000000006, "costs": -30.09999999999999, "simulationMode": [null, null, null, null, null, null], "rewards": [-2, 4, 1, 9, 81], "path": ["0", "0", "12", "13", "14", "19", "22"], "rt": [47653, 1274, 271, 263, 632, 500], "actions": ["right", "right", "right", "right", "down", "left"], "actionTimes": [51412, 52696, 53491, 54270, 55418, 56450], "queries": {"click": {"state": {"target": ["29", "27", "28", "10", "11", "9", "5", "6", "7", "16", "17", "21", "22", "20"], "time": [5059, 8027, 10981, 14411, 17422, 20359, 25299, 28631, 31697, 34739, 37868, 41802, 45283, 48835]}, "edge": {"target": [], "time": []}}, "mouseover": {"state": {"target": ["23", "25", "29", "27", "28", "10", "11", "9", "5", "6", "7", "16", "17", "14", "13", "22", "21", "22", "19", "20", "20"], "time": [4009, 4225, 4643, 5852, 9128, 12214, 15403, 18373, 22549, 25966, 29532, 32746, 35628, 38554, 38595, 38798, 39112, 42713, 47622, 47660, 48184]}, "edge": {"target": [], "time": []}}, "mouseout": {"state": {"target": ["0", "23", "25", "29", "27", "28", "10", "11", "9", "5", "6", "7", "16", "17", "14", "13", "22", "21", "22", "19", "20", "20"], "time": [3976, 4028, 4259, 5682, 8830, 11773, 15186, 18056, 21035, 25834, 29307, 32317, 35414, 38514, 38576, 38618, 38926, 42559, 46232, 47654, 47687, 57939]}, "edge": {"target": [], "time": []}}}, "displayed_time": "56.97", "trialTime": 59543, "trial_type": "mouselab-mdp", "trial_index": 32, "time_elapsed": 2225522, "internal_node_id": "0.0-4.0-1.0-23.0"}}, {"uniqueid": "w52624552:a80697086", "current_trial": 33, "dateTime": 1691078096313, "trialdata": {"revealed_states": [], "clicked_states": ["31", "32", "33", "29", "27", "28", "11", "9", "10", "5", "7", "6", "18", "16", "17"], "num_clicks_accrued": [0, 0, 0, 0, 0, 0, 0, 0, 0, 0, 0, 0, 0], "stateRewards": ["", -2, -1, 3, -3, 71, -58, -21, 7, -10, -75, -37, 2, 4, -1, -12, -79, -29, -48, 3, -41, -10, -30, -1, -2, 1, -15, 13, 66, 22, -1, -42, -86, -55], "withholdReward": false, "trial_id": "mdp_trial_25", "block": "test", "trialIndex": 26, "score": 35.75000000000001, "costs": -32.24999999999999, "simulationMode": [null, null, null, null, null], "rewards": [-2, -1, 3, -3, 71], "path": ["0", "0", "1", "2", "3", "4", "5"], "rt": [54241, 232, 85, 599, 104], "actions": ["up", "up", "up", "right", "up"], "actionTimes": [56646, 57388, 57990, 59108, 59721], "queries": {"click": {"state": {"target": ["31", "32", "33", "29", "27", "28", "11", "9", "10", "5", "7", "6", "18", "16", "17"], "time": [4176, 7301, 10632, 13908, 17174, 20267, 23576, 27484, 30950, 34350, 37754, 40594, 45376, 48353, 51402]}, "edge": {"target": [], "time": []}}, "mouseover": {"state": {"target": ["0", "31", "31", "32", "33", "29", "27", "28", "11", "9", "8", "10", "3", "5", "4", "7", "6", "16", "18", "18", "16", "17", "20"], "time": [3250, 3512, 3762, 4926, 8194, 11394, 14554, 18086, 21096, 25474, 28437, 28679, 31483, 31896, 34943, 35196, 39559, 41927, 43706, 44861, 46205, 49139, 53418]}, "edge": {"target": [], "time": []}}, "mouseout": {"state": {"target": ["0", "31", "31", "32", "33", "29", "27", "28", "11", "9", "8", "10", "3", "5", "4", "7", "6", "16", "18", "18", "16", "17", "20", "21", "20", "22"], "time": [3266, 3645, 4821, 7974, 11201, 14421, 17856, 20890, 25024, 28372, 28571, 31434, 31507, 34883, 35063, 39409, 41859, 43521, 44806, 46023, 49029, 53122, 61100, 61731, 61865, 62114]}, "edge": {"target": [], "time": []}}}, "displayed_time": "60.23", "trialTime": 63328, "trial_type": "mouselab-mdp", "trial_index": 33, "time_elapsed": 2289768, "internal_node_id": "0.0-4.0-1.0-24.0"}}, {"uniqueid": "w52624552:a80697086", "current_trial": 34, "dateTime": 1691078118144, "trialdata": {"revealed_states": [], "clicked_states": ["31", "32"], "num_clicks_accrued": [0, 0, 0, 0, 0, 0, 0, 0, 0, 0, 0, 0, 0], "stateRewards": ["", -1, -3, 4, -10, -5, 79, -87, -2, 53, 29, -20, -2, -1, -5, 10, 27, 86, 46, -16, -29, 40, 3, 2, 4, -1, -6, 37, 79, -29, 7, 86, -62, 29], "withholdReward": false, "trial_id": "mdp_trial_26", "block": "test", "trialIndex": 27, "score": 93.7, "costs": -4.3, "simulationMode": [null, null, null, null, null, null], "rewards": [2, 4, -1, 7, 86], "path": ["0", "0", "23", "24", "25", "30", "31"], "rt": [6536, 1045, 190, 256, 730, 586], "actions": ["left", "left", "left", "left", "down", "right"], "actionTimes": [10302, 11357, 12073, 12856, 14098, 15197], "queries": {"click": {"state": {"target": ["31", "32"], "time": [4814, 7778]}, "edge": {"target": [], "time": []}}, "mouseover": {"state": {"target": ["31", "32"], "time": [4312, 5618]}, "edge": {"target": [], "time": []}}, "mouseout": {"state": {"target": ["0", "0", "31", "32", "31"], "time": [2128, 3872, 5346, 17408, 17605]}, "edge": {"target": [], "time": []}}}, "displayed_time": "17.77", "trialTime": 20929, "trial_type": "mouselab-mdp", "trial_index": 34, "time_elapsed": 2311598, "internal_node_id": "0.0-4.0-1.0-25.0"}}, {"uniqueid": "w52624552:a80697086", "current_trial": 35, "dateTime": 1691078174977, "trialdata": {"revealed_states": [], "clicked_states": ["31", "32", "33", "22", "21", "20", "17", "16", "18", "7", "29", "27", "28"], "num_clicks_accrued": [0, 0, 0, 0, 0, 0, 0, 0, 0, 0, 0, 0, 0], "stateRewards": ["", -1, -3, 1, -4, -48, -63, -49, -2, -84, -19, 65, 2, -2, -2, -12, -4, 59, 9, 6, 75, 69, -13, -1, -3, -3, -2, -37, -68, -36, 13, 32, 18, -14], "withholdReward": false, "trial_id": "mdp_trial_27", "block": "test", "trialIndex": 28, "score": 51.05000000000001, "costs": -27.949999999999992, "simulationMode": [null, null, null, null, null], "rewards": [2, -2, -2, 6, 75], "path": ["0", "0", "12", "13", "14", "19", "20"], "rt": [45290, 245, 303, 564, 390], "actions": ["right", "right", "right", "down", "right"], "actionTimes": [48131, 48894, 49727, 50818, 51722], "queries": {"click": {"state": {"target": ["31", "32", "33", "22", "21", "20", "17", "16", "18", "7", "29", "27", "28"], "time": [3931, 7327, 10773, 14098, 17665, 20685, 24516, 28072, 31380, 34758, 38018, 41082, 44466]}, "edge": {"target": [], "time": []}}, "mouseover": {"state": {"target": ["31", "32", "33", "31", "21", "21", "22", "21", "20", "17", "16", "18", "7", "28", "29", "27", "28"], "time": [3441, 4640, 8192, 11398, 11510, 12023, 12494, 15091, 18867, 23843, 26062, 28813, 32155, 35938, 36172, 38871, 41802]}, "edge": {"target": [], "time": []}}, "mouseout": {"state": {"target": ["0", "31", "32", "33", "31", "21", "21", "22", "21", "20", "17", "16", "18", "7", "28", "29", "27", "28", "28"], "time": [3191, 4528, 8004, 11363, 11425, 11839, 12354, 14886, 18288, 23729, 25945, 28686, 32045, 35873, 35956, 38704, 41599, 44683, 54184]}, "edge": {"target": [], "time": []}}}, "displayed_time": "52.25", "trialTime": 56034, "trial_type": "mouselab-mdp", "trial_index": 35, "time_elapsed": 2368432, "internal_node_id": "0.0-4.0-1.0-26.0"}}, {"uniqueid": "w52624552:a80697086", "current_trial": 36, "dateTime": 1691078222592, "trialdata": {"revealed_states": [], "clicked_states": ["29", "27", "28", "5", "6", "7", "9", "11", "10", "31"], "num_clicks_accrued": [0, 0, 0, 0, 0, 0, 0, 0, 0, 0, 0, 0, 0], "stateRewards": ["", 1, 2, 3, 16, 63, -25, 16, -4, -14, 82, -66, -1, -3, -3, -11, -14, 19, 46, 3, -34, -82, 66, -2, -3, 4, -5, -63, 77, -37, -1, -45, -41, 84], "withholdReward": false, "trial_id": "mdp_trial_28", "block": "test", "trialIndex": 29, "score": 62.5, "costs": -21.499999999999996, "simulationMode": [null, null, null, null, null], "rewards": [1, 2, 3, -4, 82], "path": ["0", "0", "1", "2", "3", "8", "10"], "rt": [35346, 135, 156, 678, 175], "actions": ["up", "up", "up", "left", "down"], "actionTimes": [39865, 40517, 41221, 42428, 43123], "queries": {"click": {"state": {"target": ["29", "27", "28", "5", "6", "7", "9", "11", "10", "31"], "time": [5999, 8899, 12454, 16714, 20177, 23499, 26775, 29682, 32987, 35967]}, "edge": {"target": [], "time": []}}, "mouseover": {"state": {"target": ["23", "24", "25", "29", "27", "28", "8", "5", "6", "7", "8", "9", "11", "10", "31", "31"], "time": [4695, 4878, 5177, 5546, 6921, 9977, 13156, 13512, 17728, 20867, 24280, 24432, 27426, 30615, 33788, 34130]}, "edge": {"target": [], "time": []}}, "mouseout": {"state": {"target": ["0", "23", "24", "25", "29", "27", "28", "8", "5", "6", "7", "8", "9", "11", "10", "31", "31", "31"], "time": [4661, 4777, 4911, 5363, 6701, 9600, 13015, 13208, 17426, 20760, 24130, 24303, 27354, 30216, 33637, 33834, 36948, 45852]}, "edge": {"target": [], "time": []}}}, "displayed_time": "43.65", "trialTime": 46658, "trial_type": "mouselab-mdp", "trial_index": 36, "time_elapsed": 2416047, "internal_node_id": "0.0-4.0-1.0-27.0"}}, {"uniqueid": "w52624552:a80697086", "current_trial": 37, "dateTime": 1691078254593, "trialdata": {"revealed_states": [], "clicked_states": ["28", "27", "29", "33", "32", "31"], "num_clicks_accrued": [0, 0, 0, 0, 0, 0, 0, 0, 0, 0, 0, 0, 0], "stateRewards": ["", 1, 1, -2, 7, -31, -6, 76, 1, -36, -16, -53, 2, 1, 7, 13, -47, -10, 47, -7, 72, 46, -56, -2, -2, -2, 11, -80, 44, 38, 16, 67, 85, -78], "withholdReward": false, "trial_id": "mdp_trial_29", "block": "test", "trialIndex": 30, "score": 82.1, "costs": -12.9, "simulationMode": [null, null, null, null, null], "rewards": [-2, -2, -2, 16, 85], "path": ["0", "0", "23", "24", "25", "30", "32"], "rt": [20878, 187, 322, 117, 246], "actions": ["left", "left", "left", "down", "down"], "actionTimes": [24152, 24853, 25691, 26332, 27094], "queries": {"click": {"state": {"target": ["28", "27", "29", "33", "32", "31"], "time": [4322, 7775, 10799, 14319, 17535, 20896]}, "edge": {"target": [], "time": []}}, "mouseover": {"state": {"target": ["23", "28", "27", "29", "33", "32", "31"], "time": [3540, 3892, 5330, 8785, 11687, 15315, 18432]}, "edge": {"target": [], "time": []}}, "mouseout": {"state": {"target": ["0", "23", "28", "27", "29", "33", "32", "31"], "time": [3473, 3640, 5047, 8476, 11417, 14967, 17987, 29143]}, "edge": {"target": [], "time": []}}}, "displayed_time": "27.62", "trialTime": 31049, "trial_type": "mouselab-mdp", "trial_index": 37, "time_elapsed": 2448048, "internal_node_id": "0.0-4.0-1.0-28.0"}}, {"uniqueid": "w52624552:a80697086", "current_trial": 38, "dateTime": 1691078293194, "trialdata": {"revealed_states": [], "clicked_states": ["22", "20", "17", "16", "21", "18", "6"], "num_clicks_accrued": [0, 0, 0, 0, 0, 0, 0, 0, 0, 0, 0, 0, 0], "stateRewards": ["", 1, -1, 4, -2, -75, -75, 84, -9, -60, -79, 59, 2, -4, 8, 9, -17, -82, 80, 14, -4, 49, 49, -1, 3, 6, -11, -33, 34, 55, 9, -57, 5, 59], "withholdReward": false, "trial_id": "mdp_trial_30", "block": "test", "trialIndex": 31, "score": 79.95, "costs": -15.05, "simulationMode": [null, null, null, null, null], "rewards": [2, -4, 8, 9, 80], "path": ["0", "0", "12", "13", "14", "15", "18"], "rt": [26774, 169, 167, 791, 334], "actions": ["right", "right", "right", "up", "left"], "actionTimes": [29694, 30407, 31092, 32404, 33260], "queries": {"click": {"state": {"target": ["22", "20", "17", "16", "21", "18", "6"], "time": [4582, 8951, 13643, 16528, 19605, 22442, 25427]}, "edge": {"target": [], "time": []}}, "mouseover": {"state": {"target": ["12", "22", "22", "21", "20", "21", "19", "17", "15", "16", "15", "14", "19", "21", "13", "18", "6", "5"], "time": [3274, 3859, 4158, 5578, 7937, 10023, 12503, 12867, 14611, 14940, 17337, 17395, 17469, 17669, 20403, 20652, 23853, 26978]}, "edge": {"target": [], "time": []}}, "mouseout": {"state": {"target": ["0", "0", "12", "22", "22", "21", "20", "21", "19", "17", "15", "16", "15", "14", "19", "21", "13", "18", "6", "5", "3", "2", "0"], "time": [1492, 3175, 3747, 3891, 5247, 7789, 9690, 12419, 12590, 14412, 14679, 17301, 17372, 17418, 17567, 20249, 20532, 23293, 26715, 35423, 35487, 35691, 36038]}, "edge": {"target": [], "time": []}}}, "displayed_time": "33.77", "trialTime": 37655, "trial_type": "mouselab-mdp", "trial_index": 38, "time_elapsed": 2486649, "internal_node_id": "0.0-4.0-1.0-29.0"}}, {"uniqueid": "w52624552:a80697086", "current_trial": 39, "dateTime": 1691078334582, "trialdata": {"revealed_states": [], "clicked_states": ["10", "11", "9", "5", "7", "6", "16"], "num_clicks_accrued": [0, 0, 0, 0, 0, 0, 0, 0, 0, 0, 0, 0, 0], "stateRewards": ["", -1, -3, -6, -2, -7, 80, -45, -3, -38, -72, 76, 2, 1, 7, 4, -62, 14, -74, 14, -87, -21, -88, -2, 1, -7, -10, 66, 56, -76, 10, -29, -72, -70], "withholdReward": false, "trial_id": "mdp_trial_31", "block": "test", "trialIndex": 32, "score": 52.95, "costs": -15.05, "simulationMode": [null, null, null, null, null, null], "rewards": [-1, -3, -6, -2, 80], "path": ["0", "0", "1", "2", "3", "4", "6"], "rt": [24947, 759, 135, 301, 635, 156], "actions": ["up", "up", "up", "up", "right", "right"], "actionTimes": [31166, 31933, 32596, 33424, 34574, 35246], "queries": {"click": {"state": {"target": ["10", "11", "9", "5", "7", "6", "16"], "time": [8525, 11790, 15680, 18534, 22898, 25720, 28634]}, "edge": {"target": [], "time": []}}, "mouseover": {"state": {"target": ["10", "2", "8", "11", "10", "11", "9", "5", "4", "6", "7", "6", "16"], "time": [6547, 6977, 7408, 7511, 8058, 9597, 12689, 18026, 19640, 19877, 22033, 24287, 26938]}, "edge": {"target": [], "time": []}}, "mouseout": {"state": {"target": ["0", "10", "2", "8", "11", "10", "11", "9", "5", "4", "6", "7", "6", "16", "18", "13", "13"], "time": [6376, 6945, 7044, 7458, 7943, 9423, 12425, 16526, 19539, 19744, 21819, 23528, 26521, 38682, 38714, 38847, 38947]}, "edge": {"target": [], "time": []}}}, "displayed_time": "35.77", "trialTime": 40438, "trial_type": "mouselab-mdp", "trial_index": 39, "time_elapsed": 2528036, "internal_node_id": "0.0-4.0-1.0-30.0"}}, {"uniqueid": "w52624552:a80697086", "current_trial": 40, "dateTime": 1691078377994, "trialdata": {"revealed_states": [], "clicked_states": ["28", "27", "29", "33", "32", "31", "21", "22", "20", "17"], "num_clicks_accrued": [0, 0, 0, 0, 0, 0, 0, 0, 0, 0, 0, 0, 0], "stateRewards": ["", 1, -1, 8, 4, 76, -33, -17, -3, -1, -54, -74, -2, 2, -5, 13, -51, 63, 83, 1, 84, 29, -36, 2, -1, 7, -12, -10, -44, -43, -14, 8, -69, 19], "withholdReward": false, "trial_id": "mdp_trial_32", "block": "test", "trialIndex": 33, "score": 58.5, "costs": -21.499999999999996, "simulationMode": [null, null, null, null, null, null], "rewards": [-2, 2, -5, 1, 84], "path": ["0", "0", "12", "13", "14", "19", "20"], "rt": [32368, 741, 238, 313, 446, 341], "actions": ["right", "right", "right", "right", "down", "right"], "actionTimes": [35490, 36239, 37011, 37842, 38792, 39652], "queries": {"click": {"state": {"target": ["28", "27", "29", "33", "32", "31", "21", "22", "20", "17"], "time": [4736, 7927, 10876, 14216, 17513, 20928, 23745, 27383, 30208, 33169]}, "edge": {"target": [], "time": []}}, "mouseover": {"state": {"target": ["24", "28", "27", "29", "33", "32", "31", "21", "22", "19", "20", "17"], "time": [4011, 4096, 5847, 8930, 12226, 15095, 18130, 22056, 24806, 27959, 28133, 31215]}, "edge": {"target": [], "time": []}}, "mouseout": {"state": {"target": ["0", "24", "28", "27", "29", "33", "32", "31", "21", "22", "19", "20", "17", "13", "12"], "time": [3747, 4060, 5538, 8786, 11831, 14906, 17948, 21548, 24535, 27934, 28030, 31053, 41415, 41450, 41641]}, "edge": {"target": [], "time": []}}}, "displayed_time": "40.16", "trialTime": 42502, "trial_type": "mouselab-mdp", "trial_index": 40, "time_elapsed": 2571448, "internal_node_id": "0.0-4.0-1.0-31.0"}}, {"uniqueid": "w52624552:a80697086", "current_trial": 41, "dateTime": 1691078430046, "trialdata": {"revealed_states": [], "clicked_states": ["6", "7", "5", "31", "32", "33", "29", "27", "28", "18", "16"], "num_clicks_accrued": [0, 0, 0, 0, 0, 0, 0, 0, 0, 0, 0, 0, 0], "stateRewards": ["", 2, -1, 3, -12, -83, 6, -33, 9, 28, 24, -50, -2, -1, -2, -5, -87, 37, 82, 12, 80, -5, 10, -2, -3, -6, 9, 22, -1, 16, 9, 77, -62, 58], "withholdReward": false, "trial_id": "mdp_trial_33", "block": "test", "trialIndex": 34, "score": 48.35000000000001, "costs": -23.649999999999995, "simulationMode": [null, null, null, null, null], "rewards": [-2, -1, -2, -5, 82], "path": ["0", "0", "12", "13", "14", "15", "18"], "rt": [39677, 197, 210, 423, 338], "actions": ["right", "right", "right", "up", "left"], "actionTimes": [43363, 44081, 44810, 45754, 46617], "queries": {"click": {"state": {"target": ["6", "7", "5", "31", "32", "33", "29", "27", "28", "18", "16"], "time": [5395, 8190, 11078, 14442, 17614, 21150, 24669, 27802, 31177, 34471, 39345]}, "edge": {"target": [], "time": []}}, "mouseover": {"state": {"target": ["6", "7", "4", "5", "3", "10", "24", "31", "32", "33", "29", "27", "28", "1", "18", "16"], "time": [4617, 6321, 8957, 9166, 11866, 11991, 12161, 12394, 15112, 19696, 21893, 25377, 28742, 31862, 32373, 35012]}, "edge": {"target": [], "time": []}}, "mouseout": {"state": {"target": ["0", "0", "6", "7", "4", "5", "3", "10", "24", "31", "32", "33", "29", "27", "28", "1", "18", "16", "18", "15", "13"], "time": [1319, 4052, 6100, 8918, 9032, 11821, 11929, 12012, 12350, 14986, 19246, 21702, 25233, 28493, 31737, 31917, 34915, 48412, 48539, 48689, 48739]}, "edge": {"target": [], "time": []}}}, "displayed_time": "47.13", "trialTime": 51089, "trial_type": "mouselab-mdp", "trial_index": 41, "time_elapsed": 2623501, "internal_node_id": "0.0-4.0-1.0-32.0"}}, {"uniqueid": "w52624552:a80697086", "current_trial": 42, "dateTime": 1691078505309, "trialdata": {"revealed_states": [], "clicked_states": ["18", "16", "17", "22", "21", "20", "31", "32", "33", "29", "27", "28", "11", "9", "10", "5", "6", "7"], "num_clicks_accrued": [0, 0, 0, 0, 0, 0, 0, 0, 0, 0, 0, 0, 0], "stateRewards": ["", -2, 3, 3, -14, 62, 36, 49, 16, 11, 17, -84, 2, -1, 6, 2, -82, -73, 49, -6, -87, 48, 50, -1, -2, -1, -16, -11, 37, -44, 4, 55, 73, -10], "withholdReward": false, "trial_id": "mdp_trial_34", "block": "test", "trialIndex": 35, "score": 34.30000000000001, "costs": -38.69999999999999, "simulationMode": [null, null, null, null, null], "rewards": [-1, -2, -1, 4, 73], "path": ["0", "0", "23", "24", "25", "30", "32"], "rt": [63811, 761, 376, 466, 218], "actions": ["left", "left", "left", "down", "down"], "actionTimes": [67080, 68368, 69270, 70259, 70975], "queries": {"click": {"state": {"target": ["18", "16", "17", "22", "21", "20", "31", "32", "33", "29", "27", "28", "11", "9", "10", "5", "6", "7"], "time": [4655, 8017, 10851, 13831, 17022, 20525, 24108, 29681, 32464, 35919, 39140, 42778, 45569, 48972, 52552, 55558, 58454, 61985]}, "edge": {"target": [], "time": []}}, "mouseover": {"state": {"target": ["18", "16", "17", "14", "22", "21", "20", "19", "22", "31", "32", "32", "32", "33", "29", "27", "28", "11", "9", "8", "10", "5", "6", "7"], "time": [4142, 5343, 8851, 11402, 11711, 14758, 17638, 22021, 22074, 22619, 24764, 25057, 29096, 31184, 34109, 36810, 39895, 43492, 46584, 49426, 49550, 53966, 56399, 59397]}, "edge": {"target": [], "time": []}}, "mouseout": {"state": {"target": ["0", "18", "16", "17", "14", "22", "21", "20", "19", "22", "31", "32", "32", "32", "33", "29", "27", "28", "11", "9", "8", "10", "5", "6", "7", "6", "16", "18"], "time": [3779, 5236, 8682, 11339, 11512, 14457, 17481, 21993, 22051, 22105, 24662, 24788, 28399, 30696, 33610, 36462, 39688, 43292, 46378, 49395, 49475, 53538, 56246, 59181, 72659, 72719, 73071, 73122]}, "edge": {"target": [], "time": []}}}, "displayed_time": "71.47", "trialTime": 74343, "trial_type": "mouselab-mdp", "trial_index": 42, "time_elapsed": 2698763, "internal_node_id": "0.0-4.0-1.0-33.0"}}, {"uniqueid": "w52624552:a80697086", "current_trial": 43, "dateTime": 1691078579907, "trialdata": {"revealed_states": [], "clicked_states": ["29", "27", "28", "10", "11", "9", "5", "6", "7", "16", "18", "17", "21", "22", "33", "31", "20", "32"], "num_clicks_accrued": [0, 0, 0, 0, 0, 0, 0, 0, 0, 0, 0, 0, 0], "stateRewards": ["", 2, -1, -1, 7, 11, -40, -22, -2, 69, 37, 8, -2, 4, -8, -12, -2, -72, -3, -12, 17, 63, 12, 1, 3, -7, 6, 25, 61, 61, -9, 28, -17, 27], "withholdReward": false, "trial_id": "mdp_trial_35", "block": "test", "trialIndex": 36, "score": 28.30000000000001, "costs": -38.69999999999999, "simulationMode": [null, null, null, null, null], "rewards": [2, -1, -1, -2, 69], "path": ["0", "0", "1", "2", "3", "8", "9"], "rt": [64203, 72, 202, 572, 157], "actions": ["up", "up", "up", "left", "up"], "actionTimes": [67800, 68411, 69143, 70231, 70897], "queries": {"click": {"state": {"target": ["29", "27", "28", "10", "11", "9", "5", "6", "7", "16", "18", "17", "21", "22", "33", "31", "20", "32"], "time": [5309, 10257, 13712, 17390, 20179, 23253, 26458, 29479, 32934, 36286, 39334, 42837, 45985, 49601, 53060, 56335, 59860, 63033]}, "edge": {"target": [], "time": []}}, "mouseover": {"state": {"target": ["26", "29", "27", "28", "27", "28", "10", "11", "9", "5", "6", "6", "7", "16", "18", "15", "17", "19", "21", "22", "32", "33", "30", "31", "22", "19", "20", "20", "32", "32"], "time": [4306, 4624, 6158, 9104, 9789, 11030, 15138, 18276, 21278, 23962, 27379, 27810, 30560, 33798, 36915, 39787, 40085, 43597, 43730, 47399, 50652, 50888, 53925, 54284, 57260, 57379, 57625, 58041, 60876, 61315]}, "edge": {"target": [], "time": []}}, "mouseout": {"state": {"target": ["0", "26", "29", "27", "28", "27", "28", "10", "11", "9", "5", "6", "6", "7", "16", "18", "15", "17", "19", "21", "22", "32", "33", "30", "31", "22", "19", "20", "20", "32"], "time": [3684, 4325, 5870, 8689, 9756, 10832, 14442, 18127, 20953, 23757, 27087, 27638, 30480, 33480, 36828, 39760, 39853, 43472, 43642, 47136, 50331, 50755, 53802, 54152, 56549, 57331, 57493, 57810, 60607, 60922]}, "edge": {"target": [], "time": []}}}, "displayed_time": "71.43", "trialTime": 73583, "trial_type": "mouselab-mdp", "trial_index": 43, "time_elapsed": 2773362, "internal_node_id": "0.0-4.0-1.0-34.0"}}, {"uniqueid": "w52624552:a80697086", "current_trial": 44, "dateTime": 1691078652360, "trialdata": {"revealed_states": [], "clicked_states": ["7", "6", "5", "18", "16", "17", "9", "11", "10", "27", "29", "28", "20", "21", "22", "31", "32", "33"], "num_clicks_accrued": [0, 0, 0, 0, 0, 0, 0, 0, 0, 0, 0, 0, 0], "stateRewards": ["", 2, -4, 7, 3, 23, -42, 4, 7, -81, -33, 7, -2, -4, 5, -1, 50, -57, -14, -13, -14, 44, 55, -2, -2, 5, -2, 33, 1, 57, -13, -7, 58, 87], "withholdReward": false, "trial_id": "mdp_trial_36", "block": "test", "trialIndex": 37, "score": 36.30000000000001, "costs": -38.69999999999999, "simulationMode": [null, null, null, null, null], "rewards": [-2, -2, 5, -13, 87], "path": ["0", "0", "23", "24", "25", "30", "33"], "rt": [61742, 161, 344, 90, 630], "actions": ["left", "left", "left", "down", "left"], "actionTimes": [64933, 65647, 66488, 67102, 68258], "queries": {"click": {"state": {"target": ["7", "6", "5", "18", "16", "17", "9", "11", "10", "27", "29", "28", "20", "21", "22", "31", "32", "33"], "time": [4561, 8154, 11162, 14674, 17488, 20913, 23771, 26592, 29675, 32997, 36154, 39990, 42939, 46002, 48992, 53519, 56679, 59619]}, "edge": {"target": [], "time": []}}, "mouseover": {"state": {"target": ["1", "7", "6", "5", "18", "16", "17", "4", "9", "11", "10", "27", "29", "26", "28", "1", "13", "14", "20", "21", "22", "32", "31", "32", "33"], "time": [3679, 3860, 5576, 8855, 12593, 15401, 18745, 22754, 23208, 25354, 28132, 30755, 33637, 37012, 37771, 41741, 42027, 42134, 42446, 44517, 46933, 50439, 52780, 54302, 57653]}, "edge": {"target": [], "time": []}}, "mouseout": {"state": {"target": ["32", "31", "0", "1", "7", "6", "5", "6", "18", "16", "17", "4", "9", "11", "10", "27", "29", "26", "28", "1", "13", "14", "20", "20", "21", "22", "32", "31", "32", "33"], "time": [1461, 1677, 3631, 3714, 5296, 8749, 11992, 12191, 15274, 18620, 21679, 22798, 25053, 27670, 30570, 33552, 36935, 37264, 41658, 41783, 42070, 42157, 43168, 44371, 46678, 49907, 52646, 54163, 57539, 70019]}, "edge": {"target": [], "time": []}}}, "displayed_time": "68.78", "trialTime": 71444, "trial_type": "mouselab-mdp", "trial_index": 44, "time_elapsed": 2845814, "internal_node_id": "0.0-4.0-1.0-35.0"}}, {"uniqueid": "w52624552:a80697086", "current_trial": 45, "dateTime": 1691078676009, "trialdata": {"revealed_states": [], "clicked_states": ["22", "21", "20"], "num_clicks_accrued": [0, 0, 0, 0, 0, 0, 0, 0, 0, 0, 0, 0, 0], "stateRewards": ["", -1, 1, 3, -8, -23, -15, -14, -11, -23, 58, 68, 1, 3, 5, 12, -17, -41, -7, -10, -4, 82, 10, 1, 4, -4, 11, 73, 55, -55, -1, -86, -86, 54], "withholdReward": false, "trial_id": "mdp_trial_37", "block": "test", "trialIndex": 38, "score": 74.55, "costs": -6.449999999999999, "simulationMode": [null, null, null, null, null, null], "rewards": [1, 3, 5, -10, 82], "path": ["0", "0", "12", "13", "14", "19", "21"], "rt": [9773, 1083, 230, 181, 512, 210], "actions": ["right", "right", "right", "right", "down", "down"], "actionTimes": [15168, 16256, 17003, 17701, 18728, 19487], "queries": {"click": {"state": {"target": ["22", "21", "20"], "time": [6565, 9718, 12875]}, "edge": {"target": [], "time": []}}, "mouseover": {"state": {"target": ["12", "22", "21", "20"], "time": [5525, 5740, 7415, 10464]}, "edge": {"target": [], "time": []}}, "mouseout": {"state": {"target": ["32", "32", "31", "0", "12", "22", "21", "20", "21"], "time": [2027, 2558, 3508, 5501, 5574, 7189, 10324, 21135, 21165]}, "edge": {"target": [], "time": []}}}, "displayed_time": "20.02", "trialTime": 22590, "trial_type": "mouselab-mdp", "trial_index": 45, "time_elapsed": 2869464, "internal_node_id": "0.0-4.0-1.0-36.0"}}, {"uniqueid": "w52624552:a80697086", "current_trial": 46, "dateTime": 1691078740179, "trialdata": {"revealed_states": [], "clicked_states": ["20", "17", "16", "18", "7", "6", "5", "9", "11", "10", "32", "31", "33", "29", "27", "28"], "num_clicks_accrued": [0, 0, 0, 0, 0, 0, 0, 0, 0, 0, 0, 0, 0], "stateRewards": ["", 1, 2, -6, -13, -51, 22, -4, -12, -44, -12, 6, -2, -2, -2, -14, -46, -4, -77, -2, 36, -79, 41, 2, -4, 2, -6, -55, 59, 70, -5, 39, -19, 24], "withholdReward": false, "trial_id": "mdp_trial_38", "block": "test", "trialIndex": 39, "score": 29.60000000000001, "costs": -34.39999999999999, "simulationMode": [null, null, null, null, null], "rewards": [2, -4, 2, -6, 70], "path": ["0", "0", "23", "24", "25", "26", "29"], "rt": [52819, 122, 231, 659, 301], "actions": ["left", "left", "left", "up", "left"], "actionTimes": [56387, 57026, 57800, 58977, 59800], "queries": {"click": {"state": {"target": ["20", "17", "16", "18", "7", "6", "5", "9", "11", "10", "32", "31", "33", "29", "27", "28"], "time": [4998, 8469, 11447, 14628, 17874, 21356, 24831, 27783, 30671, 33476, 36843, 40006, 43096, 45960, 48780, 52194]}, "edge": {"target": [], "time": []}}, "mouseover": {"state": {"target": ["13", "19", "20", "17", "16", "18", "7", "6", "6", "5", "9", "9", "11", "10", "28", "24", "30", "32", "31", "30", "33", "29", "27", "28"], "time": [4090, 4229, 4491, 6120, 9172, 12209, 15536, 18371, 18663, 22019, 25758, 26120, 28894, 31665, 34369, 34444, 34694, 34799, 37535, 40601, 40809, 45154, 47103, 49996]}, "edge": {"target": [], "time": []}}, "mouseout": {"state": {"target": ["0", "0", "13", "19", "20", "17", "16", "18", "7", "6", "6", "5", "9", "9", "11", "10", "28", "24", "30", "32", "31", "30", "33", "29", "27", "28", "23"], "time": [1309, 3746, 4109, 4276, 5631, 9068, 12074, 15356, 18308, 18417, 21913, 25432, 25870, 28692, 31550, 34331, 34409, 34480, 34732, 37426, 40575, 40686, 43986, 46905, 49707, 61317, 61395]}, "edge": {"target": [], "time": []}}}, "displayed_time": "60.33", "trialTime": 62807, "trial_type": "mouselab-mdp", "trial_index": 46, "time_elapsed": 2933633, "internal_node_id": "0.0-4.0-1.0-37.0"}}, {"uniqueid": "w52624552:a80697086", "current_trial": 47, "dateTime": 1691078764291, "trialdata": {"revealed_states": [], "clicked_states": ["7", "6", "5"], "num_clicks_accrued": [0, 0, 0, 0, 0, 0, 0, 0, 0, 0, 0, 0, 0], "stateRewards": ["", 1, -3, -6, -5, 47, 80, -29, 11, -71, 10, -29, -2, 3, -6, 12, 2, -78, -6, 8, 34, -16, -5, -1, 3, 3, -13, 84, -36, -62, -3, -27, 66, 15], "withholdReward": false, "trial_id": "mdp_trial_39", "block": "test", "trialIndex": 40, "score": 60.55, "costs": -6.449999999999999, "simulationMode": [null, null, null, null, null], "rewards": [1, -3, -6, -5, 80], "path": ["0", "0", "1", "2", "3", "4", "6"], "rt": [10396, 277, 218, 223, 400], "actions": ["up", "up", "up", "right", "right"], "actionTimes": [17086, 17890, 18649, 19388, 20312], "queries": {"click": {"state": {"target": ["7", "6", "5"], "time": [7833, 10739, 13722]}, "edge": {"target": [], "time": []}}, "mouseover": {"state": {"target": ["7", "6", "5"], "time": [7032, 8712, 11608]}, "edge": {"target": [], "time": []}}, "mouseout": {"state": {"target": ["0", "7", "6", "5", "2", "1"], "time": [1735, 8424, 11476, 22041, 22138, 22193]}, "edge": {"target": [], "time": []}}}, "displayed_time": "20.83", "trialTime": 22984, "trial_type": "mouselab-mdp", "trial_index": 47, "time_elapsed": 2957746, "internal_node_id": "0.0-4.0-1.0-38.0"}}, {"uniqueid": "w52624552:a80697086", "current_trial": 48, "dateTime": 1691078786104, "trialdata": {"revealed_states": [], "clicked_states": ["31", "32"], "num_clicks_accrued": [0, 0, 0, 0, 0, 0, 0, 0, 0, 0, 0, 0, 0], "stateRewards": ["", 1, 3, -2, 15, 51, 15, -19, 11, 67, -45, -73, 2, 4, -2, -13, 36, 9, -28, 10, -30, 31, 16, 1, 2, -1, -16, 14, -22, 36, -1, 88, -5, 45], "withholdReward": false, "trial_id": "mdp_trial_40", "block": "test", "trialIndex": 41, "score": 84.7, "costs": -4.3, "simulationMode": [null, null, null, null, null, null], "rewards": [1, 2, -1, -1, 88], "path": ["0", "0", "23", "24", "25", "30", "31"], "rt": [6891, 1521, 304, 238, 272, 815], "actions": ["left", "left", "left", "left", "down", "right"], "actionTimes": [10400, 11927, 12729, 13494, 14277, 15602], "queries": {"click": {"state": {"target": ["31", "32"], "time": [4887, 8319]}, "edge": {"target": [], "time": []}}, "mouseover": {"state": {"target": ["0", "31", "32"], "time": [3683, 4172, 5732]}, "edge": {"target": [], "time": []}}, "mouseout": {"state": {"target": ["0", "0", "31", "32"], "time": [1107, 3772, 5546, 19020]}, "edge": {"target": [], "time": []}}}, "displayed_time": "17.52", "trialTime": 20752, "trial_type": "mouselab-mdp", "trial_index": 48, "time_elapsed": 2979558, "internal_node_id": "0.0-4.0-1.0-39.0"}}, {"uniqueid": "w52624552:a80697086", "current_trial": 49, "dateTime": 1691078933197, "trialdata": {"rt": 147082, "response": {"Q0": "$-16 to 16", "Q1": "$-16 to $16", "Q2": "$-88 to $88", "Q3": "The cost for clicking on nodes varied between nodes.", "Q4": "Very motivated"}, "question_order": [0, 1, 2, 3, 4], "trial_id": "final_quiz_control", "trial_type": "survey-multi-choice", "trial_index": 49, "time_elapsed": 3126652, "internal_node_id": "0.0-4.0-2.0"}}, {"uniqueid": "w52624552:a80697086", "current_trial": 50, "dateTime": 1691079193990, "trialdata": {"rt": 260744, "response": {"Q0": "Because it cost a lot of money to click on the nodes, I decided to only check the ones at the ends, and whenever I reached the highest, that is the node I would travel to with the spider.", "Q1": "Yes, I inspected the nodes and if I got any 80 and above, I stopped inspecting and just went to that one, because I figured that might be the highest node I would get and thus spend less money inspecting.", "Q2": "I was not that difficult one I figured out that any number in the +80s is probably the highest I was going to get, the tricky part was trying to guess where the number could be in that round, in light of where it was in the previous round, If I did find it."}, "trial_id": "self_report_control", "trial_type": "survey-text", "trial_index": 50, "time_elapsed": 3387445, "internal_node_id": "0.0-4.0-3.0"}}, {"uniqueid": "w52624552:a80697086", "current_trial": 51, "dateTime": 1691079418949, "trialdata": {"rt": 224947, "response": {"Q0": "Strongly disagree", "Q1": "Disagree", "Q2": "Agree", "Q3": "Agree", "Q4": "Strongly disagree", "Q5": "Agree", "Q6": "Disagree"}, "question_order": [0, 1, 2, 3, 4, 5, 6], "trial_id": "self_report_2", "trial_type": "survey-multi-choice", "trial_index": 51, "time_elapsed": 3612405, "internal_node_id": "0.0-4.0-4.0"}}, {"uniqueid": "w52624552:a80697086", "current_trial": 52, "dateTime": 1691079468029, "trialdata": {"rt": 49020, "response": {"gender": "female", "age": "32", "colorblind": "0", "effort": "0"}, "trial_type": "survey-html-form", "trial_index": 52, "time_elapsed": 3661484, "internal_node_id": "0.0-4.0-5.0"}}, {"uniqueid": "w52624552:a80697086", "current_trial": 53, "dateTime": 1691080105070, "trialdata": {"rt": 637022, "response": {"Q0": "At the beginning trying to understand the instructions was hard, in fact it is only now that I realize that there was a reward for clicking the first nodes. I saw it briefly, but I wasn't sure about it in any way.", "Q1": "No, I haven't participated in this before, it was actually fun, I would definitely remember if I had.", "Q2": "None."}, "trial_type": "survey-text", "trial_index": 53, "time_elapsed": 4298525, "internal_node_id": "0.0-4.0-6.0"}}, {"uniqueid": "w52624552:a80697086", "current_trial": 54, "dateTime": 1691080119292, "trialdata": {"rt": 14202, "stimulus": "Press 'Finish HIT' in order to reach the completion code. Once the data has been saved, you will receive the code either in this window or in the original browser window where you started the experiment.\n", "response": 0, "trial_type": "html-button-response", "trial_index": 54, "time_elapsed": 4312748, "internal_node_id": "0.0-5.0"}}, {"uniqueid": "w52624552:a80697086", "current_trial": 55, "dateTime": 1691080120305, "trialdata": {"success": true, "trial_type": "fullscreen", "trial_index": 55, "time_elapsed": 4313760, "internal_node_id": "0.0-6.0"}}], "questiondata": {"params": {"CODE": "C6DMOQA6", "MIN_TIME": 14, "inspectCost": 1, "startTime": "Thu Aug 03 2023 17:16:28 GMT+0200 (South Africa Standard Time)", "bonusRate": 0.002, "variance": "1_2_4_8_44", "branching": "31123"}, "final_score": 1700.8}, "eventdata": [{"eventtype": "initialized", "value": null, "timestamp": 1691075787569, "interval": 0}, {"eventtype": "window_resize", "value": [1028, 744], "timestamp": 1691075787569, "interval": 0}, {"eventtype": "window_resize", "value": [1028, 744], "timestamp": 1691075788180, "interval": 611}, {"eventtype": "window_resize", "value": [1536, 864], "timestamp": 1691075852095, "interval": 63915}, {"eventtype": "window_resize", "value": [1028, 744], "timestamp": 1691075889660, "interval": 37565}, {"eventtype": "window_resize", "value": [1536, 758], "timestamp": 1691075895961, "interval": 6301}, {"eventtype": "window_resize", "value": [1028, 744], "timestamp": 1691075935436, "interval": 39475}, {"eventtype": "window_resize", "value": [1536, 758], "timestamp": 1691075944072, "interval": 8636}, {"eventtype": "window_resize", "value": [1536, 864], "timestamp": 1691075951307, "interval": 7235}, {"eventtype": "window_resize", "value": [1536, 758], "timestamp": 1691075966332, "interval": 15025}, {"eventtype": "window_resize", "value": [1028, 744], "timestamp": 1691075969552, "interval": 3220}, {"eventtype": "focus", "value": "off", "timestamp": 1691075972083, "interval": 2531}, {"eventtype": "focus", "value": "on", "timestamp": 1691076003204, "interval": 31121}, {"eventtype": "window_resize", "value": [1536, 758], "timestamp": 1691076004818, "interval": 1614}, {"eventtype": "window_resize", "value": [1028, 744], "timestamp": 1691077332762, "interval": 1327944}, {"eventtype": "focus", "value": "off", "timestamp": 1691077336451, "interval": 3689}, {"eventtype": "focus", "value": "on", "timestamp": 1691077357010, "interval": 20559}, {"eventtype": "window_resize", "value": [1536, 758], "timestamp": 1691077403284, "interval": 46274}, {"eventtype": "focus", "value": "off", "timestamp": 1691079319317, "interval": 1916033}, {"eventtype": "focus", "value": "on", "timestamp": 1691079325638, "interval": 6321}], "useragent": "Mozilla/5.0 (Windows NT 10.0; Win64; x64) AppleWebKit/537.36 (KHTML, like Gecko) Chrome/115.0.0.0 Safari/537.36", "mode": "live", "id": "w52624552:a80697086", "status": "user data saved", "Beginhit": "2023-08-03 15:15:47.314676", "Beginexp": "2023-08-03 15:17:32.570588", "Endhit": "2023-08-03 16:28:41.463375", "psiturkStatus": 3, "browser": "<redacted>", "platform": "windows", "language": "en-US"}