{"condition": 1, "counterbalance": 0, "assignmentId": "a15837551", "workerId": "w91742948", "hitId": "h95498285", "currenttrial": 56, "bonus": 0, "data": [{"uniqueid": "w91742948:a15837551", "current_trial": 0, "dateTime": 1693480963112, "trialdata": {"success": true, "trial_type": "fullscreen", "trial_index": 0, "time_elapsed": 6219, "internal_node_id": "0.0-0.0"}}, {"uniqueid": "w91742948:a15837551", "current_trial": 1, "dateTime": 1693480978940, "trialdata": {"view_history": [{"page_index": 0, "viewing_time": 15826}], "rt": 15827, "trial_id": "exp_instructions_misaligned", "trial_type": "instructions", "trial_index": 1, "time_elapsed": 22047, "internal_node_id": "0.0-1.0"}}, {"uniqueid": "w91742948:a15837551", "current_trial": 2, "dateTime": 1693481140688, "trialdata": {"view_history": [{"page_index": 0, "viewing_time": 30313}, {"page_index": 1, "viewing_time": 82178}, {"page_index": 2, "viewing_time": 24993}, {"page_index": 3, "viewing_time": 24263}], "rt": 161747, "trial_id": "mouselab_instructions_1_misaligned", "trial_type": "instructions", "trial_index": 2, "time_elapsed": 183795, "internal_node_id": "0.0-2.0-1.0"}}, {"uniqueid": "w91742948:a15837551", "current_trial": 3, "dateTime": 1693481164232, "trialdata": {"revealed_states": [], "clicked_states": ["24", "26", "30", "15", "22", "20"], "num_clicks_accrued": [0, 0, 0, 0, 0, 0, 0, 0, 0, 0, 0, 0, 0], "stateRewards": ["", -10, -10, -10, 10, 10, 10, -10, -10, -10, -10, -10, 10, -10, 10, -10, 10, -10, 10, -10, -10, -10, 10, -10, -10, -10, -10, -10, 10, -10, -10, 10, -10, -10], "withholdReward": false, "trial_id": "practice_1", "block": "test", "trialIndex": 0, "score": 10.5, "costs": -3, "simulationMode": [null, null, null, null, null], "rewards": [10, -10, 10, -10, 10], "path": ["0", "0", "12", "13", "14", "19", "22"], "rt": [12572, 342, 123, 32, 45], "actions": ["right", "right", "right", "down", "left"], "actionTimes": [17068, 17915, 18536, 19072, 19632], "queries": {"click": {"state": {"target": ["24", "26", "30", "15", "22", "20"], "time": [6035, 7053, 8546, 10042, 11351, 12403]}, "edge": {"target": [], "time": []}}, "mouseover": {"state": {"target": ["23", "24", "24", "24", "25", "26", "25", "25", "30", "30", "31", "13", "15", "14", "14", "19", "22", "19", "20", "19", "12", "12", "13", "13"], "time": [5301, 5381, 5581, 5889, 6248, 6582, 7262, 7795, 8155, 8449, 8836, 9262, 9889, 10236, 10823, 10929, 11223, 11610, 11797, 12784, 13277, 13624, 14011, 14478]}, "edge": {"target": [], "time": []}}, "mouseout": {"state": {"target": ["7", "2", "1", "2", "7", "23", "24", "24", "24", "25", "26", "25", "25", "30", "30", "31", "13", "15", "14", "14", "19", "22", "19", "20", "19", "12", "12", "13", "13"], "time": [299, 566, 886, 1513, 1860, 5368, 5434, 5781, 6105, 6516, 7208, 7662, 8102, 8209, 8795, 8929, 9436, 10209, 10556, 10863, 11143, 11570, 11690, 12744, 12824, 13317, 13918, 14037, 16052]}, "edge": {"target": [], "time": []}}}, "displayed_time": "20.13", "trialTime": 23324, "trial_type": "mouselab-mdp", "trial_index": 3, "time_elapsed": 207339, "internal_node_id": "0.0-2.0-2.0-0.0"}}, {"uniqueid": "w91742948:a15837551", "current_trial": 4, "dateTime": 1693481185586, "trialdata": {"revealed_states": [], "clicked_states": ["15", "18", "22", "20"], "num_clicks_accrued": [0, 0, 0, 0, 0, 0, 0, 0, 0, 0, 0, 0, 0], "stateRewards": ["", 10, 10, -10, -10, 10, 10, 10, -10, -10, 10, 10, 10, 10, 10, -10, 10, -10, 10, 10, 10, 10, -10, -10, 10, 10, 10, -10, -10, -10, -10, -10, -10, 10], "withholdReward": false, "trial_id": "practice_2", "block": "test", "trialIndex": 1, "score": 51.5, "costs": -2, "simulationMode": [null, null, null, null, null], "rewards": [10, 10, 10, 10, 10], "path": ["0", "0", "12", "13", "14", "19", "20"], "rt": [12382, 37, 32, 509, 56], "actions": ["right", "right", "right", "down", "right"], "actionTimes": [13659, 14214, 14756, 15779, 16340], "queries": {"click": {"state": {"target": ["15", "18", "22", "20"], "time": [2429, 3891, 5567, 7502]}, "edge": {"target": [], "time": []}}, "mouseover": {"state": {"target": ["12", "13", "13", "13", "14", "15", "14", "18", "13", "18", "19", "19", "22", "12", "12", "13", "14", "19", "13", "12", "13", "19", "20", "19", "19", "14", "13", "23", "24", "24", "23", "0", "12", "0", "12", "13", "14", "19", "13", "12", "12", "13", "14", "20", "21", "21"], "time": [1638, 1718, 1918, 2051, 2171, 2345, 2611, 2852, 3145, 3585, 4159, 4986, 5426, 5799, 5986, 6093, 6186, 6239, 6693, 6733, 6946, 7053, 7387, 7693, 8240, 8720, 9001, 9334, 9534, 9961, 10081, 10161, 10454, 10614, 10814, 11081, 11415, 11895, 12268, 12308, 12668, 13002, 13215, 13349, 13455, 13510]}, "edge": {"target": [], "time": []}}, "mouseout": {"state": {"target": ["0", "12", "13", "13", "13", "14", "15", "14", "18", "13", "18", "19", "19", "22", "12", "12", "13", "14", "19", "13", "12", "13", "19", "20", "19", "22", "19", "14", "13", "23", "24", "24", "23", "0", "12", "0", "12", "13", "14", "19", "13", "12", "12", "13", "14", "20", "21", "21", "19", "21"], "time": [1611, 1692, 1771, 1985, 2131, 2225, 2585, 2745, 3118, 3171, 4052, 4599, 5292, 5693, 5906, 6066, 6146, 6199, 6600, 6706, 6920, 6973, 7280, 7666, 7720, 7907, 8654, 8800, 9041, 9467, 9747, 10054, 10121, 10187, 10521, 10788, 11041, 11375, 11855, 12162, 12295, 12335, 12962, 13174, 13282, 13362, 13482, 13602, 16870, 17123]}, "edge": {"target": [], "time": []}}}, "displayed_time": "16.84", "trialTime": 21261, "trial_type": "mouselab-mdp", "trial_index": 4, "time_elapsed": 228692, "internal_node_id": "0.0-2.0-2.0-1.0"}}, {"uniqueid": "w91742948:a15837551", "current_trial": 5, "dateTime": 1693481247905, "trialdata": {"view_history": [{"page_index": 0, "viewing_time": 53696}, {"page_index": 1, "viewing_time": 8622}], "rt": 62318, "trial_id": "mouselab_instructions_2_misaligned", "trial_type": "instructions", "trial_index": 5, "time_elapsed": 291012, "internal_node_id": "0.0-2.0-3.0"}}, {"uniqueid": "w91742948:a15837551", "current_trial": 6, "dateTime": 1693481272083, "trialdata": {"rt": 24176, "response": {"Q0": "The cost for clicking on nodes may vary between nodes.", "Q1": "The better I perform the higher my bonus will be.", "Q2": "No, the amount of cash at each node of the web may be different each time.", "Q3": "To get the highest total score.", "Q4": "Only before moving the spider.", "Q5": "3 seconds"}, "question_order": [0, 1, 2, 3, 4, 5], "correct": {"Q0": "The cost for clicking on nodes may vary between nodes.", "Q1": "The better I perform the higher my bonus will be.", "Q2": "No, the amount of cash at each node of the web may be different each time.", "Q3": "To get the highest total score.", "Q4": "Only before moving the spider.", "Q5": "3 seconds"}, "trial_id": "mouselab_quiz_misaligned", "trial_type": "survey-multi-choice", "trial_index": 6, "time_elapsed": 315190, "internal_node_id": "0.0-2.0-4.0"}}, {"uniqueid": "w91742948:a15837551", "current_trial": 7, "dateTime": 1693481278392, "trialdata": {"rt": 6307, "response": {"Q0": "No"}, "question_order": [0], "trial_id": "repeat_check", "trial_type": "survey-multi-choice", "trial_index": 7, "time_elapsed": 321499, "internal_node_id": "0.0-4.0-0.0"}}, {"uniqueid": "w91742948:a15837551", "current_trial": 8, "dateTime": 1693481285490, "trialdata": {"rt": 7095, "stimulus": "\n<h1> Get ready to start the game! </h1>\n\nThank you for reading the instructions. Get ready start with the 40 rounds of this game.\n<br><br>\nIf you need to take a break, feel free to take one after the end of a round, before continuing to the next one.\n<br><br>\nRemember, the more money the spider gets, the bigger your bonus will be!\n<br><br>\n<div style='text-align: center;'>Press <code>space</code> to begin.</div>\n\n<br><br>\n(If, at any point, the <code>space</code> key does not take you to the next page, click once on the text and try again.)", "response": " ", "trial_id": "mdp_ready", "trial_type": "html-keyboard-response", "trial_index": 8, "time_elapsed": 328597, "internal_node_id": "0.0-6.0-0.0"}}, {"uniqueid": "w91742948:a15837551", "current_trial": 9, "dateTime": 1693481304848, "trialdata": {"revealed_states": [], "clicked_states": ["30", "28", "19", "22"], "num_clicks_accrued": [0, 0, 0, 0, 0, 0, 0, 0, 0, 0, 0, 0, 0], "stateRewards": ["", 1, 3, -2, 15, 51, 15, -19, 11, 67, -45, -73, 2, 4, -2, -13, 36, 9, -28, 10, -30, 31, 16, 1, 2, -1, -16, 14, -22, 36, -1, 88, -5, 45], "withholdReward": false, "trial_id": "mdp_trial_1", "block": "test", "trialIndex": 2, "score": 22.6, "costs": -7.4, "simulationMode": [null, null, null, null, null, null], "rewards": [2, 4, -2, 10, 16], "path": ["0", "0", "12", "13", "14", "19", "22"], "rt": [12246, 607, 135, 166, 71, 113], "actions": ["right", "right", "right", "right", "down", "left"], "actionTimes": [13704, 14312, 14964, 15634, 16206, 16822], "queries": {"click": {"state": {"target": ["30", "28", "19", "22"], "time": [3308, 5952, 10874, 11835]}, "edge": {"target": [], "time": []}}, "mouseover": {"state": {"target": ["0", "23", "24", "25", "30", "31", "26", "28", "26", "29", "25", "25", "29", "25", "24", "23", "0", "12", "13", "14", "19", "22", "20"], "time": [1890, 1996, 2183, 2343, 2916, 3957, 5784, 5891, 6184, 6424, 7078, 7344, 7811, 8785, 8958, 9466, 9545, 9866, 10132, 10546, 10826, 11253, 12386]}, "edge": {"target": [], "time": []}}, "mouseout": {"state": {"target": ["4", "7", "1", "0", "0", "23", "24", "25", "30", "31", "26", "28", "26", "29", "25", "25", "29", "25", "24", "23", "0", "12", "13", "14", "19", "22", "19", "20", "14", "13", "19", "21"], "time": [302, 408, 648, 1623, 1956, 2089, 2236, 2876, 3490, 5304, 5824, 6131, 6317, 7038, 7211, 7504, 8625, 8878, 9439, 9506, 9772, 9945, 10426, 10786, 11146, 12106, 12346, 14174, 14374, 14747, 17468, 17682]}, "edge": {"target": [], "time": []}}}, "displayed_time": "17.32", "trialTime": 19264, "trial_type": "mouselab-mdp", "trial_index": 9, "time_elapsed": 347954, "internal_node_id": "0.0-6.0-1.0-0.0"}}, {"uniqueid": "w91742948:a15837551", "current_trial": 10, "dateTime": 1693481345257, "trialdata": {"revealed_states": [], "clicked_states": ["18", "31", "33", "28", "29", "7", "10", "22", "20"], "num_clicks_accrued": [0, 0, 0, 0, 0, 0, 0, 0, 0, 0, 0, 0, 0], "stateRewards": ["", -2, 2, -5, 1, 42, -63, -58, -6, 2, 16, 81, -2, 4, 7, -10, 33, 3, -33, -2, -52, -84, -27, 2, -3, -3, 15, -74, -14, -5, -5, -84, 79, -31], "withholdReward": false, "trial_id": "mdp_trial_2", "block": "test", "trialIndex": 3, "score": -14.349999999999998, "costs": -19.349999999999998, "simulationMode": [null, null, null, null, null], "rewards": [-2, 2, -5, -6, 16], "path": ["0", "0", "1", "2", "3", "8", "10"], "rt": [34535, 53, 5, 477, 34], "actions": ["up", "up", "up", "left", "down"], "actionTimes": [35618, 36178, 36689, 37682, 38212], "queries": {"click": {"state": {"target": ["18", "31", "33", "28", "29", "7", "10", "22", "20"], "time": [2177, 6310, 10304, 13650, 17233, 21635, 25287, 28153, 32330]}, "edge": {"target": [], "time": []}}, "mouseover": {"state": {"target": ["12", "13", "14", "14", "15", "18", "20", "20", "19", "19", "20", "19", "22", "30", "30", "31", "30", "33", "33", "30", "24", "24", "24", "28", "26", "29", "24", "23", "0", "1", "26", "29", "24", "7", "2", "10", "2", "1", "23", "24", "24", "2", "7", "1", "1", "1", "2", "4", "3", "8", "10", "1", "12", "13", "22", "22", "19", "20", "19", "12", "13", "14", "13", "18"], "time": [1284, 1324, 1510, 1737, 1924, 2057, 2658, 3244, 3538, 4178, 4271, 5032, 5098, 5892, 6073, 6246, 6592, 7086, 7926, 10500, 10727, 11554, 12021, 12274, 13875, 13941, 14635, 14715, 14822, 16117, 16529, 16729, 17543, 17849, 18183, 18276, 18503, 20211, 20544, 20704, 21038, 21358, 21464, 22038, 22331, 22625, 22771, 23038, 23545, 24359, 24772, 25519, 25626, 26173, 26426, 26760, 28453, 28747, 32562, 32842, 33256, 33416, 34149, 35377]}, "edge": {"target": [], "time": []}}, "mouseout": {"state": {"target": ["0", "12", "13", "14", "14", "15", "18", "20", "20", "19", "19", "20", "19", "22", "30", "30", "31", "30", "33", "33", "30", "24", "24", "24", "28", "26", "29", "24", "23", "0", "1", "28", "26", "29", "24", "28", "7", "2", "10", "2", "1", "23", "24", "24", "2", "7", "1", "1", "1", "2", "4", "3", "8", "10", "1", "12", "13", "22", "22", "19", "20", "19", "22", "12", "13", "14", "13", "18", "12", "0", "12"], "time": [1257, 1310, 1377, 1644, 1830, 1951, 2324, 2937, 3524, 3564, 4218, 5018, 5058, 5152, 5925, 6152, 6552, 6766, 7579, 10474, 10553, 11141, 11581, 12114, 13848, 13915, 14582, 14675, 14808, 14835, 16169, 16489, 16636, 17449, 17583, 17676, 18170, 18237, 18463, 18530, 20451, 20584, 20784, 21051, 21411, 21958, 22251, 22384, 22665, 22945, 23492, 24305, 24679, 25479, 25559, 25732, 26333, 26453, 28400, 28507, 32535, 32602, 32749, 33136, 33350, 34069, 35283, 38818, 38938, 39191, 39898]}, "edge": {"target": [], "time": []}}}, "displayed_time": "38.71", "trialTime": 40314, "trial_type": "mouselab-mdp", "trial_index": 10, "time_elapsed": 388364, "internal_node_id": "0.0-6.0-1.0-1.0"}}, {"uniqueid": "w91742948:a15837551", "current_trial": 11, "dateTime": 1693481362998, "trialdata": {"revealed_states": [], "clicked_states": ["28"], "num_clicks_accrued": [0, 0, 0, 0, 0, 0, 0, 0, 0, 0, 0, 0, 0], "stateRewards": ["", -2, 1, 6, -2, -10, -78, -69, 14, -15, 7, -1, 1, -1, -2, 13, 77, 32, 87, 5, -74, 30, -26, 1, 3, 4, 12, 39, 54, -43, 2, 10, 23, 13], "withholdReward": false, "trial_id": "mdp_trial_3", "block": "test", "trialIndex": 4, "score": 71.85, "costs": -2.15, "simulationMode": [null, null, null, null, null], "rewards": [1, 3, 4, 12, 54], "path": ["0", "0", "23", "24", "25", "26", "28"], "rt": [5983, 86, 29, 43, 19], "actions": ["left", "left", "left", "up", "right"], "actionTimes": [6907, 7502, 8032, 8593, 9129], "queries": {"click": {"state": {"target": ["28"], "time": [3086]}, "edge": {"target": [], "time": []}}, "mouseover": {"state": {"target": ["13", "24", "28", "28", "26", "28", "28", "24", "31", "31", "30", "33", "30", "31", "31", "30"], "time": [1386, 1546, 1826, 2026, 2107, 2213, 2576, 3293, 3800, 4054, 4414, 4734, 5654, 5694, 5961, 6202]}, "edge": {"target": [], "time": []}}, "mouseout": {"state": {"target": ["12", "13", "24", "28", "28", "26", "28", "28", "24", "31", "31", "30", "33", "30", "31", "31", "30", "30", "0", "23", "28", "1", "0"], "time": [279, 1439, 1586, 1933, 2080, 2160, 2280, 3254, 3347, 3894, 4267, 4521, 5628, 5681, 5721, 6081, 6428, 8562, 9989, 11870, 12470, 14486, 15778]}, "edge": {"target": [], "time": []}}}, "displayed_time": "14.93", "trialTime": 17649, "trial_type": "mouselab-mdp", "trial_index": 11, "time_elapsed": 406105, "internal_node_id": "0.0-6.0-1.0-2.0"}}, {"uniqueid": "w91742948:a15837551", "current_trial": 12, "dateTime": 1693481379565, "trialdata": {"revealed_states": [], "clicked_states": ["28", "33"], "num_clicks_accrued": [0, 0, 0, 0, 0, 0, 0, 0, 0, 0, 0, 0, 0], "stateRewards": ["", -2, 1, -8, 12, -65, -79, 16, 7, -80, -17, -45, -2, 2, -5, -2, -85, 23, -4, -7, 48, 27, -76, 2, 3, 5, 2, 43, 71, -13, 7, -49, 59, -31], "withholdReward": false, "trial_id": "mdp_trial_4", "block": "test", "trialIndex": 5, "score": 78.7, "costs": -4.3, "simulationMode": [null, null, null, null, null, null], "rewards": [2, 3, 5, 2, 71], "path": ["0", "0", "23", "24", "25", "26", "28"], "rt": [5768, 468, 171, 10, 1, 11], "actions": ["left", "left", "left", "left", "up", "right"], "actionTimes": [6647, 7117, 7810, 8328, 8839, 9369], "queries": {"click": {"state": {"target": ["28", "33"], "time": [1895, 4981]}, "edge": {"target": [], "time": []}}, "mouseover": {"state": {"target": ["12", "13", "12", "28", "26", "29", "25", "30", "33", "33"], "time": [1061, 1114, 1314, 1408, 2034, 2088, 2368, 2488, 2715, 4262]}, "edge": {"target": [], "time": []}}, "mouseout": {"state": {"target": ["12", "12", "13", "12", "28", "26", "29", "25", "30", "33", "33", "21", "22", "19", "19"], "time": [714, 1087, 1301, 1328, 2021, 2061, 2221, 2421, 2528, 3929, 5236, 13385, 14012, 14426, 15626]}, "edge": {"target": [], "time": []}}}, "displayed_time": "14.88", "trialTime": 16471, "trial_type": "mouselab-mdp", "trial_index": 12, "time_elapsed": 422672, "internal_node_id": "0.0-6.0-1.0-3.0"}}, {"uniqueid": "w91742948:a15837551", "current_trial": 13, "dateTime": 1693481398640, "trialdata": {"revealed_states": [], "clicked_states": ["17", "28", "33"], "num_clicks_accrued": [0, 0, 0, 0, 0, 0, 0, 0, 0, 0, 0, 0, 0], "stateRewards": ["", 2, -1, 5, 8, 75, -35, -77, 1, -9, -81, -58, 1, 2, -7, 5, 77, -16, 19, 16, -10, -18, 40, -2, 3, 7, -5, 64, 1, -62, 10, 27, 10, 65], "withholdReward": false, "trial_id": "mdp_trial_5", "block": "test", "trialIndex": 6, "score": 76.55, "costs": -6.449999999999999, "simulationMode": [null, null, null, null, null], "rewards": [-2, 3, 7, 10, 65], "path": ["0", "0", "23", "24", "25", "30", "33"], "rt": [11452, 5, 62, 50, 398], "actions": ["left", "left", "left", "down", "left"], "actionTimes": [12792, 13298, 13876, 14437, 15332], "queries": {"click": {"state": {"target": ["17", "28", "33"], "time": [2168, 6124, 9288]}, "edge": {"target": [], "time": []}}, "mouseover": {"state": {"target": ["12", "13", "14", "17", "14", "19", "22", "0", "23", "28", "29", "33", "30", "31", "21"], "time": [1488, 1528, 1674, 1994, 2408, 2448, 2902, 5796, 5836, 5996, 6503, 7196, 9517, 10237, 11652]}, "edge": {"target": [], "time": []}}, "mouseout": {"state": {"target": ["13", "12", "12", "13", "14", "17", "14", "19", "22", "0", "23", "28", "29", "33", "30", "31", "21", "22", "13", "22"], "time": [740, 1020, 1514, 1581, 1848, 2368, 2421, 2461, 5396, 5822, 5849, 6316, 6783, 9490, 9530, 11278, 13078, 15960, 16893, 17694]}, "edge": {"target": [], "time": []}}}, "displayed_time": "15.84", "trialTime": 18980, "trial_type": "mouselab-mdp", "trial_index": 13, "time_elapsed": 441746, "internal_node_id": "0.0-6.0-1.0-4.0"}}, {"uniqueid": "w91742948:a15837551", "current_trial": 14, "dateTime": 1693481415859, "trialdata": {"revealed_states": [], "clicked_states": ["22"], "num_clicks_accrued": [0, 0, 0, 0, 0, 0, 0, 0, 0, 0, 0, 0, 0], "stateRewards": ["", 1, -2, -3, 14, -42, -87, -37, -11, -50, 33, -44, -2, 4, -7, 13, 48, -75, -66, 12, 23, -2, 82, 1, -4, 3, 12, 51, -15, -26, -11, -52, -29, 82], "withholdReward": false, "trial_id": "mdp_trial_6", "block": "test", "trialIndex": 7, "score": 86.85, "costs": -2.15, "simulationMode": [null, null, null, null, null], "rewards": [-2, 4, -7, 12, 82], "path": ["0", "0", "12", "13", "14", "19", "22"], "rt": [4824, 13, 22, 32, 102], "actions": ["right", "right", "right", "down", "left"], "actionTimes": [5887, 6416, 6946, 7476, 8078], "queries": {"click": {"state": {"target": ["22"], "time": [2179]}, "edge": {"target": [], "time": []}}, "mouseover": {"state": {"target": ["12", "17", "14", "19", "22", "19", "20", "15", "18", "10", "27", "28", "28", "12"], "time": [1147, 1253, 1667, 1814, 2094, 2347, 2374, 2988, 3148, 3401, 3855, 4761, 5015, 5869]}, "edge": {"target": [], "time": []}}, "mouseout": {"state": {"target": ["12", "0", "12", "17", "14", "19", "22", "19", "20", "15", "18", "10", "27", "28", "28", "12", "13", "19", "19"], "time": [640, 1133, 1160, 1520, 1707, 2014, 2320, 2360, 2387, 3081, 3281, 3441, 4708, 4962, 5775, 5895, 5922, 7989, 8456]}, "edge": {"target": [], "time": []}}}, "displayed_time": "15.06", "trialTime": 17118, "trial_type": "mouselab-mdp", "trial_index": 14, "time_elapsed": 458965, "internal_node_id": "0.0-6.0-1.0-5.0"}}, {"uniqueid": "w91742948:a15837551", "current_trial": 15, "dateTime": 1693481433514, "trialdata": {"revealed_states": [], "clicked_states": ["28", "21"], "num_clicks_accrued": [0, 0, 0, 0, 0, 0, 0, 0, 0, 0, 0, 0, 0], "stateRewards": ["", 1, 2, 7, 13, 88, -71, 27, 3, 60, 5, -53, -2, 2, -6, -1, -30, 79, 47, -4, -14, 46, 68, 1, 1, 8, 10, -14, 86, 48, -11, -67, -44, 5], "withholdReward": false, "trial_id": "mdp_trial_7", "block": "test", "trialIndex": 8, "score": 101.7, "costs": -4.3, "simulationMode": [null, null, null, null, null], "rewards": [1, 1, 8, 10, 86], "path": ["0", "0", "23", "24", "25", "26", "28"], "rt": [8727, 25, 284, 453, 620], "actions": ["left", "left", "left", "up", "right"], "actionTimes": [9740, 10263, 11055, 12011, 13138], "queries": {"click": {"state": {"target": ["28", "21"], "time": [2632, 5874]}, "edge": {"target": [], "time": []}}, "mouseover": {"state": {"target": ["23", "24", "25", "28", "33", "32", "21", "20", "22", "19", "20", "20", "19"], "time": [1674, 1727, 1781, 2368, 2981, 3355, 3768, 6369, 7383, 7529, 7609, 7930, 9477]}, "edge": {"target": [], "time": []}}, "mouseout": {"state": {"target": ["22", "13", "12", "23", "24", "25", "28", "33", "32", "21", "20", "22", "19", "20", "20", "19", "22"], "time": [340, 473, 540, 1701, 1767, 1807, 2768, 3021, 3394, 6142, 6476, 7503, 7583, 7703, 9451, 13692, 15559]}, "edge": {"target": [], "time": []}}}, "displayed_time": "15.01", "trialTime": 17547, "trial_type": "mouselab-mdp", "trial_index": 15, "time_elapsed": 476621, "internal_node_id": "0.0-6.0-1.0-6.0"}}, {"uniqueid": "w91742948:a15837551", "current_trial": 16, "dateTime": 1693481462408, "trialdata": {"revealed_states": [], "clicked_states": ["28", "32", "20", "7"], "num_clicks_accrued": [0, 0, 0, 0, 0, 0, 0, 0, 0, 0, 0, 0, 0], "stateRewards": ["", -2, -3, -5, 8, 27, 11, 43, -6, -24, -87, 69, -2, 1, 1, 9, 19, 48, -37, 9, -14, 45, 62, 1, 2, 1, 16, -81, -41, 22, 4, -6, -63, 47], "withholdReward": false, "trial_id": "mdp_trial_8", "block": "test", "trialIndex": 9, "score": -111.6, "costs": -8.6, "simulationMode": [null, null, null, null, null], "rewards": [-2, -3, -5, -6, -87], "path": ["0", "0", "1", "2", "3", "8", "10"], "rt": [18364, 2, 597, 13, 382], "actions": ["up", "up", "up", "left", "down"], "actionTimes": [21187, 21704, 22819, 23330, 24232], "queries": {"click": {"state": {"target": ["28", "32", "20", "7"], "time": [4340, 7463, 10673, 13944]}, "edge": {"target": [], "time": []}}, "mouseover": {"state": {"target": ["0", "23", "28", "24", "31", "32", "20", "20", "19", "22", "12", "13", "18", "7", "4", "7", "2", "28", "28", "10", "2", "1", "1", "2", "3", "4", "4", "2", "1", "1", "2", "3", "4", "10", "2", "2"], "time": [3415, 3535, 3748, 4508, 4562, 4935, 7896, 8203, 10817, 10844, 11137, 11164, 11297, 11431, 11898, 12245, 14098, 14165, 14352, 14418, 14619, 14752, 15232, 15499, 15886, 16446, 16726, 17206, 17646, 18247, 18607, 19087, 19380, 19717, 20154, 20954]}, "edge": {"target": [], "time": []}}, "mouseout": {"state": {"target": ["0", "23", "28", "24", "31", "32", "20", "20", "19", "22", "12", "13", "18", "7", "4", "7", "7", "2", "28", "28", "10", "2", "1", "1", "2", "3", "4", "4", "7", "2", "1", "1", "2", "3", "4", "10", "2", "2", "1", "10"], "time": [3495, 3588, 4482, 4535, 4588, 7542, 7936, 10804, 10831, 10857, 11151, 11191, 11337, 11498, 12071, 14011, 14085, 14125, 14192, 14378, 14432, 14685, 14845, 15445, 15832, 16406, 16513, 16739, 16846, 17633, 17686, 18540, 19020, 19340, 19434, 20114, 20621, 21088, 26170, 26398]}, "edge": {"target": [], "time": []}}}, "displayed_time": "24.73", "trialTime": 28788, "trial_type": "mouselab-mdp", "trial_index": 16, "time_elapsed": 505515, "internal_node_id": "0.0-6.0-1.0-7.0"}}, {"uniqueid": "w91742948:a15837551", "current_trial": 17, "dateTime": 1693481479499, "trialdata": {"revealed_states": [], "clicked_states": ["10", "28", "21"], "num_clicks_accrued": [0, 0, 0, 0, 0, 0, 0, 0, 0, 0, 0, 0, 0], "stateRewards": ["", -1, -4, -1, -5, -28, -23, -15, -15, -38, 59, -87, 2, 2, -5, 9, -55, -39, -71, -6, 85, -85, -11, -1, -2, 5, -10, 1, 25, 41, -4, 69, -35, 86], "withholdReward": false, "trial_id": "mdp_trial_9", "block": "test", "trialIndex": 10, "score": 31.55, "costs": -6.449999999999999, "simulationMode": [null, null, null, null, null], "rewards": [-1, -4, -1, -15, 59], "path": ["0", "0", "1", "2", "3", "8", "10"], "rt": [11564, 29, 597, 34, 53], "actions": ["up", "up", "up", "left", "down"], "actionTimes": [12433, 12963, 14078, 14608, 15174], "queries": {"click": {"state": {"target": ["10", "28", "21"], "time": [1823, 5396, 8851]}, "edge": {"target": [], "time": []}}, "mouseover": {"state": {"target": ["12", "1", "2", "10", "1", "24", "24", "28", "24", "21", "20", "21", "22", "13", "7"], "time": [1035, 1368, 1435, 1595, 1995, 2529, 3035, 3355, 5583, 5970, 6410, 8758, 9091, 9144, 9825]}, "edge": {"target": [], "time": []}}, "mouseout": {"state": {"target": ["0", "12", "1", "2", "10", "1", "24", "24", "28", "24", "21", "20", "21", "22", "13", "7", "18", "13", "22"], "time": [354, 1328, 1408, 1462, 1968, 2023, 2782, 3302, 5543, 5623, 5983, 8664, 8916, 9104, 9171, 15947, 16147, 16427, 16547]}, "edge": {"target": [], "time": []}}}, "displayed_time": "15.68", "trialTime": 16983, "trial_type": "mouselab-mdp", "trial_index": 17, "time_elapsed": 522605, "internal_node_id": "0.0-6.0-1.0-8.0"}}, {"uniqueid": "w91742948:a15837551", "current_trial": 18, "dateTime": 1693481500707, "trialdata": {"revealed_states": [], "clicked_states": ["10", "20", "31", "33"], "num_clicks_accrued": [0, 0, 0, 0, 0, 0, 0, 0, 0, 0, 0, 0, 0], "stateRewards": ["", 1, -2, 4, 7, -43, -83, -60, -5, -86, -80, 83, -1, -2, 6, 11, -15, 21, 13, 9, 29, -49, 11, -1, 4, -6, -11, 87, 40, 63, -8, -39, -11, 62], "withholdReward": false, "trial_id": "mdp_trial_10", "block": "test", "trialIndex": 11, "score": 42.4, "costs": -8.6, "simulationMode": [null, null, null, null, null], "rewards": [-1, 4, -6, -8, 62], "path": ["0", "0", "23", "24", "25", "30", "33"], "rt": [14617, 453, 78, 130, 106], "actions": ["left", "left", "left", "down", "left"], "actionTimes": [15885, 16847, 17433, 18071, 18674], "queries": {"click": {"state": {"target": ["10", "20", "31", "33"], "time": [2268, 6035, 9372, 12484]}, "edge": {"target": [], "time": []}}, "mouseover": {"state": {"target": ["12", "13", "14", "14", "13", "1", "10", "1", "13", "19", "20", "19", "31", "30", "31", "32", "25", "25", "33", "30", "22", "13", "1", "26", "29"], "time": [1401, 1429, 1481, 1748, 1774, 1841, 2188, 2455, 2521, 2561, 3148, 6243, 6976, 7216, 7377, 9991, 10151, 10417, 10925, 12658, 12925, 13072, 13192, 13459, 13726]}, "edge": {"target": [], "time": []}}, "mouseout": {"state": {"target": ["22", "0", "12", "13", "14", "14", "13", "1", "10", "1", "13", "19", "20", "19", "31", "30", "31", "32", "25", "25", "33", "30", "22", "13", "1", "26", "29", "26", "24", "23"], "time": [480, 1374, 1428, 1454, 1508, 1761, 1788, 1854, 2428, 2468, 2548, 3068, 6203, 6269, 7003, 7350, 9577, 10031, 10178, 10498, 12561, 12685, 12978, 13125, 13232, 13565, 19087, 19127, 19181, 19208]}, "edge": {"target": [], "time": []}}}, "displayed_time": "19.18", "trialTime": 21111, "trial_type": "mouselab-mdp", "trial_index": 18, "time_elapsed": 543814, "internal_node_id": "0.0-6.0-1.0-9.0"}}, {"uniqueid": "w91742948:a15837551", "current_trial": 19, "dateTime": 1693481517457, "trialdata": {"revealed_states": [], "clicked_states": ["28"], "num_clicks_accrued": [0, 0, 0, 0, 0, 0, 0, 0, 0, 0, 0, 0, 0], "stateRewards": ["", 1, 1, -5, 10, -31, 73, 14, -8, -23, 63, -70, -1, 2, 8, 7, 25, -59, 27, -10, -40, -71, -15, -2, 3, -8, -5, -19, 77, -34, 7, 67, 63, 19], "withholdReward": false, "trial_id": "mdp_trial_11", "block": "test", "trialIndex": 12, "score": 62.85, "costs": -2.15, "simulationMode": [null, null, null, null, null], "rewards": [-2, 3, -8, -5, 77], "path": ["0", "0", "23", "24", "25", "26", "28"], "rt": [4175, 54, 79, 217, 185], "actions": ["left", "left", "left", "up", "right"], "actionTimes": [5035, 5595, 6180, 6904, 7593], "queries": {"click": {"state": {"target": ["28"], "time": [1663]}, "edge": {"target": [], "time": []}}, "mouseover": {"state": {"target": ["1", "28", "24", "32", "32"], "time": [1072, 1539, 1792, 2285, 3299]}, "edge": {"target": [], "time": []}}, "mouseout": {"state": {"target": ["0", "0", "1", "28", "24", "32", "32", "0"], "time": [391, 978, 1258, 1778, 1805, 2592, 8101, 16290]}, "edge": {"target": [], "time": []}}}, "displayed_time": "14.86", "trialTime": 16644, "trial_type": "mouselab-mdp", "trial_index": 19, "time_elapsed": 560563, "internal_node_id": "0.0-6.0-1.0-10.0"}}, {"uniqueid": "w91742948:a15837551", "current_trial": 20, "dateTime": 1693481534980, "trialdata": {"revealed_states": [], "clicked_states": ["23", "32", "20"], "num_clicks_accrued": [0, 0, 0, 0, 0, 0, 0, 0, 0, 0, 0, 0, 0], "stateRewards": ["", -2, 2, -2, -7, -50, -62, -45, 7, 36, -24, -72, -1, -1, 8, -1, -67, 20, -52, 2, 35, -50, 80, -1, 1, 6, -6, -70, 6, 88, 8, -47, 74, -19], "withholdReward": false, "trial_id": "mdp_trial_12", "block": "test", "trialIndex": 13, "score": 83.95, "costs": -4.05, "simulationMode": [null, null, null, null, null, null], "rewards": [-1, 1, 6, 8, 74], "path": ["0", "0", "23", "24", "25", "30", "32"], "rt": [7017, 334, 45, 76, 55, 159], "actions": ["left", "left", "left", "left", "down", "down"], "actionTimes": [8776, 9111, 9666, 10257, 10822, 11499], "queries": {"click": {"state": {"target": ["23", "32", "20"], "time": [2647, 4037, 8467]}, "edge": {"target": [], "time": []}}, "mouseover": {"state": {"target": ["18", "18", "23", "23", "31", "30", "32", "32", "22", "19", "20", "21", "20", "21"], "time": [1896, 1976, 2229, 2523, 2829, 2857, 3030, 3590, 5057, 5084, 5124, 6044, 6511, 8685]}, "edge": {"target": [], "time": []}}, "mouseout": {"state": {"target": ["0", "12", "18", "18", "23", "23", "31", "30", "32", "32", "22", "19", "20", "21", "20", "21"], "time": [3, 975, 1936, 1989, 2270, 2789, 2843, 2883, 3083, 4163, 5070, 5110, 5484, 6151, 8645, 8698]}, "edge": {"target": [], "time": []}}}, "displayed_time": "15.76", "trialTime": 17413, "trial_type": "mouselab-mdp", "trial_index": 20, "time_elapsed": 578087, "internal_node_id": "0.0-6.0-1.0-11.0"}}, {"uniqueid": "w91742948:a15837551", "current_trial": 21, "dateTime": 1693481556713, "trialdata": {"revealed_states": [], "clicked_states": ["7", "10", "28", "33"], "num_clicks_accrued": [0, 0, 0, 0, 0, 0, 0, 0, 0, 0, 0, 0, 0], "stateRewards": ["", -1, 4, 3, 12, -27, 34, -33, 3, -63, 1, 6, 2, 2, -6, -11, -77, -85, 68, -6, 51, 81, -60, -2, -2, 1, 15, 20, 15, 68, -10, -14, 6, -4], "withholdReward": false, "trial_id": "mdp_trial_13", "block": "test", "trialIndex": 14, "score": 18.4, "costs": -8.6, "simulationMode": [null, null, null, null, null], "rewards": [-2, -2, 1, 15, 15], "path": ["0", "0", "23", "24", "25", "26", "28"], "rt": [15623, 3, 476, 57, 1], "actions": ["left", "left", "left", "up", "right"], "actionTimes": [17019, 17523, 18516, 19071, 19576], "queries": {"click": {"state": {"target": ["7", "10", "28", "33"], "time": [4086, 7348, 10518, 13720]}, "edge": {"target": [], "time": []}}, "mouseover": {"state": {"target": ["12", "1", "2", "2", "1", "0", "1", "2", "7", "3", "10", "28", "24", "30", "30", "25", "25", "28", "29", "33", "32"], "time": [1567, 2087, 2367, 2727, 2834, 2940, 3234, 3581, 3928, 4288, 4554, 7542, 7609, 7689, 7969, 8249, 8769, 9129, 10943, 11650, 13904]}, "edge": {"target": [], "time": []}}, "mouseout": {"state": {"target": ["22", "12", "0", "12", "1", "2", "2", "1", "0", "1", "2", "7", "3", "10", "28", "24", "30", "30", "25", "25", "28", "29", "33", "32"], "time": [526, 1100, 1514, 1687, 2140, 2487, 2780, 2874, 3061, 3514, 3901, 4134, 4394, 7515, 7582, 7622, 7782, 8036, 8569, 8969, 10703, 11330, 13864, 13918]}, "edge": {"target": [], "time": []}}}, "displayed_time": "20.09", "trialTime": 21623, "trial_type": "mouselab-mdp", "trial_index": 21, "time_elapsed": 599820, "internal_node_id": "0.0-6.0-1.0-12.0"}}, {"uniqueid": "w91742948:a15837551", "current_trial": 22, "dateTime": 1693481581722, "trialdata": {"revealed_states": [], "clicked_states": ["21", "32", "28", "10", "7"], "num_clicks_accrued": [0, 0, 0, 0, 0, 0, 0, 0, 0, 0, 0, 0, 0], "stateRewards": ["", -1, 2, -2, 13, -56, -28, 10, 14, 53, -80, -29, 1, -3, -3, -14, 14, 9, -40, -9, 18, 18, 48, 1, 1, 1, -9, 64, -39, -9, 7, -52, -78, 7], "withholdReward": false, "trial_id": "mdp_trial_14", "block": "test", "trialIndex": 15, "score": 11.25, "costs": -10.75, "simulationMode": [null, null, null, null, null], "rewards": [-1, 2, -2, 13, 10], "path": ["0", "0", "1", "2", "3", "4", "7"], "rt": [17246, 44, 33, 28, 90], "actions": ["up", "up", "up", "right", "down"], "actionTimes": [19899, 20441, 20977, 21519, 22128], "queries": {"click": {"state": {"target": ["21", "32", "28", "10", "7"], "time": [3947, 6821, 9658, 12773, 16395]}, "edge": {"target": [], "time": []}}, "mouseover": {"state": {"target": ["0", "12", "22", "13", "14", "20", "21", "22", "0", "23", "31", "30", "32", "30", "24", "28", "28", "26", "29", "7", "10", "23", "0", "18", "14", "14", "18", "7", "7", "18", "13", "19", "19"], "time": [2815, 2842, 3029, 3122, 3269, 3376, 3829, 4096, 4149, 4189, 4309, 4549, 4749, 7097, 7190, 7297, 7630, 10218, 10365, 10925, 11272, 13019, 13086, 13192, 13326, 15460, 15660, 16100, 16260, 16594, 16620, 16647, 17114]}, "edge": {"target": [], "time": []}}, "mouseout": {"state": {"target": ["28", "1", "0", "12", "22", "13", "14", "20", "21", "22", "0", "23", "31", "30", "32", "30", "24", "28", "28", "26", "29", "28", "7", "10", "23", "0", "18", "14", "14", "18", "7", "7", "18", "13", "19", "19", "13", "14", "22"], "time": [1562, 1735, 2832, 2855, 3055, 3242, 3309, 3629, 4069, 4122, 4176, 4269, 4376, 4589, 7017, 7123, 7230, 7390, 10085, 10298, 10512, 10818, 10952, 12939, 13059, 13099, 13259, 13366, 15580, 15767, 16114, 16567, 16607, 16634, 16674, 17168, 23303, 23530, 23597]}, "edge": {"target": [], "time": []}}}, "displayed_time": "22.63", "trialTime": 24899, "trial_type": "mouselab-mdp", "trial_index": 22, "time_elapsed": 624829, "internal_node_id": "0.0-6.0-1.0-13.0"}}, {"uniqueid": "w91742948:a15837551", "current_trial": 23, "dateTime": 1693481599825, "trialdata": {"revealed_states": [], "clicked_states": ["7", "20", "31"], "num_clicks_accrued": [0, 0, 0, 0, 0, 0, 0, 0, 0, 0, 0, 0, 0], "stateRewards": ["", 1, -4, 6, -3, 40, 76, -51, 5, -24, -63, 44, -2, -2, 8, 1, 76, -85, -58, 10, 59, 20, 11, -2, 3, -3, 3, -82, -10, 54, -7, -57, -6, -32], "withholdReward": false, "trial_id": "mdp_trial_15", "block": "test", "trialIndex": 16, "score": 66.55, "costs": -6.449999999999999, "simulationMode": [null, null, null, null, null, null], "rewards": [-2, -2, 8, 10, 59], "path": ["0", "0", "12", "13", "14", "19", "20"], "rt": [8004, 186, 386, 119, 106, 77], "actions": ["right", "right", "right", "right", "down", "right"], "actionTimes": [10415, 10601, 11503, 12143, 12770, 13367], "queries": {"click": {"state": {"target": ["7", "20", "31"], "time": [3406, 6537, 10205]}, "edge": {"target": [], "time": []}}, "mouseover": {"state": {"target": ["18", "18", "7", "7", "16", "20", "19", "22", "31"], "time": [2592, 2766, 3032, 3286, 3593, 4246, 6687, 6715, 7060]}, "edge": {"target": [], "time": []}}, "mouseout": {"state": {"target": ["0", "18", "18", "7", "7", "16", "20", "19", "22", "31", "21"], "time": [992, 2606, 2846, 3046, 3481, 3606, 6660, 6714, 6740, 10295, 14370]}, "edge": {"target": [], "time": []}}}, "displayed_time": "16.41", "trialTime": 17996, "trial_type": "mouselab-mdp", "trial_index": 23, "time_elapsed": 642932, "internal_node_id": "0.0-6.0-1.0-14.0"}}, {"uniqueid": "w91742948:a15837551", "current_trial": 24, "dateTime": 1693481617746, "trialdata": {"revealed_states": [], "clicked_states": ["28", "7"], "num_clicks_accrued": [0, 0, 0, 0, 0, 0, 0, 0, 0, 0, 0, 0, 0], "stateRewards": ["", -2, 1, -7, -8, -37, -76, -87, 11, 30, -63, 80, -1, 4, 2, -1, 42, 17, 52, -3, -75, -80, -68, 2, -3, -5, -15, -48, 82, 24, -7, 5, -22, -71], "withholdReward": false, "trial_id": "mdp_trial_16", "block": "test", "trialIndex": 17, "score": 56.7, "costs": -4.3, "simulationMode": [null, null, null, null, null], "rewards": [2, -3, -5, -15, 82], "path": ["0", "0", "23", "24", "25", "26", "28"], "rt": [7464, 58, 3, 32, 45], "actions": ["left", "left", "left", "up", "right"], "actionTimes": [9111, 9665, 10170, 10719, 11279], "queries": {"click": {"state": {"target": ["28", "7"], "time": [2458, 5963]}, "edge": {"target": [], "time": []}}, "mouseover": {"state": {"target": ["12", "1", "28", "24", "13", "7", "12", "32"], "time": [1897, 2070, 2136, 2577, 2870, 3244, 6485, 7379]}, "edge": {"target": [], "time": []}}, "mouseout": {"state": {"target": ["0", "12", "1", "28", "24", "13", "7", "12", "32"], "time": [1056, 1910, 2083, 2564, 2590, 2950, 6165, 6511, 11687]}, "edge": {"target": [], "time": []}}}, "displayed_time": "15.65", "trialTime": 17815, "trial_type": "mouselab-mdp", "trial_index": 24, "time_elapsed": 660853, "internal_node_id": "0.0-6.0-1.0-15.0"}}, {"uniqueid": "w91742948:a15837551", "current_trial": 25, "dateTime": 1693481636313, "trialdata": {"revealed_states": [], "clicked_states": ["28", "32", "20"], "num_clicks_accrued": [0, 0, 0, 0, 0, 0, 0, 0, 0, 0, 0, 0, 0], "stateRewards": ["", -2, -3, -3, 9, 79, 67, 22, -15, -56, 27, -85, -2, 4, -4, -15, -20, -32, 60, 15, 71, 57, 17, 1, 2, -8, 15, -37, -81, 82, 15, 21, -3, 2], "withholdReward": false, "trial_id": "mdp_trial_17", "block": "test", "trialIndex": 18, "score": 77.55, "costs": -6.449999999999999, "simulationMode": [null, null, null, null, null], "rewards": [-2, 4, -4, 15, 71], "path": ["0", "0", "12", "13", "14", "19", "20"], "rt": [10484, 26, 18, 62, 62], "actions": ["right", "right", "right", "down", "right"], "actionTimes": [12698, 13227, 13765, 14342, 14915], "queries": {"click": {"state": {"target": ["28", "32", "20"], "time": [3043, 6213, 9493]}, "edge": {"target": [], "time": []}}, "mouseover": {"state": {"target": ["1", "28", "24", "32", "20", "21", "21", "13", "18", "15"], "time": [2648, 2968, 3181, 3795, 6983, 9664, 10184, 10958, 11051, 12038]}, "edge": {"target": [], "time": []}}, "mouseout": {"state": {"target": ["0", "12", "1", "28", "24", "32", "20", "21", "21", "13", "18", "15"], "time": [500, 1487, 2675, 3155, 3221, 6283, 9637, 9677, 10211, 10971, 11238, 12958]}, "edge": {"target": [], "time": []}}}, "displayed_time": "16.21", "trialTime": 18460, "trial_type": "mouselab-mdp", "trial_index": 25, "time_elapsed": 679419, "internal_node_id": "0.0-6.0-1.0-16.0"}}, {"uniqueid": "w91742948:a15837551", "current_trial": 26, "dateTime": 1693481655262, "trialdata": {"revealed_states": [], "clicked_states": ["28", "6", "21", "32"], "num_clicks_accrued": [0, 0, 0, 0, 0, 0, 0, 0, 0, 0, 0, 0, 0], "stateRewards": ["", 1, -1, 1, 13, 31, -56, 72, 2, 41, 5, 63, -2, -3, -2, 3, -71, -26, 52, 13, -31, 24, -67, 2, -2, 5, 4, 66, 43, 72, 9, 86, -26, 44], "withholdReward": false, "trial_id": "mdp_trial_18", "block": "test", "trialIndex": 19, "score": 43.4, "costs": -8.6, "simulationMode": [null, null, null, null, null], "rewards": [2, -2, 5, 4, 43], "path": ["0", "0", "23", "24", "25", "26", "28"], "rt": [13233, 1, 34, 30, 106], "actions": ["left", "left", "left", "up", "right"], "actionTimes": [13994, 14495, 15048, 15578, 16188], "queries": {"click": {"state": {"target": ["28", "6", "21", "32"], "time": [1506, 4702, 7822, 11020]}, "edge": {"target": [], "time": []}}, "mouseover": {"state": {"target": ["12", "0", "23", "28", "0", "14", "15", "16", "15", "13", "15", "16", "6", "19", "20", "20", "21", "31", "32", "31", "12"], "time": [888, 1155, 1195, 1381, 1675, 1875, 1955, 2128, 2435, 2528, 2902, 3009, 3462, 5023, 5209, 5476, 5957, 8344, 8664, 11252, 12025]}, "edge": {"target": [], "time": []}}, "mouseout": {"state": {"target": ["12", "0", "12", "0", "23", "28", "0", "14", "15", "16", "15", "13", "15", "16", "6", "19", "20", "20", "21", "31", "32", "31", "12"], "time": [488, 875, 901, 1181, 1221, 1621, 1688, 1915, 2062, 2408, 2449, 2648, 2915, 3062, 4849, 5143, 5249, 5903, 7897, 8424, 11185, 11265, 12092]}, "edge": {"target": [], "time": []}}}, "displayed_time": "16.70", "trialTime": 18844, "trial_type": "mouselab-mdp", "trial_index": 26, "time_elapsed": 698369, "internal_node_id": "0.0-6.0-1.0-17.0"}}, {"uniqueid": "w91742948:a15837551", "current_trial": 27, "dateTime": 1693481671971, "trialdata": {"revealed_states": [], "clicked_states": ["28", "20"], "num_clicks_accrued": [0, 0, 0, 0, 0, 0, 0, 0, 0, 0, 0, 0, 0], "stateRewards": ["", 1, -1, 4, 5, -32, 18, 20, 6, -88, -74, 9, -2, 1, -2, -14, 34, -77, -38, -1, 80, -36, 73, 2, 3, -8, 10, -48, -73, -71, -11, -22, 20, 54], "withholdReward": false, "trial_id": "mdp_trial_19", "block": "test", "trialIndex": 20, "score": 71.7, "costs": -4.3, "simulationMode": [null, null, null, null, null], "rewards": [-2, 1, -2, -1, 80], "path": ["0", "0", "12", "13", "14", "19", "20"], "rt": [7254, 379, 42, 67, 35], "actions": ["right", "right", "right", "down", "right"], "actionTimes": [8508, 9396, 9940, 10523, 11066], "queries": {"click": {"state": {"target": ["28", "20"], "time": [2009, 5149]}, "edge": {"target": [], "time": []}}, "mouseover": {"state": {"target": ["12", "23", "24", "28", "23", "22", "19", "20", "21", "22", "32"], "time": [1466, 1719, 1759, 1866, 2174, 2253, 2293, 2626, 5321, 5761, 6388]}, "edge": {"target": [], "time": []}}, "mouseout": {"state": {"target": ["0", "12", "23", "24", "28", "23", "22", "19", "20", "21", "22", "32", "22", "19", "21"], "time": [946, 1640, 1746, 1799, 2133, 2186, 2266, 2319, 5267, 5374, 5934, 9495, 11696, 11897, 12056]}, "edge": {"target": [], "time": []}}}, "displayed_time": "15.26", "trialTime": 16603, "trial_type": "mouselab-mdp", "trial_index": 27, "time_elapsed": 715078, "internal_node_id": "0.0-6.0-1.0-18.0"}}, {"uniqueid": "w91742948:a15837551", "current_trial": 28, "dateTime": 1693481689844, "trialdata": {"revealed_states": [], "clicked_states": ["17", "11", "33"], "num_clicks_accrued": [0, 0, 0, 0, 0, 0, 0, 0, 0, 0, 0, 0, 0], "stateRewards": ["", -1, -4, -6, -15, 21, -67, -63, 9, 51, 69, -14, -1, 3, 8, -8, 39, 72, 63, 15, 19, 47, 15, 1, 4, 5, 16, -18, 34, 35, -14, -80, 40, 1], "withholdReward": false, "trial_id": "mdp_trial_20", "block": "test", "trialIndex": 21, "score": 67.55, "costs": -6.449999999999999, "simulationMode": [null, null, null, null, null], "rewards": [-1, 3, 8, -8, 72], "path": ["0", "0", "12", "13", "14", "15", "17"], "rt": [10969, 61, 98, 47, 54], "actions": ["right", "right", "right", "up", "right"], "actionTimes": [12869, 13428, 14025, 14574, 15128], "queries": {"click": {"state": {"target": ["17", "11", "33"], "time": [2925, 6211, 9647]}, "edge": {"target": [], "time": []}}, "mouseover": {"state": {"target": ["12", "13", "17", "17", "15", "17", "14", "13", "1", "8", "11", "10", "1", "13", "30", "33", "30"], "time": [2202, 2229, 2269, 2469, 2576, 2803, 3123, 3149, 3309, 3589, 4283, 6404, 6444, 6564, 7204, 7271, 9900]}, "edge": {"target": [], "time": []}}, "mouseout": {"state": {"target": ["33", "23", "0", "12", "13", "17", "17", "15", "17", "14", "13", "1", "8", "11", "10", "1", "13", "30", "33", "30", "21"], "time": [1269, 1442, 1535, 2216, 2242, 2282, 2509, 2696, 3096, 3136, 3163, 3336, 3976, 6377, 6417, 6458, 6657, 7218, 9872, 9952, 16288]}, "edge": {"target": [], "time": []}}}, "displayed_time": "15.90", "trialTime": 17766, "trial_type": "mouselab-mdp", "trial_index": 28, "time_elapsed": 732951, "internal_node_id": "0.0-6.0-1.0-19.0"}}, {"uniqueid": "w91742948:a15837551", "current_trial": 29, "dateTime": 1693481709331, "trialdata": {"revealed_states": [], "clicked_states": ["17", "29", "9", "32"], "num_clicks_accrued": [0, 0, 0, 0, 0, 0, 0, 0, 0, 0, 0, 0, 0], "stateRewards": ["", -2, -1, -4, -15, -14, -67, 32, -3, -59, 63, 31, 2, -1, -7, -15, 71, -66, -27, -3, -54, -39, 72, 2, 1, 1, -13, 77, -40, 35, -9, 35, 75, 57], "withholdReward": false, "trial_id": "mdp_trial_21", "block": "test", "trialIndex": 22, "score": 61.4, "costs": -8.6, "simulationMode": [null, null, null, null, null], "rewards": [2, 1, 1, -9, 75], "path": ["0", "0", "23", "24", "25", "30", "32"], "rt": [13263, 98, 46, 96, 75], "actions": ["left", "left", "left", "down", "down"], "actionTimes": [15249, 15851, 16399, 16996, 17575], "queries": {"click": {"state": {"target": ["17", "29", "9", "32"], "time": [2620, 5696, 8896, 12058]}, "edge": {"target": [], "time": []}}, "mouseover": {"state": {"target": ["12", "13", "14", "17", "15", "18", "1", "28", "29", "24", "28", "27", "28", "10", "9", "8", "1", "0", "32"], "time": [2240, 2294, 2334, 2534, 2774, 2814, 2867, 2934, 3174, 5908, 6202, 6469, 7923, 8149, 8429, 9083, 9150, 9296, 9843]}, "edge": {"target": [], "time": []}}, "mouseout": {"state": {"target": ["0", "12", "13", "14", "17", "15", "18", "1", "28", "29", "24", "28", "27", "28", "10", "9", "8", "1", "0", "32"], "time": [1547, 2280, 2320, 2414, 2761, 2801, 2827, 2881, 2974, 5828, 5935, 6335, 7842, 8016, 8176, 9056, 9096, 9203, 9350, 12204]}, "edge": {"target": [], "time": []}}}, "displayed_time": "18.07", "trialTime": 19378, "trial_type": "mouselab-mdp", "trial_index": 29, "time_elapsed": 752437, "internal_node_id": "0.0-6.0-1.0-20.0"}}, {"uniqueid": "w91742948:a15837551", "current_trial": 30, "dateTime": 1693481734075, "trialdata": {"revealed_states": [], "clicked_states": ["28", "32", "20", "6", "10"], "num_clicks_accrued": [0, 0, 0, 0, 0, 0, 0, 0, 0, 0, 0, 0, 0], "stateRewards": ["", 1, -4, -4, 8, 1, -79, 68, -10, -79, 8, -74, -1, -3, -6, 14, 43, 23, 9, 5, -51, 63, 61, -2, 4, 6, -10, 69, -32, 57, 15, -80, -80, -77], "withholdReward": false, "trial_id": "mdp_trial_22", "block": "test", "trialIndex": 23, "score": -19.75, "costs": -10.75, "simulationMode": [null, null, null, null, null], "rewards": [1, -4, -4, -10, 8], "path": ["0", "0", "1", "2", "3", "8", "10"], "rt": [18178, 382, 20, 491, 101], "actions": ["up", "up", "up", "left", "down"], "actionTimes": [19423, 20313, 20831, 21836, 22433], "queries": {"click": {"state": {"target": ["28", "32", "20", "6", "10"], "time": [2529, 5670, 8823, 12146, 16016]}, "edge": {"target": [], "time": []}}, "mouseover": {"state": {"target": ["12", "28", "24", "30", "32", "21", "20", "21", "22", "14", "15", "16", "6", "4", "26", "24", "23", "1", "2", "10", "2", "13", "22", "22", "0", "11", "27", "26", "29"], "time": [1617, 2190, 2710, 2844, 2950, 6245, 6498, 9033, 9780, 10193, 10247, 10473, 10953, 12274, 12420, 12527, 12634, 15555, 15809, 15955, 16222, 16609, 16742, 16942, 17476, 17689, 17996, 18076, 18357]}, "edge": {"target": [], "time": []}}, "mouseout": {"state": {"target": ["0", "12", "28", "24", "30", "32", "21", "20", "21", "22", "14", "15", "16", "6", "4", "26", "24", "23", "1", "2", "10", "10", "2", "13", "22", "22", "0", "10", "11", "27", "26", "29", "26", "1", "0"], "time": [1496, 1643, 2684, 2750, 2871, 5818, 6432, 8979, 9059, 10140, 10206, 10393, 10847, 12260, 12300, 12475, 12594, 12660, 15595, 15862, 16022, 16208, 16252, 16702, 16769, 17142, 17489, 17556, 17889, 18009, 18236, 22958, 22998, 23242, 23291]}, "edge": {"target": [], "time": []}}}, "displayed_time": "22.93", "trialTime": 24638, "trial_type": "mouselab-mdp", "trial_index": 30, "time_elapsed": 777181, "internal_node_id": "0.0-6.0-1.0-21.0"}}, {"uniqueid": "w91742948:a15837551", "current_trial": 31, "dateTime": 1693481753634, "trialdata": {"revealed_states": [], "clicked_states": ["33", "20", "18", "11"], "num_clicks_accrued": [0, 0, 0, 0, 0, 0, 0, 0, 0, 0, 0, 0, 0], "stateRewards": ["", 2, -1, 4, -9, -43, 7, 54, -13, 38, -40, -83, -1, 2, -8, -10, 34, -33, 11, -14, -79, 65, 26, 1, 2, 4, 10, 21, 1, 86, 4, -53, 28, -29], "withholdReward": false, "trial_id": "mdp_trial_23", "block": "test", "trialIndex": 24, "score": -14.600000000000001, "costs": -8.6, "simulationMode": [null, null, null, null, null], "rewards": [-1, 2, -8, -10, 11], "path": ["0", "0", "12", "13", "14", "15", "18"], "rt": [14591, 221, 1, 16, 49], "actions": ["right", "right", "right", "up", "left"], "actionTimes": [15462, 16187, 16687, 17223, 17789], "queries": {"click": {"state": {"target": ["33", "20", "18", "11"], "time": [2355, 5671, 8868, 12330]}, "edge": {"target": [], "time": []}}, "mouseover": {"state": {"target": ["23", "25", "30", "33", "32", "22", "19", "21", "20", "19", "22", "12", "18", "15", "17", "15", "18", "7", "2", "10", "10", "11", "10", "1", "12"], "time": [1253, 1906, 2093, 2280, 2506, 2787, 2840, 3400, 5614, 5868, 5908, 6014, 6094, 6281, 6401, 7255, 7322, 9122, 9163, 9202, 9296, 9803, 12497, 12550, 13524]}, "edge": {"target": [], "time": []}}, "mouseout": {"state": {"target": ["0", "23", "25", "30", "33", "32", "22", "19", "21", "20", "19", "22", "12", "18", "15", "17", "15", "18", "7", "2", "10", "10", "11", "10", "1", "12", "12", "22"], "time": [1226, 1266, 1946, 2186, 2467, 2520, 2813, 3307, 5548, 5841, 5894, 5948, 6054, 6134, 6361, 7188, 7295, 9002, 9149, 9189, 9256, 9629, 12470, 12510, 12563, 13577, 18392, 18766]}, "edge": {"target": [], "time": []}}}, "displayed_time": "18.29", "trialTime": 19452, "trial_type": "mouselab-mdp", "trial_index": 31, "time_elapsed": 796741, "internal_node_id": "0.0-6.0-1.0-22.0"}}, {"uniqueid": "w91742948:a15837551", "current_trial": 32, "dateTime": 1693481771013, "trialdata": {"revealed_states": [], "clicked_states": ["28", "5", "20"], "num_clicks_accrued": [0, 0, 0, 0, 0, 0, 0, 0, 0, 0, 0, 0, 0], "stateRewards": ["", -2, -4, 4, -11, -63, -60, -7, 2, -14, 81, -43, -1, -1, -5, 7, 10, 69, 40, 8, -83, 52, 60, 1, 2, 5, -5, 16, 64, 14, -3, 29, 7, -51], "withholdReward": false, "trial_id": "mdp_trial_24", "block": "test", "trialIndex": 25, "score": 60.55, "costs": -6.449999999999999, "simulationMode": [null, null, null, null, null], "rewards": [1, 2, 5, -5, 64], "path": ["0", "0", "23", "24", "25", "26", "28"], "rt": [10713, 434, 55, 487, 134], "actions": ["left", "left", "left", "up", "right"], "actionTimes": [12357, 13296, 13850, 14843, 15477], "queries": {"click": {"state": {"target": ["28", "5", "20"], "time": [2434, 6042, 9244]}, "edge": {"target": [], "time": []}}, "mouseover": {"state": {"target": ["23", "28", "2", "4", "5", "4", "7", "13", "14", "19", "20", "20", "21", "30", "31", "32"], "time": [2097, 2323, 2683, 2910, 3177, 6218, 6258, 6471, 6631, 6738, 6846, 7285, 9406, 9753, 10206, 10793]}, "edge": {"target": [], "time": []}}, "mouseout": {"state": {"target": ["0", "23", "28", "2", "4", "5", "4", "7", "13", "14", "19", "20", "20", "21", "30", "31", "32"], "time": [842, 2123, 2590, 2710, 3057, 6191, 6245, 6285, 6525, 6672, 6751, 7073, 9380, 9419, 9819, 10219, 15995]}, "edge": {"target": [], "time": []}}}, "displayed_time": "15.98", "trialTime": 17268, "trial_type": "mouselab-mdp", "trial_index": 32, "time_elapsed": 814120, "internal_node_id": "0.0-6.0-1.0-23.0"}}, {"uniqueid": "w91742948:a15837551", "current_trial": 33, "dateTime": 1693481787295, "trialdata": {"revealed_states": [], "clicked_states": ["26", "27", "6"], "num_clicks_accrued": [0, 0, 0, 0, 0, 0, 0, 0, 0, 0, 0, 0, 0], "stateRewards": ["", -1, 3, 1, -11, -22, -36, 19, -5, -70, -52, 50, -2, -4, 4, -2, -41, -83, 29, -2, 22, 10, -6, -2, 3, -2, 14, 54, 44, 77, -9, -65, -37, -40], "withholdReward": false, "trial_id": "mdp_trial_25", "block": "test", "trialIndex": 26, "score": 61.15, "costs": -5.85, "simulationMode": [null, null, null, null, null], "rewards": [-2, 3, -2, 14, 54], "path": ["0", "0", "23", "24", "25", "26", "27"], "rt": [8583, 283, 44, 2, 73], "actions": ["left", "left", "left", "up", "up"], "actionTimes": [9448, 10240, 10788, 11306, 11897], "queries": {"click": {"state": {"target": ["26", "27", "6"], "time": [1692, 2802, 6331]}, "edge": {"target": [], "time": []}}, "mouseover": {"state": {"target": ["23", "28", "26", "28", "27", "24", "31", "21", "19", "14", "18", "4", "6", "6", "7", "12", "0"], "time": [1219, 1365, 1526, 2179, 2446, 3113, 3166, 3713, 3966, 4020, 4073, 4247, 4513, 5687, 6487, 6594, 7848]}, "edge": {"target": [], "time": []}}, "mouseout": {"state": {"target": ["0", "23", "28", "26", "28", "27", "26", "24", "31", "21", "19", "14", "18", "4", "6", "6", "7", "12", "0", "12"], "time": [1179, 1232, 1419, 1859, 2219, 3020, 3086, 3139, 3179, 3913, 4006, 4033, 4100, 4473, 5354, 6461, 6501, 6634, 12703, 13423]}, "edge": {"target": [], "time": []}}}, "displayed_time": "14.87", "trialTime": 16173, "trial_type": "mouselab-mdp", "trial_index": 33, "time_elapsed": 830402, "internal_node_id": "0.0-6.0-1.0-24.0"}}, {"uniqueid": "w91742948:a15837551", "current_trial": 34, "dateTime": 1693481809164, "trialdata": {"revealed_states": [], "clicked_states": ["19", "20", "17", "11", "8", "25", "33"], "num_clicks_accrued": [0, 0, 0, 0, 0, 0, 0, 0, 0, 0, 0, 0, 0], "stateRewards": ["", -2, -4, 6, 14, -34, 49, 36, -8, -3, 32, -4, 1, -2, 1, -8, -20, -71, -57, -7, -86, -62, -16, -2, -3, -5, 11, 23, -21, 53, 5, -5, 85, 73], "withholdReward": false, "trial_id": "mdp_trial_26", "block": "test", "trialIndex": 27, "score": 55.35, "costs": -12.65, "simulationMode": [null, null, null, null, null], "rewards": [-2, -3, -5, 5, 73], "path": ["0", "0", "23", "24", "25", "30", "33"], "rt": [16603, 454, 72, 83, 57], "actions": ["left", "left", "left", "down", "left"], "actionTimes": [17431, 18387, 18966, 19550, 20111], "queries": {"click": {"state": {"target": ["19", "20", "17", "11", "8", "25", "33"], "time": [1835, 2426, 5626, 9391, 12252, 13114, 13840]}, "edge": {"target": [], "time": []}}, "mouseover": {"state": {"target": ["12", "13", "14", "19", "20", "21", "22", "14", "15", "17", "16", "7", "7", "16", "7", "2", "10", "11", "28", "28", "8", "10", "8", "28", "25", "30", "33", "32", "30", "32", "30"], "time": [1047, 1113, 1206, 1780, 2100, 3034, 4274, 4408, 4567, 4888, 5982, 6835, 7115, 7436, 8663, 8689, 9050, 9303, 9849, 10330, 10743, 11330, 11957, 12771, 12997, 13464, 13744, 14571, 15772, 16785, 17266]}, "edge": {"target": [], "time": []}}, "mouseout": {"state": {"target": ["12", "0", "12", "13", "14", "19", "20", "21", "22", "14", "15", "17", "16", "7", "7", "16", "7", "2", "10", "11", "28", "28", "8", "10", "8", "28", "25", "30", "33", "32", "30", "32", "30"], "time": [406, 579, 1086, 1166, 1740, 2047, 2673, 3154, 4354, 4461, 4661, 5755, 6715, 6888, 7168, 8596, 8676, 8702, 9169, 9770, 10090, 10383, 11250, 11744, 12451, 12784, 13397, 13664, 14158, 15732, 16746, 17106, 20520]}, "edge": {"target": [], "time": []}}}, "displayed_time": "20.61", "trialTime": 21756, "trial_type": "mouselab-mdp", "trial_index": 34, "time_elapsed": 852271, "internal_node_id": "0.0-6.0-1.0-25.0"}}, {"uniqueid": "w91742948:a15837551", "current_trial": 35, "dateTime": 1693481832376, "trialdata": {"revealed_states": [], "clicked_states": ["27", "29", "33", "19", "20", "16"], "num_clicks_accrued": [0, 0, 0, 0, 0, 0, 0, 0, 0, 0, 0, 0, 0], "stateRewards": ["", 2, 3, -3, 4, 72, -28, 34, -12, 57, -64, -15, 2, 1, -4, -15, 2, 49, 31, -1, -42, -58, 31, -2, 1, -2, -13, -75, -19, -22, -6, 61, 10, -56], "withholdReward": false, "trial_id": "mdp_trial_27", "block": "test", "trialIndex": 28, "score": -26.299999999999997, "costs": -12.299999999999999, "simulationMode": [null, null, null, null, null], "rewards": [2, 1, -4, -15, 2], "path": ["0", "0", "12", "13", "14", "15", "16"], "rt": [17990, 256, 27, 386, 60], "actions": ["right", "right", "right", "up", "up"], "actionTimes": [18914, 19675, 20206, 21112, 21679], "queries": {"click": {"state": {"target": ["27", "29", "33", "19", "20", "16"], "time": [1856, 4781, 7934, 11352, 11896, 15593]}, "edge": {"target": [], "time": []}}, "mouseover": {"state": {"target": ["26", "27", "28", "26", "26", "29", "25", "33", "32", "21", "19", "19", "19", "20", "21", "21", "21", "21", "19", "14", "15", "16", "18", "0", "23", "2", "8", "11"], "time": [1504, 1798, 2145, 2465, 2998, 4466, 5293, 6413, 8414, 8948, 10962, 11082, 11242, 11709, 12415, 13242, 13563, 14616, 15123, 15203, 15283, 15470, 15883, 15977, 16270, 16377, 16564, 17030]}, "edge": {"target": [], "time": []}}, "mouseout": {"state": {"target": ["23", "26", "27", "28", "26", "26", "29", "25", "33", "32", "21", "19", "19", "19", "20", "21", "21", "21", "21", "19", "14", "15", "16", "16", "18", "0", "23", "2", "8", "11", "12"], "time": [531, 1571, 2091, 2438, 2718, 4412, 5146, 6227, 8174, 8427, 10868, 10975, 11122, 11655, 12375, 12522, 13376, 14296, 15083, 15163, 15243, 15377, 15666, 15803, 15910, 16003, 16310, 16430, 16670, 21966, 22179]}, "edge": {"target": [], "time": []}}}, "displayed_time": "22.18", "trialTime": 23098, "trial_type": "mouselab-mdp", "trial_index": 35, "time_elapsed": 875483, "internal_node_id": "0.0-6.0-1.0-26.0"}}, {"uniqueid": "w91742948:a15837551", "current_trial": 36, "dateTime": 1693481847951, "trialdata": {"revealed_states": [], "clicked_states": ["9", "20", "33"], "num_clicks_accrued": [0, 0, 0, 0, 0, 0, 0, 0, 0, 0, 0, 0, 0], "stateRewards": ["", -1, 4, -3, 3, 57, -61, 5, -11, 23, -1, 34, -2, -4, -1, -13, 27, 38, -36, 4, -45, 21, 88, 1, -2, -1, 1, -69, -5, -78, -12, -9, 38, -54], "withholdReward": false, "trial_id": "mdp_trial_28", "block": "test", "trialIndex": 29, "score": 5.550000000000001, "costs": -6.449999999999999, "simulationMode": [null, null, null, null, null], "rewards": [-1, 4, -3, -11, 23], "path": ["0", "0", "1", "2", "3", "8", "9"], "rt": [10531, 99, 529, 26, 53], "actions": ["up", "up", "up", "left", "up"], "actionTimes": [11273, 11881, 12912, 13435, 13995], "queries": {"click": {"state": {"target": ["9", "20", "33"], "time": [1502, 4732, 8109]}, "edge": {"target": [], "time": []}}, "mouseover": {"state": {"target": ["1", "7", "8", "9", "3", "16", "17", "20", "20", "22", "31", "32", "33", "32", "23"], "time": [870, 937, 1257, 1444, 1657, 1737, 1804, 2484, 3004, 5365, 5565, 5765, 8046, 8340, 8620]}, "edge": {"target": [], "time": []}}, "mouseout": {"state": {"target": ["22", "1", "7", "8", "9", "3", "16", "17", "20", "20", "22", "31", "32", "33", "33", "32", "23", "13"], "time": [56, 897, 1177, 1324, 1617, 1671, 1751, 1898, 2778, 4898, 5378, 5632, 7926, 8114, 8313, 8366, 8646, 15236]}, "edge": {"target": [], "time": []}}}, "displayed_time": "14.74", "trialTime": 15457, "trial_type": "mouselab-mdp", "trial_index": 36, "time_elapsed": 891058, "internal_node_id": "0.0-6.0-1.0-27.0"}}, {"uniqueid": "w91742948:a15837551", "current_trial": 37, "dateTime": 1693481864430, "trialdata": {"revealed_states": [], "clicked_states": ["16", "29", "32"], "num_clicks_accrued": [0, 0, 0, 0, 0, 0, 0, 0, 0, 0, 0, 0, 0], "stateRewards": ["", -1, 3, 8, 9, -53, 20, -84, 2, -28, -62, -31, -1, -2, -7, 2, 51, 58, 45, -4, -17, -41, 36, 2, -2, -7, -15, 29, -54, -37, -16, -43, 65, -17], "withholdReward": false, "trial_id": "mdp_trial_29", "block": "test", "trialIndex": 30, "score": 36.55, "costs": -6.449999999999999, "simulationMode": [null, null, null, null, null], "rewards": [-1, -2, -7, 2, 51], "path": ["0", "0", "12", "13", "14", "15", "16"], "rt": [9863, 417, 587, 2, 379], "actions": ["right", "right", "right", "up", "up"], "actionTimes": [11454, 12379, 13470, 13978, 14877], "queries": {"click": {"state": {"target": ["16", "29", "32"], "time": [2465, 5316, 8444]}, "edge": {"target": [], "time": []}}, "mouseover": {"state": {"target": ["18", "15", "16", "18", "1", "23", "24", "25", "29", "25", "30", "32", "22", "14", "14", "19", "21"], "time": [1998, 2064, 2411, 2665, 2705, 2745, 2785, 2878, 3105, 6026, 6159, 7266, 8840, 8960, 9694, 10547, 10734]}, "edge": {"target": [], "time": []}}, "mouseout": {"state": {"target": ["14", "22", "12", "0", "18", "15", "16", "18", "1", "23", "24", "25", "29", "25", "30", "32", "22", "14", "14", "19", "21", "13", "22"], "time": [317, 477, 637, 1811, 2038, 2158, 2611, 2678, 2718, 2758, 2838, 3025, 5826, 6119, 6173, 8613, 8893, 9534, 9800, 10601, 11654, 15589, 16043]}, "edge": {"target": [], "time": []}}}, "displayed_time": "15.59", "trialTime": 16364, "trial_type": "mouselab-mdp", "trial_index": 37, "time_elapsed": 907537, "internal_node_id": "0.0-6.0-1.0-28.0"}}, {"uniqueid": "w91742948:a15837551", "current_trial": 38, "dateTime": 1693481881006, "trialdata": {"revealed_states": [], "clicked_states": ["32", "20", "5"], "num_clicks_accrued": [0, 0, 0, 0, 0, 0, 0, 0, 0, 0, 0, 0, 0], "stateRewards": ["", -1, 1, -1, 2, 19, 85, -18, 2, -3, -26, 36, 2, 4, 7, -9, -18, 70, 72, -5, 35, -20, -28, 1, -2, -4, -3, -59, -11, -63, -2, -72, 59, -69], "withholdReward": false, "trial_id": "mdp_trial_30", "block": "test", "trialIndex": 31, "score": 45.55, "costs": -6.449999999999999, "simulationMode": [null, null, null, null, null, null], "rewards": [1, -2, -4, -2, 59], "path": ["0", "0", "23", "24", "25", "30", "32"], "rt": [7562, 2628, 450, 45, 28, 84], "actions": ["left", "left", "left", "left", "down", "down"], "actionTimes": [9004, 11634, 12590, 13132, 13675, 14278], "queries": {"click": {"state": {"target": ["32", "20", "5"], "time": [2002, 5244, 8409]}, "edge": {"target": [], "time": []}}, "mouseover": {"state": {"target": ["23", "24", "30", "32", "21", "20", "19", "22", "12", "1", "4", "5", "2", "23", "0", "0"], "time": [1602, 1643, 1736, 1909, 2283, 3603, 5484, 5510, 5591, 5657, 5871, 6218, 8605, 9139, 9378, 10819]}, "edge": {"target": [], "time": []}}, "mouseout": {"state": {"target": ["19", "20", "14", "13", "12", "0", "23", "24", "30", "32", "21", "20", "19", "22", "12", "1", "4", "5", "2", "23", "0", "0"], "time": [282, 389, 468, 509, 762, 1589, 1629, 1669, 1763, 2123, 3537, 5458, 5497, 5537, 5604, 5697, 6138, 8565, 8618, 9192, 9752, 14900]}, "edge": {"target": [], "time": []}}}, "displayed_time": "15.44", "trialTime": 16460, "trial_type": "mouselab-mdp", "trial_index": 38, "time_elapsed": 924113, "internal_node_id": "0.0-6.0-1.0-29.0"}}, {"uniqueid": "w91742948:a15837551", "current_trial": 39, "dateTime": 1693481897174, "trialdata": {"revealed_states": [], "clicked_states": ["27", "17", "15"], "num_clicks_accrued": [0, 0, 0, 0, 0, 0, 0, 0, 0, 0, 0, 0, 0], "stateRewards": ["", 2, -2, 7, -11, -76, -65, -23, 16, -58, 30, 81, 1, 2, 7, 14, 9, 55, -2, 6, 11, -15, 31, -1, -1, -3, 2, 15, 2, 46, 15, 18, 45, -34], "withholdReward": false, "trial_id": "mdp_trial_31", "block": "test", "trialIndex": 32, "score": 73.15, "costs": -5.85, "simulationMode": [null, null, null, null, null], "rewards": [1, 2, 7, 14, 55], "path": ["0", "0", "12", "13", "14", "15", "17"], "rt": [8959, 247, 23, 75, 80], "actions": ["right", "right", "right", "up", "right"], "actionTimes": [10128, 10889, 11413, 11998, 12590], "queries": {"click": {"state": {"target": ["27", "17", "15"], "time": [2331, 5522, 9478]}, "edge": {"target": [], "time": []}}, "mouseover": {"state": {"target": ["7", "1", "28", "27", "29", "17", "17", "20", "21", "32", "30", "31", "0", "12", "15", "14", "19"], "time": [1425, 1865, 1985, 2225, 2465, 2759, 3359, 5680, 6013, 6627, 8574, 8748, 8801, 8815, 9215, 9655, 9708]}, "edge": {"target": [], "time": []}}, "mouseout": {"state": {"target": ["7", "1", "28", "27", "29", "17", "17", "20", "21", "32", "30", "31", "0", "12", "15", "14", "19"], "time": [1718, 1892, 2145, 2439, 2479, 2772, 5640, 5707, 6253, 8388, 8721, 8761, 8814, 8828, 9615, 9681, 10682]}, "edge": {"target": [], "time": []}}}, "displayed_time": "15.17", "trialTime": 16043, "trial_type": "mouselab-mdp", "trial_index": 39, "time_elapsed": 940280, "internal_node_id": "0.0-6.0-1.0-30.0"}}, {"uniqueid": "w91742948:a15837551", "current_trial": 40, "dateTime": 1693481912841, "trialdata": {"revealed_states": [], "clicked_states": ["28", "20", "19", "21"], "num_clicks_accrued": [0, 0, 0, 0, 0, 0, 0, 0, 0, 0, 0, 0, 0], "stateRewards": ["", 2, 3, 6, -12, -29, 12, 87, 4, 35, -30, 67, 2, 3, -5, -9, 44, 69, -8, 1, 45, -8, 28, -2, -1, -8, 11, -12, -5, 81, 9, 87, 82, 88], "withholdReward": false, "trial_id": "mdp_trial_32", "block": "test", "trialIndex": 33, "score": 38, "costs": -8, "simulationMode": [null, null, null, null, null, null], "rewards": [2, 3, -5, 1, 45], "path": ["0", "0", "12", "13", "14", "19", "20"], "rt": [9543, 424, 15, 529, 56, 173], "actions": ["right", "right", "right", "right", "down", "right"], "actionTimes": [10484, 10909, 11445, 12493, 13059, 13736], "queries": {"click": {"state": {"target": ["28", "20", "19", "21"], "time": [1873, 5045, 8639, 9760]}, "edge": {"target": [], "time": []}}, "mouseover": {"state": {"target": ["0", "1", "28", "26", "12", "13", "14", "19", "20", "21", "14", "15", "17", "16", "16", "6", "5", "18", "19", "19", "21"], "time": [1012, 1426, 1558, 2372, 3132, 3212, 3292, 3372, 3586, 5240, 5613, 5653, 5706, 5907, 6027, 6307, 6480, 8281, 8321, 8561, 9188]}, "edge": {"target": [], "time": []}}, "mouseout": {"state": {"target": ["19", "13", "12", "0", "1", "28", "28", "26", "28", "12", "13", "14", "19", "20", "21", "14", "15", "17", "16", "16", "6", "5", "18", "19", "19", "19", "21", "20"], "time": [491, 598, 731, 1265, 1466, 2013, 2239, 2892, 2961, 3185, 3252, 3332, 3492, 5186, 5493, 5626, 5666, 5760, 5933, 6227, 6373, 8227, 8294, 8361, 8644, 8908, 9838, 14270]}, "edge": {"target": [], "time": []}}}, "displayed_time": "14.94", "trialTime": 15545, "trial_type": "mouselab-mdp", "trial_index": 40, "time_elapsed": 955947, "internal_node_id": "0.0-6.0-1.0-31.0"}}, {"uniqueid": "w91742948:a15837551", "current_trial": 41, "dateTime": 1693481928565, "trialdata": {"revealed_states": [], "clicked_states": ["9", "29", "26"], "num_clicks_accrued": [0, 0, 0, 0, 0, 0, 0, 0, 0, 0, 0, 0, 0], "stateRewards": ["", -1, 1, 8, -8, -49, 62, -78, 16, 28, -81, 78, -2, -3, -1, -4, 67, 49, -2, -13, -16, -39, 83, 1, -4, 4, -5, -20, 7, 84, 7, -32, -59, 19], "withholdReward": false, "trial_id": "mdp_trial_33", "block": "test", "trialIndex": 34, "score": 74.15, "costs": -5.85, "simulationMode": [null, null, null, null, null], "rewards": [1, -4, 4, -5, 84], "path": ["0", "0", "23", "24", "25", "26", "29"], "rt": [8276, 186, 4, 87, 91], "actions": ["left", "left", "left", "up", "left"], "actionTimes": [9118, 9823, 10335, 10938, 11529], "queries": {"click": {"state": {"target": ["9", "29", "26"], "time": [1509, 4709, 8280]}, "edge": {"target": [], "time": []}}, "mouseover": {"state": {"target": ["2", "8", "9", "8", "27", "29", "24", "31", "31", "24", "26", "31"], "time": [1140, 1246, 1433, 1740, 1887, 2193, 4914, 4954, 5475, 7902, 8156, 8502]}, "edge": {"target": [], "time": []}}, "mouseout": {"state": {"target": ["19", "13", "2", "8", "9", "8", "27", "29", "24", "31", "31", "24", "26", "31", "31"], "time": [339, 446, 1193, 1326, 1713, 1753, 1900, 4834, 4928, 4981, 7862, 7955, 8449, 8942, 12144]}, "edge": {"target": [], "time": []}}}, "displayed_time": "14.84", "trialTime": 15605, "trial_type": "mouselab-mdp", "trial_index": 41, "time_elapsed": 971672, "internal_node_id": "0.0-6.0-1.0-32.0"}}, {"uniqueid": "w91742948:a15837551", "current_trial": 42, "dateTime": 1693481946272, "trialdata": {"revealed_states": [], "clicked_states": ["20", "32", "19", "16"], "num_clicks_accrued": [0, 0, 0, 0, 0, 0, 0, 0, 0, 0, 0, 0, 0], "stateRewards": ["", -1, -4, 8, 8, -68, 47, 24, -7, -61, 49, -69, -1, -1, 8, -7, 42, 1, -45, -11, 10, -63, -6, 1, 4, 6, -16, 79, -37, -58, -12, 81, 18, -53], "withholdReward": false, "trial_id": "mdp_trial_34", "block": "test", "trialIndex": 35, "score": 33, "costs": -8, "simulationMode": [null, null, null, null, null], "rewards": [-1, -1, 8, -7, 42], "path": ["0", "0", "12", "13", "14", "15", "16"], "rt": [11557, 14, 41, 29, 63], "actions": ["right", "right", "right", "up", "up"], "actionTimes": [13911, 14429, 14989, 15525, 16105], "queries": {"click": {"state": {"target": ["20", "32", "19", "16"], "time": [3055, 6211, 9423, 10363]}, "edge": {"target": [], "time": []}}, "mouseover": {"state": {"target": ["20", "19", "22", "32", "12", "19", "19", "22", "14", "15", "16", "15", "0", "23", "28", "28", "8", "11"], "time": [2930, 3196, 3224, 3692, 6518, 6651, 6891, 9572, 9972, 9999, 10073, 10706, 11013, 11039, 11079, 11159, 11533, 11893]}, "edge": {"target": [], "time": []}}, "mouseout": {"state": {"target": ["12", "20", "19", "22", "32", "12", "19", "19", "22", "19", "14", "15", "16", "15", "0", "23", "28", "28", "8", "11", "10", "1", "12", "19"], "time": [2116, 3183, 3223, 3237, 6344, 6598, 6678, 9546, 9612, 9946, 9988, 10026, 10692, 10719, 11026, 11053, 11119, 11390, 11680, 16094, 16188, 16268, 16335, 16508]}, "edge": {"target": [], "time": []}}}, "displayed_time": "16.62", "trialTime": 17590, "trial_type": "mouselab-mdp", "trial_index": 42, "time_elapsed": 989379, "internal_node_id": "0.0-6.0-1.0-33.0"}}, {"uniqueid": "w91742948:a15837551", "current_trial": 43, "dateTime": 1693481964669, "trialdata": {"revealed_states": [], "clicked_states": ["28", "9", "17", "22"], "num_clicks_accrued": [0, 0, 0, 0, 0, 0, 0, 0, 0, 0, 0, 0, 0], "stateRewards": ["", -2, -1, -3, -1, -78, -6, 2, -1, 22, -88, 32, 2, 2, -7, -8, -51, -17, 54, 2, -44, 54, 75, 2, -2, -8, -15, -29, 12, -67, 15, -1, -47, -47], "withholdReward": false, "trial_id": "mdp_trial_35", "block": "test", "trialIndex": 36, "score": 65.4, "costs": -8.6, "simulationMode": [null, null, null, null, null], "rewards": [2, 2, -7, 2, 75], "path": ["0", "0", "12", "13", "14", "19", "22"], "rt": [13326, 21, 140, 54, 54], "actions": ["right", "right", "right", "down", "left"], "actionTimes": [14682, 15217, 15868, 16422, 16983], "queries": {"click": {"state": {"target": ["28", "9", "17", "22"], "time": [2156, 5356, 8309, 11176]}, "edge": {"target": [], "time": []}}, "mouseover": {"state": {"target": ["26", "28", "10", "3", "9", "8", "2", "18", "6", "17", "15", "13", "19", "20", "19", "22", "31", "32", "19"], "time": [1815, 2069, 2389, 2469, 2776, 5510, 5550, 5643, 5884, 6417, 8458, 8524, 8671, 8751, 8978, 9325, 11552, 12179, 14660]}, "edge": {"target": [], "time": []}}, "mouseout": {"state": {"target": ["14", "13", "26", "28", "10", "3", "9", "8", "2", "18", "6", "17", "15", "13", "19", "20", "19", "22", "31", "32", "22", "19", "21"], "time": [535, 588, 1962, 2296, 2429, 2536, 5497, 5523, 5577, 5684, 6017, 8431, 8484, 8618, 8711, 8898, 9098, 11379, 11766, 14474, 14633, 17421, 17821]}, "edge": {"target": [], "time": []}}}, "displayed_time": "17.49", "trialTime": 18280, "trial_type": "mouselab-mdp", "trial_index": 43, "time_elapsed": 1007776, "internal_node_id": "0.0-6.0-1.0-34.0"}}, {"uniqueid": "w91742948:a15837551", "current_trial": 44, "dateTime": 1693481980715, "trialdata": {"revealed_states": [], "clicked_states": ["28", "5", "26"], "num_clicks_accrued": [0, 0, 0, 0, 0, 0, 0, 0, 0, 0, 0, 0, 0], "stateRewards": ["", 2, 4, -6, -13, -75, -81, 30, 7, 5, 59, -65, -1, -1, 7, 14, -38, 36, -41, 1, -54, -5, 64, 2, -1, 5, 6, -19, 79, 11, 16, -33, -50, 58], "withholdReward": false, "trial_id": "mdp_trial_36", "block": "test", "trialIndex": 37, "score": 85.15, "costs": -5.85, "simulationMode": [null, null, null, null, null], "rewards": [2, -1, 5, 6, 79], "path": ["0", "0", "23", "24", "25", "26", "28"], "rt": [7987, 149, 503, 75, 147], "actions": ["left", "left", "left", "up", "right"], "actionTimes": [8992, 9655, 10661, 11233, 11879], "queries": {"click": {"state": {"target": ["28", "5", "26"], "time": [1790, 5332, 8573]}, "edge": {"target": [], "time": []}}, "mouseover": {"state": {"target": ["23", "28", "12", "4", "5", "4", "7", "12", "0", "31", "32", "30", "25", "26", "25"], "time": [1462, 1581, 2009, 2222, 2382, 5502, 5623, 5836, 6116, 6369, 6649, 6930, 6996, 7090, 8770]}, "edge": {"target": [], "time": []}}, "mouseout": {"state": {"target": ["0", "23", "28", "12", "4", "5", "4", "7", "12", "0", "31", "32", "30", "25", "26", "25"], "time": [1074, 1488, 1914, 2021, 2301, 5476, 5529, 5716, 6089, 6156, 6490, 6890, 6969, 7036, 8743, 8837]}, "edge": {"target": [], "time": []}}}, "displayed_time": "15.01", "trialTime": 15924, "trial_type": "mouselab-mdp", "trial_index": 44, "time_elapsed": 1023822, "internal_node_id": "0.0-6.0-1.0-35.0"}}, {"uniqueid": "w91742948:a15837551", "current_trial": 45, "dateTime": 1693482006675, "trialdata": {"revealed_states": [], "clicked_states": ["28", "20", "32", "6", "17", "18"], "num_clicks_accrued": [0, 0, 0, 0, 0, 0, 0, 0, 0, 0, 0, 0, 0], "stateRewards": ["", -1, 3, -7, 16, -32, -74, -48, 2, 10, 15, -30, 1, 1, -2, 10, 12, -83, 67, 13, -66, 47, 65, -2, 4, 2, -14, -8, -57, 24, 9, 65, 12, 46], "withholdReward": false, "trial_id": "mdp_trial_37", "block": "test", "trialIndex": 38, "score": 64.1, "costs": -12.9, "simulationMode": [null, null, null, null, null], "rewards": [1, 1, -2, 10, 67], "path": ["0", "0", "12", "13", "14", "15", "18"], "rt": [20231, 36, 658, 77, 179], "actions": ["right", "right", "right", "up", "left"], "actionTimes": [21286, 21828, 22997, 23576, 24252], "queries": {"click": {"state": {"target": ["28", "20", "32", "6", "17", "18"], "time": [2251, 5356, 8465, 11674, 14775, 17999]}, "edge": {"target": [], "time": []}}, "mouseover": {"state": {"target": ["23", "24", "25", "26", "28", "23", "23", "21", "20", "21", "32", "33", "33", "24", "1", "7", "6", "15", "17", "14", "13", "18", "15", "18", "15", "16", "15", "14", "15"], "time": [1570, 1664, 1744, 1851, 2117, 2717, 3188, 3798, 3998, 5519, 6145, 8680, 9026, 9267, 9347, 9400, 9680, 11854, 12361, 14962, 15122, 15202, 16722, 17790, 18336, 18430, 19577, 19843, 19950]}, "edge": {"target": [], "time": []}}, "mouseout": {"state": {"target": ["0", "23", "24", "25", "26", "28", "28", "23", "23", "21", "20", "21", "32", "33", "33", "24", "1", "7", "6", "15", "17", "17", "14", "13", "18", "15", "18", "15", "16", "15", "14", "15", "20"], "time": [1530, 1637, 1704, 1797, 1904, 2307, 2544, 3038, 3198, 3838, 5479, 5545, 8613, 8706, 9200, 9293, 9360, 9413, 11814, 11881, 14847, 14935, 15015, 15175, 16669, 17629, 18176, 18422, 19550, 19617, 19884, 24619, 25086]}, "edge": {"target": [], "time": []}}}, "displayed_time": "24.75", "trialTime": 25842, "trial_type": "mouselab-mdp", "trial_index": 45, "time_elapsed": 1049782, "internal_node_id": "0.0-6.0-1.0-36.0"}}, {"uniqueid": "w91742948:a15837551", "current_trial": 46, "dateTime": 1693482032513, "trialdata": {"revealed_states": [], "clicked_states": ["28", "6", "22", "17", "7", "32"], "num_clicks_accrued": [0, 0, 0, 0, 0, 0, 0, 0, 0, 0, 0, 0, 0], "stateRewards": ["", -2, 2, -1, -6, 22, 6, 6, -5, 70, -42, 65, 1, 3, 5, -6, -67, -9, 3, 14, 7, -62, -13, -2, 4, 1, 16, 42, -21, -52, -8, 32, 53, 81], "withholdReward": false, "trial_id": "mdp_trial_38", "block": "test", "trialIndex": 39, "score": 35.1, "costs": -12.9, "simulationMode": [null, null, null, null, null], "rewards": [-2, 4, 1, -8, 53], "path": ["0", "0", "23", "24", "25", "30", "32"], "rt": [20361, 394, 129, 117, 130], "actions": ["left", "left", "left", "down", "down"], "actionTimes": [21257, 22151, 22780, 23395, 24022], "queries": {"click": {"state": {"target": ["28", "6", "22", "17", "7", "32"], "time": [1703, 5023, 8288, 11369, 14469, 17865]}, "edge": {"target": [], "time": []}}, "mouseover": {"state": {"target": ["12", "0", "23", "28", "28", "7", "6", "5", "6", "6", "7", "7", "22", "20", "17", "15", "1", "1", "2", "7", "4", "7", "2", "10", "26", "10", "24", "25", "30", "32", "32", "33"], "time": [1015, 1282, 1335, 1375, 1629, 1922, 2082, 2389, 2829, 3056, 5204, 6418, 7618, 9218, 9645, 11486, 11633, 11966, 12379, 12433, 12742, 13126, 14594, 14620, 14754, 14954, 15180, 15421, 15501, 15741, 17688, 18168]}, "edge": {"target": [], "time": []}}, "mouseout": {"state": {"target": ["0", "12", "0", "23", "28", "28", "7", "6", "5", "6", "6", "7", "7", "22", "20", "17", "15", "1", "1", "2", "7", "4", "7", "2", "10", "26", "10", "24", "25", "30", "32", "32", "33", "30"], "time": [989, 1202, 1322, 1349, 1469, 1770, 1949, 2136, 2803, 2843, 5150, 5217, 6751, 8458, 9285, 11472, 11512, 11659, 12006, 12406, 12473, 12900, 14580, 14607, 14634, 14834, 14994, 15354, 15474, 15621, 16621, 18022, 24397, 24491]}, "edge": {"target": [], "time": []}}}, "displayed_time": "24.52", "trialTime": 25716, "trial_type": "mouselab-mdp", "trial_index": 46, "time_elapsed": 1075620, "internal_node_id": "0.0-6.0-1.0-37.0"}}, {"uniqueid": "w91742948:a15837551", "current_trial": 47, "dateTime": 1693482053296, "trialdata": {"revealed_states": [], "clicked_states": ["28", "21", "12", "20", "33"], "num_clicks_accrued": [0, 0, 0, 0, 0, 0, 0, 0, 0, 0, 0, 0, 0], "stateRewards": ["", -2, -3, 8, 14, -73, 73, 84, -12, -2, -50, -17, 2, 1, -2, -9, -44, -27, -33, 16, -63, -47, -66, -2, 1, 4, -5, -33, -11, 50, 9, 38, -79, 31], "withholdReward": false, "trial_id": "mdp_trial_39", "block": "test", "trialIndex": 40, "score": 34.65, "costs": -8.35, "simulationMode": [null, null, null, null, null], "rewards": [-2, 1, 4, 9, 31], "path": ["0", "0", "23", "24", "25", "30", "33"], "rt": [16236, 67, 36, 43, 69], "actions": ["left", "left", "left", "down", "left"], "actionTimes": [16972, 17544, 18086, 18640, 19213], "queries": {"click": {"state": {"target": ["28", "21", "12", "20", "33"], "time": [1437, 4493, 8322, 9590, 13343]}, "edge": {"target": [], "time": []}}, "mouseover": {"state": {"target": ["28", "23", "0", "22", "19", "21", "32", "12", "0", "12", "12", "0", "12", "22", "19", "20", "0", "22", "31", "30", "33", "32"], "time": [1323, 1603, 1630, 1683, 1723, 1990, 4751, 5245, 5339, 5871, 6125, 6245, 8060, 8619, 8752, 9393, 10420, 10673, 13074, 13141, 13329, 13954]}, "edge": {"target": [], "time": []}}, "mouseout": {"state": {"target": ["0", "28", "28", "23", "0", "22", "19", "21", "32", "12", "0", "12", "12", "0", "12", "22", "19", "20", "0", "12", "22", "31", "30", "33", "32"], "time": [483, 1501, 1577, 1617, 1643, 1710, 1763, 4618, 4871, 5258, 5845, 5938, 6205, 7979, 8526, 8726, 8846, 9846, 10433, 10514, 10687, 13114, 13207, 13621, 19650]}, "edge": {"target": [], "time": []}}}, "displayed_time": "19.72", "trialTime": 20663, "trial_type": "mouselab-mdp", "trial_index": 47, "time_elapsed": 1096403, "internal_node_id": "0.0-6.0-1.0-38.0"}}, {"uniqueid": "w91742948:a15837551", "current_trial": 48, "dateTime": 1693482069272, "trialdata": {"revealed_states": [], "clicked_states": ["33", "12"], "num_clicks_accrued": [0, 0, 0, 0, 0, 0, 0, 0, 0, 0, 0, 0, 0], "stateRewards": ["", -2, 2, 3, -7, -31, -33, 29, -8, -57, 50, -83, -1, -1, 5, 13, -23, -62, 25, 5, -66, -85, 14, 1, -2, -1, 16, 71, 33, -19, -14, 5, -43, 79], "withholdReward": false, "trial_id": "mdp_trial_40", "block": "test", "trialIndex": 41, "score": 61.1, "costs": -1.9, "simulationMode": [null, null, null, null, null], "rewards": [1, -2, -1, -14, 79], "path": ["0", "0", "23", "24", "25", "30", "33"], "rt": [5693, 18, 33, 17, 81], "actions": ["left", "left", "left", "down", "left"], "actionTimes": [6589, 7112, 7648, 8178, 8763], "queries": {"click": {"state": {"target": ["33", "12"], "time": [1659, 4838]}, "edge": {"target": [], "time": []}}, "mouseover": {"state": {"target": ["23", "33", "30", "14", "14", "19", "20", "12"], "time": [1212, 1558, 1878, 2038, 2372, 2470, 2759, 3172]}, "edge": {"target": [], "time": []}}, "mouseout": {"state": {"target": ["12", "0", "23", "33", "30", "14", "14", "19", "20", "12"], "time": [598, 1025, 1265, 1838, 1905, 2065, 2412, 2638, 3065, 4973]}, "edge": {"target": [], "time": []}}}, "displayed_time": "14.90", "trialTime": 15853, "trial_type": "mouselab-mdp", "trial_index": 48, "time_elapsed": 1112379, "internal_node_id": "0.0-6.0-1.0-39.0"}}, {"uniqueid": "w91742948:a15837551", "current_trial": 49, "dateTime": 1693482136424, "trialdata": {"rt": 67149, "response": {"Q0": "$-16 to 16", "Q1": "$-4 to $4", "Q2": "$-88 to $88", "Q3": "The cost for clicking on nodes varied between nodes.", "Q4": "Very motivated"}, "question_order": [0, 1, 2, 3, 4], "trial_id": "final_quiz_control", "trial_type": "survey-multi-choice", "trial_index": 49, "time_elapsed": 1179531, "internal_node_id": "0.0-6.0-2.0"}}, {"uniqueid": "w91742948:a15837551", "current_trial": 50, "dateTime": 1693482569198, "trialdata": {"rt": 432769, "response": {"Q0": "Trying to eat the least cost with identifying and just aim for 4 to 6 reveals and then either take the least loss or just take best profit when i got lucky.", "Q1": "No, i tried a couple of different approaches but the sober tactic of just aiming for 5+- node reveals to minimize costs seemed to work best.", "Q2": "Very difficult, the costs of identifying eating up the profits, so i just chose to minimize costs.\n\nIn retrospect i should have used the first 2 games to experiment and reveal all nodes and to strategize."}, "trial_id": "self_report_control", "trial_type": "survey-text", "trial_index": 50, "time_elapsed": 1612305, "internal_node_id": "0.0-6.0-3.0"}}, {"uniqueid": "w91742948:a15837551", "current_trial": 51, "dateTime": 1693482717905, "trialdata": {"rt": 148703, "response": {"Q0": "Strongly disagree", "Q1": "Neither disagree nor agree", "Q2": "Agree", "Q3": "Neither disagree nor agree", "Q4": "Neither disagree nor agree", "Q5": "Agree", "Q6": "Neither disagree nor agree"}, "question_order": [0, 1, 2, 3, 4, 5, 6], "trial_id": "self_report_2", "trial_type": "survey-multi-choice", "trial_index": 51, "time_elapsed": 1761012, "internal_node_id": "0.0-6.0-4.0"}}, {"uniqueid": "w91742948:a15837551", "current_trial": 52, "dateTime": 1693482768017, "trialdata": {"rt": 50108, "response": {"gender": "male", "age": "33", "colorblind": "0", "effort": "0"}, "trial_type": "survey-html-form", "trial_index": 52, "time_elapsed": 1811124, "internal_node_id": "0.0-6.0-5.0"}}, {"uniqueid": "w91742948:a15837551", "current_trial": 53, "dateTime": 1693482843206, "trialdata": {"rt": 75186, "response": {"Q0": "No, everything was explained wel..", "Q1": "No, i did not play this before.", "Q2": "n/a"}, "trial_type": "survey-text", "trial_index": 53, "time_elapsed": 1886313, "internal_node_id": "0.0-6.0-6.0"}}, {"uniqueid": "w91742948:a15837551", "current_trial": 54, "dateTime": 1693482874709, "trialdata": {"rt": 31501, "stimulus": "<h1>Completion Code Instructions (1/2)</h1>\n<br><br><br><br>\nYou have reached the end of the experiment! The completion code consists of two parts: (1) a code with 2 characters (2) a code with 6 characters. On this page, you will receive the second part of the code. The first part of the completion code will be on the next page.\n<br><br>\nThe second part of your completion code is: <b>EWEK22</b>\n<br><br>\nPlease note this down. Then, press 'Finish HIT' in order to find the first part of your completion code. Once the data has been saved, you will receive this code either in this window or in the original browser window where you started the experiment.\n", "response": 0, "trial_type": "html-button-response", "trial_index": 54, "time_elapsed": 1917816, "internal_node_id": "0.0-6.0-7.0"}}, {"uniqueid": "w91742948:a15837551", "current_trial": 55, "dateTime": 1693482875712, "trialdata": {"success": true, "trial_type": "fullscreen", "trial_index": 55, "time_elapsed": 1918819, "internal_node_id": "0.0-7.0"}}], "questiondata": {"params": {"CODE": "C6DMOQA6", "MIN_TIME": 14, "inspectCost": 1, "startTime": "Thu Aug 31 2023 13:22:36 GMT+0200 (Central European Summer Time)", "bonusRate": 0.002, "variance": "1_2_4_8_44", "branching": "31123"}, "final_score": 1775.4}, "eventdata": [{"eventtype": "initialized", "value": null, "timestamp": 1693480955964, "interval": 0}, {"eventtype": "window_resize", "value": [1028, 778], "timestamp": 1693480955964, "interval": 0}, {"eventtype": "window_resize", "value": [1028, 778], "timestamp": 1693480956269, "interval": 305}, {"eventtype": "window_resize", "value": [2048, 1152], "timestamp": 1693480962339, "interval": 6070}, {"eventtype": "window_resize", "value": [1028, 778], "timestamp": 1693482874929, "interval": 1912590}], "useragent": "Mozilla/5.0 (Windows NT 10.0; Win64; x64) AppleWebKit/537.36 (KHTML, like Gecko) Chrome/116.0.0.0 Safari/537.36", "mode": "live", "id": "w91742948:a15837551", "status": "user data saved", "Beginhit": "2023-08-31 11:22:38.010921", "Beginexp": "2023-08-31 11:22:46.159195", "Endhit": "2023-08-31 11:54:39.18338", "psiturkStatus": 3, "browser": "<redacted>", "platform": "windows", "language": "nl-NL"}