{"condition": 0, "counterbalance": 0, "assignmentId": "a79694647", "workerId": "w69395823", "hitId": "h91572029", "currenttrial": 55, "bonus": 0, "data": [{"uniqueid": "w69395823:a79694647", "current_trial": 0, "dateTime": 1693482212731, "trialdata": {"success": true, "trial_type": "fullscreen", "trial_index": 0, "time_elapsed": 13198, "internal_node_id": "0.0-0.0"}}, {"uniqueid": "w69395823:a79694647", "current_trial": 1, "dateTime": 1693482467082, "trialdata": {"view_history": [{"page_index": 0, "viewing_time": 254330}], "rt": 254331, "trial_id": "exp_instructions_control", "trial_type": "instructions", "trial_index": 1, "time_elapsed": 267550, "internal_node_id": "0.0-1.0"}}, {"uniqueid": "w69395823:a79694647", "current_trial": 2, "dateTime": 1693483102844, "trialdata": {"view_history": [{"page_index": 0, "viewing_time": 311308}, {"page_index": 1, "viewing_time": 175564}, {"page_index": 2, "viewing_time": 65585}, {"page_index": 3, "viewing_time": 83303}], "rt": 635761, "trial_id": "mouselab_instructions_1_control", "trial_type": "instructions", "trial_index": 2, "time_elapsed": 903312, "internal_node_id": "0.0-2.0-1.0"}}, {"uniqueid": "w69395823:a79694647", "current_trial": 3, "dateTime": 1693483138921, "trialdata": {"revealed_states": [], "clicked_states": ["23"], "num_clicks_accrued": [0, 0, 0, 0, 0, 0, 0, 0, 0, 0, 0, 0, 0], "stateRewards": ["", -10, 10, -10, 10, 10, -10, -10, -10, -10, -10, 10, -10, -10, -10, -10, -10, 10, -10, 10, 10, 10, -10, 10, -10, -10, -10, 10, 10, -10, 10, -10, 10, 10], "withholdReward": false, "trial_id": "practice_1", "block": "test", "trialIndex": 0, "score": -7, "costs": -0.5, "simulationMode": [null, null, null, null, null], "rewards": [10, -10, -10, -10, 10], "path": ["0", "0", "23", "24", "25", "26", "27"], "rt": [11294, 513, 345, 668, 46], "actions": ["left", "left", "left", "up", "up"], "actionTimes": [13194, 14230, 15093, 16283, 16844], "queries": {"click": {"state": {"target": ["23"], "time": [8839]}, "edge": {"target": [], "time": []}}, "mouseover": {"state": {"target": ["23", "24"], "time": [8261, 11278]}, "edge": {"target": [], "time": []}}, "mouseout": {"state": {"target": ["0", "23", "24"], "time": [80, 11089, 21645]}, "edge": {"target": [], "time": []}}}, "displayed_time": "17.36", "trialTime": 28908, "trial_type": "mouselab-mdp", "trial_index": 3, "time_elapsed": 939387, "internal_node_id": "0.0-2.0-2.0-0.0"}}, {"uniqueid": "w69395823:a79694647", "current_trial": 4, "dateTime": 1693483171736, "trialdata": {"revealed_states": [], "clicked_states": ["12", "1"], "num_clicks_accrued": [0, 0, 0, 0, 0, 0, 0, 0, 0, 0, 0, 0, 0], "stateRewards": ["", -10, 10, -10, 10, 10, 10, -10, -10, 10, -10, 10, 10, 10, 10, 10, 10, -10, -10, -10, 10, -10, 10, -10, -10, -10, -10, -10, 10, -10, 10, 10, 10, -10], "withholdReward": false, "trial_id": "practice_2", "block": "test", "trialIndex": 1, "score": 32.5, "costs": -1, "simulationMode": [null, null, null, null, null], "rewards": [10, 10, 10, 10, -10], "path": ["0", "0", "12", "13", "14", "15", "17"], "rt": [14017, 540, 1776, 1459, 494], "actions": ["right", "right", "right", "up", "right"], "actionTimes": [20425, 21481, 23783, 25764, 26781], "queries": {"click": {"state": {"target": ["12", "1"], "time": [12541, 16583]}, "edge": {"target": [], "time": []}}, "mouseover": {"state": {"target": ["12", "1"], "time": [12019, 15441]}, "edge": {"target": [], "time": []}}, "mouseout": {"state": {"target": ["24", "23", "0", "12", "12", "1", "12"], "time": [5068, 5101, 11586, 13787, 14869, 17892, 29102]}, "edge": {"target": [], "time": []}}}, "displayed_time": "27.29", "trialTime": 32275, "trial_type": "mouselab-mdp", "trial_index": 4, "time_elapsed": 972202, "internal_node_id": "0.0-2.0-2.0-1.0"}}, {"uniqueid": "w69395823:a79694647", "current_trial": 5, "dateTime": 1693483368981, "trialdata": {"view_history": [{"page_index": 0, "viewing_time": 141403}, {"page_index": 1, "viewing_time": 9684}, {"page_index": 0, "viewing_time": 44268}, {"page_index": 1, "viewing_time": 1886}], "rt": 197241, "trial_id": "mouselab_instructions_2_control", "trial_type": "instructions", "trial_index": 5, "time_elapsed": 1169449, "internal_node_id": "0.0-2.0-3.0"}}, {"uniqueid": "w69395823:a79694647", "current_trial": 6, "dateTime": 1693483455051, "trialdata": {"rt": 86059, "response": {"Q0": "The cost for clicking on nodes may vary between nodes.", "Q1": "The better I perform the higher my bonus will be.", "Q2": "No, the amount of cash at each node of the web may be different each time.", "Q3": "To get the highest total score.", "Q4": "Only before moving the spider.", "Q5": "3 seconds"}, "question_order": [0, 1, 2, 3, 4, 5], "correct": {"Q0": "The cost for clicking on nodes may vary between nodes.", "Q1": "The better I perform the higher my bonus will be.", "Q2": "No, the amount of cash at each node of the web may be different each time.", "Q3": "To get the highest total score.", "Q4": "Only before moving the spider.", "Q5": "3 seconds"}, "trial_id": "mouselab_quiz_control", "trial_type": "survey-multi-choice", "trial_index": 6, "time_elapsed": 1255518, "internal_node_id": "0.0-2.0-4.0"}}, {"uniqueid": "w69395823:a79694647", "current_trial": 7, "dateTime": 1693483474075, "trialdata": {"rt": 19007, "response": {"Q0": "No"}, "question_order": [0], "trial_id": "repeat_check", "trial_type": "survey-multi-choice", "trial_index": 7, "time_elapsed": 1274541, "internal_node_id": "0.0-4.0-0.0"}}, {"uniqueid": "w69395823:a79694647", "current_trial": 8, "dateTime": 1693483519945, "trialdata": {"rt": 45858, "stimulus": "\n<h1> Get ready to start the game! </h1>\n\nThank you for reading the instructions. Get ready start with the 40 rounds of this game.\n<br><br>\nIf you need to take a break, feel free to take one after the end of a round, before continuing to the next one.\n<br><br>\nRemember, the more money the spider gets, the bigger your bonus will be!\n<br><br>\n<div style='text-align: center;'>Press <code>space</code> to begin.</div>\n\n<br><br>\n(If, at any point, the <code>space</code> key does not take you to the next page, click once on the text and try again.)", "response": " ", "trial_id": "mdp_ready", "trial_type": "html-keyboard-response", "trial_index": 8, "time_elapsed": 1320413, "internal_node_id": "0.0-6.0-0.0"}}, {"uniqueid": "w69395823:a79694647", "current_trial": 9, "dateTime": 1693483544653, "trialdata": {"revealed_states": [], "clicked_states": [], "num_clicks_accrued": [0, 0, 0, 0, 0, 0, 0, 0, 0, 0, 0, 0, 0], "stateRewards": ["", -2, 3, 8, -9, 59, 41, -50, -1, 82, 66, 33, 2, -2, 7, 8, 1, -38, 12, -16, 24, -37, 67, 1, 4, -2, 5, 35, -83, 28, 8, -27, 69, -64], "withholdReward": false, "trial_id": "mdp_trial_1", "block": "test", "trialIndex": 2, "score": -75, "costs": 0, "simulationMode": [null, null, null, null, null], "rewards": [1, 4, -2, 5, -83], "path": ["0", "0", "23", "24", "25", "26", "28"], "rt": [5242, 565, 201, 551, 926], "actions": ["left", "left", "left", "up", "right"], "actionTimes": [11190, 12261, 12979, 14045, 15471], "queries": {"click": {"state": {"target": [], "time": []}, "edge": {"target": [], "time": []}}, "mouseover": {"state": {"target": ["23"], "time": [10073]}, "edge": {"target": [], "time": []}}, "mouseout": {"state": {"target": ["3", "2", "1", "0", "23"], "time": [1657, 1707, 1757, 9924, 22357]}, "edge": {"target": [], "time": []}}}, "displayed_time": "19.95", "trialTime": 24157, "trial_type": "mouselab-mdp", "trial_index": 9, "time_elapsed": 1345120, "internal_node_id": "0.0-6.0-1.0-0.0"}}, {"uniqueid": "w69395823:a79694647", "current_trial": 10, "dateTime": 1693483569684, "trialdata": {"revealed_states": [], "clicked_states": [], "num_clicks_accrued": [0, 0, 0, 0, 0, 0, 0, 0, 0, 0, 0, 0, 0], "stateRewards": ["", 1, -1, 8, -3, 38, 85, -20, -4, 8, 23, 73, 2, -4, 6, -13, 44, 7, -28, -11, -77, 45, -69, 1, -1, -7, -11, 75, -51, -87, 7, 36, -53, -26], "withholdReward": false, "trial_id": "mdp_trial_2", "block": "test", "trialIndex": 3, "score": 90, "costs": 0, "simulationMode": [null, null, null, null, null], "rewards": [1, -1, 8, -3, 85], "path": ["0", "0", "1", "2", "3", "4", "6"], "rt": [1831, 492, 384, 1357, 310], "actions": ["up", "up", "up", "right", "right"], "actionTimes": [7417, 8417, 9325, 11181, 12015], "queries": {"click": {"state": {"target": [], "time": []}, "edge": {"target": [], "time": []}}, "mouseover": {"state": {"target": [], "time": []}, "edge": {"target": [], "time": []}}, "mouseout": {"state": {"target": ["23", "0"], "time": [4184, 14503]}, "edge": {"target": [], "time": []}}}, "displayed_time": "19.59", "trialTime": 24434, "trial_type": "mouselab-mdp", "trial_index": 10, "time_elapsed": 1370152, "internal_node_id": "0.0-6.0-1.0-1.0"}}, {"uniqueid": "w69395823:a79694647", "current_trial": 11, "dateTime": 1693483592482, "trialdata": {"revealed_states": [], "clicked_states": [], "num_clicks_accrued": [0, 0, 0, 0, 0, 0, 0, 0, 0, 0, 0, 0, 0], "stateRewards": ["", 1, 2, -6, -13, -51, 22, -4, -12, -44, -12, 6, -2, -2, -2, -14, -46, -4, -77, -2, 36, -79, 41, 2, -4, 2, -6, -55, 59, 70, -5, 39, -19, 24], "withholdReward": false, "trial_id": "mdp_trial_3", "block": "test", "trialIndex": 4, "score": -97, "costs": 0, "simulationMode": [null, null, null, null, null], "rewards": [-2, -2, -2, -14, -77], "path": ["0", "0", "12", "13", "14", "15", "18"], "rt": [3699, 350, 506, 1296, 1078], "actions": ["right", "right", "right", "up", "left"], "actionTimes": [8854, 9725, 10748, 12553, 14141], "queries": {"click": {"state": {"target": [], "time": []}, "edge": {"target": [], "time": []}}, "mouseover": {"state": {"target": [], "time": []}, "edge": {"target": [], "time": []}}, "mouseout": {"state": {"target": ["0"], "time": [18821]}, "edge": {"target": [], "time": []}}}, "displayed_time": "19.16", "trialTime": 22200, "trial_type": "mouselab-mdp", "trial_index": 11, "time_elapsed": 1392949, "internal_node_id": "0.0-6.0-1.0-2.0"}}, {"uniqueid": "w69395823:a79694647", "current_trial": 12, "dateTime": 1693483612792, "trialdata": {"revealed_states": [], "clicked_states": [], "num_clicks_accrued": [0, 0, 0, 0, 0, 0, 0, 0, 0, 0, 0, 0, 0], "stateRewards": ["", 1, 2, 3, 16, 63, -25, 16, -4, -14, 82, -66, -1, -3, -3, -11, -14, 19, 46, 3, -34, -82, 66, -2, -3, 4, -5, -63, 77, -37, -1, -45, -41, 84], "withholdReward": false, "trial_id": "mdp_trial_4", "block": "test", "trialIndex": 5, "score": -12, "costs": 0, "simulationMode": [null, null, null, null, null], "rewards": [1, 2, 3, -4, -14], "path": ["0", "0", "1", "2", "3", "8", "9"], "rt": [2092, 355, 1500, 925, 359], "actions": ["up", "up", "up", "left", "up"], "actionTimes": [4774, 5633, 7648, 9078, 9961], "queries": {"click": {"state": {"target": [], "time": []}, "edge": {"target": [], "time": []}}, "mouseover": {"state": {"target": [], "time": []}, "edge": {"target": [], "time": []}}, "mouseout": {"state": {"target": ["0"], "time": [13132]}, "edge": {"target": [], "time": []}}}, "displayed_time": "16.69", "trialTime": 19559, "trial_type": "mouselab-mdp", "trial_index": 12, "time_elapsed": 1413259, "internal_node_id": "0.0-6.0-1.0-3.0"}}, {"uniqueid": "w69395823:a79694647", "current_trial": 13, "dateTime": 1693483631830, "trialdata": {"revealed_states": [], "clicked_states": [], "num_clicks_accrued": [0, 0, 0, 0, 0, 0, 0, 0, 0, 0, 0, 0, 0], "stateRewards": ["", 2, -1, 4, -9, -43, 7, 54, -13, 38, -40, -83, -1, 2, -8, -10, 34, -33, 11, -14, -79, 65, 26, 1, 2, 4, 10, 21, 1, 86, 4, -53, 28, -29], "withholdReward": false, "trial_id": "mdp_trial_5", "block": "test", "trialIndex": 6, "score": 18, "costs": 0, "simulationMode": [null, null, null, null, null], "rewards": [1, 2, 4, 10, 1], "path": ["0", "0", "23", "24", "25", "26", "28"], "rt": [4346, 524, 308, 392, 498], "actions": ["left", "left", "left", "up", "right"], "actionTimes": [6053, 7076, 7893, 8811, 9828], "queries": {"click": {"state": {"target": [], "time": []}, "edge": {"target": [], "time": []}}, "mouseover": {"state": {"target": [], "time": []}, "edge": {"target": [], "time": []}}, "mouseout": {"state": {"target": ["0"], "time": [12730]}, "edge": {"target": [], "time": []}}}, "displayed_time": "15.72", "trialTime": 18325, "trial_type": "mouselab-mdp", "trial_index": 13, "time_elapsed": 1432296, "internal_node_id": "0.0-6.0-1.0-4.0"}}, {"uniqueid": "w69395823:a79694647", "current_trial": 14, "dateTime": 1693483652344, "trialdata": {"revealed_states": [], "clicked_states": [], "num_clicks_accrued": [0, 0, 0, 0, 0, 0, 0, 0, 0, 0, 0, 0, 0], "stateRewards": ["", -2, -3, 7, -13, 60, 9, 37, -6, 37, 20, 1, 2, -2, -8, 6, -80, -31, -10, -7, 70, -65, -44, -1, 1, 7, 6, -11, 73, -85, 16, -21, 47, 34], "withholdReward": false, "trial_id": "mdp_trial_6", "block": "test", "trialIndex": 7, "score": 70, "costs": 0, "simulationMode": [null, null, null, null, null], "rewards": [-1, 1, 7, 16, 47], "path": ["0", "0", "23", "24", "25", "30", "32"], "rt": [1161, 846, 210, 656, 23], "actions": ["left", "left", "left", "down", "down"], "actionTimes": [5024, 6378, 7098, 8269, 8788], "queries": {"click": {"state": {"target": [], "time": []}, "edge": {"target": [], "time": []}}, "mouseover": {"state": {"target": [], "time": []}, "edge": {"target": [], "time": []}}, "mouseout": {"state": {"target": ["0"], "time": [10646]}, "edge": {"target": [], "time": []}}}, "displayed_time": "17.87", "trialTime": 19708, "trial_type": "mouselab-mdp", "trial_index": 14, "time_elapsed": 1452812, "internal_node_id": "0.0-6.0-1.0-5.0"}}, {"uniqueid": "w69395823:a79694647", "current_trial": 15, "dateTime": 1693483671952, "trialdata": {"revealed_states": [], "clicked_states": [], "num_clicks_accrued": [0, 0, 0, 0, 0, 0, 0, 0, 0, 0, 0, 0, 0], "stateRewards": ["", 1, 4, 5, -5, 58, -80, 75, 6, 25, -39, 46, 2, -2, 4, 2, 59, 31, -22, -12, -61, 15, 72, 1, -2, -7, 8, 77, 76, -23, -7, 71, -15, -3], "withholdReward": false, "trial_id": "mdp_trial_7", "block": "test", "trialIndex": 8, "score": -18, "costs": 0, "simulationMode": [null, null, null, null, null], "rewards": [1, -2, -7, -7, -3], "path": ["0", "0", "23", "24", "25", "30", "33"], "rt": [1110, 299, 321, 578, 1075], "actions": ["left", "left", "left", "down", "left"], "actionTimes": [3246, 4052, 4882, 5964, 7544], "queries": {"click": {"state": {"target": [], "time": []}, "edge": {"target": [], "time": []}}, "mouseover": {"state": {"target": [], "time": []}, "edge": {"target": [], "time": []}}, "mouseout": {"state": {"target": ["0"], "time": [9286]}, "edge": {"target": [], "time": []}}}, "displayed_time": "16.14", "trialTime": 18849, "trial_type": "mouselab-mdp", "trial_index": 15, "time_elapsed": 1472418, "internal_node_id": "0.0-6.0-1.0-6.0"}}, {"uniqueid": "w69395823:a79694647", "current_trial": 16, "dateTime": 1693483691349, "trialdata": {"revealed_states": [], "clicked_states": [], "num_clicks_accrued": [0, 0, 0, 0, 0, 0, 0, 0, 0, 0, 0, 0, 0], "stateRewards": ["", 2, 3, -6, -5, -3, 55, 40, 11, 61, 11, 51, 2, -4, -6, 9, -25, 29, -15, -6, 7, -77, -2, -2, -4, 1, 14, -43, -1, 56, -12, -54, 41, -74], "withholdReward": false, "trial_id": "mdp_trial_8", "block": "test", "trialIndex": 9, "score": -16, "costs": 0, "simulationMode": [null, null, null, null, null], "rewards": [2, -4, -6, -6, -2], "path": ["0", "0", "12", "13", "14", "19", "22"], "rt": [2072, 690, 612, 857, 1418], "actions": ["right", "right", "right", "down", "left"], "actionTimes": [4026, 5235, 6358, 7745, 9661], "queries": {"click": {"state": {"target": [], "time": []}, "edge": {"target": [], "time": []}}, "mouseover": {"state": {"target": [], "time": []}, "edge": {"target": [], "time": []}}, "mouseout": {"state": {"target": [], "time": []}, "edge": {"target": [], "time": []}}}, "displayed_time": "15.96", "trialTime": 18488, "trial_type": "mouselab-mdp", "trial_index": 16, "time_elapsed": 1491815, "internal_node_id": "0.0-6.0-1.0-7.0"}}, {"uniqueid": "w69395823:a79694647", "current_trial": 17, "dateTime": 1693483720822, "trialdata": {"revealed_states": [], "clicked_states": [], "num_clicks_accrued": [0, 0, 0, 0, 0, 0, 0, 0, 0, 0, 0, 0, 0], "stateRewards": ["", 1, 2, 8, -2, 23, -69, -18, -16, 54, -21, 71, -1, -4, 7, 11, 43, -6, 88, 6, -55, 72, 43, 1, -3, -2, -1, 68, -31, -54, 4, -8, 25, -2], "withholdReward": false, "trial_id": "mdp_trial_9", "block": "test", "trialIndex": 10, "score": 66, "costs": 0, "simulationMode": [null, null, null, null, null], "rewards": [1, 2, 8, -16, 71], "path": ["0", "0", "1", "2", "3", "8", "11"], "rt": [1413, 387, 266, 1343, 205], "actions": ["up", "up", "up", "left", "left"], "actionTimes": [3262, 4159, 4920, 6763, 7475], "queries": {"click": {"state": {"target": [], "time": []}, "edge": {"target": [], "time": []}}, "mouseover": {"state": {"target": [], "time": []}, "edge": {"target": [], "time": []}}, "mouseout": {"state": {"target": ["0"], "time": [9967]}, "edge": {"target": [], "time": []}}}, "displayed_time": "15.85", "trialTime": 28606, "trial_type": "mouselab-mdp", "trial_index": 17, "time_elapsed": 1521289, "internal_node_id": "0.0-6.0-1.0-8.0"}}, {"uniqueid": "w69395823:a79694647", "current_trial": 18, "dateTime": 1693483739799, "trialdata": {"revealed_states": [], "clicked_states": [], "num_clicks_accrued": [0, 0, 0, 0, 0, 0, 0, 0, 0, 0, 0, 0, 0], "stateRewards": ["", 2, -4, -4, 13, -80, 62, 13, -11, 57, -13, -44, 1, 4, 3, -4, -29, -88, 15, 16, -58, 68, -45, -1, -3, -1, -9, -44, -86, -19, -7, -36, 59, 66], "withholdReward": false, "trial_id": "mdp_trial_10", "block": "test", "trialIndex": 11, "score": -73, "costs": 0, "simulationMode": [null, null, null, null, null], "rewards": [2, -4, -4, 13, -80], "path": ["0", "0", "1", "2", "3", "4", "5"], "rt": [1101, 902, 226, 968, 711], "actions": ["up", "up", "up", "right", "up"], "actionTimes": [3317, 4727, 5465, 6940, 8150], "queries": {"click": {"state": {"target": [], "time": []}, "edge": {"target": [], "time": []}}, "mouseover": {"state": {"target": [], "time": []}, "edge": {"target": [], "time": []}}, "mouseout": {"state": {"target": ["0"], "time": [10004]}, "edge": {"target": [], "time": []}}}, "displayed_time": "16.22", "trialTime": 18106, "trial_type": "mouselab-mdp", "trial_index": 18, "time_elapsed": 1540266, "internal_node_id": "0.0-6.0-1.0-9.0"}}, {"uniqueid": "w69395823:a79694647", "current_trial": 19, "dateTime": 1693483792411, "trialdata": {"revealed_states": [], "clicked_states": [], "num_clicks_accrued": [0, 0, 0, 0, 0, 0, 0, 0, 0, 0, 0, 0, 0], "stateRewards": ["", -1, 3, 8, 9, -53, 20, -84, 2, -28, -62, -31, -1, -2, -7, 2, 51, 58, 45, -4, -17, -41, 36, 2, -2, -7, -15, 29, -54, -37, -16, -43, 65, -17], "withholdReward": false, "trial_id": "mdp_trial_11", "block": "test", "trialIndex": 12, "score": 7, "costs": 0, "simulationMode": [null, null, null, null, null], "rewards": [2, -2, -7, -15, 29], "path": ["0", "0", "23", "24", "25", "26", "27"], "rt": [945, 720, 273, 528, 3], "actions": ["left", "left", "left", "up", "up"], "actionTimes": [3653, 4881, 5666, 6703, 7213], "queries": {"click": {"state": {"target": [], "time": []}, "edge": {"target": [], "time": []}}, "mouseover": {"state": {"target": [], "time": []}, "edge": {"target": [], "time": []}}, "mouseout": {"state": {"target": ["0", "0"], "time": [987, 17108]}, "edge": {"target": [], "time": []}}}, "displayed_time": "16.72", "trialTime": 51654, "trial_type": "mouselab-mdp", "trial_index": 19, "time_elapsed": 1592878, "internal_node_id": "0.0-6.0-1.0-10.0"}}, {"uniqueid": "w69395823:a79694647", "current_trial": 20, "dateTime": 1693483811286, "trialdata": {"revealed_states": [], "clicked_states": [], "num_clicks_accrued": [0, 0, 0, 0, 0, 0, 0, 0, 0, 0, 0, 0, 0], "stateRewards": ["", 2, 3, -3, 4, 72, -28, 34, -12, 57, -64, -15, 2, 1, -4, -15, 2, 49, 31, -1, -42, -58, 31, -2, 1, -2, -13, -75, -19, -22, -6, 61, 10, -56], "withholdReward": false, "trial_id": "mdp_trial_12", "block": "test", "trialIndex": 13, "score": 15, "costs": 0, "simulationMode": [null, null, null, null, null], "rewards": [2, 1, -4, -15, 31], "path": ["0", "0", "12", "13", "14", "15", "18"], "rt": [1596, 435, 414, 345, 343], "actions": ["right", "right", "right", "up", "left"], "actionTimes": [3330, 4277, 5189, 6052, 6916], "queries": {"click": {"state": {"target": [], "time": []}, "edge": {"target": [], "time": []}}, "mouseover": {"state": {"target": [], "time": []}, "edge": {"target": [], "time": []}}, "mouseout": {"state": {"target": ["0"], "time": [14220]}, "edge": {"target": [], "time": []}}}, "displayed_time": "15.74", "trialTime": 17994, "trial_type": "mouselab-mdp", "trial_index": 20, "time_elapsed": 1611753, "internal_node_id": "0.0-6.0-1.0-11.0"}}, {"uniqueid": "w69395823:a79694647", "current_trial": 21, "dateTime": 1693483830971, "trialdata": {"revealed_states": [], "clicked_states": [], "num_clicks_accrued": [0, 0, 0, 0, 0, 0, 0, 0, 0, 0, 0, 0, 0], "stateRewards": ["", -2, 2, -2, -7, -50, -62, -45, 7, 36, -24, -72, -1, -1, 8, -1, -67, 20, -52, 2, 35, -50, 80, -1, 1, 6, -6, -70, 6, 88, 8, -47, 74, -19], "withholdReward": false, "trial_id": "mdp_trial_13", "block": "test", "trialIndex": 14, "score": -47, "costs": 0, "simulationMode": [null, null, null, null, null], "rewards": [-1, -1, 8, -1, -52], "path": ["0", "0", "12", "13", "14", "15", "18"], "rt": [1059, 1826, 544, 1409, 850], "actions": ["right", "right", "right", "up", "left"], "actionTimes": [3282, 5626, 6693, 8607, 9982], "queries": {"click": {"state": {"target": [], "time": []}, "edge": {"target": [], "time": []}}, "mouseover": {"state": {"target": [], "time": []}, "edge": {"target": [], "time": []}}, "mouseout": {"state": {"target": ["0"], "time": [13596]}, "edge": {"target": [], "time": []}}}, "displayed_time": "16.23", "trialTime": 18735, "trial_type": "mouselab-mdp", "trial_index": 21, "time_elapsed": 1631438, "internal_node_id": "0.0-6.0-1.0-12.0"}}, {"uniqueid": "w69395823:a79694647", "current_trial": 22, "dateTime": 1693483851690, "trialdata": {"revealed_states": [], "clicked_states": [], "num_clicks_accrued": [0, 0, 0, 0, 0, 0, 0, 0, 0, 0, 0, 0, 0], "stateRewards": ["", -1, 1, -6, -1, 80, 23, 2, -11, 73, -81, 59, 1, 3, 5, -1, -26, 28, -3, 16, -59, -13, -50, -2, -2, 2, 15, -50, 86, 17, -4, 37, 35, 44], "withholdReward": false, "trial_id": "mdp_trial_14", "block": "test", "trialIndex": 15, "score": -98, "costs": 0, "simulationMode": [null, null, null, null, null], "rewards": [-1, 1, -6, -11, -81], "path": ["0", "0", "1", "2", "3", "8", "10"], "rt": [1042, 214, 1011, 700, 282], "actions": ["up", "up", "up", "left", "down"], "actionTimes": [2852, 3592, 5176, 6376, 7175], "queries": {"click": {"state": {"target": [], "time": []}, "edge": {"target": [], "time": []}}, "mouseover": {"state": {"target": [], "time": []}, "edge": {"target": [], "time": []}}, "mouseout": {"state": {"target": ["0"], "time": [18590]}, "edge": {"target": [], "time": []}}}, "displayed_time": "15.82", "trialTime": 19752, "trial_type": "mouselab-mdp", "trial_index": 22, "time_elapsed": 1652158, "internal_node_id": "0.0-6.0-1.0-13.0"}}, {"uniqueid": "w69395823:a79694647", "current_trial": 23, "dateTime": 1693483871575, "trialdata": {"revealed_states": [], "clicked_states": [], "num_clicks_accrued": [0, 0, 0, 0, 0, 0, 0, 0, 0, 0, 0, 0, 0], "stateRewards": ["", -2, 1, -7, -8, -37, -76, -87, 11, 30, -63, 80, -1, 4, 2, -1, 42, 17, 52, -3, -75, -80, -68, 2, -3, -5, -15, -48, 82, 24, -7, 5, -22, -71], "withholdReward": false, "trial_id": "mdp_trial_15", "block": "test", "trialIndex": 16, "score": 33, "costs": 0, "simulationMode": [null, null, null, null, null], "rewards": [-2, 1, -7, 11, 30], "path": ["0", "0", "1", "2", "3", "8", "9"], "rt": [1318, 299, 198, 794, 619], "actions": ["up", "up", "up", "left", "up"], "actionTimes": [3516, 4338, 5042, 6337, 7462], "queries": {"click": {"state": {"target": [], "time": []}, "edge": {"target": [], "time": []}}, "mouseover": {"state": {"target": [], "time": []}, "edge": {"target": [], "time": []}}, "mouseout": {"state": {"target": ["0"], "time": [17757]}, "edge": {"target": [], "time": []}}}, "displayed_time": "16.20", "trialTime": 18907, "trial_type": "mouselab-mdp", "trial_index": 23, "time_elapsed": 1672042, "internal_node_id": "0.0-6.0-1.0-14.0"}}, {"uniqueid": "w69395823:a79694647", "current_trial": 24, "dateTime": 1693483890703, "trialdata": {"revealed_states": [], "clicked_states": [], "num_clicks_accrued": [0, 0, 0, 0, 0, 0, 0, 0, 0, 0, 0, 0, 0], "stateRewards": ["", 2, -4, 1, -12, -59, -53, -74, 16, -88, -66, 66, 1, -2, 8, -9, -14, 22, 25, -1, -39, 47, -14, -1, -1, -2, 1, -4, 52, -26, 15, -7, 46, 43], "withholdReward": false, "trial_id": "mdp_trial_16", "block": "test", "trialIndex": 17, "score": 49, "costs": 0, "simulationMode": [null, null, null, null, null], "rewards": [-1, -1, -2, 1, 52], "path": ["0", "0", "23", "24", "25", "26", "28"], "rt": [2006, 928, 785, 1368, 782], "actions": ["left", "left", "left", "up", "right"], "actionTimes": [4048, 5475, 6780, 8646, 9926], "queries": {"click": {"state": {"target": [], "time": []}, "edge": {"target": [], "time": []}}, "mouseover": {"state": {"target": [], "time": []}, "edge": {"target": [], "time": []}}, "mouseout": {"state": {"target": ["0"], "time": [12891]}, "edge": {"target": [], "time": []}}}, "displayed_time": "16.04", "trialTime": 17744, "trial_type": "mouselab-mdp", "trial_index": 24, "time_elapsed": 1691170, "internal_node_id": "0.0-6.0-1.0-15.0"}}, {"uniqueid": "w69395823:a79694647", "current_trial": 25, "dateTime": 1693483909044, "trialdata": {"revealed_states": [], "clicked_states": [], "num_clicks_accrued": [0, 0, 0, 0, 0, 0, 0, 0, 0, 0, 0, 0, 0], "stateRewards": ["", 1, -1, 4, 5, -32, 18, 20, 6, -88, -74, 9, -2, 1, -2, -14, 34, -77, -38, -1, 80, -36, 73, 2, 3, -8, 10, -48, -73, -71, -11, -22, 20, 54], "withholdReward": false, "trial_id": "mdp_trial_17", "block": "test", "trialIndex": 18, "score": -41, "costs": 0, "simulationMode": [null, null, null, null, null], "rewards": [2, 3, -8, 10, -48], "path": ["0", "0", "23", "24", "25", "26", "27"], "rt": [1171, 454, 315, 696, 681], "actions": ["left", "left", "left", "up", "up"], "actionTimes": [2964, 3941, 4764, 5960, 7145], "queries": {"click": {"state": {"target": [], "time": []}, "edge": {"target": [], "time": []}}, "mouseover": {"state": {"target": [], "time": []}, "edge": {"target": [], "time": []}}, "mouseout": {"state": {"target": ["0", "0"], "time": [1145, 10428]}, "edge": {"target": [], "time": []}}}, "displayed_time": "15.80", "trialTime": 17256, "trial_type": "mouselab-mdp", "trial_index": 25, "time_elapsed": 1709512, "internal_node_id": "0.0-6.0-1.0-16.0"}}, {"uniqueid": "w69395823:a79694647", "current_trial": 26, "dateTime": 1693483927320, "trialdata": {"revealed_states": [], "clicked_states": [], "num_clicks_accrued": [0, 0, 0, 0, 0, 0, 0, 0, 0, 0, 0, 0, 0], "stateRewards": ["", 1, -2, -2, 10, -31, -77, 35, 9, -47, 8, 48, -2, 1, -4, -3, -26, -50, 43, -11, 76, -38, 17, 1, -1, 6, 10, 15, -9, 12, -8, 85, 11, -55], "withholdReward": false, "trial_id": "mdp_trial_18", "block": "test", "trialIndex": 19, "score": 28, "costs": 0, "simulationMode": [null, null, null, null, null], "rewards": [1, -1, 6, 10, 12], "path": ["0", "0", "23", "24", "25", "26", "29"], "rt": [828, 236, 282, 535, 388], "actions": ["left", "left", "left", "up", "left"], "actionTimes": [2511, 3252, 4046, 5093, 5986], "queries": {"click": {"state": {"target": [], "time": []}, "edge": {"target": [], "time": []}}, "mouseover": {"state": {"target": [], "time": []}, "edge": {"target": [], "time": []}}, "mouseout": {"state": {"target": ["0", "0"], "time": [1068, 7545]}, "edge": {"target": [], "time": []}}}, "displayed_time": "15.69", "trialTime": 17179, "trial_type": "mouselab-mdp", "trial_index": 26, "time_elapsed": 1727787, "internal_node_id": "0.0-6.0-1.0-17.0"}}, {"uniqueid": "w69395823:a79694647", "current_trial": 27, "dateTime": 1693483947506, "trialdata": {"revealed_states": [], "clicked_states": [], "num_clicks_accrued": [0, 0, 0, 0, 0, 0, 0, 0, 0, 0, 0, 0, 0], "stateRewards": ["", 2, 2, 3, -15, 23, -14, 73, -7, -32, -20, -6, 1, 1, -5, -12, 73, 6, -84, 11, -81, -57, 13, -2, -1, -4, -8, -52, -58, 49, 13, 5, -41, -41], "withholdReward": false, "trial_id": "mdp_trial_19", "block": "test", "trialIndex": 20, "score": -35, "costs": 0, "simulationMode": [null, null, null, null, null], "rewards": [-2, -1, -4, 13, -41], "path": ["0", "0", "23", "24", "25", "30", "33"], "rt": [1191, 800, 257, 822, 364], "actions": ["left", "left", "left", "down", "left"], "actionTimes": [3149, 4445, 5219, 6566, 7424], "queries": {"click": {"state": {"target": [], "time": []}, "edge": {"target": [], "time": []}}, "mouseover": {"state": {"target": [], "time": []}, "edge": {"target": [], "time": []}}, "mouseout": {"state": {"target": ["0", "0"], "time": [1295, 10596]}, "edge": {"target": [], "time": []}}}, "displayed_time": "15.97", "trialTime": 19129, "trial_type": "mouselab-mdp", "trial_index": 27, "time_elapsed": 1747973, "internal_node_id": "0.0-6.0-1.0-18.0"}}, {"uniqueid": "w69395823:a79694647", "current_trial": 28, "dateTime": 1693483965935, "trialdata": {"revealed_states": [], "clicked_states": [], "num_clicks_accrued": [0, 0, 0, 0, 0, 0, 0, 0, 0, 0, 0, 0, 0], "stateRewards": ["", 2, -4, 7, 3, 23, -42, 4, 7, -81, -33, 7, -2, -4, 5, -1, 50, -57, -14, -13, -14, 44, 55, -2, -2, 5, -2, 33, 1, 57, -13, -7, 58, 87], "withholdReward": false, "trial_id": "mdp_trial_20", "block": "test", "trialIndex": 21, "score": 12, "costs": 0, "simulationMode": [null, null, null, null, null], "rewards": [2, -4, 7, 3, 4], "path": ["0", "0", "1", "2", "3", "4", "7"], "rt": [879, 686, 165, 1007, 778], "actions": ["up", "up", "up", "right", "down"], "actionTimes": [2369, 3563, 4223, 5732, 7022], "queries": {"click": {"state": {"target": [], "time": []}, "edge": {"target": [], "time": []}}, "mouseover": {"state": {"target": [], "time": []}, "edge": {"target": [], "time": []}}, "mouseout": {"state": {"target": ["0", "0"], "time": [840, 13521]}, "edge": {"target": [], "time": []}}}, "displayed_time": "15.49", "trialTime": 17354, "trial_type": "mouselab-mdp", "trial_index": 28, "time_elapsed": 1766402, "internal_node_id": "0.0-6.0-1.0-19.0"}}, {"uniqueid": "w69395823:a79694647", "current_trial": 29, "dateTime": 1693483985599, "trialdata": {"revealed_states": [], "clicked_states": [], "num_clicks_accrued": [0, 0, 0, 0, 0, 0, 0, 0, 0, 0, 0, 0, 0], "stateRewards": ["", 2, 4, 4, 9, -88, -10, 44, 16, -54, 64, 78, 1, 2, 5, 16, 80, 36, 7, -4, 9, -47, -70, -1, -3, 6, -16, 11, 80, 28, 8, -1, 34, -17], "withholdReward": false, "trial_id": "mdp_trial_21", "block": "test", "trialIndex": 22, "score": 9, "costs": 0, "simulationMode": [null, null, null, null, null], "rewards": [2, 4, 4, 9, -10], "path": ["0", "0", "1", "2", "3", "4", "6"], "rt": [893, 344, 224, 3580, 415], "actions": ["up", "up", "up", "right", "right"], "actionTimes": [2734, 3586, 4315, 8422, 9356], "queries": {"click": {"state": {"target": [], "time": []}, "edge": {"target": [], "time": []}}, "mouseover": {"state": {"target": [], "time": []}, "edge": {"target": [], "time": []}}, "mouseout": {"state": {"target": ["0", "0"], "time": [1254, 14355]}, "edge": {"target": [], "time": []}}}, "displayed_time": "15.85", "trialTime": 18403, "trial_type": "mouselab-mdp", "trial_index": 29, "time_elapsed": 1786067, "internal_node_id": "0.0-6.0-1.0-20.0"}}, {"uniqueid": "w69395823:a79694647", "current_trial": 30, "dateTime": 1693484004493, "trialdata": {"revealed_states": [], "clicked_states": [], "num_clicks_accrued": [0, 0, 0, 0, 0, 0, 0, 0, 0, 0, 0, 0, 0], "stateRewards": ["", -2, -4, -2, 10, -8, -15, -47, 7, -84, 53, 5, -1, 2, -7, 3, 83, 31, 47, -1, 30, -8, 69, 2, -4, -1, 8, -7, 12, -8, -8, -13, 30, -84], "withholdReward": false, "trial_id": "mdp_trial_22", "block": "test", "trialIndex": 23, "score": -15, "costs": 0, "simulationMode": [null, null, null, null, null], "rewards": [-1, 2, -7, -1, -8], "path": ["0", "0", "12", "13", "14", "19", "21"], "rt": [2119, 253, 277, 1257, 149], "actions": ["right", "right", "right", "down", "down"], "actionTimes": [4280, 5043, 5833, 7596, 8255], "queries": {"click": {"state": {"target": [], "time": []}, "edge": {"target": [], "time": []}}, "mouseover": {"state": {"target": [], "time": []}, "edge": {"target": [], "time": []}}, "mouseout": {"state": {"target": ["0", "0"], "time": [1586, 13301]}, "edge": {"target": [], "time": []}}}, "displayed_time": "16.17", "trialTime": 17712, "trial_type": "mouselab-mdp", "trial_index": 30, "time_elapsed": 1804961, "internal_node_id": "0.0-6.0-1.0-21.0"}}, {"uniqueid": "w69395823:a79694647", "current_trial": 31, "dateTime": 1693484023108, "trialdata": {"revealed_states": [], "clicked_states": [], "num_clicks_accrued": [0, 0, 0, 0, 0, 0, 0, 0, 0, 0, 0, 0, 0], "stateRewards": ["", -1, 3, 1, -7, 56, 76, 57, 3, 11, -9, 14, 1, -2, 2, 8, -77, -3, 79, -5, 88, 24, -66, -2, -1, 7, -7, -30, 14, -76, 11, -36, 28, -6], "withholdReward": false, "trial_id": "mdp_trial_23", "block": "test", "trialIndex": 24, "score": 84, "costs": 0, "simulationMode": [null, null, null, null, null], "rewards": [1, -2, 2, -5, 88], "path": ["0", "0", "12", "13", "14", "19", "20"], "rt": [1827, 214, 460, 860, 550], "actions": ["right", "right", "right", "down", "right"], "actionTimes": [3495, 4216, 5195, 6562, 7634], "queries": {"click": {"state": {"target": [], "time": []}, "edge": {"target": [], "time": []}}, "mouseover": {"state": {"target": [], "time": []}, "edge": {"target": [], "time": []}}, "mouseout": {"state": {"target": ["0", "0"], "time": [1057, 11299]}, "edge": {"target": [], "time": []}}}, "displayed_time": "15.68", "trialTime": 17437, "trial_type": "mouselab-mdp", "trial_index": 31, "time_elapsed": 1823574, "internal_node_id": "0.0-6.0-1.0-22.0"}}, {"uniqueid": "w69395823:a79694647", "current_trial": 32, "dateTime": 1693484042624, "trialdata": {"revealed_states": [], "clicked_states": [], "num_clicks_accrued": [0, 0, 0, 0, 0, 0, 0, 0, 0, 0, 0, 0, 0], "stateRewards": ["", -1, 4, -8, 12, 14, 69, -8, 5, -72, -14, 56, -1, -1, -1, 9, 67, 19, 11, -9, -88, -58, 3, 2, -4, -8, 4, 62, 77, -74, 5, -31, 65, 88], "withholdReward": false, "trial_id": "mdp_trial_24", "block": "test", "trialIndex": 25, "score": -80, "costs": 0, "simulationMode": [null, null, null, null, null], "rewards": [2, -4, -8, 4, -74], "path": ["0", "0", "23", "24", "25", "26", "29"], "rt": [1017, 501, 123, 660, 193], "actions": ["left", "left", "left", "up", "left"], "actionTimes": [3162, 4180, 4801, 5971, 6670], "queries": {"click": {"state": {"target": [], "time": []}, "edge": {"target": [], "time": []}}, "mouseover": {"state": {"target": [], "time": []}, "edge": {"target": [], "time": []}}, "mouseout": {"state": {"target": ["0", "0"], "time": [1450, 15273]}, "edge": {"target": [], "time": []}}}, "displayed_time": "16.15", "trialTime": 18329, "trial_type": "mouselab-mdp", "trial_index": 32, "time_elapsed": 1843090, "internal_node_id": "0.0-6.0-1.0-23.0"}}, {"uniqueid": "w69395823:a79694647", "current_trial": 33, "dateTime": 1693484063025, "trialdata": {"revealed_states": [], "clicked_states": [], "num_clicks_accrued": [0, 0, 0, 0, 0, 0, 0, 0, 0, 0, 0, 0, 0], "stateRewards": ["", -2, -3, 4, 1, 33, -53, 15, 9, -12, 61, -6, -2, 4, 6, -11, 47, -43, -7, -11, 46, 23, -28, -1, -1, 3, -10, 11, 76, -76, 10, 18, -38, 87], "withholdReward": false, "trial_id": "mdp_trial_25", "block": "test", "trialIndex": 26, "score": 98, "costs": 0, "simulationMode": [null, null, null, null, null], "rewards": [-1, -1, 3, 10, 87], "path": ["0", "0", "23", "24", "25", "30", "33"], "rt": [1322, 363, 419, 1784, 2988], "actions": ["left", "left", "left", "down", "left"], "actionTimes": [2978, 3861, 4784, 7082, 10599], "queries": {"click": {"state": {"target": [], "time": []}, "edge": {"target": [], "time": []}}, "mouseover": {"state": {"target": [], "time": []}, "edge": {"target": [], "time": []}}, "mouseout": {"state": {"target": ["0", "0"], "time": [1041, 17980]}, "edge": {"target": [], "time": []}}}, "displayed_time": "15.67", "trialTime": 19090, "trial_type": "mouselab-mdp", "trial_index": 33, "time_elapsed": 1863493, "internal_node_id": "0.0-6.0-1.0-24.0"}}, {"uniqueid": "w69395823:a79694647", "current_trial": 34, "dateTime": 1693484085053, "trialdata": {"revealed_states": [], "clicked_states": [], "num_clicks_accrued": [0, 0, 0, 0, 0, 0, 0, 0, 0, 0, 0, 0, 0], "stateRewards": ["", 2, -1, -3, 16, -3, -16, -62, -1, 13, -26, 43, -1, 4, 3, -9, -54, -37, -3, -12, -71, -68, -57, 1, -3, 2, -9, 2, -2, -9, -11, 84, -52, 55], "withholdReward": false, "trial_id": "mdp_trial_26", "block": "test", "trialIndex": 27, "score": -2, "costs": 0, "simulationMode": [null, null, null, null, null], "rewards": [2, -1, -3, 16, -16], "path": ["0", "0", "1", "2", "3", "4", "6"], "rt": [2716, 3798, 314, 1243, 405], "actions": ["up", "up", "up", "right", "right"], "actionTimes": [5467, 9780, 10642, 12390, 13301], "queries": {"click": {"state": {"target": [], "time": []}, "edge": {"target": [], "time": []}}, "mouseover": {"state": {"target": [], "time": []}, "edge": {"target": [], "time": []}}, "mouseout": {"state": {"target": ["0", "0"], "time": [2058, 15426]}, "edge": {"target": [], "time": []}}}, "displayed_time": "16.75", "trialTime": 20912, "trial_type": "mouselab-mdp", "trial_index": 34, "time_elapsed": 1885520, "internal_node_id": "0.0-6.0-1.0-25.0"}}, {"uniqueid": "w69395823:a79694647", "current_trial": 35, "dateTime": 1693484104299, "trialdata": {"revealed_states": [], "clicked_states": [], "num_clicks_accrued": [0, 0, 0, 0, 0, 0, 0, 0, 0, 0, 0, 0, 0], "stateRewards": ["", 2, 3, -3, 12, -43, 81, -82, -15, 58, -7, -75, -1, -1, 3, -5, 50, -25, -8, 4, 66, 65, -66, 2, -4, 2, -1, -10, 10, 37, 11, 88, -37, 8], "withholdReward": false, "trial_id": "mdp_trial_27", "block": "test", "trialIndex": 28, "score": 45, "costs": 0, "simulationMode": [null, null, null, null, null], "rewards": [2, 3, -3, -15, 58], "path": ["0", "0", "1", "2", "3", "8", "9"], "rt": [1135, 1758, 86, 651, 224], "actions": ["up", "up", "up", "left", "up"], "actionTimes": [3091, 5363, 5972, 7120, 7844], "queries": {"click": {"state": {"target": [], "time": []}, "edge": {"target": [], "time": []}}, "mouseover": {"state": {"target": [], "time": []}, "edge": {"target": [], "time": []}}, "mouseout": {"state": {"target": ["0", "0"], "time": [834, 14532]}, "edge": {"target": [], "time": []}}}, "displayed_time": "15.96", "trialTime": 17848, "trial_type": "mouselab-mdp", "trial_index": 35, "time_elapsed": 1904765, "internal_node_id": "0.0-6.0-1.0-26.0"}}, {"uniqueid": "w69395823:a79694647", "current_trial": 36, "dateTime": 1693484123614, "trialdata": {"revealed_states": [], "clicked_states": [], "num_clicks_accrued": [0, 0, 0, 0, 0, 0, 0, 0, 0, 0, 0, 0, 0], "stateRewards": ["", 1, -4, -6, 11, -20, 8, -30, 1, -38, 88, 42, 2, 3, 5, -12, -8, -74, 30, -8, 67, -19, 42, 2, -1, 4, 13, 50, -68, 2, -8, -15, 87, -46], "withholdReward": false, "trial_id": "mdp_trial_28", "block": "test", "trialIndex": 29, "score": 10, "costs": 0, "simulationMode": [null, null, null, null, null], "rewards": [1, -4, -6, 11, 8], "path": ["0", "0", "1", "2", "3", "4", "6"], "rt": [424, 759, 188, 1041, 191], "actions": ["up", "up", "up", "right", "right"], "actionTimes": [2549, 3805, 4519, 6085, 6786], "queries": {"click": {"state": {"target": [], "time": []}, "edge": {"target": [], "time": []}}, "mouseover": {"state": {"target": [], "time": []}, "edge": {"target": [], "time": []}}, "mouseout": {"state": {"target": ["0", "0"], "time": [1489, 16992]}, "edge": {"target": [], "time": []}}}, "displayed_time": "16.13", "trialTime": 18127, "trial_type": "mouselab-mdp", "trial_index": 36, "time_elapsed": 1924082, "internal_node_id": "0.0-6.0-1.0-27.0"}}, {"uniqueid": "w69395823:a79694647", "current_trial": 37, "dateTime": 1693484146672, "trialdata": {"revealed_states": [], "clicked_states": [], "num_clicks_accrued": [0, 0, 0, 0, 0, 0, 0, 0, 0, 0, 0, 0, 0], "stateRewards": ["", -2, -1, -2, -15, 87, 57, 29, -10, 77, -80, -7, 1, -3, 6, 14, -11, 87, -59, 4, -71, 16, -11, 2, 2, -7, 2, -47, 61, 50, 14, -20, 17, 81], "withholdReward": false, "trial_id": "mdp_trial_29", "block": "test", "trialIndex": 30, "score": -41, "costs": 0, "simulationMode": [null, null, null, null, null], "rewards": [1, -3, 6, 14, -59], "path": ["0", "0", "12", "13", "14", "15", "18"], "rt": [1784, 1559, 690, 1140, 616], "actions": ["right", "right", "right", "up", "left"], "actionTimes": [3198, 5281, 6494, 8144, 9285], "queries": {"click": {"state": {"target": [], "time": []}, "edge": {"target": [], "time": []}}, "mouseover": {"state": {"target": [], "time": []}, "edge": {"target": [], "time": []}}, "mouseout": {"state": {"target": ["0", "0"], "time": [772, 20500]}, "edge": {"target": [], "time": []}}}, "displayed_time": "15.42", "trialTime": 21044, "trial_type": "mouselab-mdp", "trial_index": 37, "time_elapsed": 1947139, "internal_node_id": "0.0-6.0-1.0-28.0"}}, {"uniqueid": "w69395823:a79694647", "current_trial": 38, "dateTime": 1693484169446, "trialdata": {"revealed_states": [], "clicked_states": [], "num_clicks_accrued": [0, 0, 0, 0, 0, 0, 0, 0, 0, 0, 0, 0, 0], "stateRewards": ["", -2, -4, -8, 8, 63, -50, -19, -7, -17, -31, 31, 1, 3, -5, 12, -35, -63, -29, -4, -17, -75, -79, -2, -3, -2, 8, -3, -85, 10, -2, -82, -82, 56], "withholdReward": false, "trial_id": "mdp_trial_30", "block": "test", "trialIndex": 31, "score": -22, "costs": 0, "simulationMode": [null, null, null, null, null], "rewards": [1, 3, -5, -4, -17], "path": ["0", "0", "12", "13", "14", "19", "20"], "rt": [1901, 183, 167, 1438, 1418], "actions": ["right", "right", "right", "down", "right"], "actionTimes": [4159, 4843, 5514, 7448, 9389], "queries": {"click": {"state": {"target": [], "time": []}, "edge": {"target": [], "time": []}}, "mouseover": {"state": {"target": [], "time": []}, "edge": {"target": [], "time": []}}, "mouseout": {"state": {"target": ["0", "0"], "time": [1553, 20656]}, "edge": {"target": [], "time": []}}}, "displayed_time": "16.26", "trialTime": 21621, "trial_type": "mouselab-mdp", "trial_index": 38, "time_elapsed": 1969913, "internal_node_id": "0.0-6.0-1.0-29.0"}}, {"uniqueid": "w69395823:a79694647", "current_trial": 39, "dateTime": 1693484190868, "trialdata": {"revealed_states": [], "clicked_states": [], "num_clicks_accrued": [0, 0, 0, 0, 0, 0, 0, 0, 0, 0, 0, 0, 0], "stateRewards": ["", -2, -4, 2, 10, -17, 18, 73, 11, -32, 23, -13, -2, -4, 7, 12, -25, 66, -23, 15, 40, -76, -9, 1, 2, -7, -5, -20, 24, 3, -5, 16, -73, 70], "withholdReward": false, "trial_id": "mdp_trial_31", "block": "test", "trialIndex": 32, "score": 7, "costs": 0, "simulationMode": [null, null, null, null, null], "rewards": [-2, -4, 7, 15, -9], "path": ["0", "0", "12", "13", "14", "19", "22"], "rt": [2411, 1375, 333, 449, 429], "actions": ["right", "right", "right", "down", "left"], "actionTimes": [4402, 6275, 7117, 8065, 8993], "queries": {"click": {"state": {"target": [], "time": []}, "edge": {"target": [], "time": []}}, "mouseover": {"state": {"target": [], "time": []}, "edge": {"target": [], "time": []}}, "mouseout": {"state": {"target": ["0", "0"], "time": [1333, 18512]}, "edge": {"target": [], "time": []}}}, "displayed_time": "16.00", "trialTime": 19935, "trial_type": "mouselab-mdp", "trial_index": 39, "time_elapsed": 1991335, "internal_node_id": "0.0-6.0-1.0-30.0"}}, {"uniqueid": "w69395823:a79694647", "current_trial": 40, "dateTime": 1693484211925, "trialdata": {"revealed_states": [], "clicked_states": [], "num_clicks_accrued": [0, 0, 0, 0, 0, 0, 0, 0, 0, 0, 0, 0, 0], "stateRewards": ["", -2, 2, 2, -6, 9, 37, 50, -13, -7, -18, -75, -2, -4, 4, 7, 23, -57, -66, -7, -81, -48, -76, 1, 1, -8, 1, 51, -2, 70, 14, 59, 71, -37], "withholdReward": false, "trial_id": "mdp_trial_32", "block": "test", "trialIndex": 33, "score": 79, "costs": 0, "simulationMode": [null, null, null, null, null], "rewards": [1, 1, -8, 14, 71], "path": ["0", "0", "23", "24", "25", "30", "32"], "rt": [1232, 274, 178, 2000, 1589], "actions": ["left", "left", "left", "down", "down"], "actionTimes": [3750, 4529, 5233, 7755, 9844], "queries": {"click": {"state": {"target": [], "time": []}, "edge": {"target": [], "time": []}}, "mouseover": {"state": {"target": [], "time": []}, "edge": {"target": [], "time": []}}, "mouseout": {"state": {"target": ["0"], "time": [1810]}, "edge": {"target": [], "time": []}}}, "displayed_time": "16.52", "trialTime": 19501, "trial_type": "mouselab-mdp", "trial_index": 40, "time_elapsed": 2012392, "internal_node_id": "0.0-6.0-1.0-31.0"}}, {"uniqueid": "w69395823:a79694647", "current_trial": 41, "dateTime": 1693484234898, "trialdata": {"revealed_states": [], "clicked_states": [], "num_clicks_accrued": [0, 0, 0, 0, 0, 0, 0, 0, 0, 0, 0, 0, 0], "stateRewards": ["", -1, -4, -6, -15, 21, -67, -63, 9, 51, 69, -14, -1, 3, 8, -8, 39, 72, 63, 15, 19, 47, 15, 1, 4, 5, 16, -18, 34, 35, -14, -80, 40, 1], "withholdReward": false, "trial_id": "mdp_trial_33", "block": "test", "trialIndex": 34, "score": -89, "costs": 0, "simulationMode": [null, null, null, null, null], "rewards": [-1, -4, -6, -15, -63], "path": ["0", "0", "1", "2", "3", "4", "7"], "rt": [687, 29, 185, 1075, 757], "actions": ["up", "up", "up", "right", "down"], "actionTimes": [6085, 6625, 7315, 8890, 10155], "queries": {"click": {"state": {"target": [], "time": []}, "edge": {"target": [], "time": []}}, "mouseover": {"state": {"target": [], "time": []}, "edge": {"target": [], "time": []}}, "mouseout": {"state": {"target": ["0"], "time": [4649]}, "edge": {"target": [], "time": []}}}, "displayed_time": "19.41", "trialTime": 21448, "trial_type": "mouselab-mdp", "trial_index": 41, "time_elapsed": 2035366, "internal_node_id": "0.0-6.0-1.0-32.0"}}, {"uniqueid": "w69395823:a79694647", "current_trial": 42, "dateTime": 1693484255059, "trialdata": {"revealed_states": [], "clicked_states": [], "num_clicks_accrued": [0, 0, 0, 0, 0, 0, 0, 0, 0, 0, 0, 0, 0], "stateRewards": ["", 1, -2, 4, 7, -43, -83, -60, -5, -86, -80, 83, -1, -2, 6, 11, -15, 21, 13, 9, 29, -49, 11, -1, 4, -6, -11, 87, 40, 63, -8, -39, -11, 62], "withholdReward": false, "trial_id": "mdp_trial_34", "block": "test", "trialIndex": 35, "score": -50, "costs": 0, "simulationMode": [null, null, null, null, null], "rewards": [-1, 4, -6, -8, -39], "path": ["0", "0", "23", "24", "25", "30", "31"], "rt": [1153, 152, 342, 771, 3601], "actions": ["left", "left", "left", "down", "right"], "actionTimes": [3544, 4221, 5064, 6339, 10436], "queries": {"click": {"state": {"target": [], "time": []}, "edge": {"target": [], "time": []}}, "mouseover": {"state": {"target": [], "time": []}, "edge": {"target": [], "time": []}}, "mouseout": {"state": {"target": ["0"], "time": [1712]}, "edge": {"target": [], "time": []}}}, "displayed_time": "16.40", "trialTime": 18796, "trial_type": "mouselab-mdp", "trial_index": 42, "time_elapsed": 2055525, "internal_node_id": "0.0-6.0-1.0-33.0"}}, {"uniqueid": "w69395823:a79694647", "current_trial": 43, "dateTime": 1693484274421, "trialdata": {"revealed_states": [], "clicked_states": [], "num_clicks_accrued": [0, 0, 0, 0, 0, 0, 0, 0, 0, 0, 0, 0, 0], "stateRewards": ["", 1, 2, -8, 9, 18, -83, -11, 6, -64, -48, 17, -2, -2, -5, -3, -24, -3, -86, -2, 48, -41, -22, -2, 4, 7, 8, 81, 13, -48, 10, 61, 19, 57], "withholdReward": false, "trial_id": "mdp_trial_35", "block": "test", "trialIndex": 36, "score": 22, "costs": 0, "simulationMode": [null, null, null, null, null], "rewards": [1, 2, -8, 9, 18], "path": ["0", "0", "1", "2", "3", "4", "5"], "rt": [1492, 305, 161, 942, 529], "actions": ["up", "up", "up", "right", "up"], "actionTimes": [3507, 4319, 5007, 6461, 7508], "queries": {"click": {"state": {"target": [], "time": []}, "edge": {"target": [], "time": []}}, "mouseover": {"state": {"target": [], "time": []}, "edge": {"target": [], "time": []}}, "mouseout": {"state": {"target": ["0"], "time": [1314]}, "edge": {"target": [], "time": []}}}, "displayed_time": "16.03", "trialTime": 17803, "trial_type": "mouselab-mdp", "trial_index": 43, "time_elapsed": 2074887, "internal_node_id": "0.0-6.0-1.0-34.0"}}, {"uniqueid": "w69395823:a79694647", "current_trial": 44, "dateTime": 1693484294565, "trialdata": {"revealed_states": [], "clicked_states": [], "num_clicks_accrued": [0, 0, 0, 0, 0, 0, 0, 0, 0, 0, 0, 0, 0], "stateRewards": ["", -1, 2, -2, 13, -56, -28, 10, 14, 53, -80, -29, 1, -3, -3, -14, 14, 9, -40, -9, 18, 18, 48, 1, 1, 1, -9, 64, -39, -9, 7, -52, -78, 7], "withholdReward": false, "trial_id": "mdp_trial_36", "block": "test", "trialIndex": 37, "score": -5, "costs": 0, "simulationMode": [null, null, null, null, null], "rewards": [1, -3, -3, -14, 14], "path": ["0", "0", "12", "13", "14", "15", "16"], "rt": [1655, 294, 193, 728, 106], "actions": ["right", "right", "right", "up", "up"], "actionTimes": [4299, 5100, 5818, 7053, 7664], "queries": {"click": {"state": {"target": [], "time": []}, "edge": {"target": [], "time": []}}, "mouseover": {"state": {"target": [], "time": []}, "edge": {"target": [], "time": []}}, "mouseout": {"state": {"target": ["0"], "time": [1932]}, "edge": {"target": [], "time": []}}}, "displayed_time": "16.65", "trialTime": 18962, "trial_type": "mouselab-mdp", "trial_index": 44, "time_elapsed": 2095032, "internal_node_id": "0.0-6.0-1.0-35.0"}}, {"uniqueid": "w69395823:a79694647", "current_trial": 45, "dateTime": 1693484314917, "trialdata": {"revealed_states": [], "clicked_states": [], "num_clicks_accrued": [0, 0, 0, 0, 0, 0, 0, 0, 0, 0, 0, 0, 0], "stateRewards": ["", 1, 3, -2, 15, 51, 15, -19, 11, 67, -45, -73, 2, 4, -2, -13, 36, 9, -28, 10, -30, 31, 16, 1, 2, -1, -16, 14, -22, 36, -1, 88, -5, 45], "withholdReward": false, "trial_id": "mdp_trial_37", "block": "test", "trialIndex": 38, "score": 22, "costs": 0, "simulationMode": [null, null, null, null, null], "rewards": [1, 2, -1, -16, 36], "path": ["0", "0", "23", "24", "25", "26", "29"], "rt": [1269, 287, 131, 507, 718], "actions": ["left", "left", "left", "up", "left"], "actionTimes": [3135, 3928, 4558, 5566, 6794], "queries": {"click": {"state": {"target": [], "time": []}, "edge": {"target": [], "time": []}}, "mouseover": {"state": {"target": [], "time": []}, "edge": {"target": [], "time": []}}, "mouseout": {"state": {"target": ["0"], "time": [1023]}, "edge": {"target": [], "time": []}}}, "displayed_time": "15.87", "trialTime": 18922, "trial_type": "mouselab-mdp", "trial_index": 45, "time_elapsed": 2115385, "internal_node_id": "0.0-6.0-1.0-36.0"}}, {"uniqueid": "w69395823:a79694647", "current_trial": 46, "dateTime": 1693484336070, "trialdata": {"revealed_states": [], "clicked_states": [], "num_clicks_accrued": [0, 0, 0, 0, 0, 0, 0, 0, 0, 0, 0, 0, 0], "stateRewards": ["", 1, 1, -2, 7, -31, -6, 76, 1, -36, -16, -53, 2, 1, 7, 13, -47, -10, 47, -7, 72, 46, -56, -2, -2, -2, 11, -80, 44, 38, 16, 67, 85, -78], "withholdReward": false, "trial_id": "mdp_trial_38", "block": "test", "trialIndex": 39, "score": -35, "costs": 0, "simulationMode": [null, null, null, null, null], "rewards": [1, 1, -2, 1, -36], "path": ["0", "0", "1", "2", "3", "8", "9"], "rt": [494, 144, 328, 1464, 392], "actions": ["up", "up", "up", "left", "up"], "actionTimes": [2517, 3166, 4019, 6016, 6916], "queries": {"click": {"state": {"target": [], "time": []}, "edge": {"target": [], "time": []}}, "mouseover": {"state": {"target": [], "time": []}, "edge": {"target": [], "time": []}}, "mouseout": {"state": {"target": ["0"], "time": [1298]}, "edge": {"target": [], "time": []}}}, "displayed_time": "16.04", "trialTime": 19404, "trial_type": "mouselab-mdp", "trial_index": 46, "time_elapsed": 2136536, "internal_node_id": "0.0-6.0-1.0-37.0"}}, {"uniqueid": "w69395823:a79694647", "current_trial": 47, "dateTime": 1693484356415, "trialdata": {"revealed_states": [], "clicked_states": [], "num_clicks_accrued": [0, 0, 0, 0, 0, 0, 0, 0, 0, 0, 0, 0, 0], "stateRewards": ["", -2, -1, -4, -15, -14, -67, 32, -3, -59, 63, 31, 2, -1, -7, -15, 71, -66, -27, -3, -54, -39, 72, 2, 1, 1, -13, 77, -40, 35, -9, 35, 75, 57], "withholdReward": false, "trial_id": "mdp_trial_39", "block": "test", "trialIndex": 40, "score": -69, "costs": 0, "simulationMode": [null, null, null, null, null], "rewards": [-2, -1, -4, -3, -59], "path": ["0", "0", "1", "2", "3", "8", "9"], "rt": [1311, 329, 358, 731, 161], "actions": ["up", "up", "up", "left", "up"], "actionTimes": [3305, 4142, 5021, 6264, 6924], "queries": {"click": {"state": {"target": [], "time": []}, "edge": {"target": [], "time": []}}, "mouseover": {"state": {"target": [], "time": []}, "edge": {"target": [], "time": []}}, "mouseout": {"state": {"target": ["0"], "time": [1322]}, "edge": {"target": [], "time": []}}}, "displayed_time": "16.00", "trialTime": 18909, "trial_type": "mouselab-mdp", "trial_index": 47, "time_elapsed": 2156882, "internal_node_id": "0.0-6.0-1.0-38.0"}}, {"uniqueid": "w69395823:a79694647", "current_trial": 48, "dateTime": 1693484376122, "trialdata": {"revealed_states": [], "clicked_states": [], "num_clicks_accrued": [0, 0, 0, 0, 0, 0, 0, 0, 0, 0, 0, 0, 0], "stateRewards": ["", 2, -3, -4, -1, 25, -16, 16, 10, -71, -20, -55, 1, 3, -4, -9, 1, 32, 11, -6, 32, -50, -41, -1, 4, 4, -8, 7, -81, 70, 2, -52, 45, -10], "withholdReward": false, "trial_id": "mdp_trial_40", "block": "test", "trialIndex": 41, "score": -8, "costs": 0, "simulationMode": [null, null, null, null, null], "rewards": [1, 3, -4, -9, 1], "path": ["0", "0", "12", "13", "14", "15", "16"], "rt": [1815, 246, 417, 587, 113], "actions": ["right", "right", "right", "up", "up"], "actionTimes": [3892, 4636, 5573, 6660, 7286], "queries": {"click": {"state": {"target": [], "time": []}, "edge": {"target": [], "time": []}}, "mouseover": {"state": {"target": [], "time": []}, "edge": {"target": [], "time": []}}, "mouseout": {"state": {"target": ["0"], "time": [1245]}, "edge": {"target": [], "time": []}}}, "displayed_time": "16.08", "trialTime": 18358, "trial_type": "mouselab-mdp", "trial_index": 48, "time_elapsed": 2176589, "internal_node_id": "0.0-6.0-1.0-39.0"}}, {"uniqueid": "w69395823:a79694647", "current_trial": 49, "dateTime": 1693484525771, "trialdata": {"rt": 149362, "response": {"Q0": "$-88 to $88", "Q1": "$-16 to $16", "Q2": "$-16 to $16", "Q3": "The cost for clicking on nodes varied between nodes.", "Q4": "Slightly motivated"}, "question_order": [0, 1, 2, 3, 4], "trial_id": "final_quiz_control", "trial_type": "survey-multi-choice", "trial_index": 49, "time_elapsed": 2326238, "internal_node_id": "0.0-6.0-2.0"}}, {"uniqueid": "w69395823:a79694647", "current_trial": 50, "dateTime": 1693484642003, "trialdata": {"rt": 116074, "response": {"Q0": "I had no strategy because no values were displayed on nodes, i was just moving", "Q1": "No", "Q2": "very difficult, the inspector wasn't helpful, displayed no values on the nodes"}, "trial_id": "self_report_control", "trial_type": "survey-text", "trial_index": 50, "time_elapsed": 2442471, "internal_node_id": "0.0-6.0-3.0"}}, {"uniqueid": "w69395823:a79694647", "current_trial": 51, "dateTime": 1693484715745, "trialdata": {"rt": 73678, "response": {"gender": "female", "age": "27", "colorblind": "0", "effort": "0"}, "trial_type": "survey-html-form", "trial_index": 51, "time_elapsed": 2516212, "internal_node_id": "0.0-6.0-4.0"}}, {"uniqueid": "w69395823:a79694647", "current_trial": 52, "dateTime": 1693484845546, "trialdata": {"rt": 129777, "response": {"Q0": "yes, the inspector was not useful, I had no clue why it was there from the first place.", "Q1": "No", "Q2": "No comments"}, "trial_type": "survey-text", "trial_index": 52, "time_elapsed": 2646014, "internal_node_id": "0.0-6.0-5.0"}}, {"uniqueid": "w69395823:a79694647", "current_trial": 53, "dateTime": 1693484921551, "trialdata": {"rt": 75946, "stimulus": "<h1>Completion Code Instructions (1/2)</h1>\n<br><br><br><br>\nYou have reached the end of the experiment! The completion code consists of two parts: (1) a code with 2 characters (2) a code with 6 characters. On this page, you will receive the second part of the code. The first part of the completion code will be on the next page.\n<br><br>\nThe second part of your completion code is: <b>EWEK22</b>\n<br><br>\nPlease note this down. Then, press 'Finish HIT' in order to find the first part of your completion code. Once the data has been saved, you will receive this code either in this window or in the original browser window where you started the experiment.\n", "response": 0, "trial_type": "html-button-response", "trial_index": 53, "time_elapsed": 2722018, "internal_node_id": "0.0-6.0-6.0"}}, {"uniqueid": "w69395823:a79694647", "current_trial": 54, "dateTime": 1693484922575, "trialdata": {"success": true, "trial_type": "fullscreen", "trial_index": 54, "time_elapsed": 2723043, "internal_node_id": "0.0-7.0"}}], "questiondata": {"params": {"CODE": "C6DMOQA6", "MIN_TIME": 14, "inspectCost": 1, "startTime": "Thu Aug 31 2023 13:43:06 GMT+0200 (South Africa Standard Time)", "bonusRate": 0.002, "variance": "1_2_4_8_44", "branching": "31123"}, "final_score": -164}, "eventdata": [{"eventtype": "initialized", "value": null, "timestamp": 1693482185582, "interval": 0}, {"eventtype": "window_resize", "value": [1024, 646], "timestamp": 1693482185582, "interval": 0}, {"eventtype": "window_resize", "value": [1024, 646], "timestamp": 1693482186107, "interval": 525}, {"eventtype": "window_resize", "value": [1366, 768], "timestamp": 1693482211991, "interval": 25884}], "useragent": "Mozilla/5.0 (Windows NT 10.0; Win64; x64) AppleWebKit/537.36 (KHTML, like Gecko) Chrome/116.0.0.0 Safari/537.36", "mode": "live", "id": "w69395823:a79694647", "status": "user data saved", "Beginhit": "2023-08-31 11:43:00.395959", "Beginexp": "2023-08-31 11:43:32.674565", "Endhit": "2023-08-31 12:28:49.818605", "psiturkStatus": 3, "browser": "<redacted>", "platform": "windows", "language": "en-US"}