{"condition": 0, "counterbalance": 0, "assignmentId": "a26792448", "workerId": "w11532598", "hitId": "h48733876", "currenttrial": 55, "bonus": 0, "data": [{"uniqueid": "w11532598:a26792448", "current_trial": 0, "dateTime": 1691142055787, "trialdata": {"success": true, "trial_type": "fullscreen", "trial_index": 0, "time_elapsed": 10306, "internal_node_id": "0.0-0.0"}}, {"uniqueid": "w11532598:a26792448", "current_trial": 1, "dateTime": 1691142079705, "trialdata": {"view_history": [{"page_index": 0, "viewing_time": 23907}], "rt": 23909, "trial_id": "exp_instructions_control", "trial_type": "instructions", "trial_index": 1, "time_elapsed": 34225, "internal_node_id": "0.0-1.0"}}, {"uniqueid": "w11532598:a26792448", "current_trial": 2, "dateTime": 1691142084523, "trialdata": {"success": true, "trial_type": "fullscreen", "trial_index": 2, "time_elapsed": 39043, "internal_node_id": "0.0-2.0-0.0"}}, {"uniqueid": "w11532598:a26792448", "current_trial": 3, "dateTime": 1691142695639, "trialdata": {"view_history": [{"page_index": 0, "viewing_time": 259584}, {"page_index": 1, "viewing_time": 218247}, {"page_index": 2, "viewing_time": 3180}, {"page_index": 1, "viewing_time": 1938}, {"page_index": 2, "viewing_time": 70098}, {"page_index": 3, "viewing_time": 58053}], "rt": 611100, "trial_id": "mouselab_instructions_1_control", "trial_type": "instructions", "trial_index": 3, "time_elapsed": 650159, "internal_node_id": "0.0-2.0-1.0"}}, {"uniqueid": "w11532598:a26792448", "current_trial": 4, "dateTime": 1691142730076, "trialdata": {"revealed_states": [], "clicked_states": ["2", "8", "9", "6"], "num_clicks_accrued": [0, 0, 0, 0, 0, 0, 0, 0, 0, 0, 0, 0, 0], "stateRewards": ["", -10, 10, 10, 10, -10, 10, -10, 10, 10, 10, 10, -10, -10, 10, -10, 10, -10, -10, -10, 10, 10, 10, 10, 10, -10, -10, -10, -10, -10, -10, 10, -10, 10], "withholdReward": false, "trial_id": "practice_1", "block": "test", "trialIndex": 0, "score": -8.5, "costs": -2, "simulationMode": [null, null, null, null, null], "rewards": [10, 10, -10, -10, -10], "path": ["0", "0", "23", "24", "25", "26", "29"], "rt": [19623, 1601, 260, 492, 420], "actions": ["left", "left", "left", "up", "left"], "actionTimes": [24119, 26238, 27000, 28012, 28956], "queries": {"click": {"state": {"target": ["2", "8", "9", "6"], "time": [9931, 11445, 13487, 17690]}, "edge": {"target": [], "time": []}}, "mouseover": {"state": {"target": ["1", "2", "2", "8", "9", "3", "4", "6", "7", "23", "24", "23", "23"], "time": [8331, 9391, 9666, 10417, 12226, 15492, 15583, 15916, 18966, 19750, 19981, 22802, 23127]}, "edge": {"target": [], "time": []}}, "mouseout": {"state": {"target": ["0", "1", "2", "2", "2", "8", "9", "8", "3", "4", "6", "7", "23", "24", "23", "23", "1"], "time": [8011, 9367, 9434, 9993, 10335, 12185, 14385, 15483, 15533, 15633, 18782, 19051, 19783, 22781, 22833, 26717, 31748]}, "edge": {"target": [], "time": []}}}, "displayed_time": "29.47", "trialTime": 33427, "trial_type": "mouselab-mdp", "trial_index": 4, "time_elapsed": 684594, "internal_node_id": "0.0-2.0-2.0-0.0"}}, {"uniqueid": "w11532598:a26792448", "current_trial": 5, "dateTime": 1691142763308, "trialdata": {"revealed_states": [], "clicked_states": [], "num_clicks_accrued": [0, 0, 0, 0, 0, 0, 0, 0, 0, 0, 0, 0, 0], "stateRewards": ["", -10, -10, -10, 10, 10, 10, 10, 10, 10, -10, -10, 10, 10, -10, 10, -10, -10, 10, 10, 10, -10, 10, 10, -10, -10, 10, 10, -10, -10, -10, 10, -10, -10], "withholdReward": false, "trial_id": "practice_2", "block": "test", "trialIndex": 1, "score": -26.5, "costs": 0, "simulationMode": [null, null, null, null, null], "rewards": [10, -10, -10, -10, -10], "path": ["0", "0", "23", "24", "25", "30", "33"], "rt": [22712, 505, 121, 381, 736], "actions": ["left", "left", "left", "down", "left"], "actionTimes": [25985, 27021, 27646, 28523, 29778], "queries": {"click": {"state": {"target": [], "time": []}, "edge": {"target": [], "time": []}}, "mouseover": {"state": {"target": ["12", "13", "14", "13", "12", "12", "12", "0", "23", "24", "25", "30", "30", "25", "24", "23", "23"], "time": [5740, 5776, 6005, 8635, 10293, 11003, 13168, 14354, 14612, 15224, 15487, 15836, 16486, 16570, 16872, 17136, 22288]}, "edge": {"target": [], "time": []}}, "mouseout": {"state": {"target": ["0", "12", "13", "14", "13", "12", "12", "12", "0", "23", "24", "25", "30", "30", "25", "24", "23", "23"], "time": [5720, 5757, 5988, 8161, 10269, 10570, 12804, 14336, 14585, 14953, 15321, 15513, 16286, 16506, 16854, 17120, 20553, 23120]}, "edge": {"target": [], "time": []}}}, "displayed_time": "30.29", "trialTime": 32732, "trial_type": "mouselab-mdp", "trial_index": 5, "time_elapsed": 717826, "internal_node_id": "0.0-2.0-2.0-1.0"}}, {"uniqueid": "w11532598:a26792448", "current_trial": 6, "dateTime": 1691142819113, "trialdata": {"view_history": [{"page_index": 0, "viewing_time": 44421}, {"page_index": 1, "viewing_time": 11365}], "rt": 55788, "trial_id": "mouselab_instructions_2_control", "trial_type": "instructions", "trial_index": 6, "time_elapsed": 773633, "internal_node_id": "0.0-2.0-3.0"}}, {"uniqueid": "w11532598:a26792448", "current_trial": 7, "dateTime": 1691142900749, "trialdata": {"rt": 81621, "response": {"Q0": "The cost for clicking on nodes may vary between nodes.", "Q1": "The better I perform the higher my bonus will be.", "Q2": "No, the amount of cash at each node of the web may be different each time.", "Q3": "To get the highest total score.", "Q4": "Only before moving the spider.", "Q5": "3 seconds"}, "question_order": [0, 1, 2, 3, 4, 5], "correct": {"Q0": "The cost for clicking on nodes may vary between nodes.", "Q1": "The better I perform the higher my bonus will be.", "Q2": "No, the amount of cash at each node of the web may be different each time.", "Q3": "To get the highest total score.", "Q4": "Only before moving the spider.", "Q5": "3 seconds"}, "trial_id": "mouselab_quiz_control", "trial_type": "survey-multi-choice", "trial_index": 7, "time_elapsed": 855269, "internal_node_id": "0.0-2.0-4.0"}}, {"uniqueid": "w11532598:a26792448", "current_trial": 8, "dateTime": 1691143016167, "trialdata": {"rt": 115398, "stimulus": "\n<h1> Get ready to start the game! </h1>\n\nThank you for reading the instructions. Get ready start with the 40 rounds of this game.\n<br><br>\nIf you need to take a break, feel free to take one after the end of a round, before continuing to the next one.\n<br><br>\nRemember, the more money the spider gets, the bigger your bonus will be!\n<br><br>\n<div style='text-align: center;'>Press <code>space</code> to begin.</div>\n\n<br><br>\n(If, at any point, the <code>space</code> key does not take you to the next page, click once on the text and try again.)", "response": " ", "trial_id": "mdp_ready", "trial_type": "html-keyboard-response", "trial_index": 8, "time_elapsed": 970687, "internal_node_id": "0.0-4.0-0.0"}}, {"uniqueid": "w11532598:a26792448", "current_trial": 9, "dateTime": 1691143079433, "trialdata": {"revealed_states": [], "clicked_states": ["24", "27", "3", "13", "14", "19", "22", "23", "25", "26", "8", "9", "4"], "num_clicks_accrued": [0, 0, 0, 0, 0, 0, 0, 0, 0, 0, 0, 0, 0], "stateRewards": ["", -2, -3, -5, 8, 27, 11, 43, -6, -24, -87, 69, -2, 1, 1, 9, 19, 48, -37, 9, -14, 45, 62, 1, 2, 1, 16, -81, -41, 22, 4, -6, -63, 47], "withholdReward": false, "trial_id": "mdp_trial_1", "block": "test", "trialIndex": 2, "score": 6.800000000000001, "costs": -18.2, "simulationMode": [null, null, null, null, null], "rewards": [-2, -3, -5, 8, 27], "path": ["0", "0", "1", "2", "3", "4", "5"], "rt": [43675, 183, 204, 373, 1482], "actions": ["up", "up", "up", "right", "up"], "actionTimes": [49072, 49767, 50487, 51378, 53367], "queries": {"click": {"state": {"target": ["24", "27", "3", "13", "14", "19", "22", "23", "25", "26", "8", "9", "4"], "time": [7695, 9552, 11293, 13333, 15044, 17021, 18706, 20343, 22018, 25715, 27251, 28875, 30669]}, "edge": {"target": [], "time": []}}, "mouseover": {"state": {"target": ["23", "24", "25", "26", "27", "11", "8", "3", "3", "4", "7", "13", "14", "19", "21", "22", "12", "23", "24", "25", "27", "26", "3", "8", "9", "9", "4", "3", "3", "2", "2", "1"], "time": [7064, 7148, 8167, 8485, 9150, 10015, 10198, 10717, 11032, 11748, 12150, 12399, 14083, 15330, 17467, 18451, 19232, 19764, 20732, 20784, 22615, 25480, 26383, 26633, 27747, 28064, 29432, 31264, 39578, 40429, 41468, 46846]}, "edge": {"target": [], "time": []}}, "mouseout": {"state": {"target": ["0", "23", "24", "25", "26", "27", "11", "8", "3", "3", "3", "4", "7", "13", "14", "19", "21", "22", "12", "23", "24", "25", "27", "26", "3", "8", "9", "9", "4", "3", "3", "2", "2", "1", "0", "12", "19", "21"], "time": [6179, 7114, 8117, 8350, 9067, 9700, 10115, 10699, 10733, 11397, 11698, 12132, 12182, 13881, 15301, 17438, 18165, 19198, 19250, 20698, 20752, 22398, 25446, 26216, 26600, 27680, 27864, 29132, 31131, 39194, 40212, 41105, 46812, 46962, 55561, 55579, 55596, 56226]}, "edge": {"target": [], "time": []}}}, "displayed_time": "53.87", "trialTime": 62578, "trial_type": "mouselab-mdp", "trial_index": 9, "time_elapsed": 1033951, "internal_node_id": "0.0-4.0-1.0-0.0"}}, {"uniqueid": "w11532598:a26792448", "current_trial": 10, "dateTime": 1691143108562, "trialdata": {"revealed_states": [], "clicked_states": ["23", "24", "25", "26", "27", "29"], "num_clicks_accrued": [0, 0, 0, 0, 0, 0, 0, 0, 0, 0, 0, 0, 0], "stateRewards": ["", 1, 4, -8, -5, -15, -7, 21, 13, -30, 40, -65, 1, 1, 5, -14, 35, 27, -38, -11, 36, -58, -47, -2, 4, -3, 13, -16, -49, 22, 15, -56, -44, -10], "withholdReward": false, "trial_id": "mdp_trial_2", "block": "test", "trialIndex": 3, "score": 25.6, "costs": -8.4, "simulationMode": [null, null, null, null, null], "rewards": [-2, 4, -3, 13, 22], "path": ["0", "0", "23", "24", "25", "26", "29"], "rt": [15236, 143, 222, 916, 538], "actions": ["left", "left", "left", "up", "left"], "actionTimes": [17312, 17973, 18718, 20145, 21186], "queries": {"click": {"state": {"target": ["23", "24", "25", "26", "27", "29"], "time": [2982, 4674, 6268, 8017, 9575, 11980]}, "edge": {"target": [], "time": []}}, "mouseover": {"state": {"target": ["23", "24", "25", "26", "27", "10", "10", "29", "26", "24", "23"], "time": [2600, 3280, 5159, 6859, 8470, 9981, 10796, 11722, 14124, 15011, 15490]}, "edge": {"target": [], "time": []}}, "mouseout": {"state": {"target": ["21", "0", "0", "23", "24", "25", "26", "27", "10", "10", "27", "27", "26", "29", "26", "24", "23", "22"], "time": [89, 723, 849, 3175, 5006, 6609, 8452, 9959, 10520, 10830, 10942, 11320, 11699, 14074, 14672, 15158, 23073, 25912]}, "edge": {"target": [], "time": []}}}, "displayed_time": "21.71", "trialTime": 28354, "trial_type": "mouselab-mdp", "trial_index": 10, "time_elapsed": 1063079, "internal_node_id": "0.0-4.0-1.0-1.0"}}, {"uniqueid": "w11532598:a26792448", "current_trial": 11, "dateTime": 1691143147044, "trialdata": {"revealed_states": [], "clicked_states": ["12", "13", "14", "15", "16", "17", "19", "20"], "num_clicks_accrued": [0, 0, 0, 0, 0, 0, 0, 0, 0, 0, 0, 0, 0], "stateRewards": ["", 1, 4, -8, -13, -13, -87, -77, -10, -44, 54, 42, 2, -3, -4, 12, -9, -80, 52, 9, 84, -2, -65, 1, -4, -5, -6, 8, 80, 32, 13, -59, -5, -13], "withholdReward": false, "trial_id": "mdp_trial_3", "block": "test", "trialIndex": 4, "score": 76.8, "costs": -11.200000000000001, "simulationMode": [null, null, null, null, null], "rewards": [2, -3, -4, 9, 84], "path": ["0", "0", "12", "13", "14", "19", "20"], "rt": [23485, 114, 168, 673, 364], "actions": ["right", "right", "right", "down", "right"], "actionTimes": [25005, 25639, 26326, 27514, 28388], "queries": {"click": {"state": {"target": ["12", "13", "14", "15", "16", "17", "19", "20"], "time": [2260, 4361, 6680, 9158, 10686, 13271, 15657, 18252]}, "edge": {"target": [], "time": []}}, "mouseover": {"state": {"target": ["12", "13", "14", "15", "16", "16", "17", "14", "19", "20", "20", "19", "13", "12"], "time": [2113, 2572, 5206, 8704, 9906, 10206, 12852, 15369, 15455, 17591, 18128, 20629, 22387, 23003]}, "edge": {"target": [], "time": []}}, "mouseout": {"state": {"target": ["0", "0", "12", "12", "13", "14", "15", "16", "16", "16", "17", "14", "19", "19", "20", "20", "19", "13", "12", "29", "33"], "time": [346, 1960, 2380, 2539, 4991, 8668, 9785, 10039, 10835, 12579, 15154, 15400, 15780, 17569, 17736, 20499, 22149, 22420, 30121, 30704, 36129]}, "edge": {"target": [], "time": []}}}, "displayed_time": "28.91", "trialTime": 37785, "trial_type": "mouselab-mdp", "trial_index": 11, "time_elapsed": 1101562, "internal_node_id": "0.0-4.0-1.0-2.0"}}, {"uniqueid": "w11532598:a26792448", "current_trial": 12, "dateTime": 1691143183855, "trialdata": {"revealed_states": [], "clicked_states": ["1", "2", "3", "8", "11", "9", "4", "6"], "num_clicks_accrued": [0, 0, 0, 0, 0, 0, 0, 0, 0, 0, 0, 0, 0], "stateRewards": ["", 1, -1, 4, -2, -75, -75, 84, -9, -60, -79, 59, 2, -4, 8, 9, -17, -82, 80, 14, -4, 49, 49, -1, 3, 6, -11, -33, 34, 55, 9, -57, 5, 59], "withholdReward": false, "trial_id": "mdp_trial_4", "block": "test", "trialIndex": 5, "score": 42.8, "costs": -11.200000000000001, "simulationMode": [null, null, null, null, null], "rewards": [1, -1, 4, -9, 59], "path": ["0", "0", "1", "2", "3", "8", "11"], "rt": [24985, 68, 957, 1271, 342], "actions": ["up", "up", "up", "left", "left"], "actionTimes": [27392, 27981, 29482, 31251, 32105], "queries": {"click": {"state": {"target": ["1", "2", "3", "8", "11", "9", "4", "6"], "time": [3027, 4635, 6522, 8889, 11170, 13574, 16900, 18435]}, "edge": {"target": [], "time": []}}, "mouseover": {"state": {"target": ["1", "2", "3", "8", "11", "9", "8", "3", "4", "6", "3", "8", "11", "10", "2", "7", "2", "8", "8"], "time": [2842, 3363, 5291, 8543, 10913, 13376, 15473, 15526, 16498, 17761, 20925, 21157, 22141, 23324, 23442, 23559, 23947, 25291, 25490]}, "edge": {"target": [], "time": []}}, "mouseout": {"state": {"target": ["0", "1", "0", "1", "2", "3", "8", "11", "11", "11", "8", "9", "8", "3", "4", "6", "4", "3", "8", "11", "10", "2", "7", "2", "8", "8", "7", "1"], "time": [832, 1368, 1882, 3179, 5011, 8526, 10873, 11282, 12028, 12361, 13324, 14312, 15509, 16459, 17469, 20167, 20308, 21009, 21849, 23307, 23409, 23458, 23691, 25200, 25325, 25592, 34092, 34175]}, "edge": {"target": [], "time": []}}}, "displayed_time": "32.63", "trialTime": 36135, "trial_type": "mouselab-mdp", "trial_index": 12, "time_elapsed": 1138373, "internal_node_id": "0.0-4.0-1.0-3.0"}}, {"uniqueid": "w11532598:a26792448", "current_trial": 13, "dateTime": 1691143212157, "trialdata": {"revealed_states": [], "clicked_states": ["1", "2", "3", "8", "11", "4", "6", "5", "9"], "num_clicks_accrued": [0, 0, 0, 0, 0, 0, 0, 0, 0, 0, 0, 0, 0], "stateRewards": ["", 1, 1, -3, 7, 49, 78, 26, -5, 26, 48, -43, -1, -3, 2, -5, 4, -1, -60, 10, -35, 51, 81, -2, 1, -7, -5, -39, -86, -54, 4, -3, 74, 77], "withholdReward": false, "trial_id": "mdp_trial_5", "block": "test", "trialIndex": 6, "score": 71.4, "costs": -12.600000000000001, "simulationMode": [null, null, null, null, null], "rewards": [1, 1, -3, 7, 78], "path": ["0", "0", "1", "2", "3", "4", "6"], "rt": [18506, 193, 344, 861, 572], "actions": ["up", "up", "up", "right", "right"], "actionTimes": [20452, 21163, 22028, 23413, 24506], "queries": {"click": {"state": {"target": ["1", "2", "3", "8", "11", "4", "6", "5", "9"], "time": [2840, 4458, 6113, 7734, 9413, 10998, 12544, 14134, 15860]}, "edge": {"target": [], "time": []}}, "mouseover": {"state": {"target": ["1", "2", "3", "8", "11", "8", "11", "4", "6", "5", "9", "6"], "time": [2581, 3165, 4873, 6500, 6534, 6890, 8319, 10149, 11550, 13467, 14899, 18329]}, "edge": {"target": [], "time": []}}, "mouseout": {"state": {"target": ["0", "1", "2", "3", "8", "11", "8", "11", "11", "8", "3", "4", "6", "4", "5", "9", "9", "6"], "time": [2541, 3061, 4838, 6482, 6517, 6749, 8268, 9529, 9883, 9982, 10033, 11515, 13066, 13183, 14549, 16783, 17752, 18357]}, "edge": {"target": [], "time": []}}}, "displayed_time": "25.00", "trialTime": 27611, "trial_type": "mouselab-mdp", "trial_index": 13, "time_elapsed": 1166675, "internal_node_id": "0.0-4.0-1.0-4.0"}}, {"uniqueid": "w11532598:a26792448", "current_trial": 14, "dateTime": 1691143259450, "trialdata": {"revealed_states": [], "clicked_states": ["1", "3", "11", "6", "5", "9", "29", "26", "25", "33", "30", "32", "31"], "num_clicks_accrued": [0, 0, 0, 0, 0, 0, 0, 0, 0, 0, 0, 0, 0], "stateRewards": ["", 1, -1, 1, 13, 31, -56, 72, 2, 41, 5, 63, -2, -3, -2, 3, -71, -26, 52, 13, -31, 24, -67, 2, -2, 5, 4, 66, 43, 72, 9, 86, -26, 44], "withholdReward": false, "trial_id": "mdp_trial_6", "block": "test", "trialIndex": 7, "score": 47.8, "costs": -18.2, "simulationMode": [null, null, null, null, null], "rewards": [1, -1, 1, 2, 63], "path": ["0", "0", "1", "2", "3", "8", "11"], "rt": [34241, 55, 400, 377, 134], "actions": ["up", "up", "up", "left", "left"], "actionTimes": [40501, 41090, 42026, 42900, 43558], "queries": {"click": {"state": {"target": ["1", "3", "11", "6", "5", "9", "29", "26", "25", "33", "30", "32", "31"], "time": [7937, 10124, 12678, 15358, 17944, 19596, 22697, 24732, 26334, 29291, 30813, 32801, 34348]}, "edge": {"target": [], "time": []}}, "mouseover": {"state": {"target": ["1", "2", "3", "8", "11", "8", "4", "6", "4", "5", "9", "8", "11", "10", "28", "26", "26", "29", "26", "25", "24", "33", "30", "32", "31", "24", "28", "11", "11", "10"], "time": [7554, 8240, 9670, 10723, 12145, 14139, 14470, 14736, 17453, 17603, 19189, 20990, 21269, 21619, 21889, 22006, 22287, 22492, 24158, 24989, 26937, 29002, 30004, 31306, 33421, 36285, 36402, 36536, 36920, 39619]}, "edge": {"target": [], "time": []}}, "mouseout": {"state": {"target": ["7", "1", "0", "0", "1", "2", "3", "3", "8", "11", "8", "3", "4", "6", "4", "5", "9", "8", "11", "10", "28", "26", "26", "29", "29", "26", "25", "24", "25", "33", "30", "32", "31", "31", "24", "28", "11", "11", "10", "0"], "time": [382, 2045, 2103, 7515, 8106, 9621, 10261, 10522, 11904, 14121, 14336, 14387, 14637, 17370, 17469, 18852, 20723, 21023, 21567, 21636, 21978, 22135, 22352, 22845, 23539, 24954, 26671, 28695, 28819, 29789, 31288, 33287, 34493, 36259, 36351, 36419, 36619, 39585, 39652, 45014]}, "edge": {"target": [], "time": []}}}, "displayed_time": "44.05", "trialTime": 46579, "trial_type": "mouselab-mdp", "trial_index": 14, "time_elapsed": 1213968, "internal_node_id": "0.0-4.0-1.0-5.0"}}, {"uniqueid": "w11532598:a26792448", "current_trial": 15, "dateTime": 1691143285736, "trialdata": {"revealed_states": [], "clicked_states": ["1", "3", "4", "6", "11", "8"], "num_clicks_accrued": [0, 0, 0, 0, 0, 0, 0, 0, 0, 0, 0, 0, 0], "stateRewards": ["", 2, 3, 6, -12, -29, 12, 87, 4, 35, -30, 67, 2, 3, -5, -9, 44, 69, -8, 1, 45, -8, 28, -2, -1, -8, 11, -12, -5, 81, 9, 87, 82, 88], "withholdReward": false, "trial_id": "mdp_trial_7", "block": "test", "trialIndex": 8, "score": 73.6, "costs": -8.4, "simulationMode": [null, null, null, null, null], "rewards": [2, 3, 6, 4, 67], "path": ["0", "0", "1", "2", "3", "8", "11"], "rt": [16792, 80, 2, 639, 155], "actions": ["up", "up", "up", "left", "left"], "actionTimes": [19081, 19669, 20175, 21347, 22011], "queries": {"click": {"state": {"target": ["1", "3", "4", "6", "11", "8"], "time": [2855, 4822, 6561, 8119, 10782, 13263]}, "edge": {"target": [], "time": []}}, "mouseover": {"state": {"target": ["1", "2", "3", "4", "6", "6", "3", "8", "11", "8", "3", "2"], "time": [2644, 3139, 4229, 5322, 7039, 7309, 10236, 10289, 10474, 12786, 15119, 17418]}, "edge": {"target": [], "time": []}}, "mouseout": {"state": {"target": ["0", "1", "2", "3", "4", "6", "6", "4", "3", "8", "11", "8", "3", "2"], "time": [2311, 2868, 4202, 5288, 6988, 7138, 10107, 10144, 10252, 10335, 12769, 15061, 17119, 24385]}, "edge": {"target": [], "time": []}}}, "displayed_time": "22.52", "trialTime": 25483, "trial_type": "mouselab-mdp", "trial_index": 15, "time_elapsed": 1240254, "internal_node_id": "0.0-4.0-1.0-6.0"}}, {"uniqueid": "w11532598:a26792448", "current_trial": 16, "dateTime": 1691143315517, "trialdata": {"revealed_states": [], "clicked_states": ["12", "14", "15", "17", "19", "21", "20"], "num_clicks_accrued": [0, 0, 0, 0, 0, 0, 0, 0, 0, 0, 0, 0, 0], "stateRewards": ["", -1, -3, 1, -4, -48, -63, -49, -2, -84, -19, 65, 2, -2, -2, -12, -4, 59, 9, 6, 75, 69, -13, -1, -3, -3, -2, -37, -68, -36, 13, 32, 18, -14], "withholdReward": false, "trial_id": "mdp_trial_8", "block": "test", "trialIndex": 9, "score": 69.2, "costs": -9.8, "simulationMode": [null, null, null, null, null], "rewards": [2, -2, -2, 6, 75], "path": ["0", "0", "12", "13", "14", "19", "20"], "rt": [18841, 293, 382, 725, 301], "actions": ["right", "right", "right", "down", "right"], "actionTimes": [21657, 22476, 23360, 24604, 25413], "queries": {"click": {"state": {"target": ["12", "14", "15", "17", "19", "21", "20"], "time": [3380, 5509, 8080, 9734, 12555, 14854, 17230]}, "edge": {"target": [], "time": []}}, "mouseover": {"state": {"target": ["0", "12", "13", "14", "15", "17", "14", "19", "21", "20", "19"], "time": [2835, 3160, 3745, 4975, 7758, 8595, 12067, 12324, 14775, 16821, 20172]}, "edge": {"target": [], "time": []}}, "mouseout": {"state": {"target": ["2", "1", "0", "12", "12", "13", "14", "15", "17", "15", "14", "19", "19", "21", "19", "19", "20", "19", "22"], "time": [192, 273, 3125, 3484, 3695, 4878, 7690, 8529, 10361, 11227, 12240, 12571, 14656, 14975, 15678, 16675, 19658, 27170, 27208]}, "edge": {"target": [], "time": []}}}, "displayed_time": "25.93", "trialTime": 28972, "trial_type": "mouselab-mdp", "trial_index": 16, "time_elapsed": 1270036, "internal_node_id": "0.0-4.0-1.0-7.0"}}, {"uniqueid": "w11532598:a26792448", "current_trial": 17, "dateTime": 1691143361353, "trialdata": {"revealed_states": [], "clicked_states": ["23", "25", "29", "27", "28", "30", "32", "31", "33", "9", "8", "11", "6", "5", "7"], "num_clicks_accrued": [0, 0, 0, 0, 0, 0, 0, 0, 0, 0, 0, 0, 0], "stateRewards": ["", 1, 3, 3, -10, 52, 68, 59, 12, 7, 49, 21, -2, -3, -4, -2, -2, 63, 63, -4, 44, 43, -76, -2, -3, -6, 13, 48, 36, 12, -5, -36, -33, -11], "withholdReward": false, "trial_id": "mdp_trial_9", "block": "test", "trialIndex": 10, "score": 44, "costs": -20.999999999999996, "simulationMode": [null, null, null, null, null], "rewards": [1, 3, 3, -10, 68], "path": ["0", "0", "1", "2", "3", "4", "6"], "rt": [35036, 227, 49, 427, 27], "actions": ["up", "up", "up", "right", "right"], "actionTimes": [39051, 39799, 40369, 41330, 41863], "queries": {"click": {"state": {"target": ["23", "25", "29", "27", "28", "30", "32", "31", "33", "9", "8", "11", "6", "5", "7"], "time": [4908, 6859, 9511, 11809, 13576, 15594, 18158, 19785, 21413, 24300, 26174, 27943, 29872, 32205, 34761]}, "edge": {"target": [], "time": []}}, "mouseover": {"state": {"target": ["23", "24", "24", "25", "26", "29", "26", "27", "26", "28", "25", "30", "32", "32", "31", "30", "33", "30", "25", "26", "3", "9", "8", "11", "6", "4", "5", "5", "4", "7", "4", "6", "4"], "time": [4702, 5255, 5519, 6319, 7887, 8968, 10357, 11318, 12403, 13015, 14926, 15351, 16252, 17806, 18819, 20383, 20483, 22836, 23120, 23251, 23533, 23984, 25237, 26920, 29584, 31336, 31717, 31962, 34254, 34616, 36767, 37066, 37401]}, "edge": {"target": [], "time": []}}, "mouseout": {"state": {"target": ["0", "0", "23", "23", "24", "24", "25", "26", "29", "26", "27", "26", "28", "25", "30", "32", "32", "31", "30", "33", "30", "25", "26", "3", "9", "8", "8", "11", "6", "4", "5", "5", "4", "7", "4", "6"], "time": [2950, 4669, 5014, 5221, 5288, 6120, 7837, 8800, 10321, 11301, 12336, 12787, 14104, 15134, 16021, 17537, 18635, 20348, 20458, 22337, 23101, 23184, 23450, 23601, 24837, 26297, 26653, 29237, 31279, 31695, 31735, 34187, 34450, 36742, 36918, 37382]}, "edge": {"target": [], "time": []}}}, "displayed_time": "42.39", "trialTime": 45102, "trial_type": "mouselab-mdp", "trial_index": 17, "time_elapsed": 1315871, "internal_node_id": "0.0-4.0-1.0-8.0"}}, {"uniqueid": "w11532598:a26792448", "current_trial": 18, "dateTime": 1691143384021, "trialdata": {"revealed_states": [], "clicked_states": ["12", "14", "15", "17", "16", "18"], "num_clicks_accrued": [0, 0, 0, 0, 0, 0, 0, 0, 0, 0, 0, 0, 0], "stateRewards": ["", 1, -3, -2, 14, 49, -40, -39, 2, 26, -61, 73, 1, -4, -8, 12, 79, 29, -65, -13, 55, -26, 27, -1, 3, 3, 9, -17, -60, -18, -8, 35, -88, 69], "withholdReward": false, "trial_id": "mdp_trial_10", "block": "test", "trialIndex": 11, "score": 71.6, "costs": -8.4, "simulationMode": [null, null, null, null, null], "rewards": [1, -4, -8, 12, 79], "path": ["0", "0", "12", "13", "14", "15", "16"], "rt": [13610, 152, 146, 533, 10], "actions": ["right", "right", "right", "up", "up"], "actionTimes": [15572, 16247, 16907, 17958, 18469], "queries": {"click": {"state": {"target": ["12", "14", "15", "17", "16", "18"], "time": [2980, 4617, 6306, 8047, 10422, 11958]}, "edge": {"target": [], "time": []}}, "mouseover": {"state": {"target": ["12", "13", "14", "15", "17", "16", "18", "15"], "time": [2556, 3225, 4117, 5708, 6790, 10306, 11241, 13938]}, "edge": {"target": [], "time": []}}, "mouseout": {"state": {"target": ["4", "0", "12", "12", "13", "14", "15", "17", "16", "18", "15", "16", "23"], "time": [848, 2539, 3059, 3112, 3924, 5673, 6766, 9608, 11041, 13506, 14021, 14372, 21188]}, "edge": {"target": [], "time": []}}}, "displayed_time": "19.01", "trialTime": 21926, "trial_type": "mouselab-mdp", "trial_index": 18, "time_elapsed": 1338539, "internal_node_id": "0.0-4.0-1.0-9.0"}}, {"uniqueid": "w11532598:a26792448", "current_trial": 19, "dateTime": 1691143426616, "trialdata": {"revealed_states": [], "clicked_states": ["1", "3", "8", "6", "5", "11", "17", "18", "20", "21", "22", "32", "33", "31", "27"], "num_clicks_accrued": [0, 0, 0, 0, 0, 0, 0, 0, 0, 0, 0, 0, 0], "stateRewards": ["", -2, -4, 2, 10, -17, 18, 73, 11, -32, 23, -13, -2, -4, 7, 12, -25, 66, -23, 15, 40, -76, -9, 1, 2, -7, -5, -20, 24, 3, -5, 16, -73, 70], "withholdReward": false, "trial_id": "mdp_trial_11", "block": "test", "trialIndex": 12, "score": 40, "costs": -20.999999999999996, "simulationMode": [null, null, null, null, null], "rewards": [1, 2, -7, -5, 70], "path": ["0", "0", "23", "24", "25", "30", "33"], "rt": [34092, 134, 3, 505, 421], "actions": ["left", "left", "left", "down", "left"], "actionTimes": [36046, 36698, 37200, 38237, 39184], "queries": {"click": {"state": {"target": ["1", "3", "8", "6", "5", "11", "17", "18", "20", "21", "22", "32", "33", "31", "27"], "time": [2852, 4499, 6960, 9378, 11251, 13584, 16301, 19646, 21807, 23630, 25530, 28051, 29667, 31268, 33198]}, "edge": {"target": [], "time": []}}, "mouseover": {"state": {"target": ["1", "2", "3", "4", "8", "11", "4", "6", "4", "5", "5", "9", "8", "9", "11", "10", "18", "15", "17", "17", "16", "16", "15", "18", "14", "20", "20", "19", "21", "22", "32", "33", "33", "31", "25", "26", "27", "27", "26", "30", "30", "30"], "time": [2377, 3080, 3975, 5064, 6444, 7631, 8778, 8893, 10263, 10841, 11044, 11880, 11966, 12164, 13195, 15494, 15544, 15577, 15910, 16082, 17381, 17564, 18486, 18726, 21080, 21309, 21543, 23097, 23410, 24463, 26263, 28845, 29327, 30438, 32145, 32737, 32781, 33010, 34006, 34112, 34495, 34612]}, "edge": {"target": [], "time": []}}, "mouseout": {"state": {"target": ["0", "1", "2", "3", "4", "3", "8", "11", "8", "3", "4", "6", "4", "5", "5", "9", "8", "9", "11", "10", "18", "15", "17", "17", "16", "16", "15", "18", "14", "20", "20", "20", "19", "21", "22", "32", "33", "33", "33", "31", "25", "26", "27", "27", "26", "30", "30", "30"], "time": [2338, 2982, 3956, 4999, 6160, 6327, 7497, 8692, 8727, 8760, 8795, 10196, 10742, 10864, 11631, 11913, 11984, 12928, 15460, 15510, 15561, 15595, 15927, 17117, 17402, 18309, 18660, 20895, 21118, 21476, 21822, 22778, 23179, 24079, 25695, 28712, 29179, 29683, 30185, 31862, 32731, 32764, 32815, 33951, 34041, 34294, 34546, 34909]}, "edge": {"target": [], "time": []}}}, "displayed_time": "39.68", "trialTime": 41831, "trial_type": "mouselab-mdp", "trial_index": 19, "time_elapsed": 1381135, "internal_node_id": "0.0-4.0-1.0-10.0"}}, {"uniqueid": "w11532598:a26792448", "current_trial": 20, "dateTime": 1691143455006, "trialdata": {"revealed_states": [], "clicked_states": ["1", "3", "6", "8", "11", "9", "5"], "num_clicks_accrued": [0, 0, 0, 0, 0, 0, 0, 0, 0, 0, 0, 0, 0], "stateRewards": ["", 2, -3, -5, 5, 11, -9, -33, 6, 67, 6, -30, -1, -2, -6, 13, 55, 13, 72, -14, 75, 21, -66, -2, -4, 6, 15, -1, -35, 60, 2, 51, -73, 12], "withholdReward": false, "trial_id": "mdp_trial_12", "block": "test", "trialIndex": 13, "score": 57.2, "costs": -9.8, "simulationMode": [null, null, null, null, null], "rewards": [2, -3, -5, 6, 67], "path": ["0", "0", "1", "2", "3", "8", "9"], "rt": [16541, 54, 608, 820, 1056], "actions": ["up", "up", "up", "left", "up"], "actionTimes": [20487, 21060, 22197, 23541, 25094], "queries": {"click": {"state": {"target": ["1", "3", "6", "8", "11", "9", "5"], "time": [5086, 6830, 8958, 10817, 12437, 14270, 15825]}, "edge": {"target": [], "time": []}}, "mouseover": {"state": {"target": ["0", "1", "1", "2", "3", "4", "6", "4", "8", "11", "9", "5", "3", "2", "18", "15"], "time": [3972, 4585, 4818, 5321, 6155, 7362, 8585, 9720, 10105, 11671, 13155, 14638, 18068, 18218, 18585, 18607]}, "edge": {"target": [], "time": []}}, "mouseout": {"state": {"target": ["22", "14", "12", "0", "1", "1", "2", "3", "4", "6", "4", "3", "8", "11", "9", "5", "3", "2", "18", "15"], "time": [2867, 2900, 3117, 4468, 4766, 5100, 6037, 7339, 8519, 9653, 9887, 9938, 11270, 12838, 14505, 17901, 18152, 18335, 18602, 18623]}, "edge": {"target": [], "time": []}}}, "displayed_time": "25.59", "trialTime": 27577, "trial_type": "mouselab-mdp", "trial_index": 20, "time_elapsed": 1409524, "internal_node_id": "0.0-4.0-1.0-11.0"}}, {"uniqueid": "w11532598:a26792448", "current_trial": 21, "dateTime": 1691143493462, "trialdata": {"revealed_states": [], "clicked_states": ["12", "14", "20", "15", "17", "29", "28", "9", "6", "5", "4", "3"], "num_clicks_accrued": [0, 0, 0, 0, 0, 0, 0, 0, 0, 0, 0, 0, 0], "stateRewards": ["", -2, 2, 3, -7, 76, 63, 21, 15, 35, -8, -44, 1, 1, -2, -12, 23, 24, 76, -9, 46, 66, -49, -2, -1, 7, 12, 40, -71, -45, -6, 38, -49, 46], "withholdReward": false, "trial_id": "mdp_trial_13", "block": "test", "trialIndex": 14, "score": 55.2, "costs": -16.8, "simulationMode": [null, null, null, null, null], "rewards": [-2, 2, 3, -7, 76], "path": ["0", "0", "1", "2", "3", "4", "5"], "rt": [27758, 4, 1337, 641, 660], "actions": ["up", "up", "up", "right", "up"], "actionTimes": [30328, 30851, 32717, 33877, 35040], "queries": {"click": {"state": {"target": ["12", "14", "20", "15", "17", "29", "28", "9", "6", "5", "4", "3"], "time": [3581, 5140, 7525, 9920, 12237, 16007, 18113, 19723, 22222, 23894, 25496, 27256]}, "edge": {"target": [], "time": []}}, "mouseover": {"state": {"target": ["12", "13", "14", "19", "20", "19", "15", "15", "16", "17", "18", "1", "28", "29", "26", "27", "28", "10", "8", "9", "11", "8", "3", "4", "6", "6", "5", "4", "3", "2"], "time": [3325, 4148, 4750, 5914, 7093, 8187, 9494, 9694, 10247, 11894, 12681, 15478, 15528, 15778, 16649, 16815, 17778, 18680, 18748, 18997, 20259, 21150, 21385, 21428, 21527, 21909, 22729, 24813, 27169, 27833]}, "edge": {"target": [], "time": []}}, "mouseout": {"state": {"target": ["14", "13", "12", "0", "12", "12", "0", "0", "12", "13", "14", "19", "20", "19", "14", "15", "15", "16", "17", "15", "18", "1", "28", "29", "29", "26", "27", "28", "10", "8", "9", "11", "8", "3", "4", "6", "6", "5", "4", "3", "2"], "time": [728, 760, 1012, 1219, 1260, 1693, 1902, 3011, 3898, 4731, 5798, 7088, 8139, 9354, 9377, 9611, 10052, 11742, 12530, 12648, 15447, 15495, 15545, 16143, 16615, 16727, 17761, 18612, 18699, 18930, 20014, 21130, 21170, 21409, 21510, 21545, 22663, 24747, 26811, 27783, 36809]}, "edge": {"target": [], "time": []}}}, "displayed_time": "35.56", "trialTime": 37660, "trial_type": "mouselab-mdp", "trial_index": 21, "time_elapsed": 1447980, "internal_node_id": "0.0-4.0-1.0-12.0"}}, {"uniqueid": "w11532598:a26792448", "current_trial": 22, "dateTime": 1691143543153, "trialdata": {"revealed_states": [], "clicked_states": ["1", "8", "5", "6", "11", "29", "28", "33", "31", "25", "20", "22", "21", "17", "16", "18"], "num_clicks_accrued": [0, 0, 0, 0, 0, 0, 0, 0, 0, 0, 0, 0, 0], "stateRewards": ["", 1, 1, -2, 7, -31, -6, 76, 1, -36, -16, -53, 2, 1, 7, 13, -47, -10, 47, -7, 72, 46, -56, -2, -2, -2, 11, -80, 44, 38, 16, 67, 85, -78], "withholdReward": false, "trial_id": "mdp_trial_14", "block": "test", "trialIndex": 15, "score": 52.60000000000001, "costs": -22.399999999999995, "simulationMode": [null, null, null, null, null], "rewards": [2, 1, 7, -7, 72], "path": ["0", "0", "12", "13", "14", "19", "20"], "rt": [40983, 136, 4, 403, 183], "actions": ["right", "right", "right", "down", "right"], "actionTimes": [42495, 43154, 43652, 44588, 45311], "queries": {"click": {"state": {"target": ["1", "8", "5", "6", "11", "29", "28", "33", "31", "25", "20", "22", "21", "17", "16", "18"], "time": [2066, 4313, 6929, 9052, 11035, 13252, 15407, 17004, 19101, 20714, 24163, 26053, 28379, 30504, 32388, 33945]}, "edge": {"target": [], "time": []}}, "mouseover": {"state": {"target": ["1", "2", "3", "8", "9", "5", "5", "5", "4", "6", "4", "3", "9", "11", "4", "7", "1", "29", "27", "28", "26", "33", "32", "31", "24", "25", "24", "0", "12", "14", "20", "19", "22", "19", "21", "19", "14", "17", "15", "16", "15", "14", "18", "19", "20", "19", "13", "12", "28", "28", "8", "13", "14", "17", "20"], "time": [1896, 2367, 3052, 3897, 4683, 6080, 6330, 6664, 7515, 8550, 9516, 9603, 9965, 10680, 12316, 12357, 12613, 13046, 13866, 14770, 16066, 16832, 17767, 18629, 20181, 20488, 21155, 22806, 22847, 23013, 23979, 25613, 25845, 28051, 28112, 28907, 29049, 30014, 31570, 31850, 32936, 33035, 33648, 35415, 35545, 37179, 37278, 37345, 37912, 38111, 39529, 40613, 40656, 41164, 41345]}, "edge": {"target": [], "time": []}}, "mouseout": {"state": {"target": ["1", "0", "24", "0", "1", "2", "3", "8", "9", "5", "5", "5", "4", "6", "4", "3", "9", "11", "4", "7", "1", "29", "27", "28", "26", "33", "32", "31", "24", "25", "25", "24", "0", "12", "14", "20", "19", "22", "19", "21", "19", "14", "17", "15", "16", "16", "15", "14", "18", "18", "19", "20", "19", "13", "12", "28", "28", "8", "13", "14", "17", "20", "20"], "time": [95, 261, 619, 1752, 2215, 3000, 3814, 4517, 6031, 6097, 6347, 7250, 8511, 9482, 9567, 9800, 10532, 11999, 12335, 12378, 12746, 13601, 14583, 15932, 16587, 17427, 18383, 20154, 20466, 20734, 21132, 22791, 22829, 22879, 23511, 25465, 25745, 27662, 28081, 28885, 28928, 29967, 30998, 31626, 32412, 32899, 32960, 33349, 34097, 34682, 35482, 37128, 37228, 37312, 37396, 37930, 39031, 40553, 40631, 40711, 41195, 41411, 48096]}, "edge": {"target": [], "time": []}}}, "displayed_time": "45.85", "trialTime": 48888, "trial_type": "mouselab-mdp", "trial_index": 22, "time_elapsed": 1497671, "internal_node_id": "0.0-4.0-1.0-13.0"}}, {"uniqueid": "w11532598:a26792448", "current_trial": 23, "dateTime": 1691143564250, "trialdata": {"revealed_states": [], "clicked_states": ["9", "11", "6", "5"], "num_clicks_accrued": [0, 0, 0, 0, 0, 0, 0, 0, 0, 0, 0, 0, 0], "stateRewards": ["", -1, -1, 4, -16, -75, 81, -51, -7, -84, 73, -30, -2, 1, -3, -16, -77, 33, 14, 1, 45, 87, -66, 2, 2, -5, -7, -19, -17, 79, -3, 8, 49, 47], "withholdReward": false, "trial_id": "mdp_trial_15", "block": "test", "trialIndex": 16, "score": 61.4, "costs": -5.6, "simulationMode": [null, null, null, null, null], "rewards": [-1, -1, 4, -16, 81], "path": ["0", "0", "1", "2", "3", "4", "6"], "rt": [10234, 146, 137, 1407, 109], "actions": ["up", "up", "up", "right", "right"], "actionTimes": [12196, 12843, 13500, 15420, 16037], "queries": {"click": {"state": {"target": ["9", "11", "6", "5"], "time": [3244, 5656, 7780, 9463]}, "edge": {"target": [], "time": []}}, "mouseover": {"state": {"target": ["1", "2", "3", "9", "5", "8", "11", "4", "6", "4", "5"], "time": [2408, 2548, 2692, 3076, 3565, 4843, 5327, 6380, 6427, 8618, 8961]}, "edge": {"target": [], "time": []}}, "mouseout": {"state": {"target": ["15", "4", "2", "23", "0", "0", "1", "2", "3", "9", "5", "8", "11", "4", "6", "4", "5", "6", "6", "17", "13", "12"], "time": [23, 241, 391, 507, 707, 2347, 2543, 2673, 2842, 3449, 4794, 4958, 6298, 6406, 8412, 8649, 10083, 10411, 10728, 18041, 18091, 18108]}, "edge": {"target": [], "time": []}}}, "displayed_time": "16.56", "trialTime": 20266, "trial_type": "mouselab-mdp", "trial_index": 23, "time_elapsed": 1518768, "internal_node_id": "0.0-4.0-1.0-14.0"}}, {"uniqueid": "w11532598:a26792448", "current_trial": 24, "dateTime": 1691143601165, "trialdata": {"revealed_states": [], "clicked_states": ["6", "7", "11", "10", "3", "17", "16", "18", "20", "21", "22", "31", "32"], "num_clicks_accrued": [0, 0, 0, 0, 0, 0, 0, 0, 0, 0, 0, 0, 0], "stateRewards": ["", -1, -3, -6, 14, 41, 18, 63, -14, 80, 21, 17, -2, -4, -2, -5, 13, 70, 8, -4, -64, -10, -20, 2, -1, 4, -1, -17, -55, 42, -7, 47, 54, 15], "withholdReward": false, "trial_id": "mdp_trial_16", "block": "test", "trialIndex": 17, "score": 38.8, "costs": -18.2, "simulationMode": [null, null, null, null, null], "rewards": [-2, -4, -2, -5, 70], "path": ["0", "0", "12", "13", "14", "15", "17"], "rt": [29023, 9, 64, 643, 99], "actions": ["right", "right", "right", "up", "right"], "actionTimes": [30252, 30777, 31382, 32562, 33183], "queries": {"click": {"state": {"target": ["6", "7", "11", "10", "3", "17", "16", "18", "20", "21", "22", "31", "32"], "time": [2648, 4983, 7722, 10448, 12548, 14993, 16903, 18552, 20378, 22051, 23715, 25785, 28024]}, "edge": {"target": [], "time": []}}, "mouseover": {"state": {"target": ["1", "2", "3", "4", "6", "5", "4", "7", "3", "9", "11", "10", "3", "4", "5", "5", "4", "4", "3", "7", "13", "15", "17", "16", "15", "18", "20", "20", "21", "22", "31", "32", "33", "33"], "time": [1681, 1769, 1947, 2249, 2332, 3085, 4599, 4699, 5584, 5934, 7332, 8835, 10934, 10960, 11068, 11299, 11894, 12045, 12090, 13433, 14447, 14566, 14764, 15635, 17145, 17301, 19854, 20197, 21898, 22912, 25547, 27630, 28548, 28715]}, "edge": {"target": [], "time": []}}, "mouseout": {"state": {"target": ["0", "1", "2", "3", "4", "6", "5", "4", "7", "3", "9", "11", "11", "10", "3", "4", "5", "5", "4", "4", "3", "3", "7", "13", "15", "17", "16", "16", "15", "18", "20", "20", "20", "21", "22", "31", "32", "33", "33"], "time": [1266, 1765, 1815, 2215, 2298, 2984, 4557, 4665, 5518, 5605, 7068, 7865, 8687, 10817, 10953, 10981, 11105, 11873, 11945, 12076, 12665, 13102, 14081, 14547, 14681, 15066, 17031, 17107, 17235, 19818, 19879, 20483, 21678, 22073, 25231, 27380, 28202, 28583, 29217]}, "edge": {"target": [], "time": []}}}, "displayed_time": "33.70", "trialTime": 35973, "trial_type": "mouselab-mdp", "trial_index": 24, "time_elapsed": 1555684, "internal_node_id": "0.0-4.0-1.0-15.0"}}, {"uniqueid": "w11532598:a26792448", "current_trial": 25, "dateTime": 1691143643672, "trialdata": {"revealed_states": [], "clicked_states": ["12", "14", "17", "18", "19", "21", "32", "31", "29", "28", "11", "10", "6", "5"], "num_clicks_accrued": [0, 0, 0, 0, 0, 0, 0, 0, 0, 0, 0, 0, 0], "stateRewards": ["", -1, 1, -6, -1, 80, 23, 2, -11, 73, -81, 59, 1, 3, 5, -1, -26, 28, -3, 16, -59, -13, -50, -2, -2, 2, 15, -50, 86, 17, -4, 37, 35, 44], "withholdReward": false, "trial_id": "mdp_trial_17", "block": "test", "trialIndex": 18, "score": 79.4, "costs": -19.599999999999998, "simulationMode": [null, null, null, null, null], "rewards": [-2, -2, 2, 15, 86], "path": ["0", "0", "23", "24", "25", "26", "28"], "rt": [33984, 16, 237, 1000, 108], "actions": ["left", "left", "left", "up", "right"], "actionTimes": [35497, 36030, 36801, 38314, 38922], "queries": {"click": {"state": {"target": ["12", "14", "17", "18", "19", "21", "32", "31", "29", "28", "11", "10", "6", "5"], "time": [2326, 3995, 6163, 8054, 10335, 12436, 14928, 17551, 19607, 21765, 24284, 25933, 28085, 29836]}, "edge": {"target": [], "time": []}}, "mouseover": {"state": {"target": ["12", "13", "14", "15", "17", "16", "15", "18", "14", "20", "20", "19", "20", "21", "22", "32", "33", "31", "25", "29", "29", "29", "27", "28", "10", "9", "11", "10", "7", "6", "2", "2", "5", "4", "2", "1", "28", "28"], "time": [2060, 2631, 3458, 4481, 5403, 6830, 7551, 7781, 8734, 8919, 9230, 10076, 10626, 12144, 12930, 14477, 15914, 16661, 19043, 19085, 19336, 19414, 20045, 21036, 22137, 22339, 23410, 25581, 27292, 27659, 29049, 29269, 29708, 32985, 33110, 33193, 33277, 33510]}, "edge": {"target": [], "time": []}}, "mouseout": {"state": {"target": ["21", "0", "12", "13", "14", "15", "17", "16", "15", "18", "14", "20", "20", "19", "20", "21", "22", "32", "33", "31", "25", "29", "29", "29", "27", "28", "10", "9", "11", "10", "7", "6", "6", "2", "2", "5", "5", "6", "4", "2", "1", "28"], "time": [464, 2011, 2531, 3383, 4397, 5334, 6770, 7497, 7607, 8697, 8867, 8976, 9839, 10596, 11911, 12591, 13995, 15158, 16528, 18965, 19079, 19113, 19367, 19989, 20997, 22063, 22227, 23315, 25263, 26447, 27399, 28127, 28982, 29096, 29293, 30024, 31248, 31380, 33060, 33127, 33211, 33377]}, "edge": {"target": [], "time": []}}}, "displayed_time": "39.45", "trialTime": 41610, "trial_type": "mouselab-mdp", "trial_index": 25, "time_elapsed": 1598190, "internal_node_id": "0.0-4.0-1.0-16.0"}}, {"uniqueid": "w11532598:a26792448", "current_trial": 26, "dateTime": 1691143664226, "trialdata": {"revealed_states": [], "clicked_states": ["5", "7", "11"], "num_clicks_accrued": [0, 0, 0, 0, 0, 0, 0, 0, 0, 0, 0, 0, 0], "stateRewards": ["", -2, 2, 5, -14, -56, 64, 84, -5, 52, 39, 85, -2, 1, 7, 8, 21, 29, -78, -9, -10, -69, 10, -2, -1, -7, 15, 72, 20, 41, -2, 52, 80, 22], "withholdReward": false, "trial_id": "mdp_trial_18", "block": "test", "trialIndex": 19, "score": 70.8, "costs": -4.199999999999999, "simulationMode": [null, null, null, null, null], "rewards": [-2, 2, 5, -14, 84], "path": ["0", "0", "1", "2", "3", "4", "7"], "rt": [9054, 218, 113, 692, 160], "actions": ["up", "up", "up", "right", "down"], "actionTimes": [11793, 12576, 13192, 14405, 15073], "queries": {"click": {"state": {"target": ["5", "7", "11"], "time": [3579, 5937, 8405]}, "edge": {"target": [], "time": []}}, "mouseover": {"state": {"target": ["7", "5", "6", "7", "2", "9", "11", "8", "16"], "time": [3110, 3342, 4029, 5558, 6617, 6911, 7925, 9067, 9111]}, "edge": {"target": [], "time": []}}, "mouseout": {"state": {"target": ["28", "8", "2", "1", "0", "7", "5", "6", "7", "2", "9", "11", "8", "16"], "time": [958, 1174, 1384, 1745, 3076, 3126, 3930, 5442, 6596, 6672, 7675, 9062, 9090, 9135]}, "edge": {"target": [], "time": []}}}, "displayed_time": "16.74", "trialTime": 19612, "trial_type": "mouselab-mdp", "trial_index": 26, "time_elapsed": 1618743, "internal_node_id": "0.0-4.0-1.0-17.0"}}, {"uniqueid": "w11532598:a26792448", "current_trial": 27, "dateTime": 1691143689023, "trialdata": {"revealed_states": [], "clicked_states": ["13", "17", "18", "21", "22", "5"], "num_clicks_accrued": [0, 0, 0, 0, 0, 0, 0, 0, 0, 0, 0, 0, 0], "stateRewards": ["", 2, -2, -3, 10, -4, -1, -11, -8, -9, -36, -78, 2, 1, 7, -7, 44, -1, -31, -1, 26, 47, 83, 2, -4, -4, -6, -52, -76, -81, -1, -59, 45, 67], "withholdReward": false, "trial_id": "mdp_trial_19", "block": "test", "trialIndex": 20, "score": 83.6, "costs": -8.4, "simulationMode": [null, null, null, null, null], "rewards": [2, 1, 7, -1, 83], "path": ["0", "0", "12", "13", "14", "19", "22"], "rt": [14041, 22, 351, 492, 620], "actions": ["right", "right", "right", "down", "left"], "actionTimes": [17628, 18157, 19022, 20010, 21138], "queries": {"click": {"state": {"target": ["13", "17", "18", "21", "22", "5"], "time": [5671, 7953, 9676, 11925, 13877, 15586]}, "edge": {"target": [], "time": []}}, "mouseover": {"state": {"target": ["12", "13", "13", "14", "15", "17", "17", "16", "18", "14", "20", "20", "21", "22", "7", "4", "5"], "time": [4149, 5214, 5581, 6153, 7156, 7282, 7697, 8377, 9417, 10288, 10382, 10737, 11419, 12618, 14625, 14654, 14735]}, "edge": {"target": [], "time": []}}, "mouseout": {"state": {"target": ["21", "0", "12", "13", "13", "14", "15", "17", "17", "16", "18", "14", "20", "20", "21", "22", "7", "4", "5", "5"], "time": [2580, 4132, 4764, 5275, 6051, 7118, 7264, 7299, 8326, 9326, 10251, 10344, 10404, 11335, 12367, 14518, 14648, 14678, 15740, 16602]}, "edge": {"target": [], "time": []}}}, "displayed_time": "21.65", "trialTime": 23934, "trial_type": "mouselab-mdp", "trial_index": 27, "time_elapsed": 1643541, "internal_node_id": "0.0-4.0-1.0-18.0"}}, {"uniqueid": "w11532598:a26792448", "current_trial": 28, "dateTime": 1691143727099, "trialdata": {"revealed_states": [], "clicked_states": ["29", "28", "32", "21", "20", "16", "6", "7", "9", "11", "10"], "num_clicks_accrued": [0, 0, 0, 0, 0, 0, 0, 0, 0, 0, 0, 0, 0], "stateRewards": ["", -1, -3, -7, -7, -76, 30, -49, 11, -70, 56, 2, 1, 4, -3, -14, -59, -83, -25, -9, -21, -67, -73, -2, 4, 4, -9, -11, -32, 60, 9, -87, 22, -64], "withholdReward": false, "trial_id": "mdp_trial_20", "block": "test", "trialIndex": 21, "score": 40.599999999999994, "costs": -15.400000000000002, "simulationMode": [null, null, null, null, null], "rewards": [-1, -3, -7, 11, 56], "path": ["0", "0", "1", "2", "3", "8", "10"], "rt": [28314, 79, 49, 725, 196], "actions": ["up", "up", "up", "left", "down"], "actionTimes": [30488, 31089, 31674, 32918, 33622], "queries": {"click": {"state": {"target": ["29", "28", "32", "21", "20", "16", "6", "7", "9", "11", "10"], "time": [3739, 5269, 7333, 9993, 12685, 15254, 18453, 20578, 22235, 23893, 25876]}, "edge": {"target": [], "time": []}}, "mouseover": {"state": {"target": ["0", "23", "24", "25", "26", "29", "27", "28", "30", "33", "32", "31", "21", "22", "20", "20", "17", "16", "18", "6", "6", "5", "4", "7", "9", "11", "10", "3"], "time": [2578, 2744, 2764, 3047, 3339, 3539, 4113, 5047, 5614, 5843, 7089, 7842, 9723, 10959, 12174, 12489, 13591, 14989, 15910, 17289, 18246, 18790, 19795, 19925, 21664, 23075, 24644, 28872]}, "edge": {"target": [], "time": []}}, "mouseout": {"state": {"target": ["23", "0", "23", "24", "25", "26", "29", "27", "28", "30", "33", "32", "31", "21", "22", "20", "20", "17", "16", "18", "6", "6", "5", "4", "7", "9", "11", "10", "10", "3", "28"], "time": [1005, 2610, 2759, 2806, 3256, 3423, 3843, 4744, 5559, 5720, 6843, 7574, 9252, 10676, 12123, 12192, 13210, 14833, 15575, 16990, 17502, 18703, 19748, 19889, 21477, 22825, 24428, 26011, 28805, 35948, 36590]}, "edge": {"target": [], "time": []}}}, "displayed_time": "34.13", "trialTime": 37136, "trial_type": "mouselab-mdp", "trial_index": 28, "time_elapsed": 1681617, "internal_node_id": "0.0-4.0-1.0-19.0"}}, {"uniqueid": "w11532598:a26792448", "current_trial": 29, "dateTime": 1691143766748, "trialdata": {"revealed_states": [], "clicked_states": ["9", "7", "5", "27", "29", "33", "31", "21", "22", "16"], "num_clicks_accrued": [0, 0, 0, 0, 0, 0, 0, 0, 0, 0, 0, 0, 0], "stateRewards": ["", -1, 2, 7, 8, 75, 67, -11, 6, 52, -17, 38, -1, 4, -8, 14, 74, -37, -17, -12, 52, 55, 71, -2, -1, -5, 2, 21, 6, -88, -14, 64, -61, -47], "withholdReward": false, "trial_id": "mdp_trial_21", "block": "test", "trialIndex": 22, "score": 69, "costs": -14.000000000000002, "simulationMode": [null, null, null, null, null], "rewards": [-1, 4, -8, 14, 74], "path": ["0", "0", "12", "13", "14", "15", "16"], "rt": [31031, 35, 6, 657, 66], "actions": ["right", "right", "right", "up", "up"], "actionTimes": [32795, 33374, 33913, 35101, 35675], "queries": {"click": {"state": {"target": ["9", "7", "5", "27", "29", "33", "31", "21", "22", "16"], "time": [2758, 5192, 6853, 9301, 10955, 13963, 17021, 19513, 22149, 25527]}, "edge": {"target": [], "time": []}}, "mouseover": {"state": {"target": ["2", "3", "9", "11", "10", "2", "7", "6", "5", "4", "1", "10", "27", "29", "25", "33", "32", "31", "21", "20", "20", "19", "22", "17", "16", "18", "15", "17", "15", "18", "15", "16"], "time": [1858, 1924, 2323, 3576, 3771, 4396, 4599, 5559, 6213, 8032, 8422, 8560, 8830, 10742, 11616, 13373, 14447, 16556, 19320, 20493, 20642, 21406, 21673, 23125, 24938, 26443, 28390, 29772, 29938, 30066, 31140, 31321]}, "edge": {"target": [], "time": []}}, "mouseout": {"state": {"target": ["23", "0", "2", "3", "9", "9", "11", "10", "2", "7", "6", "5", "5", "4", "7", "1", "10", "27", "29", "25", "33", "32", "31", "31", "21", "20", "20", "19", "22", "17", "16", "18", "15", "17", "15", "18", "15", "16", "19"], "time": [526, 1824, 1890, 1973, 2944, 3120, 3691, 4390, 4425, 5474, 6177, 7036, 8010, 8144, 8327, 8556, 8590, 10281, 11559, 12623, 14309, 16235, 17038, 18700, 20276, 20514, 21368, 21639, 22858, 24849, 26109, 28372, 28422, 29838, 30038, 31122, 31299, 31961, 37922]}, "edge": {"target": [], "time": []}}}, "displayed_time": "36.21", "trialTime": 38771, "trial_type": "mouselab-mdp", "trial_index": 29, "time_elapsed": 1721266, "internal_node_id": "0.0-4.0-1.0-20.0"}}, {"uniqueid": "w11532598:a26792448", "current_trial": 30, "dateTime": 1691143815272, "trialdata": {"revealed_states": [], "clicked_states": ["5", "7", "11", "10", "29"], "num_clicks_accrued": [0, 0, 0, 0, 0, 0, 0, 0, 0, 0, 0, 0, 0], "stateRewards": ["", -1, -3, -7, -4, -85, -70, 79, 8, 84, -66, 42, 2, -2, -3, -16, -54, -66, 68, -3, 21, -14, 7, -2, -1, -3, -8, 75, 80, 86, -7, -84, 73, -16], "withholdReward": false, "trial_id": "mdp_trial_22", "block": "test", "trialIndex": 23, "score": 65, "costs": -7, "simulationMode": [null, null, null, null, null], "rewards": [-2, -1, -3, -8, 86], "path": ["0", "0", "23", "24", "25", "26", "29"], "rt": [15670, 95, 67, 682, 431], "actions": ["left", "left", "left", "up", "left"], "actionTimes": [41418, 42040, 42643, 43860, 44792], "queries": {"click": {"state": {"target": ["5", "7", "11", "10", "29"], "time": [26621, 28228, 30033, 32365, 34559]}, "edge": {"target": [], "time": []}}, "mouseover": {"state": {"target": ["4", "7", "2", "3", "5", "6", "7", "8", "9", "11", "10", "27", "26", "29", "25", "30", "33", "26"], "time": [25802, 25890, 26141, 26239, 26306, 27074, 27871, 28695, 28878, 29803, 30613, 32890, 33956, 34122, 35541, 36324, 36637, 37273]}, "edge": {"target": [], "time": []}}, "mouseout": {"state": {"target": ["24", "29", "1", "33", "31", "23", "0", "4", "7", "2", "3", "5", "6", "7", "8", "9", "11", "10", "27", "26", "29", "25", "30", "33", "29", "26", "29", "29", "29", "29"], "time": [105, 206, 455, 1240, 1414, 1659, 25778, 25872, 26005, 26205, 26289, 26739, 27592, 28385, 28728, 29509, 30526, 32593, 33922, 33973, 35445, 36290, 36391, 36824, 36956, 37481, 37539, 37872, 38055, 46473]}, "edge": {"target": [], "time": []}}}, "displayed_time": "45.31", "trialTime": 47664, "trial_type": "mouselab-mdp", "trial_index": 30, "time_elapsed": 1769791, "internal_node_id": "0.0-4.0-1.0-21.0"}}, {"uniqueid": "w11532598:a26792448", "current_trial": 31, "dateTime": 1691143856108, "trialdata": {"revealed_states": [], "clicked_states": ["29", "28", "32", "9", "5", "17", "18", "21", "22"], "num_clicks_accrued": [0, 0, 0, 0, 0, 0, 0, 0, 0, 0, 0, 0, 0], "stateRewards": ["", -2, 2, -5, -6, 10, -66, -58, -10, -11, -63, -70, -1, -4, -5, 7, 66, -64, -43, -3, 45, -37, 4, -2, -2, -6, -4, -30, 33, 43, 15, -32, -65, -59], "withholdReward": false, "trial_id": "mdp_trial_23", "block": "test", "trialIndex": 24, "score": 16.4, "costs": -12.600000000000001, "simulationMode": [null, null, null, null, null], "rewards": [-2, -2, -6, -4, 43], "path": ["0", "0", "23", "24", "25", "26", "29"], "rt": [30334, 323, 472, 1156, 598], "actions": ["left", "left", "left", "up", "left"], "actionTimes": [32232, 33068, 34059, 35712, 36819], "queries": {"click": {"state": {"target": ["29", "28", "32", "9", "5", "17", "18", "21", "22"], "time": [3339, 5763, 7719, 10268, 13209, 16184, 19088, 21218, 24183]}, "edge": {"target": [], "time": []}}, "mouseover": {"state": {"target": ["0", "23", "24", "26", "29", "27", "26", "25", "28", "28", "25", "33", "32", "31", "8", "9", "11", "5", "6", "16", "17", "16", "18", "18", "14", "20", "20", "21", "22", "13", "6", "5", "4", "3", "10", "1", "0", "31", "32"], "time": [2291, 2435, 2535, 2835, 2993, 3759, 4378, 4513, 5069, 5585, 6360, 6422, 7319, 8299, 9435, 9601, 11007, 12369, 13876, 15552, 15992, 16917, 18334, 18997, 19561, 19592, 19902, 20717, 21804, 24910, 25522, 25753, 26318, 26601, 26785, 26934, 27051, 27484, 27951]}, "edge": {"target": [], "time": []}}, "mouseout": {"state": {"target": ["29", "25", "31", "0", "0", "23", "24", "26", "29", "27", "26", "25", "28", "28", "25", "33", "32", "31", "8", "9", "11", "5", "6", "16", "17", "16", "18", "18", "14", "20", "20", "21", "22", "13", "6", "5", "4", "3", "10", "1", "0", "31"], "time": [751, 785, 801, 1920, 2336, 2502, 2653, 2853, 3466, 4355, 4455, 5049, 5321, 6322, 6401, 7206, 8055, 9399, 9501, 10790, 11986, 13607, 15469, 15602, 16653, 18119, 18601, 19539, 19586, 19615, 20447, 21688, 24821, 24968, 25564, 26287, 26384, 26735, 26834, 26967, 27068, 27668]}, "edge": {"target": [], "time": []}}}, "displayed_time": "37.36", "trialTime": 39784, "trial_type": "mouselab-mdp", "trial_index": 31, "time_elapsed": 1810627, "internal_node_id": "0.0-4.0-1.0-22.0"}}, {"uniqueid": "w11532598:a26792448", "current_trial": 32, "dateTime": 1691143893750, "trialdata": {"revealed_states": [], "clicked_states": ["9", "7", "27", "28", "33", "31", "21", "20", "16", "18"], "num_clicks_accrued": [0, 0, 0, 0, 0, 0, 0, 0, 0, 0, 0, 0, 0], "stateRewards": ["", -2, 1, 6, -2, -10, -78, -69, 14, -15, 7, -1, 1, -1, -2, 13, 77, 32, 87, 5, -74, 30, -26, 1, 3, 4, 12, 39, 54, -43, 2, 10, 23, 13], "withholdReward": false, "trial_id": "mdp_trial_24", "block": "test", "trialIndex": 25, "score": 84, "costs": -14.000000000000002, "simulationMode": [null, null, null, null, null], "rewards": [1, -1, -2, 13, 87], "path": ["0", "0", "12", "13", "14", "15", "18"], "rt": [27253, 95, 474, 569, 599], "actions": ["right", "right", "right", "up", "left"], "actionTimes": [30124, 30742, 31737, 32827, 33927], "queries": {"click": {"state": {"target": ["9", "7", "27", "28", "33", "31", "21", "20", "16", "18"], "time": [4407, 6584, 9580, 12007, 13603, 15774, 18179, 20497, 22242, 25491]}, "edge": {"target": [], "time": []}}, "mouseover": {"state": {"target": ["1", "2", "3", "9", "9", "11", "10", "2", "7", "7", "6", "5", "3", "27", "29", "28", "25", "33", "32", "31", "22", "21", "20", "17", "16", "15", "18", "15"], "time": [2911, 2970, 3028, 3442, 4182, 4737, 5331, 5889, 5957, 6323, 6847, 7564, 8825, 9207, 10678, 11725, 12844, 12914, 14469, 15148, 16710, 17957, 18903, 20881, 21731, 22871, 23221, 26326]}, "edge": {"target": [], "time": []}}, "mouseout": {"state": {"target": ["32", "31", "0", "1", "2", "3", "9", "9", "11", "10", "2", "7", "7", "6", "5", "3", "27", "27", "29", "28", "25", "33", "32", "31", "22", "21", "20", "17", "16", "15", "18", "15", "18"], "time": [1406, 1424, 2906, 2936, 3022, 3058, 3926, 4534, 5326, 5865, 5927, 5990, 6708, 7461, 8807, 8858, 9683, 10298, 11440, 12761, 12874, 13765, 15133, 16416, 17591, 18624, 20714, 21699, 22772, 22902, 26245, 28614, 35558]}, "edge": {"target": [], "time": []}}}, "displayed_time": "34.44", "trialTime": 36663, "trial_type": "mouselab-mdp", "trial_index": 32, "time_elapsed": 1848268, "internal_node_id": "0.0-4.0-1.0-23.0"}}, {"uniqueid": "w11532598:a26792448", "current_trial": 33, "dateTime": 1691143924197, "trialdata": {"revealed_states": [], "clicked_states": ["29", "33", "31", "9", "5", "17", "18"], "num_clicks_accrued": [0, 0, 0, 0, 0, 0, 0, 0, 0, 0, 0, 0, 0], "stateRewards": ["", 1, 4, 5, 8, -55, -11, 8, 16, -37, 77, -22, -2, 3, -8, -10, 45, 87, -67, 4, 17, -33, -22, -1, -3, 7, 6, -39, -85, 75, -1, 7, -48, 45], "withholdReward": false, "trial_id": "mdp_trial_25", "block": "test", "trialIndex": 26, "score": 60.2, "costs": -9.8, "simulationMode": [null, null, null, null, null], "rewards": [-2, 3, -8, -10, 87], "path": ["0", "0", "12", "13", "14", "15", "17"], "rt": [18816, 27, 508, 728, 739], "actions": ["right", "right", "right", "up", "right"], "actionTimes": [22601, 23143, 24176, 25429, 26691], "queries": {"click": {"state": {"target": ["29", "33", "31", "9", "5", "17", "18"], "time": [5566, 8031, 9781, 11511, 14459, 17542, 19249]}, "edge": {"target": [], "time": []}}, "mouseover": {"state": {"target": ["24", "25", "29", "27", "28", "30", "33", "32", "31", "24", "9", "11", "5", "6", "16", "17", "16", "18", "15"], "time": [4814, 4836, 5280, 5863, 6518, 7263, 7537, 8732, 9561, 10906, 11267, 11938, 13830, 15166, 16715, 16966, 17858, 18903, 20693]}, "edge": {"target": [], "time": []}}, "mouseout": {"state": {"target": ["0", "0", "24", "25", "29", "27", "28", "30", "33", "32", "31", "31", "24", "9", "11", "5", "6", "16", "17", "16", "18", "15", "17", "17", "17", "14"], "time": [1938, 4789, 4832, 5097, 5744, 6479, 7180, 7281, 8400, 9384, 9834, 10883, 10988, 11767, 13426, 14719, 16697, 16732, 17685, 18613, 20667, 20899, 21029, 21201, 28614, 28680]}, "edge": {"target": [], "time": []}}}, "displayed_time": "27.23", "trialTime": 29517, "trial_type": "mouselab-mdp", "trial_index": 33, "time_elapsed": 1878714, "internal_node_id": "0.0-4.0-1.0-24.0"}}, {"uniqueid": "w11532598:a26792448", "current_trial": 34, "dateTime": 1691143959187, "trialdata": {"revealed_states": [], "clicked_states": ["5", "10", "27", "28", "33"], "num_clicks_accrued": [0, 0, 0, 0, 0, 0, 0, 0, 0, 0, 0, 0, 0], "stateRewards": ["", -1, -3, 3, 5, 56, 39, 50, -1, -80, 33, -46, 1, -2, -6, -8, 87, 48, 54, -11, -20, -64, -54, -2, 3, -7, -3, 12, 88, 35, -16, -46, -70, -3], "withholdReward": false, "trial_id": "mdp_trial_26", "block": "test", "trialIndex": 27, "score": 72, "costs": -7, "simulationMode": [null, null, null, null, null], "rewards": [-2, 3, -7, -3, 88], "path": ["0", "0", "23", "24", "25", "26", "28"], "rt": [12690, 243, 595, 658, 384], "actions": ["left", "left", "left", "up", "right"], "actionTimes": [15526, 16267, 17369, 18533, 19439], "queries": {"click": {"state": {"target": ["5", "10", "27", "28", "33"], "time": [3652, 5812, 9169, 11037, 13256]}, "edge": {"target": [], "time": []}}, "mouseover": {"state": {"target": ["4", "5", "6", "7", "2", "10", "11", "9", "26", "27", "27", "29", "26", "28", "25", "33", "25"], "time": [3219, 3352, 3959, 4725, 5252, 5486, 6156, 6804, 8302, 8485, 8694, 9688, 10581, 10738, 12383, 12701, 13570]}, "edge": {"target": [], "time": []}}, "mouseout": {"state": {"target": ["0", "4", "5", "6", "7", "2", "10", "11", "9", "26", "27", "27", "27", "29", "26", "28", "25", "33", "25", "28", "28", "24", "31"], "time": [3102, 3303, 3767, 4509, 5188, 5352, 6005, 6742, 8191, 8373, 8535, 9278, 9425, 10556, 10609, 11774, 12480, 13523, 13634, 13792, 25257, 25318, 25901]}, "edge": {"target": [], "time": []}}}, "displayed_time": "19.95", "trialTime": 34063, "trial_type": "mouselab-mdp", "trial_index": 34, "time_elapsed": 1913705, "internal_node_id": "0.0-4.0-1.0-25.0"}}, {"uniqueid": "w11532598:a26792448", "current_trial": 35, "dateTime": 1691144006450, "trialdata": {"revealed_states": [], "clicked_states": ["5", "9", "29"], "num_clicks_accrued": [0, 0, 0, 0, 0, 0, 0, 0, 0, 0, 0, 0, 0], "stateRewards": ["", -2, -2, -7, -13, -10, 49, -68, -1, 84, 70, 88, 1, 4, 4, 12, -57, 25, 30, 8, -1, -77, 57, 2, 3, 2, 3, -18, -80, 23, -15, -41, 70, 11], "withholdReward": false, "trial_id": "mdp_trial_27", "block": "test", "trialIndex": 28, "score": 67.8, "costs": -4.199999999999999, "simulationMode": [null, null, null, null, null], "rewards": [-2, -2, -7, -1, 84], "path": ["0", "0", "1", "2", "3", "8", "9"], "rt": [10639, 361, 673, 781, 767], "actions": ["up", "up", "up", "left", "up"], "actionTimes": [38905, 39981, 41166, 42457, 43725], "queries": {"click": {"state": {"target": ["5", "9", "29"], "time": [29303, 32607, 34764]}, "edge": {"target": [], "time": []}}, "mouseover": {"state": {"target": ["7", "5", "6", "7", "9", "11", "10", "27", "29", "28"], "time": [28768, 29086, 29837, 30792, 31278, 32860, 33034, 33866, 34599, 35266]}, "edge": {"target": [], "time": []}}, "mouseout": {"state": {"target": ["23", "0", "0", "7", "5", "6", "7", "9", "11", "10", "27", "29", "28", "9", "9", "23"], "time": [24854, 25024, 28689, 28826, 29434, 30224, 31272, 32668, 33017, 33455, 34594, 34972, 35858, 36121, 45438, 45553]}, "edge": {"target": [], "time": []}}}, "displayed_time": "44.28", "trialTime": 46219, "trial_type": "mouselab-mdp", "trial_index": 35, "time_elapsed": 1960969, "internal_node_id": "0.0-4.0-1.0-26.0"}}, {"uniqueid": "w11532598:a26792448", "current_trial": 36, "dateTime": 1691144040940, "trialdata": {"revealed_states": [], "clicked_states": ["5", "10", "9", "29", "33", "31", "22", "20", "16", "18"], "num_clicks_accrued": [0, 0, 0, 0, 0, 0, 0, 0, 0, 0, 0, 0, 0], "stateRewards": ["", 1, 2, 8, -2, 23, -69, -18, -16, 54, -21, 71, -1, -4, 7, 11, 43, -6, 88, 6, -55, 72, 43, 1, -3, -2, -1, 68, -31, -54, 4, -8, 25, -2], "withholdReward": false, "trial_id": "mdp_trial_28", "block": "test", "trialIndex": 29, "score": 87, "costs": -14.000000000000002, "simulationMode": [null, null, null, null, null], "rewards": [-1, -4, 7, 11, 88], "path": ["0", "0", "12", "13", "14", "15", "18"], "rt": [24888, 264, 182, 706, 890], "actions": ["right", "right", "right", "up", "left"], "actionTimes": [26994, 27778, 28463, 29673, 31089], "queries": {"click": {"state": {"target": ["5", "10", "9", "29", "33", "31", "22", "20", "16", "18"], "time": [3004, 5174, 6824, 9406, 12403, 14170, 16092, 18217, 20289, 22536]}, "edge": {"target": [], "time": []}}, "mouseover": {"state": {"target": ["3", "5", "6", "7", "2", "10", "11", "9", "11", "27", "29", "25", "33", "32", "31", "22", "21", "20", "17", "16", "18", "6", "4", "3", "7"], "time": [2206, 2694, 3548, 4147, 4596, 4711, 5604, 6398, 7258, 7544, 9015, 10302, 12194, 13018, 13755, 15615, 16598, 17466, 19095, 19764, 21050, 23432, 24394, 24459, 24793]}, "edge": {"target": [], "time": []}}, "mouseout": {"state": {"target": ["2", "1", "3", "5", "6", "7", "2", "10", "11", "9", "11", "27", "29", "25", "33", "32", "31", "22", "21", "20", "17", "16", "18", "6", "4", "3", "7", "18"], "time": [734, 777, 2412, 3215, 3958, 4577, 4660, 5380, 6183, 7217, 7298, 8677, 9901, 12079, 12937, 13618, 15182, 16332, 17261, 19013, 19584, 20932, 22723, 24360, 24412, 24747, 24811, 25479]}, "edge": {"target": [], "time": []}}}, "displayed_time": "31.60", "trialTime": 33396, "trial_type": "mouselab-mdp", "trial_index": 36, "time_elapsed": 1995458, "internal_node_id": "0.0-4.0-1.0-27.0"}}, {"uniqueid": "w11532598:a26792448", "current_trial": 37, "dateTime": 1691144060722, "trialdata": {"revealed_states": [], "clicked_states": ["5", "10", "9"], "num_clicks_accrued": [0, 0, 0, 0, 0, 0, 0, 0, 0, 0, 0, 0, 0], "stateRewards": ["", 2, 3, 8, 11, 25, -80, 6, -4, -56, 84, -23, -2, -4, -3, 4, -51, -9, -61, -15, -64, 67, -35, 1, -1, -7, -6, 83, 59, -15, 12, -79, 56, 41], "withholdReward": false, "trial_id": "mdp_trial_29", "block": "test", "trialIndex": 30, "score": 88.8, "costs": -4.199999999999999, "simulationMode": [null, null, null, null, null], "rewards": [2, 3, 8, -4, 84], "path": ["0", "0", "1", "2", "3", "8", "10"], "rt": [8781, 392, 186, 832, 650], "actions": ["up", "up", "up", "left", "down"], "actionTimes": [10812, 11730, 12452, 13802, 14955], "queries": {"click": {"state": {"target": ["5", "10", "9"], "time": [2705, 4944, 6552]}, "edge": {"target": [], "time": []}}, "mouseover": {"state": {"target": ["4", "5", "6", "7", "2", "10", "11", "11", "9", "11", "27"], "time": [2397, 2451, 3026, 3777, 4284, 4533, 5291, 5568, 6303, 7030, 7336]}, "edge": {"target": [], "time": []}}, "mouseout": {"state": {"target": ["0", "4", "5", "5", "6", "7", "2", "10", "11", "11", "9", "11", "27"], "time": [2068, 2434, 2815, 2867, 3659, 4251, 4350, 5065, 5316, 6056, 6988, 7053, 8611]}, "edge": {"target": [], "time": []}}}, "displayed_time": "16.03", "trialTime": 18603, "trial_type": "mouselab-mdp", "trial_index": 37, "time_elapsed": 2015241, "internal_node_id": "0.0-4.0-1.0-28.0"}}, {"uniqueid": "w11532598:a26792448", "current_trial": 38, "dateTime": 1691144103645, "trialdata": {"revealed_states": [], "clicked_states": ["5", "7", "11", "10", "29", "28", "32", "33", "21", "20", "16", "18"], "num_clicks_accrued": [0, 0, 0, 0, 0, 0, 0, 0, 0, 0, 0, 0, 0], "stateRewards": ["", -2, -3, 1, -14, 48, -49, 67, -1, -35, -48, 3, -2, 1, -4, -5, 86, -84, 39, 1, 48, 41, -42, -1, -4, 2, -7, 18, -86, 17, 7, -9, 57, -69], "withholdReward": false, "trial_id": "mdp_trial_30", "block": "test", "trialIndex": 31, "score": 59.2, "costs": -16.8, "simulationMode": [null, null, null, null, null], "rewards": [-2, 1, -4, -5, 86], "path": ["0", "0", "12", "13", "14", "15", "16"], "rt": [27176, 256, 30, 811, 132], "actions": ["right", "right", "right", "up", "up"], "actionTimes": [35423, 36202, 36739, 38079, 38708], "queries": {"click": {"state": {"target": ["5", "7", "11", "10", "29", "28", "32", "33", "21", "20", "16", "18"], "time": [9293, 11576, 13131, 15028, 17019, 18851, 21489, 23530, 25418, 27671, 29498, 31571]}, "edge": {"target": [], "time": []}}, "mouseover": {"state": {"target": ["3", "5", "5", "6", "6", "7", "7", "2", "3", "9", "11", "10", "27", "29", "25", "26", "28", "28", "24", "31", "32", "33", "19", "22", "21", "20", "17", "16", "15", "18", "15"], "time": [8612, 8657, 9006, 9893, 10308, 11166, 11457, 12020, 12110, 12430, 12781, 13357, 15390, 16837, 17747, 18290, 18477, 18757, 19191, 19243, 21339, 22069, 23990, 24240, 25036, 26258, 28017, 29274, 29901, 30044, 32395]}, "edge": {"target": [], "time": []}}, "mouseout": {"state": {"target": ["10", "0", "0", "3", "5", "5", "5", "6", "6", "7", "7", "2", "3", "9", "11", "10", "27", "29", "29", "25", "26", "28", "28", "24", "31", "32", "33", "19", "22", "21", "20", "17", "16", "15", "18", "15", "16", "12"], "time": [6511, 6822, 8268, 8639, 8786, 9325, 9630, 9973, 10845, 11206, 11994, 12043, 12135, 12749, 13312, 15284, 16221, 17166, 17553, 18265, 18314, 18501, 19164, 19219, 21089, 21918, 23827, 24215, 24929, 25928, 27891, 29170, 29871, 30036, 32361, 32572, 40545, 40988]}, "edge": {"target": [], "time": []}}}, "displayed_time": "39.27", "trialTime": 41917, "trial_type": "mouselab-mdp", "trial_index": 38, "time_elapsed": 2058163, "internal_node_id": "0.0-4.0-1.0-29.0"}}, {"uniqueid": "w11532598:a26792448", "current_trial": 39, "dateTime": 1691144137421, "trialdata": {"revealed_states": [], "clicked_states": ["6", "9", "27", "28", "33", "31", "21", "17", "18"], "num_clicks_accrued": [0, 0, 0, 0, 0, 0, 0, 0, 0, 0, 0, 0, 0], "stateRewards": ["", -1, -2, 4, 9, 10, -75, 39, 16, -43, 88, -19, -1, 1, 2, 4, -31, 10, 73, 12, 41, -64, -81, -2, 2, -6, 1, -81, -1, -26, 3, -59, -3, -20], "withholdReward": false, "trial_id": "mdp_trial_31", "block": "test", "trialIndex": 32, "score": 66.4, "costs": -12.600000000000001, "simulationMode": [null, null, null, null, null], "rewards": [-1, 1, 2, 4, 73], "path": ["0", "0", "12", "13", "14", "15", "18"], "rt": [22805, 190, 193, 834, 665], "actions": ["right", "right", "right", "up", "left"], "actionTimes": [25889, 26580, 27298, 28639, 29820], "queries": {"click": {"state": {"target": ["6", "9", "27", "28", "33", "31", "21", "17", "18"], "time": [4597, 7556, 10452, 12417, 13963, 15505, 17595, 19655, 21545]}, "edge": {"target": [], "time": []}}, "mouseover": {"state": {"target": ["0", "1", "7", "4", "6", "5", "7", "9", "11", "10", "27", "27", "29", "26", "28", "25", "33", "32", "31", "22", "21", "20", "17", "16", "16", "18", "18"], "time": [3484, 3785, 4035, 4152, 4351, 4976, 5735, 7222, 7621, 8408, 9551, 10092, 10987, 11820, 12151, 13397, 13727, 14360, 14964, 16260, 17202, 18125, 19391, 20192, 20493, 20951, 21155]}, "edge": {"target": [], "time": []}}, "mouseout": {"state": {"target": ["0", "0", "1", "7", "4", "6", "5", "7", "9", "11", "10", "27", "27", "29", "26", "28", "28", "25", "33", "33", "32", "31", "22", "21", "20", "17", "16", "16", "18", "18"], "time": [3112, 3534, 3941, 4053, 4169, 4755, 5500, 6348, 7610, 8402, 9386, 9569, 10894, 11796, 12067, 12443, 13353, 13506, 14094, 14224, 14905, 16074, 17150, 17887, 19074, 19810, 20286, 20925, 20987, 31392]}, "edge": {"target": [], "time": []}}}, "displayed_time": "30.34", "trialTime": 32556, "trial_type": "mouselab-mdp", "trial_index": 39, "time_elapsed": 2091939, "internal_node_id": "0.0-4.0-1.0-30.0"}}, {"uniqueid": "w11532598:a26792448", "current_trial": 40, "dateTime": 1691144168762, "trialdata": {"revealed_states": [], "clicked_states": ["9", "10", "6", "27", "28", "32"], "num_clicks_accrued": [0, 0, 0, 0, 0, 0, 0, 0, 0, 0, 0, 0, 0], "stateRewards": ["", 1, 2, 7, 13, 88, -71, 27, 3, 60, 5, -53, -2, 2, -6, -1, -30, 79, 47, -4, -14, 46, 68, 1, 1, 8, 10, -14, 86, 48, -11, -67, -44, 5], "withholdReward": false, "trial_id": "mdp_trial_32", "block": "test", "trialIndex": 33, "score": 97.6, "costs": -8.4, "simulationMode": [null, null, null, null, null], "rewards": [1, 1, 8, 10, 86], "path": ["0", "0", "23", "24", "25", "26", "28"], "rt": [13737, 8, 164, 896, 1492], "actions": ["left", "left", "left", "up", "right"], "actionTimes": [21664, 22215, 22909, 24323, 26321], "queries": {"click": {"state": {"target": ["9", "10", "6", "27", "28", "32"], "time": [8811, 10405, 12274, 14466, 16742, 19065]}, "edge": {"target": [], "time": []}}, "mouseover": {"state": {"target": ["9", "11", "10", "3", "5", "6", "7", "2", "27", "29", "25", "28", "30", "33", "32"], "time": [8508, 9110, 10124, 10661, 10855, 11820, 12669, 13720, 14039, 15005, 16057, 16556, 17254, 17726, 18785]}, "edge": {"target": [], "time": []}}, "mouseout": {"state": {"target": ["0", "9", "11", "10", "3", "5", "6", "7", "2", "27", "29", "25", "28", "28", "30", "33", "32", "28", "24"], "time": [8031, 9071, 9844, 10614, 10689, 11730, 12578, 13694, 13745, 14795, 15826, 16322, 16762, 17014, 17475, 18516, 19426, 28395, 28790]}, "edge": {"target": [], "time": []}}}, "displayed_time": "26.83", "trialTime": 30289, "trial_type": "mouselab-mdp", "trial_index": 40, "time_elapsed": 2123280, "internal_node_id": "0.0-4.0-1.0-31.0"}}, {"uniqueid": "w11532598:a26792448", "current_trial": 41, "dateTime": 1691144199053, "trialdata": {"revealed_states": [], "clicked_states": ["9", "7", "5", "29", "31", "33", "21", "17", "18"], "num_clicks_accrued": [0, 0, 0, 0, 0, 0, 0, 0, 0, 0, 0, 0, 0], "stateRewards": ["", 2, -2, 7, -11, -76, -65, -23, 16, -58, 30, 81, 1, 2, 7, 14, 9, 55, -2, 6, 11, -15, 31, -1, -1, -3, 2, 15, 2, 46, 15, 18, 45, -34], "withholdReward": false, "trial_id": "mdp_trial_33", "block": "test", "trialIndex": 34, "score": 66.4, "costs": -12.600000000000001, "simulationMode": [null, null, null, null, null], "rewards": [1, 2, 7, 14, 55], "path": ["0", "0", "12", "13", "14", "15", "17"], "rt": [21810, 107, 367, 535, 169], "actions": ["right", "right", "right", "up", "right"], "actionTimes": [23448, 24083, 24957, 26007, 26676], "queries": {"click": {"state": {"target": ["9", "7", "5", "29", "31", "33", "21", "17", "18"], "time": [2146, 4208, 5890, 7858, 10013, 11958, 14270, 16337, 18779]}, "edge": {"target": [], "time": []}}, "mouseover": {"state": {"target": ["9", "11", "10", "2", "7", "6", "5", "5", "8", "27", "27", "29", "26", "28", "24", "31", "31", "32", "33", "22", "21", "20", "17", "16", "18", "15", "17"], "time": [1770, 2526, 3050, 3610, 3853, 4653, 5211, 5519, 6295, 6348, 6642, 7435, 8515, 8817, 9439, 9489, 9766, 10936, 11670, 13006, 13703, 14743, 15740, 16745, 18503, 22291, 22369]}, "edge": {"target": [], "time": []}}, "mouseout": {"state": {"target": ["0", "9", "11", "10", "2", "7", "6", "5", "5", "5", "8", "27", "27", "29", "26", "28", "24", "31", "31", "32", "33", "31", "22", "21", "20", "17", "16", "18", "15", "17", "15"], "time": [635, 2380, 3004, 3537, 3737, 4474, 5143, 5304, 5932, 6250, 6321, 6394, 7379, 8507, 8548, 9419, 9459, 9513, 10578, 11621, 12551, 12662, 13571, 14489, 15673, 16673, 18036, 22286, 22320, 28025, 28369]}, "edge": {"target": [], "time": []}}}, "displayed_time": "27.19", "trialTime": 29094, "trial_type": "mouselab-mdp", "trial_index": 41, "time_elapsed": 2153571, "internal_node_id": "0.0-4.0-1.0-32.0"}}, {"uniqueid": "w11532598:a26792448", "current_trial": 42, "dateTime": 1691144218833, "trialdata": {"revealed_states": [], "clicked_states": ["5"], "num_clicks_accrued": [0, 0, 0, 0, 0, 0, 0, 0, 0, 0, 0, 0, 0], "stateRewards": ["", 1, 1, 7, -11, 80, -20, -53, -14, 3, 31, 27, 2, -1, -8, -10, 33, 41, 86, 9, 78, -37, -13, -1, -2, -6, -8, -80, 75, 4, -16, -49, -74, 24], "withholdReward": false, "trial_id": "mdp_trial_34", "block": "test", "trialIndex": 35, "score": 76.6, "costs": -1.4, "simulationMode": [null, null, null, null, null], "rewards": [1, 1, 7, -11, 80], "path": ["0", "0", "1", "2", "3", "4", "5"], "rt": [4983, 218, 121, 653, 600], "actions": ["up", "up", "up", "right", "up"], "actionTimes": [6942, 7675, 8311, 9462, 10598], "queries": {"click": {"state": {"target": ["5"], "time": [2841]}, "edge": {"target": [], "time": []}}, "mouseover": {"state": {"target": ["5", "6", "6", "7", "2", "10", "2", "2", "7", "16"], "time": [2369, 3036, 3426, 4065, 4573, 4916, 5687, 5903, 6103, 6202]}, "edge": {"target": [], "time": []}}, "mouseout": {"state": {"target": ["7", "0", "5", "6", "6", "7", "2", "10", "2", "2", "7", "16", "6", "5", "8", "10"], "time": [778, 2056, 2954, 3061, 3762, 4554, 4602, 5653, 5736, 6036, 6137, 14152, 14188, 16911, 17352, 17385]}, "edge": {"target": [], "time": []}}}, "displayed_time": "15.96", "trialTime": 18607, "trial_type": "mouselab-mdp", "trial_index": 42, "time_elapsed": 2173351, "internal_node_id": "0.0-4.0-1.0-33.0"}}, {"uniqueid": "w11532598:a26792448", "current_trial": 43, "dateTime": 1691144262068, "trialdata": {"revealed_states": [], "clicked_states": ["5", "10", "27", "28", "32", "22", "20", "16", "11"], "num_clicks_accrued": [0, 0, 0, 0, 0, 0, 0, 0, 0, 0, 0, 0, 0], "stateRewards": ["", -2, -3, 8, 14, -73, 73, 84, -12, -2, -50, -17, 2, 1, -2, -9, -44, -27, -33, 16, -63, -47, -66, -2, 1, 4, -5, -33, -11, 50, 9, 38, -79, 31], "withholdReward": false, "trial_id": "mdp_trial_35", "block": "test", "trialIndex": 36, "score": 37.4, "costs": -12.600000000000001, "simulationMode": [null, null, null, null, null], "rewards": [-2, 1, 4, 9, 38], "path": ["0", "0", "23", "24", "25", "30", "31"], "rt": [31234, 52, 380, 2217, 1408], "actions": ["left", "left", "left", "down", "right"], "actionTimes": [33071, 33625, 34537, 37299, 39214], "queries": {"click": {"state": {"target": ["5", "10", "27", "28", "32", "22", "20", "16", "11"], "time": [2824, 5167, 8300, 10239, 12206, 14417, 16477, 18554, 23114]}, "edge": {"target": [], "time": []}}, "mouseover": {"state": {"target": ["4", "5", "6", "6", "7", "2", "10", "11", "9", "11", "27", "29", "26", "28", "28", "31", "32", "33", "30", "22", "21", "20", "17", "16", "15", "18", "15", "17", "15", "1", "1", "2", "8", "11", "10", "2", "16", "6", "7", "1", "24"], "time": [2035, 2436, 2958, 3265, 3972, 4486, 4619, 5381, 6222, 7403, 7704, 8953, 9584, 9809, 9953, 10693, 11986, 12608, 13491, 14069, 14939, 15800, 17282, 18118, 18892, 19069, 21537, 21573, 21921, 21987, 22436, 22521, 22669, 22819, 24172, 26053, 26455, 30084, 30701, 30786, 31274]}, "edge": {"target": [], "time": []}}, "mouseout": {"state": {"target": ["1", "0", "4", "5", "6", "6", "7", "2", "10", "11", "9", "11", "27", "29", "26", "28", "28", "31", "32", "33", "30", "22", "21", "20", "17", "16", "15", "18", "15", "17", "15", "1", "1", "2", "8", "11", "10", "2", "16", "6", "7", "1", "24"], "time": [135, 1957, 2317, 2940, 3001, 3711, 4435, 4552, 5317, 6005, 7303, 7453, 8694, 9577, 9613, 9850, 10485, 11686, 12345, 13487, 13518, 14761, 15729, 17073, 17981, 18845, 19003, 21502, 21569, 21902, 21952, 22019, 22485, 22602, 22786, 23345, 26019, 26119, 29474, 30673, 30736, 30806, 31353]}, "edge": {"target": [], "time": []}}}, "displayed_time": "39.73", "trialTime": 42094, "trial_type": "mouselab-mdp", "trial_index": 43, "time_elapsed": 2216587, "internal_node_id": "0.0-4.0-1.0-34.0"}}, {"uniqueid": "w11532598:a26792448", "current_trial": 44, "dateTime": 1691144303779, "trialdata": {"revealed_states": [], "clicked_states": ["5", "10", "9", "27", "28", "32", "22", "20", "16", "18", "11"], "num_clicks_accrued": [0, 0, 0, 0, 0, 0, 0, 0, 0, 0, 0, 0, 0], "stateRewards": ["", 2, 4, -3, 16, -58, 30, -35, 11, -60, 47, 27, -2, -1, -7, -16, 23, -70, 68, -10, -65, -43, -34, -2, 1, 7, 9, -63, 34, -31, -8, -12, -86, 59], "withholdReward": false, "trial_id": "mdp_trial_36", "block": "test", "trialIndex": 37, "score": 26.599999999999994, "costs": -15.400000000000002, "simulationMode": [null, null, null, null, null], "rewards": [-2, -1, -7, -16, 68], "path": ["0", "0", "12", "13", "14", "15", "18"], "rt": [32484, 156, 366, 395, 235], "actions": ["right", "right", "right", "up", "left"], "actionTimes": [34966, 35623, 36515, 37443, 38183], "queries": {"click": {"state": {"target": ["5", "10", "9", "27", "28", "32", "22", "20", "16", "18", "11"], "time": [3339, 5533, 7240, 10050, 12385, 15058, 18004, 19765, 21787, 24480, 28231]}, "edge": {"target": [], "time": []}}, "mouseover": {"state": {"target": ["1", "7", "4", "5", "6", "7", "2", "10", "11", "9", "8", "11", "27", "29", "26", "28", "25", "33", "32", "31", "22", "21", "20", "17", "16", "18", "18", "13", "24", "26", "26", "11", "9", "5", "9", "11", "6", "1", "25", "28"], "time": [2815, 2855, 2894, 3098, 3671, 4250, 4881, 5078, 6099, 6711, 8425, 9411, 9749, 10375, 11711, 12045, 13249, 13409, 14161, 15401, 17678, 18453, 19420, 20616, 21377, 22626, 24191, 25067, 25330, 25479, 25740, 26436, 26627, 27477, 27728, 27944, 30178, 30561, 30927, 31642]}, "edge": {"target": [], "time": []}}, "mouseout": {"state": {"target": ["0", "1", "7", "4", "5", "5", "6", "7", "2", "10", "11", "9", "9", "8", "10", "11", "27", "29", "26", "28", "28", "25", "33", "32", "31", "22", "21", "20", "17", "16", "16", "18", "18", "13", "24", "26", "26", "11", "9", "5", "9", "11", "6", "1", "25", "28"], "time": [2796, 2836, 2875, 2929, 3384, 3548, 4182, 4865, 5012, 5943, 6680, 7260, 8305, 8527, 9068, 9725, 10234, 11680, 11730, 12496, 13012, 13339, 14109, 15237, 17258, 18185, 19292, 20456, 21221, 21959, 22141, 23694, 24972, 25112, 25376, 25524, 25798, 26581, 27194, 27671, 27747, 28645, 30462, 30594, 30961, 31977]}, "edge": {"target": [], "time": []}}}, "displayed_time": "38.68", "trialTime": 40598, "trial_type": "mouselab-mdp", "trial_index": 44, "time_elapsed": 2258296, "internal_node_id": "0.0-4.0-1.0-35.0"}}, {"uniqueid": "w11532598:a26792448", "current_trial": 45, "dateTime": 1691144342878, "trialdata": {"revealed_states": [], "clicked_states": ["5", "7", "10", "9", "27", "29", "28", "31", "33", "21", "20", "17", "18"], "num_clicks_accrued": [0, 0, 0, 0, 0, 0, 0, 0, 0, 0, 0, 0, 0], "stateRewards": ["", -2, 1, -8, 12, -65, -79, 16, 7, -80, -17, -45, -2, 2, -5, -2, -85, 23, -4, -7, 48, 27, -76, 2, 3, 5, 2, 43, 71, -13, 7, -49, 59, -31], "withholdReward": false, "trial_id": "mdp_trial_37", "block": "test", "trialIndex": 38, "score": 17.8, "costs": -18.2, "simulationMode": [null, null, null, null, null], "rewards": [-2, 2, -5, -7, 48], "path": ["0", "0", "12", "13", "14", "19", "20"], "rt": [28415, 8, 398, 522, 134], "actions": ["right", "right", "right", "down", "right"], "actionTimes": [30374, 30891, 31815, 32840, 33517], "queries": {"click": {"state": {"target": ["5", "7", "10", "9", "27", "29", "28", "31", "33", "21", "20", "17", "18"], "time": [2773, 4461, 6942, 8581, 10578, 12133, 14037, 15740, 17658, 20260, 22367, 24266, 26242]}, "edge": {"target": [], "time": []}}, "mouseover": {"state": {"target": ["5", "6", "7", "2", "2", "6", "4", "2", "10", "11", "9", "11", "27", "29", "25", "25", "25", "28", "28", "24", "31", "32", "33", "21", "22", "21", "20", "17", "17", "16", "18", "14", "20"], "time": [2514, 3302, 4016, 4971, 5364, 5576, 6285, 6479, 6646, 7422, 8238, 9011, 10182, 11513, 12871, 13387, 13470, 13591, 13928, 14504, 14543, 16294, 17480, 18394, 18519, 20010, 20959, 23028, 23100, 24643, 26064, 28712, 28945]}, "edge": {"target": [], "time": []}}, "mouseout": {"state": {"target": ["8", "10", "0", "5", "6", "7", "2", "2", "6", "4", "2", "10", "11", "9", "11", "27", "29", "25", "25", "25", "28", "28", "28", "24", "31", "32", "33", "33", "21", "22", "21", "20", "17", "17", "16", "18", "18", "18", "18", "14", "20", "12"], "time": [562, 662, 928, 2998, 3946, 4882, 5178, 5393, 6260, 6322, 6579, 7306, 8210, 8962, 10091, 11266, 12739, 13333, 13418, 13506, 13732, 14058, 14467, 14536, 15981, 17217, 17778, 18166, 18422, 19430, 20743, 22700, 23062, 24524, 25872, 26312, 28079, 28547, 28662, 28745, 35143, 35180]}, "edge": {"target": [], "time": []}}}, "displayed_time": "34.02", "trialTime": 37318, "trial_type": "mouselab-mdp", "trial_index": 45, "time_elapsed": 2297396, "internal_node_id": "0.0-4.0-1.0-36.0"}}, {"uniqueid": "w11532598:a26792448", "current_trial": 46, "dateTime": 1691144366079, "trialdata": {"revealed_states": [], "clicked_states": ["9", "10", "11", "7", "6", "5"], "num_clicks_accrued": [0, 0, 0, 0, 0, 0, 0, 0, 0, 0, 0, 0, 0], "stateRewards": ["", 1, -3, -6, -5, 47, 80, -29, 11, -71, 10, -29, -2, 3, -6, 12, 2, -78, -6, 8, 34, -16, -5, -1, 3, 3, -13, 84, -36, -62, -3, -27, 66, 15], "withholdReward": false, "trial_id": "mdp_trial_38", "block": "test", "trialIndex": 39, "score": 58.6, "costs": -8.4, "simulationMode": [null, null, null, null, null], "rewards": [1, -3, -6, -5, 80], "path": ["0", "0", "1", "2", "3", "4", "6"], "rt": [13032, 140, 210, 784, 167], "actions": ["up", "up", "up", "right", "right"], "actionTimes": [15210, 15847, 16566, 17877, 18556], "queries": {"click": {"state": {"target": ["9", "10", "11", "7", "6", "5"], "time": [3176, 4820, 7009, 8792, 10834, 12674]}, "edge": {"target": [], "time": []}}, "mouseover": {"state": {"target": ["2", "9", "11", "10", "4", "5", "8", "11", "8", "6", "7", "4", "5", "6", "5", "16"], "time": [2601, 2818, 3583, 4465, 5141, 5239, 6385, 6570, 7318, 7619, 8465, 9109, 9236, 10385, 11728, 13156]}, "edge": {"target": [], "time": []}}, "mouseout": {"state": {"target": ["2", "1", "0", "2", "9", "11", "10", "4", "5", "8", "11", "8", "6", "7", "4", "5", "6", "5", "6", "16", "6", "7"], "time": [733, 766, 2569, 2633, 3339, 4306, 5074, 5192, 6341, 6468, 7313, 7345, 8415, 9039, 9138, 10207, 11596, 12781, 12899, 13588, 20945, 21383]}, "edge": {"target": [], "time": []}}}, "displayed_time": "19.06", "trialTime": 22041, "trial_type": "mouselab-mdp", "trial_index": 46, "time_elapsed": 2320597, "internal_node_id": "0.0-4.0-1.0-37.0"}}, {"uniqueid": "w11532598:a26792448", "current_trial": 47, "dateTime": 1691144398501, "trialdata": {"revealed_states": [], "clicked_states": ["5", "7", "9", "10", "27", "28", "33", "31", "32"], "num_clicks_accrued": [0, 0, 0, 0, 0, 0, 0, 0, 0, 0, 0, 0, 0], "stateRewards": ["", -1, 3, -4, -14, 78, 67, 2, 13, -32, 28, 39, -2, 1, -4, -4, -4, -42, -86, 11, 64, -29, -32, -1, -4, 2, -7, 5, 68, -61, 2, -21, 85, 50], "withholdReward": false, "trial_id": "mdp_trial_39", "block": "test", "trialIndex": 40, "score": 71.4, "costs": -12.600000000000001, "simulationMode": [null, null, null, null, null], "rewards": [-1, -4, 2, 2, 85], "path": ["0", "0", "23", "24", "25", "30", "32"], "rt": [22541, 50, 143, 678, 267], "actions": ["left", "left", "left", "down", "down"], "actionTimes": [24708, 25261, 25933, 27119, 27892], "queries": {"click": {"state": {"target": ["5", "7", "9", "10", "27", "28", "33", "31", "32"], "time": [3530, 5161, 7793, 10011, 11545, 13499, 15539, 17662, 19252]}, "edge": {"target": [], "time": []}}, "mouseover": {"state": {"target": ["1", "7", "4", "5", "6", "7", "6", "6", "4", "9", "11", "10", "27", "29", "26", "28", "26", "29", "33", "32", "31", "32", "22", "21"], "time": [2921, 2953, 3004, 3087, 4027, 4887, 5503, 5751, 7006, 7322, 8532, 9693, 11319, 12111, 13025, 13121, 14582, 14639, 15303, 16208, 17238, 18881, 20107, 21153]}, "edge": {"target": [], "time": []}}, "mouseout": {"state": {"target": ["3", "0", "1", "7", "4", "5", "5", "6", "7", "6", "6", "4", "9", "9", "11", "10", "27", "29", "26", "28", "26", "29", "33", "33", "32", "31", "32", "22", "21"], "time": [570, 1019, 2947, 2974, 3054, 3554, 3873, 4779, 5456, 5550, 6971, 7104, 7906, 8307, 9437, 11035, 12041, 12993, 13055, 14574, 14634, 15130, 15702, 16066, 17138, 18623, 19578, 20920, 21835]}, "edge": {"target": [], "time": []}}}, "displayed_time": "28.39", "trialTime": 31236, "trial_type": "mouselab-mdp", "trial_index": 47, "time_elapsed": 2353020, "internal_node_id": "0.0-4.0-1.0-38.0"}}, {"uniqueid": "w11532598:a26792448", "current_trial": 48, "dateTime": 1691144446956, "trialdata": {"revealed_states": [], "clicked_states": ["5", "7", "6", "11", "9", "27", "29", "10", "28", "32", "31", "22", "21", "20", "17", "16", "18"], "num_clicks_accrued": [0, 0, 0, 0, 0, 0, 0, 0, 0, 0, 0, 0, 0], "stateRewards": ["", 2, -1, 3, -12, -83, 6, -33, 9, 28, 24, -50, -2, -1, -2, -5, -87, 37, 82, 12, 80, -5, 10, -2, -3, -6, 9, 22, -1, 16, 9, 77, -62, 58], "withholdReward": false, "trial_id": "mdp_trial_40", "block": "test", "trialIndex": 41, "score": 48.2, "costs": -23.799999999999994, "simulationMode": [null, null, null, null, null], "rewards": [-2, -1, -2, -5, 82], "path": ["0", "0", "12", "13", "14", "15", "18"], "rt": [36522, 48, 363, 580, 675], "actions": ["right", "right", "right", "up", "left"], "actionTimes": [38494, 39067, 39963, 41048, 42228], "queries": {"click": {"state": {"target": ["5", "7", "6", "11", "9", "27", "29", "10", "28", "32", "31", "22", "21", "20", "17", "16", "18"], "time": [2759, 4617, 6333, 8374, 10136, 11876, 13516, 15582, 17217, 19271, 20803, 22389, 25052, 26633, 28443, 30596, 32276]}, "edge": {"target": [], "time": []}}, "mouseover": {"state": {"target": ["4", "5", "6", "7", "6", "4", "9", "11", "10", "9", "10", "27", "29", "28", "10", "24", "25", "28", "25", "30", "33", "33", "32", "31", "30", "30", "19", "22", "33", "33", "21", "20", "17", "16", "16", "15", "18", "20", "14"], "time": [2415, 2458, 3069, 4321, 5195, 6585, 6677, 7999, 8947, 9861, 10530, 11684, 12920, 14054, 15232, 15981, 16177, 16450, 17570, 17658, 17718, 17945, 19038, 19979, 21388, 21485, 21829, 22023, 22920, 23388, 24647, 25787, 28024, 29970, 30267, 31194, 31524, 33140, 35499]}, "edge": {"target": [], "time": []}}, "mouseout": {"state": {"target": ["32", "31", "0", "4", "5", "6", "7", "6", "4", "9", "11", "10", "9", "10", "27", "27", "29", "28", "10", "24", "25", "28", "25", "30", "33", "33", "32", "31", "30", "30", "19", "22", "33", "33", "21", "20", "17", "20", "20", "17", "16", "16", "16", "15", "18", "20", "14"], "time": [17, 148, 2365, 2436, 2914, 4290, 5124, 6489, 6611, 7699, 8938, 9787, 10456, 11435, 11955, 12668, 13661, 15019, 15898, 16066, 16210, 17476, 17604, 17688, 17749, 19024, 19752, 21357, 21418, 21517, 21906, 22819, 22955, 24199, 25702, 27894, 28902, 29063, 29321, 29840, 30032, 30618, 31167, 31493, 32396, 35475, 35530]}, "edge": {"target": [], "time": []}}}, "displayed_time": "42.73", "trialTime": 47235, "trial_type": "mouselab-mdp", "trial_index": 48, "time_elapsed": 2401474, "internal_node_id": "0.0-4.0-1.0-39.0"}}, {"uniqueid": "w11532598:a26792448", "current_trial": 49, "dateTime": 1691144486450, "trialdata": {"rt": 39442, "response": {"Q0": "$-2 to $2", "Q1": "$-16 to $16", "Q2": "$-88 to $88", "Q3": "The cost for clicking on nodes varied between nodes.", "Q4": "Very motivated"}, "question_order": [0, 1, 2, 3, 4], "trial_id": "final_quiz_control", "trial_type": "survey-multi-choice", "trial_index": 49, "time_elapsed": 2440969, "internal_node_id": "0.0-4.0-2.0"}}, {"uniqueid": "w11532598:a26792448", "current_trial": 50, "dateTime": 1691145064474, "trialdata": {"rt": 577951, "response": {"Q0": "I tried to find the biggest value endpoint to make up for the node deductions. However, I realise that often resulted in losing too many points along the way to increase my overall score.", "Q1": "I should have tried to find the path with the least deductions but I found that strategy often made me forget where my destination point was so I just tried to remember the high-value endpoint.", "Q2": "It was difficult because of the time delay when showing node values. Trying to remember all the different values and seeing them before they were gone made the game harder. "}, "trial_id": "self_report_control", "trial_type": "survey-text", "trial_index": 50, "time_elapsed": 3018993, "internal_node_id": "0.0-4.0-3.0"}}, {"uniqueid": "w11532598:a26792448", "current_trial": 51, "dateTime": 1691145102409, "trialdata": {"rt": 37911, "response": {"gender": "female", "age": "46", "colorblind": "0", "effort": "0"}, "trial_type": "survey-html-form", "trial_index": 51, "time_elapsed": 3056929, "internal_node_id": "0.0-4.0-4.0"}}, {"uniqueid": "w11532598:a26792448", "current_trial": 52, "dateTime": 1691145134586, "trialdata": {"rt": 32141, "response": {"Q0": "No.", "Q1": "No.", "Q2": ""}, "trial_type": "survey-text", "trial_index": 52, "time_elapsed": 3089106, "internal_node_id": "0.0-4.0-5.0"}}, {"uniqueid": "w11532598:a26792448", "current_trial": 53, "dateTime": 1691145136196, "trialdata": {"rt": 1574, "stimulus": "Press 'Finish HIT' in order to reach the completion code. Once the data has been saved, you will receive the code either in this window or in the original browser window where you started the experiment.\n", "response": 0, "trial_type": "html-button-response", "trial_index": 53, "time_elapsed": 3090716, "internal_node_id": "0.0-5.0"}}, {"uniqueid": "w11532598:a26792448", "current_trial": 54, "dateTime": 1691145137212, "trialdata": {"success": true, "trial_type": "fullscreen", "trial_index": 54, "time_elapsed": 3091732, "internal_node_id": "0.0-6.0"}}], "questiondata": {"params": {"CODE": "C6DMOQA6", "MIN_TIME": 14, "inspectCost": 1, "startTime": "Fri Aug 04 2023 10:40:44 GMT+0100 (Irish Standard Time)", "bonusRate": 0.002, "variance": "1_2_4_8_44", "branching": "31123"}, "final_score": 2345.6}, "eventdata": [{"eventtype": "initialized", "value": null, "timestamp": 1691142043486, "interval": 0}, {"eventtype": "window_resize", "value": [1024, 654], "timestamp": 1691142043486, "interval": 0}, {"eventtype": "window_resize", "value": [1024, 654], "timestamp": 1691142043846, "interval": 360}, {"eventtype": "window_resize", "value": [1366, 768], "timestamp": 1691142055043, "interval": 11197}, {"eventtype": "window_resize", "value": [1024, 654], "timestamp": 1691145136701, "interval": 3081658}], "useragent": "Mozilla/5.0 (Windows NT 10.0; Win64; x64) AppleWebKit/537.36 (KHTML, like Gecko) Chrome/115.0.0.0 Safari/537.36", "mode": "live", "id": "w11532598:a26792448", "status": "user data saved", "Beginhit": "2023-08-04 09:40:38.613242", "Beginexp": "2023-08-04 09:40:52.884469", "Endhit": "2023-08-04 10:32:14.805954", "psiturkStatus": 3, "browser": "<redacted>", "platform": "windows", "language": "en-IE"}