{"condition": 0, "counterbalance": 0, "assignmentId": "a19612908", "workerId": "w93755636", "hitId": "h41979787", "currenttrial": 55, "bonus": 0, "data": [{"uniqueid": "w93755636:a19612908", "current_trial": 0, "dateTime": 1691159313875, "trialdata": {"success": true, "trial_type": "fullscreen", "trial_index": 0, "time_elapsed": 8171, "internal_node_id": "0.0-0.0"}}, {"uniqueid": "w93755636:a19612908", "current_trial": 1, "dateTime": 1691159343122, "trialdata": {"view_history": [{"page_index": 0, "viewing_time": 29222}], "rt": 29223, "trial_id": "exp_instructions_control", "trial_type": "instructions", "trial_index": 1, "time_elapsed": 37418, "internal_node_id": "0.0-1.0"}}, {"uniqueid": "w93755636:a19612908", "current_trial": 2, "dateTime": 1691159347595, "trialdata": {"success": true, "trial_type": "fullscreen", "trial_index": 2, "time_elapsed": 41893, "internal_node_id": "0.0-2.0-0.0"}}, {"uniqueid": "w93755636:a19612908", "current_trial": 3, "dateTime": 1691159537357, "trialdata": {"view_history": [{"page_index": 0, "viewing_time": 61595}, {"page_index": 1, "viewing_time": 64178}, {"page_index": 2, "viewing_time": 26449}, {"page_index": 3, "viewing_time": 37519}], "rt": 189741, "trial_id": "mouselab_instructions_1_control", "trial_type": "instructions", "trial_index": 3, "time_elapsed": 231652, "internal_node_id": "0.0-2.0-1.0"}}, {"uniqueid": "w93755636:a19612908", "current_trial": 4, "dateTime": 1691159617291, "trialdata": {"revealed_states": [], "clicked_states": ["23", "1", "2"], "num_clicks_accrued": [0, 0, 0, 0, 0, 0, 0, 0, 0, 0, 0, 0, 0], "stateRewards": ["", 10, 10, 10, -10, 10, 10, -10, -10, 10, -10, -10, -10, 10, 10, -10, 10, 10, 10, -10, 10, -10, 10, -10, 10, 10, -10, 10, 10, 10, -10, -10, 10, 10], "withholdReward": false, "trial_id": "practice_1", "block": "test", "trialIndex": 0, "score": 32, "costs": -1.5, "simulationMode": [null, null, null, null, null], "rewards": [10, 10, 10, -10, 10], "path": ["0", "0", "1", "2", "3", "8", "9"], "rt": [18139, 392, 2, 2, 3], "actions": ["up", "up", "up", "left", "up"], "actionTimes": [35695, 37069, 38288, 39498, 40714], "queries": {"click": {"state": {"target": ["23", "1", "2"], "time": [21735, 26739, 30872]}, "edge": {"target": [], "time": []}}, "mouseover": {"state": {"target": ["23", "0", "0", "23", "24", "1", "12", "2", "7", "1"], "time": [18604, 19579, 20731, 21234, 22968, 25063, 28792, 30367, 32132, 34606]}, "edge": {"target": [], "time": []}}, "mouseout": {"state": {"target": ["12", "0", "23", "0", "0", "23", "24", "1", "12", "2", "7", "1", "0"], "time": [null, 18319, 18862, 19910, 20989, 22722, 24825, 28536, 30103, 31894, 34338, 44328, 60428]}, "edge": {"target": [], "time": []}}}, "displayed_time": "41.93", "trialTime": 64100, "trial_type": "mouselab-mdp", "trial_index": 4, "time_elapsed": 311588, "internal_node_id": "0.0-2.0-2.0-0.0"}}, {"uniqueid": "w93755636:a19612908", "current_trial": 5, "dateTime": 1691159691487, "trialdata": {"revealed_states": [], "clicked_states": ["12", "2", "24"], "num_clicks_accrued": [0, 0, 0, 0, 0, 0, 0, 0, 0, 0, 0, 0, 0], "stateRewards": ["", -10, -10, -10, -10, 10, 10, 10, 10, 10, -10, -10, -10, 10, 10, -10, -10, 10, -10, 10, -10, 10, -10, -10, 10, 10, 10, -10, 10, -10, -10, 10, -10, -10], "withholdReward": false, "trial_id": "practice_2", "block": "test", "trialIndex": 1, "score": 12, "costs": -1.5, "simulationMode": [null, null, null, null, null], "rewards": [-10, 10, 10, 10, -10], "path": ["0", "0", "23", "24", "25", "26", "29"], "rt": [13561, 392, 2, 3, 3], "actions": ["left", "left", "left", "up", "left"], "actionTimes": [35463, 36860, 38329, 39534, 40758], "queries": {"click": {"state": {"target": ["12", "2", "24"], "time": [25356, 28858, 32105]}, "edge": {"target": [], "time": []}}, "mouseover": {"state": {"target": ["12", "3", "2", "28", "24"], "time": [24723, 26360, 27125, 30847, 31609]}, "edge": {"target": [], "time": []}}, "mouseout": {"state": {"target": ["0", "12", "3", "2", "28", "24"], "time": [22632, 26113, 26880, 30583, 31361, 33083]}, "edge": {"target": [], "time": []}}}, "displayed_time": "41.97", "trialTime": 58402, "trial_type": "mouselab-mdp", "trial_index": 5, "time_elapsed": 385784, "internal_node_id": "0.0-2.0-2.0-1.0"}}, {"uniqueid": "w93755636:a19612908", "current_trial": 6, "dateTime": 1691159742508, "trialdata": {"view_history": [{"page_index": 0, "viewing_time": 39392}, {"page_index": 1, "viewing_time": 11614}], "rt": 51007, "trial_id": "mouselab_instructions_2_control", "trial_type": "instructions", "trial_index": 6, "time_elapsed": 436806, "internal_node_id": "0.0-2.0-3.0"}}, {"uniqueid": "w93755636:a19612908", "current_trial": 7, "dateTime": 1691159781788, "trialdata": {"rt": 39264, "response": {"Q0": "The cost for clicking on nodes may vary between nodes.", "Q1": "The better I perform the higher my bonus will be.", "Q2": "No, the amount of cash at each node of the web may be different each time.", "Q3": "To get the highest total score.", "Q4": "Only before moving the spider.", "Q5": "3 seconds"}, "question_order": [0, 1, 2, 3, 4, 5], "correct": {"Q0": "The cost for clicking on nodes may vary between nodes.", "Q1": "The better I perform the higher my bonus will be.", "Q2": "No, the amount of cash at each node of the web may be different each time.", "Q3": "To get the highest total score.", "Q4": "Only before moving the spider.", "Q5": "3 seconds"}, "trial_id": "mouselab_quiz_control", "trial_type": "survey-multi-choice", "trial_index": 7, "time_elapsed": 476085, "internal_node_id": "0.0-2.0-4.0"}}, {"uniqueid": "w93755636:a19612908", "current_trial": 8, "dateTime": 1691159797231, "trialdata": {"rt": 15424, "stimulus": "\n<h1> Get ready to start the game! </h1>\n\nThank you for reading the instructions. Get ready start with the 40 rounds of this game.\n<br><br>\nIf you need to take a break, feel free to take one after the end of a round, before continuing to the next one.\n<br><br>\nRemember, the more money the spider gets, the bigger your bonus will be!\n<br><br>\n<div style='text-align: center;'>Press <code>space</code> to begin.</div>\n\n<br><br>\n(If, at any point, the <code>space</code> key does not take you to the next page, click once on the text and try again.)", "response": " ", "trial_id": "mdp_ready", "trial_type": "html-keyboard-response", "trial_index": 8, "time_elapsed": 491528, "internal_node_id": "0.0-4.0-0.0"}}, {"uniqueid": "w93755636:a19612908", "current_trial": 9, "dateTime": 1691159898021, "trialdata": {"revealed_states": [], "clicked_states": ["24", "26"], "num_clicks_accrued": [0, 0, 0, 0, 0, 0, 0, 0, 0, 0, 0, 0, 0], "stateRewards": ["", 2, -2, -8, 9, -20, 55, -58, 14, 42, 2, 36, 1, -3, -5, 5, -58, 57, 60, 16, 57, 30, -70, -2, 1, 3, 10, 59, 23, 77, -13, -26, 88, -72], "withholdReward": false, "trial_id": "mdp_trial_1", "block": "test", "trialIndex": 2, "score": 68.2, "costs": -2.8, "simulationMode": [null, null, null, null, null], "rewards": [-2, 1, 3, 10, 59], "path": ["0", "0", "23", "24", "25", "26", "27"], "rt": [10230, 2, 291, 3, 2], "actions": ["left", "left", "left", "up", "up"], "actionTimes": [52555, 53554, 55057, 56277, 57489], "queries": {"click": {"state": {"target": ["24", "26"], "time": [45862, 49284]}, "edge": {"target": [], "time": []}}, "mouseover": {"state": {"target": ["23", "23", "24", "26"], "time": [43304, 44819, 45345, 47141]}, "edge": {"target": [], "time": []}}, "mouseout": {"state": {"target": ["23", "0", "0", "23", "23", "24", "26"], "time": [10729, 27299, 43071, 43561, 45083, 46894, 51356]}, "edge": {"target": [], "time": []}}}, "displayed_time": "61.75", "trialTime": 85337, "trial_type": "mouselab-mdp", "trial_index": 9, "time_elapsed": 592318, "internal_node_id": "0.0-4.0-1.0-0.0"}}, {"uniqueid": "w93755636:a19612908", "current_trial": 10, "dateTime": 1691159970243, "trialdata": {"revealed_states": [], "clicked_states": ["24", "2", "13", "16"], "num_clicks_accrued": [0, 0, 0, 0, 0, 0, 0, 0, 0, 0, 0, 0, 0], "stateRewards": ["", 2, -1, 1, 10, -52, 86, -22, -2, -14, -63, 38, 1, 3, 7, -8, 11, -32, -27, 9, -71, 40, -87, -2, -1, 5, -7, 12, 31, -57, 13, 86, -58, 29], "withholdReward": false, "trial_id": "mdp_trial_2", "block": "test", "trialIndex": 3, "score": 8.4, "costs": -5.6, "simulationMode": [null, null, null, null, null], "rewards": [1, 3, 7, -8, 11], "path": ["0", "0", "12", "13", "14", "15", "16"], "rt": [18934, 2, 2, 2, 3], "actions": ["right", "right", "right", "up", "up"], "actionTimes": [36292, 37297, 38562, 39764, 40968], "queries": {"click": {"state": {"target": ["24", "2", "13", "16"], "time": [20022, 25653, 28242, 31823]}, "edge": {"target": [], "time": []}}, "mouseover": {"state": {"target": ["23", "24", "13", "2", "13", "12", "15", "16", "12", "21"], "time": [18998, 19510, 21263, 23008, 26652, 30337, 30840, 31334, 33288, 34765]}, "edge": {"target": [], "time": []}}, "mouseout": {"state": {"target": ["23", "23", "24", "13", "2", "13", "12", "15", "16", "12", "21"], "time": [3140, 19258, 21025, 22773, 26408, 28978, 30597, 31093, 33057, 34530, 56485]}, "edge": {"target": [], "time": []}}}, "displayed_time": "42.22", "trialTime": 56944, "trial_type": "mouselab-mdp", "trial_index": 10, "time_elapsed": 664541, "internal_node_id": "0.0-4.0-1.0-1.0"}}, {"uniqueid": "w93755636:a19612908", "current_trial": 11, "dateTime": 1691160038189, "trialdata": {"revealed_states": [], "clicked_states": ["2", "13", "24", "9", "5", "10"], "num_clicks_accrued": [0, 0, 0, 0, 0, 0, 0, 0, 0, 0, 0, 0, 0], "stateRewards": ["", -2, 2, -4, -4, -59, 88, 62, -3, 69, -15, -34, 1, -2, -5, 7, -54, -20, 78, -16, -74, -53, -21, 2, -4, 2, 13, -8, -44, 26, 9, 72, 4, 17], "withholdReward": false, "trial_id": "mdp_trial_3", "block": "test", "trialIndex": 4, "score": 53.6, "costs": -8.4, "simulationMode": [null, null, null, null, null], "rewards": [-2, 2, -4, -3, 69], "path": ["0", "0", "1", "2", "3", "8", "9"], "rt": [23096, 261, 2, 3, 3], "actions": ["up", "up", "up", "left", "up"], "actionTimes": [40466, 41715, 43157, 44364, 45567], "queries": {"click": {"state": {"target": ["2", "13", "24", "9", "5", "10"], "time": [20177, 23636, 26844, 30552, 34072, 37236]}, "edge": {"target": [], "time": []}}, "mouseover": {"state": {"target": ["1", "2", "13", "23", "24", "26", "10", "9", "5", "10", "11"], "time": [19144, 19653, 21475, 24905, 25656, 28392, 29529, 30044, 31787, 36044, 38950]}, "edge": {"target": [], "time": []}}, "mouseout": {"state": {"target": ["21", "0", "1", "2", "13", "23", "24", "26", "10", "9", "5", "10"], "time": [2725, 18878, 19406, 21228, 24408, 25417, 27620, 28893, 29786, 31547, 35790, 38467]}, "edge": {"target": [], "time": []}}}, "displayed_time": "46.76", "trialTime": 52559, "trial_type": "mouselab-mdp", "trial_index": 11, "time_elapsed": 732486, "internal_node_id": "0.0-4.0-1.0-2.0"}}, {"uniqueid": "w93755636:a19612908", "current_trial": 12, "dateTime": 1691160111415, "trialdata": {"revealed_states": [], "clicked_states": ["23", "1", "12", "19", "15", "4", "8", "16", "9"], "num_clicks_accrued": [0, 0, 0, 0, 0, 0, 0, 0, 0, 0, 0, 0, 0], "stateRewards": ["", 2, 3, -6, -5, -3, 55, 40, 11, 61, 11, 51, 2, -4, -6, 9, -25, 29, -15, -6, 7, -77, -2, -2, -4, 1, 14, -43, -1, 56, -12, -54, 41, -74], "withholdReward": false, "trial_id": "mdp_trial_4", "block": "test", "trialIndex": 5, "score": 58.4, "costs": -12.600000000000001, "simulationMode": [null, null, null, null, null], "rewards": [2, 3, -6, 11, 61], "path": ["0", "0", "1", "2", "3", "8", "9"], "rt": [30109, 2, 3, 2, 2], "actions": ["up", "up", "up", "left", "up"], "actionTimes": [48581, 49796, 50987, 52184, 53373], "queries": {"click": {"state": {"target": ["23", "1", "12", "19", "15", "4", "8", "16", "9"], "time": [20684, 24058, 26843, 30017, 33536, 36790, 39854, 42788, 45154]}, "edge": {"target": [], "time": []}}, "mouseover": {"state": {"target": ["23", "1", "12", "19", "21", "15", "4", "8", "16", "9", "11"], "time": [20024, 21672, 25049, 29070, 31495, 32965, 35477, 38483, 41062, 43998, 47352]}, "edge": {"target": [], "time": []}}, "mouseout": {"state": {"target": ["11", "0", "23", "1", "12", "19", "21", "15", "4", "8", "16", "9", "11"], "time": [4075, 19228, 21434, 24812, 28575, 31242, 32730, 35225, 38246, 40580, 43768, 45876, 57179]}, "edge": {"target": [], "time": []}}}, "displayed_time": "54.56", "trialTime": 57838, "trial_type": "mouselab-mdp", "trial_index": 12, "time_elapsed": 805713, "internal_node_id": "0.0-4.0-1.0-3.0"}}, {"uniqueid": "w93755636:a19612908", "current_trial": 13, "dateTime": 1691160170204, "trialdata": {"revealed_states": [], "clicked_states": ["29", "33", "31", "9"], "num_clicks_accrued": [0, 0, 0, 0, 0, 0, 0, 0, 0, 0, 0, 0, 0], "stateRewards": ["", 1, 2, 3, 16, 63, -25, 16, -4, -14, 82, -66, -1, -3, -3, -11, -14, 19, 46, 3, -34, -82, 66, -2, -3, 4, -5, -63, 77, -37, -1, -45, -41, 84], "withholdReward": false, "trial_id": "mdp_trial_5", "block": "test", "trialIndex": 6, "score": 76.4, "costs": -5.6, "simulationMode": [null, null, null, null, null], "rewards": [-2, -3, 4, -1, 84], "path": ["0", "0", "23", "24", "25", "30", "33"], "rt": [13765, 295, 2, 3, 3], "actions": ["left", "left", "left", "down", "left"], "actionTimes": [33061, 34344, 35553, 36759, 37968], "queries": {"click": {"state": {"target": ["29", "33", "31", "9"], "time": [22009, 25005, 27892, 30805]}, "edge": {"target": [], "time": []}}, "mouseover": {"state": {"target": ["29", "33", "31", "9"], "time": [21450, 23549, 26010, 30013]}, "edge": {"target": [], "time": []}}, "mouseout": {"state": {"target": ["11", "29", "33", "31", "9", "2"], "time": [4704, 23043, 25758, 28642, 31536, 41522]}, "edge": {"target": [], "time": []}}}, "displayed_time": "42.22", "trialTime": 43382, "trial_type": "mouselab-mdp", "trial_index": 13, "time_elapsed": 864501, "internal_node_id": "0.0-4.0-1.0-4.0"}}, {"uniqueid": "w93755636:a19612908", "current_trial": 14, "dateTime": 1691160242655, "trialdata": {"revealed_states": [], "clicked_states": ["25", "3", "14", "7", "16", "20", "31"], "num_clicks_accrued": [0, 0, 0, 0, 0, 0, 0, 0, 0, 0, 0, 0, 0], "stateRewards": ["", 1, 2, -5, 14, 54, -14, -25, 16, -5, -87, 78, -1, 1, 3, -3, 52, 53, 53, -10, 73, -69, -48, 2, 3, 1, 8, -62, -7, 85, 7, 82, 52, -28], "withholdReward": false, "trial_id": "mdp_trial_6", "block": "test", "trialIndex": 7, "score": 85.2, "costs": -9.8, "simulationMode": [null, null, null, null, null], "rewards": [2, 3, 1, 7, 82], "path": ["0", "0", "23", "24", "25", "30", "31"], "rt": [24736, 2, 3, 2, 93], "actions": ["left", "left", "left", "down", "right"], "actionTimes": [39933, 41152, 42356, 43549, 44826], "queries": {"click": {"state": {"target": ["25", "3", "14", "7", "16", "20", "31"], "time": [17970, 21516, 24442, 28197, 31512, 34361, 37479]}, "edge": {"target": [], "time": []}}, "mouseover": {"state": {"target": ["24", "25", "3", "14", "17", "7", "16", "20", "31", "21"], "time": [16967, 17461, 19203, 22525, 25432, 26949, 29909, 32484, 35578, 38448]}, "edge": {"target": [], "time": []}}, "mouseout": {"state": {"target": ["0", "24", "25", "3", "14", "17", "7", "16", "20", "31", "21"], "time": [15927, 17224, 18968, 22285, 25198, 26445, 29425, 32250, 35347, 38213, 56476]}, "edge": {"target": [], "time": []}}}, "displayed_time": "46.02", "trialTime": 57151, "trial_type": "mouselab-mdp", "trial_index": 14, "time_elapsed": 936953, "internal_node_id": "0.0-4.0-1.0-5.0"}}, {"uniqueid": "w93755636:a19612908", "current_trial": 15, "dateTime": 1691160314365, "trialdata": {"revealed_states": [], "clicked_states": ["27", "11", "10", "5", "6", "16", "17", "20", "21", "22"], "num_clicks_accrued": [0, 0, 0, 0, 0, 0, 0, 0, 0, 0, 0, 0, 0], "stateRewards": ["", -2, 2, -2, -7, -50, -62, -45, 7, 36, -24, -72, -1, -1, 8, -1, -67, 20, -52, 2, 35, -50, 80, -1, 1, 6, -6, -70, 6, 88, 8, -47, 74, -19], "withholdReward": false, "trial_id": "mdp_trial_7", "block": "test", "trialIndex": 8, "score": 74, "costs": -14.000000000000002, "simulationMode": [null, null, null, null, null], "rewards": [-1, -1, 8, 2, 80], "path": ["0", "0", "12", "13", "14", "19", "22"], "rt": [31804, 329, 366, 3, 474], "actions": ["right", "right", "right", "down", "left"], "actionTimes": [47172, 48497, 49832, 51016, 52662], "queries": {"click": {"state": {"target": ["27", "11", "10", "5", "6", "16", "17", "20", "21", "22"], "time": [17848, 21295, 24089, 26776, 30185, 32980, 35597, 38506, 41248, 44013]}, "edge": {"target": [], "time": []}}, "mouseover": {"state": {"target": ["27", "11", "10", "5", "9", "6", "16", "17", "20", "21", "22", "31"], "time": [17257, 18845, 22275, 25060, 28006, 29247, 31414, 33951, 36557, 39466, 42448, 44991]}, "edge": {"target": [], "time": []}}, "mouseout": {"state": {"target": ["21", "0", "27", "11", "10", "5", "9", "6", "16", "17", "20", "21", "22", "31"], "time": [820, 1445, 18604, 22037, 24823, 27770, 28506, 31180, 33719, 36325, 39235, 42218, 44761, 55342]}, "edge": {"target": [], "time": []}}}, "displayed_time": "53.85", "trialTime": 56267, "trial_type": "mouselab-mdp", "trial_index": 15, "time_elapsed": 1008662, "internal_node_id": "0.0-4.0-1.0-6.0"}}, {"uniqueid": "w93755636:a19612908", "current_trial": 16, "dateTime": 1691160379861, "trialdata": {"revealed_states": [], "clicked_states": ["31", "32", "33", "29", "27", "28", "10", "7"], "num_clicks_accrued": [0, 0, 0, 0, 0, 0, 0, 0, 0, 0, 0, 0, 0], "stateRewards": ["", -1, 1, -5, -6, -78, 47, -13, 12, 48, -88, 20, 2, -3, -2, 13, -20, 37, -57, 14, -38, 30, 31, -2, -2, 8, 2, -23, 78, 28, 12, -74, -88, 8], "withholdReward": false, "trial_id": "mdp_trial_8", "block": "test", "trialIndex": 9, "score": 72.8, "costs": -11.200000000000001, "simulationMode": [null, null, null, null, null], "rewards": [-2, -2, 8, 2, 78], "path": ["0", "0", "23", "24", "25", "26", "28"], "rt": [24741, 2, 3, 3, 2], "actions": ["left", "left", "left", "up", "right"], "actionTimes": [41414, 42384, 43581, 44785, 46222], "queries": {"click": {"state": {"target": ["31", "32", "33", "29", "27", "28", "10", "7"], "time": [19193, 22369, 25020, 27888, 30518, 33398, 36224, 39069]}, "edge": {"target": [], "time": []}}, "mouseover": {"state": {"target": ["31", "32", "33", "29", "27", "28", "10", "7"], "time": [18621, 20183, 23349, 26007, 29107, 31751, 34621, 37441]}, "edge": {"target": [], "time": []}}, "mouseout": {"state": {"target": ["31", "0", "31", "32", "33", "29", "27", "28", "10", "7"], "time": [1830, 18361, 19944, 23108, 25764, 28873, 31510, 34386, 37209, 49347]}, "edge": {"target": [], "time": []}}}, "displayed_time": "47.47", "trialTime": 49982, "trial_type": "mouselab-mdp", "trial_index": 16, "time_elapsed": 1074159, "internal_node_id": "0.0-4.0-1.0-7.0"}}, {"uniqueid": "w93755636:a19612908", "current_trial": 17, "dateTime": 1691160447625, "trialdata": {"revealed_states": [], "clicked_states": ["7", "6", "5", "9", "16", "17", "20", "21", "27"], "num_clicks_accrued": [0, 0, 0, 0, 0, 0, 0, 0, 0, 0, 0, 0, 0], "stateRewards": ["", -1, 4, -3, 3, 57, -61, 5, -11, 23, -1, 34, -2, -4, -1, -13, 27, 38, -36, 4, -45, 21, 88, 1, -2, -1, 1, -69, -5, -78, -12, -9, 38, -54], "withholdReward": false, "trial_id": "mdp_trial_9", "block": "test", "trialIndex": 10, "score": 47.4, "costs": -12.600000000000001, "simulationMode": [null, null, null, null, null], "rewards": [-1, 4, -3, 3, 57], "path": ["0", "0", "1", "2", "3", "4", "5"], "rt": [27852, 4, 3, 4, 307], "actions": ["up", "up", "up", "right", "up"], "actionTimes": [44024, 45251, 46447, 47674, 48949], "queries": {"click": {"state": {"target": ["7", "6", "5", "9", "16", "17", "20", "21", "27"], "time": [18235, 21599, 24480, 27171, 29971, 32745, 35678, 38515, 41592]}, "edge": {"target": [], "time": []}}, "mouseover": {"state": {"target": ["7", "6", "5", "9", "16", "17", "20", "21", "31", "27", "11"], "time": [17726, 19471, 22575, 25467, 28165, 31210, 33979, 36913, 39522, 40245, 42852]}, "edge": {"target": [], "time": []}}, "mouseout": {"state": {"target": ["7", "0", "7", "6", "5", "9", "16", "17", "20", "21", "31", "27", "11"], "time": [1720, 16908, 19232, 22337, 25227, 27929, 30964, 33745, 36680, 39275, 40013, 42609, 51767]}, "edge": {"target": [], "time": []}}}, "displayed_time": "50.12", "trialTime": 52363, "trial_type": "mouselab-mdp", "trial_index": 17, "time_elapsed": 1141922, "internal_node_id": "0.0-4.0-1.0-8.0"}}, {"uniqueid": "w93755636:a19612908", "current_trial": 18, "dateTime": 1691160503656, "trialdata": {"revealed_states": [], "clicked_states": ["10", "31", "32", "33"], "num_clicks_accrued": [0, 0, 0, 0, 0, 0, 0, 0, 0, 0, 0, 0, 0], "stateRewards": ["", -2, 4, -3, -13, 63, -36, 62, 11, 78, 34, -51, 2, -2, 8, -6, -40, -18, 31, 9, 64, 39, 79, 1, 4, -4, 15, -12, 76, 73, -10, -77, 86, -4], "withholdReward": false, "trial_id": "mdp_trial_10", "block": "test", "trialIndex": 11, "score": 71.4, "costs": -5.6, "simulationMode": [null, null, null, null, null], "rewards": [1, 4, -4, -10, 86], "path": ["0", "0", "23", "24", "25", "30", "32"], "rt": [13258, 3, 3, 3, 3], "actions": ["left", "left", "left", "down", "down"], "actionTimes": [29806, 31037, 32256, 33478, 34689], "queries": {"click": {"state": {"target": ["10", "31", "32", "33"], "time": [18543, 21932, 24616, 27410]}, "edge": {"target": [], "time": []}}, "mouseover": {"state": {"target": ["10", "31", "32", "33", "28"], "time": [18040, 19801, 22912, 25588, 28626]}, "edge": {"target": [], "time": []}}, "mouseout": {"state": {"target": ["11", "10", "31", "32", "33", "28"], "time": [1823, 19558, 22675, 25351, 28393, 38559]}, "edge": {"target": [], "time": []}}}, "displayed_time": "39.20", "trialTime": 40301, "trial_type": "mouselab-mdp", "trial_index": 18, "time_elapsed": 1197952, "internal_node_id": "0.0-4.0-1.0-9.0"}}, {"uniqueid": "w93755636:a19612908", "current_trial": 19, "dateTime": 1691160556277, "trialdata": {"revealed_states": [], "clicked_states": ["27", "9"], "num_clicks_accrued": [0, 0, 0, 0, 0, 0, 0, 0, 0, 0, 0, 0, 0], "stateRewards": ["", 2, -1, 5, 6, 10, 86, 55, 10, -45, 63, -71, 1, -2, 5, -8, -50, -72, 36, 15, 61, 12, 33, -1, -4, 6, 5, 79, -56, -21, -16, -87, 60, -81], "withholdReward": false, "trial_id": "mdp_trial_11", "block": "test", "trialIndex": 12, "score": 82.2, "costs": -2.8, "simulationMode": [null, null, null, null, null], "rewards": [-1, -4, 6, 5, 79], "path": ["0", "0", "23", "24", "25", "26", "27"], "rt": [9021, 298, 398, 337, 2], "actions": ["left", "left", "left", "up", "up"], "actionTimes": [25130, 26417, 27811, 29139, 30365], "queries": {"click": {"state": {"target": ["27", "9"], "time": [18931, 22126]}, "edge": {"target": [], "time": []}}, "mouseover": {"state": {"target": ["26", "27", "9", "5"], "time": [17097, 18418, 20163, 24149]}, "edge": {"target": [], "time": []}}, "mouseout": {"state": {"target": ["0", "26", "27", "9", "5", "12"], "time": [16858, 18140, 19926, 23393, 32840, 34533]}, "edge": {"target": [], "time": []}}}, "displayed_time": "35.85", "trialTime": 36927, "trial_type": "mouselab-mdp", "trial_index": 19, "time_elapsed": 1250574, "internal_node_id": "0.0-4.0-1.0-10.0"}}, {"uniqueid": "w93755636:a19612908", "current_trial": 20, "dateTime": 1691160641289, "trialdata": {"revealed_states": [], "clicked_states": ["6", "7", "16", "17", "20", "21", "22", "9", "10", "27", "29", "28", "31", "32", "33"], "num_clicks_accrued": [0, 0, 0, 0, 0, 0, 0, 0, 0, 0, 0, 0, 0], "stateRewards": ["", -1, 2, -6, 6, -82, -19, -39, -16, -83, 11, -33, -2, -2, 4, -6, -82, -1, -19, -6, -10, -67, -41, -2, 1, -7, 16, -23, -78, -52, 14, 31, -71, 74], "withholdReward": false, "trial_id": "mdp_trial_12", "block": "test", "trialIndex": 13, "score": 59, "costs": -20.999999999999996, "simulationMode": [null, null, null, null, null], "rewards": [-2, 1, -7, 14, 74], "path": ["0", "0", "23", "24", "25", "30", "33"], "rt": [45017, 2, 3, 3, 467], "actions": ["left", "left", "left", "down", "left"], "actionTimes": [61038, 62242, 63641, 64822, 66441], "queries": {"click": {"state": {"target": ["6", "7", "16", "17", "20", "21", "22", "9", "10", "27", "29", "28", "31", "32", "33"], "time": [18051, 21459, 24178, 26942, 29679, 32260, 35156, 38341, 40972, 43812, 46602, 49414, 52175, 55024, 57773]}, "edge": {"target": [], "time": []}}, "mouseover": {"state": {"target": ["6", "7", "16", "17", "20", "21", "22", "8", "9", "10", "27", "29", "28", "31", "32", "33", "11"], "time": [17550, 19289, 22441, 25141, 28151, 30644, 33214, 36373, 37082, 39298, 41932, 45001, 47771, 50587, 53338, 55956, 58963]}, "edge": {"target": [], "time": []}}, "mouseout": {"state": {"target": ["0", "6", "7", "16", "17", "20", "21", "22", "8", "9", "10", "27", "29", "28", "31", "32", "33", "11"], "time": [16755, 19054, 22205, 24906, 27918, 30411, 32979, 36134, 36847, 39068, 41702, 44775, 47546, 50361, 53112, 55731, 58736, 68533]}, "edge": {"target": [], "time": []}}}, "displayed_time": "67.60", "trialTime": 69323, "trial_type": "mouselab-mdp", "trial_index": 20, "time_elapsed": 1335587, "internal_node_id": "0.0-4.0-1.0-11.0"}}, {"uniqueid": "w93755636:a19612908", "current_trial": 21, "dateTime": 1691160698372, "trialdata": {"revealed_states": [], "clicked_states": ["11", "27", "21"], "num_clicks_accrued": [0, 0, 0, 0, 0, 0, 0, 0, 0, 0, 0, 0, 0], "stateRewards": ["", 1, 2, 8, -2, 23, -69, -18, -16, 54, -21, 71, -1, -4, 7, 11, 43, -6, 88, 6, -55, 72, 43, 1, -3, -2, -1, 68, -31, -54, 4, -8, 25, -2], "withholdReward": false, "trial_id": "mdp_trial_13", "block": "test", "trialIndex": 14, "score": 75.8, "costs": -4.199999999999999, "simulationMode": [null, null, null, null, null], "rewards": [-1, -4, 7, 6, 72], "path": ["0", "0", "12", "13", "14", "19", "21"], "rt": [13286, 302, 352, 4, 24], "actions": ["right", "right", "right", "down", "down"], "actionTimes": [29471, 30766, 32094, 33371, 34628], "queries": {"click": {"state": {"target": ["11", "27", "21"], "time": [18913, 22505, 25837]}, "edge": {"target": [], "time": []}}, "mouseover": {"state": {"target": ["11", "27", "21", "22"], "time": [18417, 20150, 24482, 27053]}, "edge": {"target": [], "time": []}}, "mouseout": {"state": {"target": ["11", "0", "11", "27", "21", "22"], "time": [1979, 17997, 19914, 23727, 26563, 40539]}, "edge": {"target": [], "time": []}}}, "displayed_time": "38.63", "trialTime": 41632, "trial_type": "mouselab-mdp", "trial_index": 21, "time_elapsed": 1392669, "internal_node_id": "0.0-4.0-1.0-12.0"}}, {"uniqueid": "w93755636:a19612908", "current_trial": 22, "dateTime": 1691160779886, "trialdata": {"revealed_states": [], "clicked_states": ["10", "28", "33", "22", "18", "7", "5", "6", "11", "9", "27", "29", "31"], "num_clicks_accrued": [0, 0, 0, 0, 0, 0, 0, 0, 0, 0, 0, 0, 0], "stateRewards": ["", -2, 2, 2, -6, 9, 37, 50, -13, -7, -18, -75, -2, -4, 4, 7, 23, -57, -66, -7, -81, -48, -76, 1, 1, -8, 1, 51, -2, 70, 14, 59, 71, -37], "withholdReward": false, "trial_id": "mdp_trial_14", "block": "test", "trialIndex": 15, "score": 46.8, "costs": -18.2, "simulationMode": [null, null, null, null, null], "rewards": [1, 1, -8, 1, 70], "path": ["0", "0", "23", "24", "25", "26", "29"], "rt": [41534, 3, 3, 396, 3], "actions": ["left", "left", "left", "up", "left"], "actionTimes": [57633, 58803, 59957, 61500, 62659], "queries": {"click": {"state": {"target": ["10", "28", "33", "22", "18", "7", "5", "6", "11", "9", "27", "29", "31"], "time": [18398, 21832, 25096, 27725, 30881, 33789, 36809, 39516, 42943, 46468, 49266, 52192, 55260]}, "edge": {"target": [], "time": []}}, "mouseover": {"state": {"target": ["8", "10", "28", "27", "33", "22", "18", "7", "5", "6", "27", "11", "9", "27", "29", "31"], "time": [17089, 17881, 19658, 22829, 24166, 26362, 29910, 32091, 34982, 37800, 40465, 42451, 44135, 47446, 50438, 53150]}, "edge": {"target": [], "time": []}}, "mouseout": {"state": {"target": ["0", "8", "10", "28", "27", "33", "22", "18", "7", "5", "6", "27", "11", "9", "27", "29", "31"], "time": [16836, 17620, 19416, 22588, 23598, 25859, 29417, 31859, 34753, 37530, 40238, 42202, 43910, 47205, 50212, 52913, 65260]}, "edge": {"target": [], "time": []}}}, "displayed_time": "63.81", "trialTime": 66356, "trial_type": "mouselab-mdp", "trial_index": 22, "time_elapsed": 1474183, "internal_node_id": "0.0-4.0-1.0-13.0"}}, {"uniqueid": "w93755636:a19612908", "current_trial": 23, "dateTime": 1691160834321, "trialdata": {"revealed_states": [], "clicked_states": ["7", "5", "11"], "num_clicks_accrued": [0, 0, 0, 0, 0, 0, 0, 0, 0, 0, 0, 0, 0], "stateRewards": ["", -1, 1, 8, -8, -49, 62, -78, 16, 28, -81, 78, -2, -3, -1, -4, 67, 49, -2, -13, -16, -39, 83, 1, -4, 4, -5, -20, 7, 84, 7, -32, -59, 19], "withholdReward": false, "trial_id": "mdp_trial_15", "block": "test", "trialIndex": 16, "score": 97.8, "costs": -4.199999999999999, "simulationMode": [null, null, null, null, null], "rewards": [-1, 1, 8, 16, 78], "path": ["0", "0", "1", "2", "3", "8", "11"], "rt": [11335, 330, 337, 2, 3], "actions": ["up", "up", "up", "left", "left"], "actionTimes": [26521, 27859, 29176, 30399, 31607], "queries": {"click": {"state": {"target": ["7", "5", "11"], "time": [17241, 20293, 23251]}, "edge": {"target": [], "time": []}}, "mouseover": {"state": {"target": ["7", "5", "11", "33"], "time": [16738, 18553, 21540, 24509]}, "edge": {"target": [], "time": []}}, "mouseout": {"state": {"target": ["0", "7", "5", "11", "33"], "time": [16468, 18307, 21295, 24006, 35192]}, "edge": {"target": [], "time": []}}}, "displayed_time": "38.20", "trialTime": 38857, "trial_type": "mouselab-mdp", "trial_index": 23, "time_elapsed": 1528619, "internal_node_id": "0.0-4.0-1.0-14.0"}}, {"uniqueid": "w93755636:a19612908", "current_trial": 24, "dateTime": 1691160897295, "trialdata": {"revealed_states": [], "clicked_states": ["20", "29", "33", "9", "5"], "num_clicks_accrued": [0, 0, 0, 0, 0, 0, 0, 0, 0, 0, 0, 0, 0], "stateRewards": ["", 2, -4, -4, 13, -80, 62, 13, -11, 57, -13, -44, 1, 4, 3, -4, -29, -88, 15, 16, -58, 68, -45, -1, -3, -1, -9, -44, -86, -19, -7, -36, 59, 66], "withholdReward": false, "trial_id": "mdp_trial_16", "block": "test", "trialIndex": 17, "score": 47, "costs": -7, "simulationMode": [null, null, null, null, null], "rewards": [-1, -3, -1, -7, 66], "path": ["0", "0", "23", "24", "25", "30", "33"], "rt": [20915, 332, 340, 3, 172], "actions": ["left", "left", "left", "down", "left"], "actionTimes": [37804, 39161, 40458, 41671, 43048], "queries": {"click": {"state": {"target": ["20", "29", "33", "9", "5"], "time": [19584, 24164, 27557, 30468, 33421]}, "edge": {"target": [], "time": []}}, "mouseover": {"state": {"target": ["14", "20", "28", "29", "33", "9", "5", "6", "16", "6"], "time": [18588, 19088, 23081, 23621, 25541, 28572, 31955, 35163, 36149, 37192]}, "edge": {"target": [], "time": []}}, "mouseout": {"state": {"target": ["23", "0", "14", "20", "28", "29", "33", "9", "5", "6", "16", "6"], "time": [1943, 18324, 18848, 20580, 23356, 25295, 28326, 31468, 34925, 35660, 36941, 45949]}, "edge": {"target": [], "time": []}}}, "displayed_time": "44.26", "trialTime": 47341, "trial_type": "mouselab-mdp", "trial_index": 24, "time_elapsed": 1591592, "internal_node_id": "0.0-4.0-1.0-15.0"}}, {"uniqueid": "w93755636:a19612908", "current_trial": 25, "dateTime": 1691160960275, "trialdata": {"revealed_states": [], "clicked_states": ["31", "33", "29", "27", "9", "32"], "num_clicks_accrued": [0, 0, 0, 0, 0, 0, 0, 0, 0, 0, 0, 0, 0], "stateRewards": ["", 2, 3, 6, -5, -74, -53, 17, -12, 46, 44, 18, -2, 4, 1, -8, 22, -23, -49, 9, -45, 55, 81, 1, -1, -7, -16, -83, -71, -45, 2, 51, 82, 61], "withholdReward": false, "trial_id": "mdp_trial_17", "block": "test", "trialIndex": 18, "score": 68.6, "costs": -8.4, "simulationMode": [null, null, null, null, null], "rewards": [1, -1, -7, 2, 82], "path": ["0", "0", "23", "24", "25", "30", "32"], "rt": [21055, 319, 2, 3, 2], "actions": ["left", "left", "left", "down", "down"], "actionTimes": [38793, 40085, 41535, 42749, 43956], "queries": {"click": {"state": {"target": ["31", "33", "29", "27", "9", "32"], "time": [20004, 23374, 26493, 29764, 32556, 35558]}, "edge": {"target": [], "time": []}}, "mouseover": {"state": {"target": ["31", "33", "29", "32", "27", "9", "32", "5"], "time": [19498, 21009, 25919, 27483, 28717, 30740, 33777, 36551]}, "edge": {"target": [], "time": []}}, "mouseout": {"state": {"target": ["0", "31", "33", "29", "32", "27", "9", "32", "5"], "time": [19210, 20767, 25663, 27238, 27975, 30499, 33292, 36316, 46617]}, "edge": {"target": [], "time": []}}}, "displayed_time": "45.16", "trialTime": 47541, "trial_type": "mouselab-mdp", "trial_index": 25, "time_elapsed": 1654572, "internal_node_id": "0.0-4.0-1.0-16.0"}}, {"uniqueid": "w93755636:a19612908", "current_trial": 26, "dateTime": 1691161029057, "trialdata": {"revealed_states": [], "clicked_states": ["25", "14", "3", "16", "21", "20", "31", "32", "33"], "num_clicks_accrued": [0, 0, 0, 0, 0, 0, 0, 0, 0, 0, 0, 0, 0], "stateRewards": ["", 2, -1, -4, -13, 74, 77, 3, 2, -43, -2, -11, 2, 3, 7, 11, -26, -29, -33, -3, -3, -13, -3, 1, 3, -7, 14, -59, 33, 9, -5, 34, 79, 68], "withholdReward": false, "trial_id": "mdp_trial_18", "block": "test", "trialIndex": 19, "score": 58.4, "costs": -12.600000000000001, "simulationMode": [null, null, null, null, null], "rewards": [1, 3, -7, -5, 79], "path": ["0", "0", "23", "24", "25", "30", "32"], "rt": [29155, 3, 3, 3, 3], "actions": ["left", "left", "left", "down", "down"], "actionTimes": [45206, 46406, 47603, 48780, 49968], "queries": {"click": {"state": {"target": ["25", "14", "3", "16", "21", "20", "31", "32", "33"], "time": [18473, 21751, 24423, 27925, 31330, 34215, 36875, 39695, 42580]}, "edge": {"target": [], "time": []}}, "mouseover": {"state": {"target": ["23", "25", "14", "3", "5", "16", "21", "20", "31", "32", "33"], "time": [17463, 17964, 19700, 22740, 25412, 27432, 29145, 32309, 35181, 37847, 40889]}, "edge": {"target": [], "time": []}}, "mouseout": {"state": {"target": ["5", "0", "23", "25", "14", "3", "5", "16", "21", "20", "31", "32", "33", "33"], "time": [1498, 2129, 17721, 19464, 22503, 25165, 27051, 28913, 32073, 34946, 37612, 40656, 43540, 52774]}, "edge": {"target": [], "time": []}}}, "displayed_time": "51.16", "trialTime": 53221, "trial_type": "mouselab-mdp", "trial_index": 26, "time_elapsed": 1723354, "internal_node_id": "0.0-4.0-1.0-17.0"}}, {"uniqueid": "w93755636:a19612908", "current_trial": 27, "dateTime": 1691161107564, "trialdata": {"revealed_states": [], "clicked_states": ["27", "32", "9", "31", "33", "5", "6", "7", "16", "17", "20", "21"], "num_clicks_accrued": [0, 0, 0, 0, 0, 0, 0, 0, 0, 0, 0, 0, 0], "stateRewards": ["", 2, 3, -1, 16, -78, -11, 46, 2, -20, 79, -67, 2, 3, 2, 11, -83, -42, -58, -11, -67, -22, 55, 2, -1, -1, -16, -83, -82, 23, -11, -29, 13, 13], "withholdReward": false, "trial_id": "mdp_trial_19", "block": "test", "trialIndex": 20, "score": 49.2, "costs": -16.8, "simulationMode": [null, null, null, null, null], "rewards": [2, 3, -1, 16, 46], "path": ["0", "0", "1", "2", "3", "4", "7"], "rt": [39784, 4, 2, 3, 3], "actions": ["up", "up", "up", "right", "down"], "actionTimes": [54929, 56119, 57299, 58478, 59650], "queries": {"click": {"state": {"target": ["27", "32", "9", "31", "33", "5", "6", "7", "16", "17", "20", "21"], "time": [17728, 21344, 24597, 28312, 31033, 33969, 36722, 39580, 42680, 45747, 48571, 51345]}, "edge": {"target": [], "time": []}}, "mouseover": {"state": {"target": ["27", "24", "32", "9", "31", "33", "5", "6", "7", "16", "17", "20", "21", "22"], "time": [17002, 18741, 19488, 22325, 25843, 29276, 32256, 34942, 37940, 41591, 44370, 46690, 49749, 52276]}, "edge": {"target": [], "time": []}}, "mouseout": {"state": {"target": ["0", "27", "24", "32", "9", "31", "33", "5", "6", "7", "16", "17", "20", "21", "22"], "time": [15910, 18495, 19242, 22087, 25607, 29041, 32020, 34709, 37704, 40309, 43896, 46461, 49522, 52048, 54335]}, "edge": {"target": [], "time": []}}}, "displayed_time": "60.82", "trialTime": 63159, "trial_type": "mouselab-mdp", "trial_index": 27, "time_elapsed": 1801862, "internal_node_id": "0.0-4.0-1.0-18.0"}}, {"uniqueid": "w93755636:a19612908", "current_trial": 28, "dateTime": 1691161157141, "trialdata": {"revealed_states": [], "clicked_states": ["10"], "num_clicks_accrued": [0, 0, 0, 0, 0, 0, 0, 0, 0, 0, 0, 0, 0], "stateRewards": ["", 2, 3, 8, 11, 25, -80, 6, -4, -56, 84, -23, -2, -4, -3, 4, -51, -9, -61, -15, -64, 67, -35, 1, -1, -7, -6, 83, 59, -15, 12, -79, 56, 41], "withholdReward": false, "trial_id": "mdp_trial_20", "block": "test", "trialIndex": 21, "score": 91.6, "costs": -1.4, "simulationMode": [null, null, null, null, null], "rewards": [2, 3, 8, -4, 84], "path": ["0", "0", "1", "2", "3", "8", "10"], "rt": [6114, 348, 509, 297, 317], "actions": ["up", "up", "up", "left", "down"], "actionTimes": [21739, 23083, 24332, 25613, 26914], "queries": {"click": {"state": {"target": ["10"], "time": [17814]}, "edge": {"target": [], "time": []}}, "mouseover": {"state": {"target": ["10"], "time": [17324]}, "edge": {"target": [], "time": []}}, "mouseout": {"state": {"target": ["0", "10"], "time": [17071, 20057]}, "edge": {"target": [], "time": []}}}, "displayed_time": "32.67", "trialTime": 34266, "trial_type": "mouselab-mdp", "trial_index": 28, "time_elapsed": 1851438, "internal_node_id": "0.0-4.0-1.0-19.0"}}, {"uniqueid": "w93755636:a19612908", "current_trial": 29, "dateTime": 1691161215963, "trialdata": {"revealed_states": [], "clicked_states": ["9", "7", "10", "27", "33"], "num_clicks_accrued": [0, 0, 0, 0, 0, 0, 0, 0, 0, 0, 0, 0, 0], "stateRewards": ["", 2, 3, 8, 14, 69, -27, 17, 2, -71, -65, -10, 2, -3, 7, 8, 65, -10, 65, -12, 73, -12, 13, -2, -2, 6, 10, -79, -69, -18, 10, -85, 67, 74], "withholdReward": false, "trial_id": "mdp_trial_21", "block": "test", "trialIndex": 22, "score": 79, "costs": -7, "simulationMode": [null, null, null, null, null], "rewards": [-2, -2, 6, 10, 74], "path": ["0", "0", "23", "24", "25", "30", "33"], "rt": [17406, 2, 2, 3, 3], "actions": ["left", "left", "left", "down", "left"], "actionTimes": [33106, 34353, 35803, 37017, 38253], "queries": {"click": {"state": {"target": ["9", "7", "10", "27", "33"], "time": [18016, 21230, 24251, 27047, 29945]}, "edge": {"target": [], "time": []}}, "mouseover": {"state": {"target": ["9", "7", "10", "27", "33", "22"], "time": [17434, 19259, 22473, 25230, 28026, 30927]}, "edge": {"target": [], "time": []}}, "mouseout": {"state": {"target": ["0", "9", "7", "10", "27", "33", "22"], "time": [17179, 18758, 22236, 24995, 27789, 30694, 42669]}, "edge": {"target": [], "time": []}}}, "displayed_time": "41.51", "trialTime": 43582, "trial_type": "mouselab-mdp", "trial_index": 29, "time_elapsed": 1910261, "internal_node_id": "0.0-4.0-1.0-20.0"}}, {"uniqueid": "w93755636:a19612908", "current_trial": 30, "dateTime": 1691161281602, "trialdata": {"revealed_states": [], "clicked_states": ["6", "16", "7", "22", "31", "33", "10"], "num_clicks_accrued": [0, 0, 0, 0, 0, 0, 0, 0, 0, 0, 0, 0, 0], "stateRewards": ["", 2, 4, -3, 16, -58, 30, -35, 11, -60, 47, 27, -2, -1, -7, -16, 23, -70, 68, -10, -65, -43, -34, -2, 1, 7, 9, -63, 34, -31, -8, -12, -86, 59], "withholdReward": false, "trial_id": "mdp_trial_22", "block": "test", "trialIndex": 23, "score": 47.2, "costs": -9.8, "simulationMode": [null, null, null, null, null], "rewards": [-2, 1, 7, -8, 59], "path": ["0", "0", "23", "24", "25", "30", "33"], "rt": [25604, 387, 338, 2, 313], "actions": ["left", "left", "left", "down", "left"], "actionTimes": [41412, 42779, 44094, 45293, 46798], "queries": {"click": {"state": {"target": ["6", "16", "7", "22", "31", "33", "10"], "time": [17847, 21064, 24524, 28217, 31549, 34936, 38719]}, "edge": {"target": [], "time": []}}, "mouseover": {"state": {"target": ["6", "16", "7", "18", "22", "31", "33", "29", "10"], "time": [17348, 19106, 24030, 25749, 26489, 30971, 33503, 35909, 37190]}, "edge": {"target": [], "time": []}}, "mouseout": {"state": {"target": ["22", "0", "6", "16", "7", "18", "22", "31", "33", "29", "10"], "time": [1443, 16557, 18871, 22559, 25503, 26242, 30204, 33250, 35675, 36935, 49238]}, "edge": {"target": [], "time": []}}}, "displayed_time": "48.00", "trialTime": 50292, "trial_type": "mouselab-mdp", "trial_index": 30, "time_elapsed": 1975900, "internal_node_id": "0.0-4.0-1.0-21.0"}}, {"uniqueid": "w93755636:a19612908", "current_trial": 31, "dateTime": 1691161345457, "trialdata": {"revealed_states": [], "clicked_states": ["10", "28", "31", "29", "33", "18"], "num_clicks_accrued": [0, 0, 0, 0, 0, 0, 0, 0, 0, 0, 0, 0, 0], "stateRewards": ["", 1, -2, -8, -3, 31, -84, -55, -14, 15, -58, 17, -2, -3, 7, 7, -12, 48, 67, 4, -44, -68, 46, 2, 3, -5, -7, 76, 27, 5, 11, 57, 52, 59], "withholdReward": false, "trial_id": "mdp_trial_23", "block": "test", "trialIndex": 24, "score": 67.6, "costs": -8.4, "simulationMode": [null, null, null, null, null], "rewards": [-2, -3, 7, 7, 67], "path": ["0", "0", "12", "13", "14", "15", "18"], "rt": [22366, 292, 2, 2, 389], "actions": ["right", "right", "right", "up", "left"], "actionTimes": [38470, 39739, 40938, 42148, 43587], "queries": {"click": {"state": {"target": ["10", "28", "31", "29", "33", "18"], "time": [18381, 21622, 24581, 27919, 30875, 34532]}, "edge": {"target": [], "time": []}}, "mouseover": {"state": {"target": ["10", "28", "31", "29", "33", "18"], "time": [17851, 19372, 22875, 26796, 29405, 31844]}, "edge": {"target": [], "time": []}}, "mouseout": {"state": {"target": ["23", "0", "10", "28", "31", "29", "33", "18"], "time": [2020, 17592, 19134, 22637, 26054, 28913, 31607, 37946]}, "edge": {"target": [], "time": []}}}, "displayed_time": "44.80", "trialTime": 48365, "trial_type": "mouselab-mdp", "trial_index": 31, "time_elapsed": 2039755, "internal_node_id": "0.0-4.0-1.0-22.0"}}, {"uniqueid": "w93755636:a19612908", "current_trial": 32, "dateTime": 1691161410695, "trialdata": {"revealed_states": [], "clicked_states": ["10", "7", "32", "21", "17", "20", "22", "28"], "num_clicks_accrued": [0, 0, 0, 0, 0, 0, 0, 0, 0, 0, 0, 0, 0], "stateRewards": ["", 1, -4, 6, -3, 40, 76, -51, 5, -24, -63, 44, -2, -2, 8, 1, 76, -85, -58, 10, 59, 20, 11, -2, 3, -3, 3, -82, -10, 54, -7, -57, -6, -32], "withholdReward": false, "trial_id": "mdp_trial_24", "block": "test", "trialIndex": 25, "score": 61.8, "costs": -11.200000000000001, "simulationMode": [null, null, null, null, null], "rewards": [-2, -2, 8, 10, 59], "path": ["0", "0", "12", "13", "14", "19", "20"], "rt": [24646, 3, 2, 2, 60], "actions": ["right", "right", "right", "down", "right"], "actionTimes": [41563, 42783, 43973, 45176, 46431], "queries": {"click": {"state": {"target": ["10", "7", "32", "21", "17", "20", "22", "28"], "time": [19088, 22127, 24761, 27332, 30244, 33105, 36126, 39129]}, "edge": {"target": [], "time": []}}, "mouseover": {"state": {"target": ["10", "7", "32", "21", "17", "20", "22", "28"], "time": [18544, 20119, 23125, 25737, 28309, 31479, 34077, 37353]}, "edge": {"target": [], "time": []}}, "mouseout": {"state": {"target": ["15", "12", "0", "10", "7", "32", "21", "17", "20", "22", "28", "28"], "time": [2537, 2798, 3053, 19875, 22887, 25502, 28076, 31245, 33845, 37119, 40816, 49613]}, "edge": {"target": [], "time": []}}}, "displayed_time": "47.62", "trialTime": 49963, "trial_type": "mouselab-mdp", "trial_index": 32, "time_elapsed": 2104992, "internal_node_id": "0.0-4.0-1.0-23.0"}}, {"uniqueid": "w93755636:a19612908", "current_trial": 33, "dateTime": 1691161512495, "trialdata": {"revealed_states": [], "clicked_states": ["29", "11", "5", "16", "22", "20", "32", "10", "9", "27", "28", "33", "6", "7", "18", "17", "21", "31"], "num_clicks_accrued": [0, 0, 0, 0, 0, 0, 0, 0, 0, 0, 0, 0, 0], "stateRewards": ["", 2, -1, -3, 16, -3, -16, -62, -1, 13, -26, 43, -1, 4, 3, -9, -54, -37, -3, -12, -71, -68, -57, 1, -3, 2, -9, 2, -2, -9, -11, 84, -52, 55], "withholdReward": false, "trial_id": "mdp_trial_25", "block": "test", "trialIndex": 26, "score": 47.80000000000001, "costs": -25.199999999999992, "simulationMode": [null, null, null, null, null], "rewards": [1, -3, 2, -11, 84], "path": ["0", "0", "23", "24", "25", "30", "31"], "rt": [61808, 2, 3, 4, 184], "actions": ["left", "left", "left", "down", "right"], "actionTimes": [77878, 79047, 80438, 81600, 82930], "queries": {"click": {"state": {"target": ["29", "11", "5", "16", "22", "20", "32", "10", "9", "27", "28", "33", "6", "7", "18", "17", "21", "31"], "time": [18554, 22500, 25975, 29118, 32770, 36977, 40269, 44260, 47519, 50374, 53453, 56662, 60555, 63503, 66745, 69398, 72208, 74984]}, "edge": {"target": [], "time": []}}, "mouseover": {"state": {"target": ["29", "27", "11", "5", "16", "13", "22", "20", "32", "31", "24", "10", "9", "27", "28", "33", "4", "6", "7", "18", "17", "21", "31"], "time": [17992, 19800, 22005, 24220, 28630, 31790, 32279, 36490, 38193, 41487, 43281, 43767, 45448, 49217, 52967, 54640, 58167, 58883, 63025, 64673, 67686, 70338, 73365]}, "edge": {"target": [], "time": []}}, "mouseout": {"state": {"target": ["0", "29", "27", "11", "5", "16", "13", "22", "22", "20", "32", "31", "24", "10", "9", "27", "28", "33", "4", "6", "7", "18", "17", "21", "31"], "time": [16808, 19301, 20798, 23472, 27198, 30093, 32046, 33737, 36209, 37961, 41253, 43042, 43533, 45221, 48483, 51088, 54411, 57423, 58653, 61282, 64451, 67216, 70110, 73144, 75676]}, "edge": {"target": [], "time": []}}}, "displayed_time": "84.07", "trialTime": 86409, "trial_type": "mouselab-mdp", "trial_index": 33, "time_elapsed": 2206792, "internal_node_id": "0.0-4.0-1.0-24.0"}}, {"uniqueid": "w93755636:a19612908", "current_trial": 34, "dateTime": 1691161566281, "trialdata": {"revealed_states": [], "clicked_states": ["7", "22", "18"], "num_clicks_accrued": [0, 0, 0, 0, 0, 0, 0, 0, 0, 0, 0, 0, 0], "stateRewards": ["", -2, 1, 6, -2, -10, -78, -69, 14, -15, 7, -1, 1, -1, -2, 13, 77, 32, 87, 5, -74, 30, -26, 1, 3, 4, 12, 39, 54, -43, 2, 10, 23, 13], "withholdReward": false, "trial_id": "mdp_trial_26", "block": "test", "trialIndex": 27, "score": 93.8, "costs": -4.199999999999999, "simulationMode": [null, null, null, null, null], "rewards": [1, -1, -2, 13, 87], "path": ["0", "0", "12", "13", "14", "15", "18"], "rt": [11646, 294, 3, 3, 3], "actions": ["right", "right", "right", "up", "left"], "actionTimes": [26425, 27713, 29173, 30399, 31609], "queries": {"click": {"state": {"target": ["7", "22", "18"], "time": [17027, 20413, 23099]}, "edge": {"target": [], "time": []}}, "mouseover": {"state": {"target": ["7", "22", "18"], "time": [16521, 18275, 21400]}, "edge": {"target": [], "time": []}}, "mouseout": {"state": {"target": ["0", "7", "22", "18"], "time": [16263, 18038, 21163, 25094]}, "edge": {"target": [], "time": []}}}, "displayed_time": "35.88", "trialTime": 37842, "trial_type": "mouselab-mdp", "trial_index": 34, "time_elapsed": 2260578, "internal_node_id": "0.0-4.0-1.0-25.0"}}, {"uniqueid": "w93755636:a19612908", "current_trial": 35, "dateTime": 1691161632334, "trialdata": {"revealed_states": [], "clicked_states": ["31", "33", "32", "28", "29", "7"], "num_clicks_accrued": [0, 0, 0, 0, 0, 0, 0, 0, 0, 0, 0, 0, 0], "stateRewards": ["", -1, -3, -6, 14, 41, 18, 63, -14, 80, 21, 17, -2, -4, -2, -5, 13, 70, 8, -4, -64, -10, -20, 2, -1, 4, -1, -17, -55, 42, -7, 47, 54, 15], "withholdReward": false, "trial_id": "mdp_trial_27", "block": "test", "trialIndex": 28, "score": 58.6, "costs": -8.4, "simulationMode": [null, null, null, null, null], "rewards": [-1, -3, -6, 14, 63], "path": ["0", "0", "1", "2", "3", "4", "7"], "rt": [24476, 311, 2, 2, 3], "actions": ["up", "up", "up", "right", "down"], "actionTimes": [40207, 41501, 42720, 44167, 45371], "queries": {"click": {"state": {"target": ["31", "33", "32", "28", "29", "7"], "time": [18258, 21923, 25857, 29556, 33042, 36741]}, "edge": {"target": [], "time": []}}, "mouseover": {"state": {"target": ["31", "33", "28", "32", "28", "27", "29", "7", "27"], "time": [17762, 21353, 24148, 25350, 27090, 32052, 32549, 34261, 37964]}, "edge": {"target": [], "time": []}}, "mouseout": {"state": {"target": ["0", "31", "33", "28", "32", "28", "27", "29", "7", "27"], "time": [17505, 20276, 22652, 24969, 26856, 30284, 32308, 34027, 37474, 49042]}, "edge": {"target": [], "time": []}}}, "displayed_time": "46.59", "trialTime": 49932, "trial_type": "mouselab-mdp", "trial_index": 35, "time_elapsed": 2326631, "internal_node_id": "0.0-4.0-1.0-26.0"}}, {"uniqueid": "w93755636:a19612908", "current_trial": 36, "dateTime": 1691161683501, "trialdata": {"revealed_states": [], "clicked_states": ["27"], "num_clicks_accrued": [0, 0, 0, 0, 0, 0, 0, 0, 0, 0, 0, 0, 0], "stateRewards": ["", -2, 2, 3, -7, -31, -33, 29, -8, -57, 50, -83, -1, -1, 5, 13, -23, -62, 25, 5, -66, -85, 14, 1, -2, -1, 16, 71, 33, -19, -14, 5, -43, 79], "withholdReward": false, "trial_id": "mdp_trial_28", "block": "test", "trialIndex": 29, "score": 83.6, "costs": -1.4, "simulationMode": [null, null, null, null, null], "rewards": [1, -2, -1, 16, 71], "path": ["0", "0", "23", "24", "25", "26", "27"], "rt": [6316, 311, 345, 3, 3], "actions": ["left", "left", "left", "up", "up"], "actionTimes": [21914, 23220, 24546, 25778, 26998], "queries": {"click": {"state": {"target": ["27"], "time": [17915]}, "edge": {"target": [], "time": []}}, "mouseover": {"state": {"target": ["27", "9"], "time": [17409, 19167]}, "edge": {"target": [], "time": []}}, "mouseout": {"state": {"target": ["27", "23", "0", "27", "9"], "time": [1002, 1288, 17148, 18923, 34392]}, "edge": {"target": [], "time": []}}}, "displayed_time": "33.25", "trialTime": 35197, "trial_type": "mouselab-mdp", "trial_index": 36, "time_elapsed": 2377799, "internal_node_id": "0.0-4.0-1.0-27.0"}}, {"uniqueid": "w93755636:a19612908", "current_trial": 37, "dateTime": 1691161738790, "trialdata": {"revealed_states": [], "clicked_states": ["17", "21", "22"], "num_clicks_accrued": [0, 0, 0, 0, 0, 0, 0, 0, 0, 0, 0, 0, 0], "stateRewards": ["", -2, -1, -4, -15, -14, -67, 32, -3, -59, 63, 31, 2, -1, -7, -15, 71, -66, -27, -3, -54, -39, 72, 2, 1, 1, -13, 77, -40, 35, -9, 35, 75, 57], "withholdReward": false, "trial_id": "mdp_trial_29", "block": "test", "trialIndex": 30, "score": 58.8, "costs": -4.199999999999999, "simulationMode": [null, null, null, null, null], "rewards": [2, -1, -7, -3, 72], "path": ["0", "0", "12", "13", "14", "19", "22"], "rt": [13908, 2, 2, 3, 3], "actions": ["right", "right", "right", "down", "left"], "actionTimes": [30581, 31812, 33264, 34476, 35688], "queries": {"click": {"state": {"target": ["17", "21", "22"], "time": [18863, 23210, 27318]}, "edge": {"target": [], "time": []}}, "mouseover": {"state": {"target": ["17", "19", "21", "22", "32"], "time": [17647, 22212, 22710, 26794, 28300]}, "edge": {"target": [], "time": []}}, "mouseout": {"state": {"target": ["9", "0", "0", "0", "17", "19", "21", "22", "32"], "time": [null, 884, 1547, 17411, 19605, 22471, 24442, 28063, 37811]}, "edge": {"target": [], "time": []}}}, "displayed_time": "38.18", "trialTime": 39628, "trial_type": "mouselab-mdp", "trial_index": 37, "time_elapsed": 2433088, "internal_node_id": "0.0-4.0-1.0-28.0"}}, {"uniqueid": "w93755636:a19612908", "current_trial": 38, "dateTime": 1691161796291, "trialdata": {"revealed_states": [], "clicked_states": ["10", "28", "31"], "num_clicks_accrued": [0, 0, 0, 0, 0, 0, 0, 0, 0, 0, 0, 0, 0], "stateRewards": ["", -1, -4, -1, -5, -28, -23, -15, -15, -38, 59, -87, 2, 2, -5, 9, -55, -39, -71, -6, 85, -85, -11, -1, -2, 5, -10, 1, 25, 41, -4, 69, -35, 86], "withholdReward": false, "trial_id": "mdp_trial_30", "block": "test", "trialIndex": 31, "score": 62.8, "costs": -4.199999999999999, "simulationMode": [null, null, null, null, null], "rewards": [-1, -2, 5, -4, 69], "path": ["0", "0", "23", "24", "25", "30", "31"], "rt": [14778, 343, 70, 2, 2], "actions": ["left", "left", "left", "down", "right"], "actionTimes": [32703, 34042, 35078, 36282, 37493], "queries": {"click": {"state": {"target": ["10", "28", "31"], "time": [20226, 23930, 28584]}, "edge": {"target": [], "time": []}}, "mouseover": {"state": {"target": ["10", "28", "24", "31"], "time": [19702, 23436, 27586, 28076]}, "edge": {"target": [], "time": []}}, "mouseout": {"state": {"target": ["0", "10", "28", "24", "31"], "time": [18664, 21226, 24926, 27838, 29564]}, "edge": {"target": [], "time": []}}}, "displayed_time": "39.75", "trialTime": 42083, "trial_type": "mouselab-mdp", "trial_index": 38, "time_elapsed": 2490589, "internal_node_id": "0.0-4.0-1.0-29.0"}}, {"uniqueid": "w93755636:a19612908", "current_trial": 39, "dateTime": 1691161849141, "trialdata": {"revealed_states": [], "clicked_states": ["27", "29"], "num_clicks_accrued": [0, 0, 0, 0, 0, 0, 0, 0, 0, 0, 0, 0, 0], "stateRewards": ["", -1, -1, 4, -16, -75, 81, -51, -7, -84, 73, -30, -2, 1, -3, -16, -77, 33, 14, 1, 45, 87, -66, 2, 2, -5, -7, -19, -17, 79, -3, 8, 49, 47], "withholdReward": false, "trial_id": "mdp_trial_31", "block": "test", "trialIndex": 32, "score": 68.2, "costs": -2.8, "simulationMode": [null, null, null, null, null], "rewards": [2, 2, -5, -7, 79], "path": ["0", "0", "23", "24", "25", "26", "29"], "rt": [10726, 283, 316, 3, 3], "actions": ["left", "left", "left", "up", "left"], "actionTimes": [27108, 28373, 29666, 30883, 32105], "queries": {"click": {"state": {"target": ["27", "29"], "time": [18920, 23030]}, "edge": {"target": [], "time": []}}, "mouseover": {"state": {"target": ["27", "29", "10", "33"], "time": [17359, 22536, 24309, 25305]}, "edge": {"target": [], "time": []}}, "mouseout": {"state": {"target": ["0", "27", "29", "10", "33"], "time": [17125, 19657, 24054, 25071, 36450]}, "edge": {"target": [], "time": []}}}, "displayed_time": "35.60", "trialTime": 37540, "trial_type": "mouselab-mdp", "trial_index": 39, "time_elapsed": 2543438, "internal_node_id": "0.0-4.0-1.0-30.0"}}, {"uniqueid": "w93755636:a19612908", "current_trial": 40, "dateTime": 1691161906055, "trialdata": {"revealed_states": [], "clicked_states": ["21", "7", "9", "11"], "num_clicks_accrued": [0, 0, 0, 0, 0, 0, 0, 0, 0, 0, 0, 0, 0], "stateRewards": ["", -2, 2, -5, 1, 42, -63, -58, -6, 2, 16, 81, -2, 4, 7, -10, 33, 3, -33, -2, -52, -84, -27, 2, -3, -3, 15, -74, -14, -5, -5, -84, 79, -31], "withholdReward": false, "trial_id": "mdp_trial_32", "block": "test", "trialIndex": 33, "score": 64.4, "costs": -5.6, "simulationMode": [null, null, null, null, null], "rewards": [-2, 2, -5, -6, 81], "path": ["0", "0", "1", "2", "3", "8", "11"], "rt": [15819, 318, 2, 2, 3], "actions": ["up", "up", "up", "left", "left"], "actionTimes": [31317, 32732, 33954, 35162, 36364], "queries": {"click": {"state": {"target": ["21", "7", "9", "11"], "time": [17849, 21781, 25245, 28081]}, "edge": {"target": [], "time": []}}, "mouseover": {"state": {"target": ["21", "7", "5", "9", "11", "27"], "time": [17089, 19372, 23284, 24286, 26227, 29057]}, "edge": {"target": [], "time": []}}, "mouseout": {"state": {"target": ["33", "21", "7", "5", "9", "11", "27"], "time": [544, 18598, 22790, 24032, 25983, 28822, 40508]}, "edge": {"target": [], "time": []}}}, "displayed_time": "39.62", "trialTime": 41381, "trial_type": "mouselab-mdp", "trial_index": 40, "time_elapsed": 2600353, "internal_node_id": "0.0-4.0-1.0-31.0"}}, {"uniqueid": "w93755636:a19612908", "current_trial": 41, "dateTime": 1691161980411, "trialdata": {"revealed_states": [], "clicked_states": ["33", "28", "10", "5", "16", "20", "21", "29", "11"], "num_clicks_accrued": [0, 0, 0, 0, 0, 0, 0, 0, 0, 0, 0, 0, 0], "stateRewards": ["", -2, 2, 5, -14, -56, 64, 84, -5, 52, 39, 85, -2, 1, 7, 8, 21, 29, -78, -9, -10, -69, 10, -2, -1, -7, 15, 72, 20, 41, -2, 52, 80, 22], "withholdReward": false, "trial_id": "mdp_trial_33", "block": "test", "trialIndex": 34, "score": 72.4, "costs": -12.600000000000001, "simulationMode": [null, null, null, null, null], "rewards": [-2, 2, 5, -5, 85], "path": ["0", "0", "1", "2", "3", "8", "11"], "rt": [34721, 3, 351, 3, 3], "actions": ["up", "up", "up", "left", "left"], "actionTimes": [50128, 51339, 52877, 54075, 55261], "queries": {"click": {"state": {"target": ["33", "28", "10", "5", "16", "20", "21", "29", "11"], "time": [17621, 22100, 25666, 28934, 32650, 35562, 39178, 42919, 45909]}, "edge": {"target": [], "time": []}}, "mouseover": {"state": {"target": ["33", "31", "28", "10", "5", "16", "20", "21", "21", "24", "29", "11", "9", "9"], "time": [16869, 20292, 21512, 24987, 27675, 32053, 33630, 37539, 38562, 41437, 41938, 43871, 47355, 48590]}, "edge": {"target": [], "time": []}}, "mouseout": {"state": {"target": ["27", "0", "33", "31", "28", "10", "5", "16", "20", "21", "21", "24", "29", "11", "9", "11", "9"], "time": [744, 16154, 18614, 21252, 22586, 26406, 30157, 33395, 37283, 38305, 39899, 41692, 43639, 46875, 47842, 48088, 49482]}, "edge": {"target": [], "time": []}}}, "displayed_time": "56.45", "trialTime": 59053, "trial_type": "mouselab-mdp", "trial_index": 41, "time_elapsed": 2674708, "internal_node_id": "0.0-4.0-1.0-32.0"}}, {"uniqueid": "w93755636:a19612908", "current_trial": 42, "dateTime": 1691162035950, "trialdata": {"revealed_states": [], "clicked_states": ["11", "10", "5", "27"], "num_clicks_accrued": [0, 0, 0, 0, 0, 0, 0, 0, 0, 0, 0, 0, 0], "stateRewards": ["", -1, 3, 1, -7, 56, 76, 57, 3, 11, -9, 14, 1, -2, 2, 8, -77, -3, 79, -5, 88, 24, -66, -2, -1, 7, -7, -30, 14, -76, 11, -36, 28, -6], "withholdReward": false, "trial_id": "mdp_trial_34", "block": "test", "trialIndex": 35, "score": 46.4, "costs": -5.6, "simulationMode": [null, null, null, null, null], "rewards": [-1, 3, 1, -7, 56], "path": ["0", "0", "1", "2", "3", "4", "5"], "rt": [15812, 315, 4, 3, 4], "actions": ["up", "up", "up", "right", "up"], "actionTimes": [31323, 32627, 34098, 35323, 36542], "queries": {"click": {"state": {"target": ["11", "10", "5", "27"], "time": [17764, 21668, 25107, 28343]}, "edge": {"target": [], "time": []}}, "mouseover": {"state": {"target": ["11", "10", "5", "27"], "time": [17145, 21178, 22919, 26337]}, "edge": {"target": [], "time": []}}, "mouseout": {"state": {"target": ["0", "11", "10", "5", "27"], "time": [16259, 18494, 22681, 26103, 29327]}, "edge": {"target": [], "time": []}}}, "displayed_time": "37.80", "trialTime": 40020, "trial_type": "mouselab-mdp", "trial_index": 42, "time_elapsed": 2730248, "internal_node_id": "0.0-4.0-1.0-33.0"}}, {"uniqueid": "w93755636:a19612908", "current_trial": 43, "dateTime": 1691162086909, "trialdata": {"revealed_states": [], "clicked_states": ["6", "18"], "num_clicks_accrued": [0, 0, 0, 0, 0, 0, 0, 0, 0, 0, 0, 0, 0], "stateRewards": ["", -1, 3, 8, 10, -86, 61, -36, 10, 17, -60, 24, -1, -3, 3, 11, 50, 60, 33, -3, -20, 58, -6, 1, -4, -4, 13, -70, -71, 43, 14, 52, 82, -11], "withholdReward": false, "trial_id": "mdp_trial_35", "block": "test", "trialIndex": 36, "score": 78.2, "costs": -2.8, "simulationMode": [null, null, null, null, null], "rewards": [-1, 3, 8, 10, 61], "path": ["0", "0", "1", "2", "3", "4", "6"], "rt": [8808, 303, 2, 301, 309], "actions": ["up", "up", "up", "right", "right"], "actionTimes": [23405, 24710, 25938, 27467, 28768], "queries": {"click": {"state": {"target": ["6", "18"], "time": [17254, 20846]}, "edge": {"target": [], "time": []}}, "mouseover": {"state": {"target": ["6", "18"], "time": [16644, 18241]}, "edge": {"target": [], "time": []}}, "mouseout": {"state": {"target": ["0", "6", "18"], "time": [15328, 18001, 21582]}, "edge": {"target": [], "time": []}}}, "displayed_time": "33.00", "trialTime": 35538, "trial_type": "mouselab-mdp", "trial_index": 43, "time_elapsed": 2781207, "internal_node_id": "0.0-4.0-1.0-34.0"}}, {"uniqueid": "w93755636:a19612908", "current_trial": 44, "dateTime": 1691162152787, "trialdata": {"revealed_states": [], "clicked_states": ["31", "10", "5", "16", "17", "20", "21"], "num_clicks_accrued": [0, 0, 0, 0, 0, 0, 0, 0, 0, 0, 0, 0, 0], "stateRewards": ["", -1, 4, 3, 12, -27, 34, -33, 3, -63, 1, 6, 2, 2, -6, -11, -77, -85, 68, -6, 51, 81, -60, -2, -2, 1, 15, 20, 15, 68, -10, -14, 6, -4], "withholdReward": false, "trial_id": "mdp_trial_36", "block": "test", "trialIndex": 37, "score": 63.2, "costs": -9.8, "simulationMode": [null, null, null, null, null], "rewards": [2, 2, -6, -6, 81], "path": ["0", "0", "12", "13", "14", "19", "21"], "rt": [25345, 284, 3, 4, 2], "actions": ["right", "right", "right", "down", "down"], "actionTimes": [41333, 42599, 44048, 45254, 46444], "queries": {"click": {"state": {"target": ["31", "10", "5", "16", "17", "20", "21"], "time": [18434, 22181, 25811, 29018, 31856, 34744, 38108]}, "edge": {"target": [], "time": []}}, "mouseover": {"state": {"target": ["31", "23", "10", "5", "16", "17", "20", "21", "21"], "time": [17858, 21132, 21656, 25272, 27074, 29996, 33065, 36796, 37584]}, "edge": {"target": [], "time": []}}, "mouseout": {"state": {"target": ["13", "0", "31", "23", "10", "5", "16", "17", "20", "21", "21"], "time": [1106, 16740, 19430, 21397, 23189, 26564, 29763, 32831, 35476, 37044, 38822]}, "edge": {"target": [], "time": []}}}, "displayed_time": "47.63", "trialTime": 50509, "trial_type": "mouselab-mdp", "trial_index": 44, "time_elapsed": 2847085, "internal_node_id": "0.0-4.0-1.0-35.0"}}, {"uniqueid": "w93755636:a19612908", "current_trial": 45, "dateTime": 1691162204786, "trialdata": {"revealed_states": [], "clicked_states": ["29", "10"], "num_clicks_accrued": [0, 0, 0, 0, 0, 0, 0, 0, 0, 0, 0, 0, 0], "stateRewards": ["", -2, 4, 3, 5, -61, 4, 30, 1, -47, 83, 10, 1, 4, 7, -14, 19, -74, -83, 6, -2, -2, -65, -1, -2, 4, -11, 12, -1, -68, 11, -38, -28, 66], "withholdReward": false, "trial_id": "mdp_trial_37", "block": "test", "trialIndex": 38, "score": 86.2, "costs": -2.8, "simulationMode": [null, null, null, null, null], "rewards": [-2, 4, 3, 1, 83], "path": ["0", "0", "1", "2", "3", "8", "10"], "rt": [10581, 259, 3, 3, 3], "actions": ["up", "up", "up", "left", "down"], "actionTimes": [25755, 27008, 28292, 29554, 30768], "queries": {"click": {"state": {"target": ["29", "10"], "time": [17913, 22168]}, "edge": {"target": [], "time": []}}, "mouseover": {"state": {"target": ["24", "29", "10", "31"], "time": [16911, 17403, 21442, 23406]}, "edge": {"target": [], "time": []}}, "mouseout": {"state": {"target": ["0", "24", "29", "10", "31"], "time": [15913, 17165, 18892, 23169, 35169]}, "edge": {"target": [], "time": []}}}, "displayed_time": "35.26", "trialTime": 36695, "trial_type": "mouselab-mdp", "trial_index": 45, "time_elapsed": 2899083, "internal_node_id": "0.0-4.0-1.0-36.0"}}, {"uniqueid": "w93755636:a19612908", "current_trial": 46, "dateTime": 1691162269497, "trialdata": {"revealed_states": [], "clicked_states": ["5", "16", "22", "17", "18", "27", "11"], "num_clicks_accrued": [0, 0, 0, 0, 0, 0, 0, 0, 0, 0, 0, 0, 0], "stateRewards": ["", 1, 1, -7, -9, -44, 24, -83, -15, 44, -24, 72, -2, -3, 4, -5, 57, 55, 29, -11, 22, 12, -25, -1, 2, 7, 12, 33, -8, 47, -4, 8, 50, -4], "withholdReward": false, "trial_id": "mdp_trial_38", "block": "test", "trialIndex": 39, "score": 42.2, "costs": -9.8, "simulationMode": [null, null, null, null, null], "rewards": [1, 1, -7, -15, 72], "path": ["0", "0", "1", "2", "3", "8", "11"], "rt": [25486, 266, 3, 3, 4], "actions": ["up", "up", "up", "left", "left"], "actionTimes": [41133, 42382, 43599, 44813, 46024], "queries": {"click": {"state": {"target": ["5", "16", "22", "17", "18", "27", "11"], "time": [18634, 22664, 25774, 28468, 31445, 34444, 37784]}, "edge": {"target": [], "time": []}}, "mouseover": {"state": {"target": ["5", "16", "22", "17", "18", "27", "11", "10"], "time": [17658, 22005, 23650, 26754, 29706, 32684, 37092, 38752]}, "edge": {"target": [], "time": []}}, "mouseout": {"state": {"target": ["0", "5", "16", "22", "17", "18", "27", "11", "10"], "time": [16383, 19367, 23411, 26518, 29214, 32186, 35177, 38516, 48549]}, "edge": {"target": [], "time": []}}}, "displayed_time": "47.03", "trialTime": 49417, "trial_type": "mouselab-mdp", "trial_index": 46, "time_elapsed": 2963795, "internal_node_id": "0.0-4.0-1.0-37.0"}}, {"uniqueid": "w93755636:a19612908", "current_trial": 47, "dateTime": 1691162324907, "trialdata": {"revealed_states": [], "clicked_states": ["16", "14", "20"], "num_clicks_accrued": [0, 0, 0, 0, 0, 0, 0, 0, 0, 0, 0, 0, 0], "stateRewards": ["", 2, -3, -5, 5, 11, -9, -33, 6, 67, 6, -30, -1, -2, -6, 13, 55, 13, 72, -14, 75, 21, -66, -2, -4, 6, 15, -1, -35, 60, 2, 51, -73, 12], "withholdReward": false, "trial_id": "mdp_trial_39", "block": "test", "trialIndex": 40, "score": 47.8, "costs": -4.199999999999999, "simulationMode": [null, null, null, null, null], "rewards": [-1, -2, -6, -14, 75], "path": ["0", "0", "12", "13", "14", "19", "20"], "rt": [12681, 271, 339, 329, 448], "actions": ["right", "right", "right", "down", "right"], "actionTimes": [28137, 29407, 30722, 32039, 33490], "queries": {"click": {"state": {"target": ["16", "14", "20"], "time": [18307, 21912, 24792]}, "edge": {"target": [], "time": []}}, "mouseover": {"state": {"target": ["15", "16", "14", "20", "21"], "time": [17273, 17791, 21369, 22912, 27515]}, "edge": {"target": [], "time": []}}, "mouseout": {"state": {"target": ["10", "0", "15", "16", "14", "20", "21"], "time": [812, 17005, 17534, 19303, 22672, 25533, 27773]}, "edge": {"target": [], "time": []}}}, "displayed_time": "37.24", "trialTime": 39993, "trial_type": "mouselab-mdp", "trial_index": 47, "time_elapsed": 3019205, "internal_node_id": "0.0-4.0-1.0-38.0"}}, {"uniqueid": "w93755636:a19612908", "current_trial": 48, "dateTime": 1691162394949, "trialdata": {"revealed_states": [], "clicked_states": ["11", "10", "7", "16", "20", "32", "29", "27", "28"], "num_clicks_accrued": [0, 0, 0, 0, 0, 0, 0, 0, 0, 0, 0, 0, 0], "stateRewards": ["", -2, -1, 3, -3, 71, -58, -21, 7, -10, -75, -37, 2, 4, -1, -12, -79, -29, -48, 3, -41, -10, -30, -1, -2, 1, -15, 13, 66, 22, -1, -42, -86, -55], "withholdReward": false, "trial_id": "mdp_trial_40", "block": "test", "trialIndex": 41, "score": 36.4, "costs": -12.600000000000001, "simulationMode": [null, null, null, null, null], "rewards": [-1, -2, 1, -15, 66], "path": ["0", "0", "23", "24", "25", "26", "28"], "rt": [30732, 3, 384, 3, 3], "actions": ["left", "left", "left", "up", "right"], "actionTimes": [46519, 47716, 49284, 50483, 51677], "queries": {"click": {"state": {"target": ["11", "10", "7", "16", "20", "32", "29", "27", "28"], "time": [18614, 22021, 25208, 28415, 31380, 34249, 37069, 39971, 42764]}, "edge": {"target": [], "time": []}}, "mouseover": {"state": {"target": ["11", "10", "7", "16", "20", "32", "29", "27", "28", "33"], "time": [17762, 19601, 24590, 27847, 30146, 32616, 35217, 38298, 40926, 43985]}, "edge": {"target": [], "time": []}}, "mouseout": {"state": {"target": ["0", "11", "10", "7", "16", "20", "32", "29", "27", "28", "33"], "time": [17499, 19362, 22782, 25943, 29144, 32129, 34986, 38061, 40693, 43753, 53818]}, "edge": {"target": [], "time": []}}}, "displayed_time": "52.86", "trialTime": 54749, "trial_type": "mouselab-mdp", "trial_index": 48, "time_elapsed": 3089247, "internal_node_id": "0.0-4.0-1.0-39.0"}}, {"uniqueid": "w93755636:a19612908", "current_trial": 49, "dateTime": 1691162481207, "trialdata": {"rt": 85853, "response": {"Q0": "$-2 to $2", "Q1": "$-4 to $4", "Q2": "$-88 to $88", "Q3": "The cost was always $1.4.", "Q4": "Very unmotivated"}, "question_order": [0, 1, 2, 3, 4], "trial_id": "final_quiz_control", "trial_type": "survey-multi-choice", "trial_index": 49, "time_elapsed": 3175504, "internal_node_id": "0.0-4.0-2.0"}}, {"uniqueid": "w93755636:a19612908", "current_trial": 50, "dateTime": 1691162924553, "trialdata": {"rt": 441919, "response": {"Q0": "To click on each of the first three directions the spider could move in, to see which one had a negative score.  But after four or five games I changed my tactic to click on the outer (5th) choices, to find one with a good score.", "Q1": "I would click to try and find a high ($70-80) score, sacrificing 3-6 clicks in doing so. If I found a $40-60 score, then I would make one extra click, to see if I could get a higher score, if not, then I would settle.\nThe more minus ($-) that I found, then the more I would click to try and find a positive score.", "Q2": "I could have sacrificed more clicks, once I found a good score ($70-80) I would not check the route to it, there could have been a lot of negative score to pick up on the way, that would have made settling for a lower score, with more positive bonuses on the way even more profitable.  But I did not want to spend too much on clicking every possible route, so I would just settle for the end score, and pick up any negatives along the way without knowing until the end."}, "trial_id": "self_report_control", "trial_type": "survey-text", "trial_index": 50, "time_elapsed": 3618851, "internal_node_id": "0.0-4.0-3.0"}}, {"uniqueid": "w93755636:a19612908", "current_trial": 51, "dateTime": 1691162954922, "trialdata": {"rt": 30163, "response": {"gender": "male", "age": "42", "colorblind": "0", "effort": "0"}, "trial_type": "survey-html-form", "trial_index": 51, "time_elapsed": 3649219, "internal_node_id": "0.0-4.0-4.0"}}, {"uniqueid": "w93755636:a19612908", "current_trial": 52, "dateTime": 1691163239860, "trialdata": {"rt": 284908, "response": {"Q0": "No", "Q1": "Never played this before.", "Q2": "I was not paying particular attention to the cost of clicking on the markers, for the first 2-3 games I did not even notice the cost as I was just getting used to the game, then for the next few I looked to see if the price varied, and would apply more or fewer clicks if this happened.  Whenever I looked at the price it always seemed set at the same price, but I was looking more at the revealed tokens to focus solely on the charge for every click.  I thought that the price would vary, and maybe it did, but I only saw one price whenever I tried to check quickly between clicks."}, "trial_type": "survey-text", "trial_index": 52, "time_elapsed": 3934157, "internal_node_id": "0.0-4.0-5.0"}}, {"uniqueid": "w93755636:a19612908", "current_trial": 53, "dateTime": 1691163250133, "trialdata": {"rt": 10223, "stimulus": "Press 'Finish HIT' in order to reach the completion code. Once the data has been saved, you will receive the code either in this window or in the original browser window where you started the experiment.\n", "response": 0, "trial_type": "html-button-response", "trial_index": 53, "time_elapsed": 3944431, "internal_node_id": "0.0-5.0"}}, {"uniqueid": "w93755636:a19612908", "current_trial": 54, "dateTime": 1691163251165, "trialdata": {"success": true, "trial_type": "fullscreen", "trial_index": 54, "time_elapsed": 3945462, "internal_node_id": "0.0-6.0"}}], "questiondata": {"params": {"CODE": "C6DMOQA6", "MIN_TIME": 14, "inspectCost": 1, "startTime": "Fri Aug 04 2023 15:28:24 GMT+0100 (British Summer Time)", "bonusRate": 0.002, "variance": "1_2_4_8_44", "branching": "31123"}, "final_score": 2558.6}, "eventdata": [{"eventtype": "initialized", "value": null, "timestamp": 1691159304492, "interval": 0}, {"eventtype": "window_resize", "value": [1024, 649], "timestamp": 1691159304492, "interval": 0}, {"eventtype": "focus", "value": "on", "timestamp": 1691159304627, "interval": 135}, {"eventtype": "window_resize", "value": [1024, 649], "timestamp": 1691159304817, "interval": 190}, {"eventtype": "window_resize", "value": [1366, 665], "timestamp": 1691159308455, "interval": 3638}, {"eventtype": "window_resize", "value": [1366, 768], "timestamp": 1691159313368, "interval": 4913}], "useragent": "Mozilla/5.0 (Windows NT 6.1; Win64; x64; rv:109.0) Gecko/20100101 Firefox/115.0", "mode": "live", "id": "w93755636:a19612908", "status": "user data saved", "Beginhit": "2023-08-04 14:28:23.689175", "Beginexp": "2023-08-04 14:28:34.84231", "Endhit": "2023-08-04 15:34:17.141986", "psiturkStatus": 3, "browser": "<redacted>", "platform": "windows", "language": "en-GB"}