{"condition": 1, "counterbalance": 0, "assignmentId": "a39960014", "workerId": "w22109560", "hitId": "h94101541", "currenttrial": 29, "bonus": 0, "data": [{"uniqueid": "w22109560:a39960014", "current_trial": 0, "dateTime": 1691142284037, "trialdata": {"success": true, "trial_type": "fullscreen", "trial_index": 0, "time_elapsed": 3669, "internal_node_id": "0.0-0.0"}}, {"uniqueid": "w22109560:a39960014", "current_trial": 1, "dateTime": 1691142293123, "trialdata": {"view_history": [{"page_index": 0, "viewing_time": 9083}], "rt": 9083, "trial_id": "exp_instructions_misaligned", "trial_type": "instructions", "trial_index": 1, "time_elapsed": 12755, "internal_node_id": "0.0-1.0"}}, {"uniqueid": "w22109560:a39960014", "current_trial": 2, "dateTime": 1691142297108, "trialdata": {"success": true, "trial_type": "fullscreen", "trial_index": 2, "time_elapsed": 16740, "internal_node_id": "0.0-2.0-0.0"}}, {"uniqueid": "w22109560:a39960014", "current_trial": 3, "dateTime": 1691142331979, "trialdata": {"view_history": [{"page_index": 0, "viewing_time": 20662}, {"page_index": 1, "viewing_time": 5464}, {"page_index": 2, "viewing_time": 6120}, {"page_index": 3, "viewing_time": 2624}], "rt": 34871, "trial_id": "mouselab_instructions_1_misaligned", "trial_type": "instructions", "trial_index": 3, "time_elapsed": 51611, "internal_node_id": "0.0-2.0-1.0"}}, {"uniqueid": "w22109560:a39960014", "current_trial": 4, "dateTime": 1691142403292, "trialdata": {"revealed_states": [], "clicked_states": ["1", "7", "4", "3", "8", "9", "11", "10", "23", "12", "13", "14", "15", "16"], "num_clicks_accrued": [0, 0, 0, 0, 0, 0, 0, 0, 0, 0, 0, 0, 0], "stateRewards": ["", -10, -10, 10, -10, -10, 10, 10, -10, 10, 10, 10, 10, -10, 10, 10, 10, 10, -10, 10, -10, -10, 10, 10, 10, 10, 10, 10, 10, -10, 10, 10, 10, -10], "withholdReward": false, "trial_id": "practice_1", "block": "test", "trialIndex": 0, "score": -33.5, "costs": -7, "simulationMode": [null, null, null, null, null], "rewards": [-10, -10, 10, -10, -10], "path": ["0", "0", "1", "2", "3", "4", "5"], "rt": [58136, 602, 585, 515, 678], "actions": ["up", "up", "up", "right", "up"], "actionTimes": [58933, 60043, 61131, 62148, 63331], "queries": {"click": {"state": {"target": ["1", "7", "4", "3", "8", "9", "11", "10", "23", "12", "13", "14", "15", "16"], "time": [1970, 4032, 6840, 8384, 11568, 13729, 15440, 19992, 22424, 29656, 31744, 34416, 36383, 38023]}, "edge": {"target": [], "time": []}}, "mouseover": {"state": {"target": ["0", "1", "7", "6", "4", "3", "8", "10", "9", "10", "11", "10", "10", "8", "10", "2", "1", "0", "23", "12", "12", "13", "14", "15", "16", "15", "18", "0", "0", "0", "12", "12", "0", "1", "2", "2", "1", "0"], "time": [958, 1444, 3561, 6204, 6321, 8110, 9165, 12527, 13429, 14600, 14901, 16139, 18430, 19350, 19551, 20728, 21043, 21458, 21641, 29034, 29201, 31526, 33751, 36074, 37730, 41711, 43751, 44036, 44438, 51797, 52429, 52717, 52934, 53352, 53670, 53921, 55125, 55242]}, "edge": {"target": [], "time": []}}, "mouseout": {"state": {"target": ["0", "0", "1", "7", "7", "6", "4", "3", "8", "10", "8", "9", "10", "11", "10", "10", "8", "10", "2", "1", "0", "23", "12", "12", "12", "13", "13", "14", "15", "16", "15", "15", "18", "0", "0", "0", "12", "12", "0", "1", "2", "2", "1", "0", "12", "7", "5", "4", "6", "16", "18"], "time": [165, 1220, 2095, 5000, 5384, 6237, 7659, 9114, 12460, 13162, 13263, 14199, 14667, 15922, 18169, 19133, 19500, 20645, 20771, 21357, 21509, 26981, 29084, 29943, 31325, 32897, 33667, 35957, 37613, 39453, 41629, 43645, 43802, 44053, 50476, 51813, 52549, 52884, 53109, 53586, 53686, 55041, 55142, 55259, 64575, 65093, 66398, 68907, 68940, 69057, 69124]}, "edge": {"target": [], "time": []}}}, "displayed_time": "63.82", "trialTime": 70004, "trial_type": "mouselab-mdp", "trial_index": 4, "time_elapsed": 122924, "internal_node_id": "0.0-2.0-2.0-0.0"}}, {"uniqueid": "w22109560:a39960014", "current_trial": 5, "dateTime": 1691142422588, "trialdata": {"revealed_states": [], "clicked_states": [], "num_clicks_accrued": [0, 0, 0, 0, 0, 0, 0, 0, 0, 0, 0, 0, 0], "stateRewards": ["", -10, 10, 10, 10, 10, -10, 10, 10, 10, 10, -10, -10, -10, -10, -10, -10, 10, -10, 10, -10, -10, 10, 10, -10, 10, 10, -10, 10, 10, -10, -10, -10, 10], "withholdReward": false, "trial_id": "practice_2", "block": "test", "trialIndex": 1, "score": 33.5, "costs": 0, "simulationMode": [null, null, null, null, null], "rewards": [-10, 10, 10, 10, 10], "path": ["0", "0", "1", "2", "3", "8", "9"], "rt": [5972, 738, 2110, 173, 287], "actions": ["up", "up", "up", "left", "up"], "actionTimes": [9380, 10616, 13224, 13912, 14696], "queries": {"click": {"state": {"target": [], "time": []}, "edge": {"target": [], "time": []}}, "mouseover": {"state": {"target": ["0"], "time": [3778]}, "edge": {"target": [], "time": []}}, "mouseout": {"state": {"target": ["0", "0", "12"], "time": [3034, 4656, 13203]}, "edge": {"target": [], "time": []}}}, "displayed_time": "15.20", "trialTime": 19129, "trial_type": "mouselab-mdp", "trial_index": 5, "time_elapsed": 142219, "internal_node_id": "0.0-2.0-2.0-1.0"}}, {"uniqueid": "w22109560:a39960014", "current_trial": 6, "dateTime": 1691142428571, "trialdata": {"view_history": [{"page_index": 0, "viewing_time": 4356}, {"page_index": 1, "viewing_time": 1625}], "rt": 5981, "trial_id": "mouselab_instructions_2_misaligned", "trial_type": "instructions", "trial_index": 6, "time_elapsed": 148203, "internal_node_id": "0.0-2.0-3.0"}}, {"uniqueid": "w22109560:a39960014", "current_trial": 7, "dateTime": 1691142476259, "trialdata": {"rt": 47685, "response": {"Q0": "The cost for clicking on nodes may vary between nodes.", "Q1": "The better I perform the higher my bonus will be.", "Q2": "No, the amount of cash at each node of the web may be different each time.", "Q3": "To click on the least number of nodes.", "Q4": "Any time during the round.", "Q5": "10 seconds"}, "question_order": [0, 1, 2, 3, 4, 5], "correct": {"Q0": "The cost for clicking on nodes may vary between nodes.", "Q1": "The better I perform the higher my bonus will be.", "Q2": "No, the amount of cash at each node of the web may be different each time.", "Q3": "To get the highest total score.", "Q4": "Only before moving the spider.", "Q5": "3 seconds"}, "trial_id": "mouselab_quiz_misaligned", "trial_type": "survey-multi-choice", "trial_index": 7, "time_elapsed": 195891, "internal_node_id": "0.0-2.0-4.0"}}, {"uniqueid": "w22109560:a39960014", "current_trial": 8, "dateTime": 1691142480299, "trialdata": {"success": true, "trial_type": "fullscreen", "trial_index": 8, "time_elapsed": 199931, "internal_node_id": "0.0-2.1-0.1"}}, {"uniqueid": "w22109560:a39960014", "current_trial": 9, "dateTime": 1691142490651, "trialdata": {"view_history": [{"page_index": 0, "viewing_time": 3141}, {"page_index": 1, "viewing_time": 3024}, {"page_index": 2, "viewing_time": 2960}, {"page_index": 3, "viewing_time": 1224}], "rt": 10350, "trial_id": "mouselab_instructions_1_misaligned", "trial_type": "instructions", "trial_index": 9, "time_elapsed": 210283, "internal_node_id": "0.0-2.1-1.1"}}, {"uniqueid": "w22109560:a39960014", "current_trial": 10, "dateTime": 1691142502180, "trialdata": {"revealed_states": [], "clicked_states": [], "num_clicks_accrued": [0, 0, 0, 0, 0, 0, 0, 0, 0, 0, 0, 0, 0], "stateRewards": ["", -10, -10, 10, -10, -10, 10, 10, -10, 10, 10, 10, 10, -10, 10, 10, 10, 10, -10, 10, -10, -10, 10, 10, 10, 10, 10, 10, 10, -10, 10, 10, 10, -10], "withholdReward": false, "trial_id": "practice_1", "block": "test", "trialIndex": 2, "score": 53.5, "costs": 0, "simulationMode": [null, null, null, null, null], "rewards": [10, 10, 10, 10, 10], "path": ["0", "0", "23", "24", "25", "26", "27"], "rt": [1708, 211, 21, 550, 353], "actions": ["left", "left", "left", "up", "up"], "actionTimes": [5388, 6100, 6612, 7676, 8532], "queries": {"click": {"state": {"target": [], "time": []}, "edge": {"target": [], "time": []}}, "mouseover": {"state": {"target": [], "time": []}, "edge": {"target": [], "time": []}}, "mouseout": {"state": {"target": ["0", "0", "0", "23", "0"], "time": [2290, 3382, 9382, 9833, 9884]}, "edge": {"target": [], "time": []}}}, "displayed_time": "9.03", "trialTime": 11355, "trial_type": "mouselab-mdp", "trial_index": 10, "time_elapsed": 221811, "internal_node_id": "0.0-2.1-2.1-0.1"}}, {"uniqueid": "w22109560:a39960014", "current_trial": 11, "dateTime": 1691142512700, "trialdata": {"revealed_states": [], "clicked_states": [], "num_clicks_accrued": [0, 0, 0, 0, 0, 0, 0, 0, 0, 0, 0, 0, 0], "stateRewards": ["", -10, 10, 10, 10, 10, -10, 10, 10, 10, 10, -10, -10, -10, -10, -10, -10, 10, -10, 10, -10, -10, 10, 10, -10, 10, 10, -10, 10, 10, -10, -10, -10, 10], "withholdReward": false, "trial_id": "practice_2", "block": "test", "trialIndex": 3, "score": -26.5, "costs": 0, "simulationMode": [null, null, null, null, null], "rewards": [-10, -10, -10, 10, -10], "path": ["0", "0", "12", "13", "14", "19", "21"], "rt": [957, 398, 242, 514, 342], "actions": ["right", "right", "right", "down", "down"], "actionTimes": [2949, 3858, 4605, 5613, 6445], "queries": {"click": {"state": {"target": [], "time": []}, "edge": {"target": [], "time": []}}, "mouseover": {"state": {"target": ["0"], "time": [2103]}, "edge": {"target": [], "time": []}}, "mouseout": {"state": {"target": ["0", "0", "0"], "time": [1634, 2136, 9380]}, "edge": {"target": [], "time": []}}}, "displayed_time": "6.94", "trialTime": 10349, "trial_type": "mouselab-mdp", "trial_index": 11, "time_elapsed": 232332, "internal_node_id": "0.0-2.1-2.1-1.1"}}, {"uniqueid": "w22109560:a39960014", "current_trial": 12, "dateTime": 1691142517723, "trialdata": {"view_history": [{"page_index": 0, "viewing_time": 3404}, {"page_index": 1, "viewing_time": 1616}], "rt": 5021, "trial_id": "mouselab_instructions_2_misaligned", "trial_type": "instructions", "trial_index": 12, "time_elapsed": 237355, "internal_node_id": "0.0-2.1-3.1"}}, {"uniqueid": "w22109560:a39960014", "current_trial": 13, "dateTime": 1691142536387, "trialdata": {"rt": 18662, "response": {"Q0": "The cost for clicking on nodes may vary between nodes.", "Q1": "The better I perform the higher my bonus will be.", "Q2": "No, the amount of cash at each node of the web may be different each time.", "Q3": "To get the highest total score.", "Q4": "Any time during the round.", "Q5": "10 seconds"}, "question_order": [0, 1, 2, 3, 4, 5], "correct": {"Q0": "The cost for clicking on nodes may vary between nodes.", "Q1": "The better I perform the higher my bonus will be.", "Q2": "No, the amount of cash at each node of the web may be different each time.", "Q3": "To get the highest total score.", "Q4": "Only before moving the spider.", "Q5": "3 seconds"}, "trial_id": "mouselab_quiz_misaligned", "trial_type": "survey-multi-choice", "trial_index": 13, "time_elapsed": 256019, "internal_node_id": "0.0-2.1-4.1"}}, {"uniqueid": "w22109560:a39960014", "current_trial": 14, "dateTime": 1691142545924, "trialdata": {"success": true, "trial_type": "fullscreen", "trial_index": 14, "time_elapsed": 265556, "internal_node_id": "0.0-2.2-0.2"}}, {"uniqueid": "w22109560:a39960014", "current_trial": 15, "dateTime": 1691142568315, "trialdata": {"view_history": [{"page_index": 0, "viewing_time": 19061}, {"page_index": 1, "viewing_time": 1089}, {"page_index": 2, "viewing_time": 1231}, {"page_index": 3, "viewing_time": 1008}], "rt": 22389, "trial_id": "mouselab_instructions_1_misaligned", "trial_type": "instructions", "trial_index": 15, "time_elapsed": 287947, "internal_node_id": "0.0-2.2-1.2"}}, {"uniqueid": "w22109560:a39960014", "current_trial": 16, "dateTime": 1691142578499, "trialdata": {"revealed_states": [], "clicked_states": [], "num_clicks_accrued": [0, 0, 0, 0, 0, 0, 0, 0, 0, 0, 0, 0, 0], "stateRewards": ["", -10, -10, 10, -10, -10, 10, 10, -10, 10, 10, 10, 10, -10, 10, 10, 10, 10, -10, 10, -10, -10, 10, 10, 10, 10, 10, 10, 10, -10, 10, 10, 10, -10], "withholdReward": false, "trial_id": "practice_1", "block": "test", "trialIndex": 4, "score": 53.5, "costs": 0, "simulationMode": [null, null, null, null, null], "rewards": [10, 10, 10, 10, 10], "path": ["0", "0", "23", "24", "25", "26", "27"], "rt": [3074, 273, 280, 487, 213], "actions": ["left", "left", "left", "up", "up"], "actionTimes": [4099, 4864, 5641, 6633, 7344], "queries": {"click": {"state": {"target": [], "time": []}, "edge": {"target": [], "time": []}}, "mouseover": {"state": {"target": [], "time": []}, "edge": {"target": [], "time": []}}, "mouseout": {"state": {"target": ["0", "0"], "time": [1331, 8317]}, "edge": {"target": [], "time": []}}}, "displayed_time": "7.83", "trialTime": 9992, "trial_type": "mouselab-mdp", "trial_index": 16, "time_elapsed": 298131, "internal_node_id": "0.0-2.2-2.2-0.2"}}, {"uniqueid": "w22109560:a39960014", "current_trial": 17, "dateTime": 1691142588403, "trialdata": {"revealed_states": [], "clicked_states": [], "num_clicks_accrued": [0, 0, 0, 0, 0, 0, 0, 0, 0, 0, 0, 0, 0], "stateRewards": ["", -10, 10, 10, 10, 10, -10, 10, 10, 10, 10, -10, -10, -10, -10, -10, -10, 10, -10, 10, -10, -10, 10, 10, -10, 10, 10, -10, 10, 10, -10, -10, -10, 10], "withholdReward": false, "trial_id": "practice_2", "block": "test", "trialIndex": 5, "score": 33.5, "costs": 0, "simulationMode": [null, null, null, null, null], "rewards": [-10, 10, 10, 10, 10], "path": ["0", "0", "1", "2", "3", "4", "5"], "rt": [2095, 690, 390, 672, 373], "actions": ["up", "up", "up", "right", "up"], "actionTimes": [3889, 5081, 5968, 7136, 8008], "queries": {"click": {"state": {"target": [], "time": []}, "edge": {"target": [], "time": []}}, "mouseover": {"state": {"target": [], "time": []}, "edge": {"target": [], "time": []}}, "mouseout": {"state": {"target": ["0", "0", "0"], "time": [1378, 1528, 9123]}, "edge": {"target": [], "time": []}}}, "displayed_time": "8.51", "trialTime": 9712, "trial_type": "mouselab-mdp", "trial_index": 17, "time_elapsed": 308035, "internal_node_id": "0.0-2.2-2.2-1.2"}}, {"uniqueid": "w22109560:a39960014", "current_trial": 18, "dateTime": 1691142593147, "trialdata": {"view_history": [{"page_index": 0, "viewing_time": 3413}, {"page_index": 1, "viewing_time": 1328}], "rt": 4742, "trial_id": "mouselab_instructions_2_misaligned", "trial_type": "instructions", "trial_index": 18, "time_elapsed": 312779, "internal_node_id": "0.0-2.2-3.2"}}, {"uniqueid": "w22109560:a39960014", "current_trial": 19, "dateTime": 1691142692916, "trialdata": {"rt": 99767, "response": {"Q0": "The cost for clicking on nodes may vary between nodes.", "Q1": "The better I perform the higher my bonus will be.", "Q2": "Yes.", "Q3": "To get the highest total score.", "Q4": "Only before moving the spider.", "Q5": "10 seconds"}, "question_order": [0, 1, 2, 3, 4, 5], "correct": {"Q0": "The cost for clicking on nodes may vary between nodes.", "Q1": "The better I perform the higher my bonus will be.", "Q2": "No, the amount of cash at each node of the web may be different each time.", "Q3": "To get the highest total score.", "Q4": "Only before moving the spider.", "Q5": "3 seconds"}, "trial_id": "mouselab_quiz_misaligned", "trial_type": "survey-multi-choice", "trial_index": 19, "time_elapsed": 412548, "internal_node_id": "0.0-2.2-4.2"}}, {"uniqueid": "w22109560:a39960014", "current_trial": 20, "dateTime": 1691142696317, "trialdata": {"success": true, "trial_type": "fullscreen", "trial_index": 20, "time_elapsed": 415949, "internal_node_id": "0.0-2.3-0.3"}}, {"uniqueid": "w22109560:a39960014", "current_trial": 21, "dateTime": 1691142721427, "trialdata": {"view_history": [{"page_index": 0, "viewing_time": 2789}, {"page_index": 1, "viewing_time": 15400}, {"page_index": 2, "viewing_time": 5961}, {"page_index": 3, "viewing_time": 959}], "rt": 25109, "trial_id": "mouselab_instructions_1_misaligned", "trial_type": "instructions", "trial_index": 21, "time_elapsed": 441059, "internal_node_id": "0.0-2.3-1.3"}}, {"uniqueid": "w22109560:a39960014", "current_trial": 22, "dateTime": 1691142728708, "trialdata": {"revealed_states": [], "clicked_states": [], "num_clicks_accrued": [0, 0, 0, 0, 0, 0, 0, 0, 0, 0, 0, 0, 0], "stateRewards": ["", -10, -10, 10, -10, -10, 10, 10, -10, 10, 10, 10, 10, -10, 10, 10, 10, 10, -10, 10, -10, -10, 10, 10, 10, 10, 10, 10, 10, -10, 10, 10, 10, -10], "withholdReward": false, "trial_id": "practice_1", "block": "test", "trialIndex": 6, "score": 53.5, "costs": 0, "simulationMode": [null, null, null, null, null], "rewards": [10, 10, 10, 10, 10], "path": ["0", "0", "23", "24", "25", "26", "27"], "rt": [1204, 229, 173, 161, 117], "actions": ["left", "left", "left", "up", "up"], "actionTimes": [2355, 3082, 3746, 4402, 5010], "queries": {"click": {"state": {"target": [], "time": []}, "edge": {"target": [], "time": []}}, "mouseover": {"state": {"target": [], "time": []}, "edge": {"target": [], "time": []}}, "mouseout": {"state": {"target": ["0", "25"], "time": [6263, 6314]}, "edge": {"target": [], "time": []}}}, "displayed_time": "5.51", "trialTime": 7082, "trial_type": "mouselab-mdp", "trial_index": 22, "time_elapsed": 448339, "internal_node_id": "0.0-2.3-2.3-0.3"}}, {"uniqueid": "w22109560:a39960014", "current_trial": 23, "dateTime": 1691142736044, "trialdata": {"revealed_states": [], "clicked_states": [], "num_clicks_accrued": [0, 0, 0, 0, 0, 0, 0, 0, 0, 0, 0, 0, 0], "stateRewards": ["", -10, 10, 10, 10, 10, -10, 10, 10, 10, 10, -10, -10, -10, -10, -10, -10, 10, -10, 10, -10, -10, 10, 10, -10, 10, 10, -10, 10, 10, -10, -10, -10, 10], "withholdReward": false, "trial_id": "practice_2", "block": "test", "trialIndex": 7, "score": -46.5, "costs": 0, "simulationMode": [null, null, null, null, null], "rewards": [-10, -10, -10, -10, -10], "path": ["0", "0", "12", "13", "14", "15", "16"], "rt": [782, 196, 224, 303, 77], "actions": ["right", "right", "right", "up", "up"], "actionTimes": [2060, 2748, 3477, 4276, 4852], "queries": {"click": {"state": {"target": [], "time": []}, "edge": {"target": [], "time": []}}, "mouseover": {"state": {"target": [], "time": []}, "edge": {"target": [], "time": []}}, "mouseout": {"state": {"target": ["30", "31", "0"], "time": [207, 274, 5810]}, "edge": {"target": [], "time": []}}}, "displayed_time": "5.34", "trialTime": 7108, "trial_type": "mouselab-mdp", "trial_index": 23, "time_elapsed": 455676, "internal_node_id": "0.0-2.3-2.3-1.3"}}, {"uniqueid": "w22109560:a39960014", "current_trial": 24, "dateTime": 1691142740307, "trialdata": {"view_history": [{"page_index": 0, "viewing_time": 2885}, {"page_index": 1, "viewing_time": 1376}], "rt": 4261, "trial_id": "mouselab_instructions_2_misaligned", "trial_type": "instructions", "trial_index": 24, "time_elapsed": 459939, "internal_node_id": "0.0-2.3-3.3"}}, {"uniqueid": "w22109560:a39960014", "current_trial": 25, "dateTime": 1691142761148, "trialdata": {"rt": 20839, "response": {"Q0": "The cost for clicking on nodes may vary between nodes.", "Q1": "The better I perform the higher my bonus will be.", "Q2": "Yes.", "Q3": "To get the highest total score.", "Q4": "Only before moving the spider.", "Q5": "10 seconds"}, "question_order": [0, 1, 2, 3, 4, 5], "correct": {"Q0": "The cost for clicking on nodes may vary between nodes.", "Q1": "The better I perform the higher my bonus will be.", "Q2": "No, the amount of cash at each node of the web may be different each time.", "Q3": "To get the highest total score.", "Q4": "Only before moving the spider.", "Q5": "3 seconds"}, "trial_id": "mouselab_quiz_misaligned", "trial_type": "survey-multi-choice", "trial_index": 25, "time_elapsed": 480780, "internal_node_id": "0.0-2.3-4.3"}}, {"uniqueid": "w22109560:a39960014", "current_trial": 26, "dateTime": 1691142793059, "trialdata": {"rt": 31872, "response": {"Q0": "Not really", "Q1": "26", "Q2": "femalle", "Q3": "no", "Q4": "N/A"}, "trial_id": "finish_fail", "trial_type": "survey-text", "trial_index": 26, "time_elapsed": 512691, "internal_node_id": "0.0-3.0-0.0"}}, {"uniqueid": "w22109560:a39960014", "current_trial": 27, "dateTime": 1691142795859, "trialdata": {"rt": 2797, "stimulus": "Press 'Finish HIT' in order to reach the completion code. Once the data has been saved, you will receive the code either in this window or in the original browser window where you started the experiment.\n", "response": 0, "trial_type": "html-button-response", "trial_index": 27, "time_elapsed": 515491, "internal_node_id": "0.0-5.0"}}, {"uniqueid": "w22109560:a39960014", "current_trial": 28, "dateTime": 1691142796862, "trialdata": {"success": true, "trial_type": "fullscreen", "trial_index": 28, "time_elapsed": 516494, "internal_node_id": "0.0-6.0"}}], "questiondata": {"params": {"CODE": "C6DMOQA6", "MIN_TIME": 14, "inspectCost": 1, "startTime": "Fri Aug 04 2023 11:44:37 GMT+0200 (South Africa Standard Time)", "bonusRate": 0.002, "variance": "1_2_4_8_44", "branching": "31123"}, "final_score": 0}, "eventdata": [{"eventtype": "initialized", "value": null, "timestamp": 1691142276671, "interval": 0}, {"eventtype": "window_resize", "value": [1024, 654], "timestamp": 1691142276671, "interval": 0}, {"eventtype": "window_resize", "value": [1024, 654], "timestamp": 1691142277209, "interval": 538}, {"eventtype": "window_resize", "value": [1366, 768], "timestamp": 1691142283293, "interval": 6084}, {"eventtype": "focus", "value": "off", "timestamp": 1691142478036, "interval": 194743}, {"eventtype": "focus", "value": "on", "timestamp": 1691142478037, "interval": 1}, {"eventtype": "window_resize", "value": [1024, 654], "timestamp": 1691142478246, "interval": 209}, {"eventtype": "window_resize", "value": [1366, 768], "timestamp": 1691142479539, "interval": 1293}, {"eventtype": "focus", "value": "off", "timestamp": 1691142543805, "interval": 64266}, {"eventtype": "focus", "value": "on", "timestamp": 1691142543805, "interval": 0}, {"eventtype": "window_resize", "value": [1024, 654], "timestamp": 1691142544015, "interval": 210}, {"eventtype": "window_resize", "value": [1366, 768], "timestamp": 1691142545141, "interval": 1126}, {"eventtype": "focus", "value": "off", "timestamp": 1691142694238, "interval": 149097}, {"eventtype": "focus", "value": "on", "timestamp": 1691142694238, "interval": 0}, {"eventtype": "window_resize", "value": [1024, 654], "timestamp": 1691142694457, "interval": 219}, {"eventtype": "window_resize", "value": [1366, 768], "timestamp": 1691142695535, "interval": 1078}, {"eventtype": "window_resize", "value": [1024, 654], "timestamp": 1691142796087, "interval": 100552}], "useragent": "Mozilla/5.0 (Windows NT 10.0; Win64; x64) AppleWebKit/537.36 (KHTML, like Gecko) Chrome/115.0.0.0 Safari/537.36", "mode": "live", "id": "w22109560:a39960014", "status": "user data saved", "Beginhit": "2023-08-04 09:44:32.563887", "Beginexp": "2023-08-04 09:44:43.750706", "Endhit": "2023-08-04 09:53:17.003646", "psiturkStatus": 3, "browser": "<redacted>", "platform": "windows", "language": "en-US", "excludeReason": "quizfail"}