{"condition": 0, "counterbalance": 0, "assignmentId": "a86368869", "workerId": "w11309130", "hitId": "h86770409", "currenttrial": 52, "bonus": 0, "data": [{"uniqueid": "w11309130:a86368869", "current_trial": 0, "dateTime": 1691159360334, "trialdata": {"success": true, "trial_type": "fullscreen", "trial_index": 0, "time_elapsed": 4642, "internal_node_id": "0.0-0.0"}}, {"uniqueid": "w11309130:a86368869", "current_trial": 1, "dateTime": 1691159373691, "trialdata": {"view_history": [{"page_index": 0, "viewing_time": 13308}], "rt": 13310, "trial_id": "exp_instructions_control", "trial_type": "instructions", "trial_index": 1, "time_elapsed": 18000, "internal_node_id": "0.0-1.0"}}, {"uniqueid": "w11309130:a86368869", "current_trial": 2, "dateTime": 1691159376801, "trialdata": {"success": true, "trial_type": "fullscreen", "trial_index": 2, "time_elapsed": 21109, "internal_node_id": "0.0-2.0-0.0"}}, {"uniqueid": "w11309130:a86368869", "current_trial": 3, "dateTime": 1691159533138, "trialdata": {"view_history": [{"page_index": 0, "viewing_time": 51237}, {"page_index": 1, "viewing_time": 58686}, {"page_index": 2, "viewing_time": 16623}, {"page_index": 3, "viewing_time": 29782}], "rt": 156328, "trial_id": "mouselab_instructions_1_control", "trial_type": "instructions", "trial_index": 3, "time_elapsed": 177447, "internal_node_id": "0.0-2.0-1.0"}}, {"uniqueid": "w11309130:a86368869", "current_trial": 4, "dateTime": 1691159592882, "trialdata": {"revealed_states": [], "clicked_states": ["1", "2", "12", "23", "24", "25", "30", "32", "31", "26", "29", "27", "28", "33", "22", "21", "20", "14", "17", "16", "18"], "num_clicks_accrued": [0, 0, 0, 0, 0, 0, 0, 0, 0, 0, 0, 0, 0], "stateRewards": ["", -10, 10, -10, -10, 10, 10, 10, 10, -10, 10, 10, -10, -10, -10, 10, -10, 10, 10, -10, 10, -10, -10, 10, -10, -10, -10, -10, 10, 10, -10, 10, 10, -10], "withholdReward": false, "trial_id": "practice_1", "block": "test", "trialIndex": 0, "score": -17, "costs": -10.5, "simulationMode": [null, null, null, null, null], "rewards": [-10, -10, -10, 10, 10], "path": ["0", "0", "12", "13", "14", "15", "18"], "rt": [43459, 616, 405, 780, 355], "actions": ["right", "right", "right", "up", "left"], "actionTimes": [46763, 47904, 48831, 50153, 51023], "queries": {"click": {"state": {"target": ["1", "2", "12", "23", "24", "25", "30", "32", "31", "26", "29", "27", "28", "33", "22", "21", "20", "14", "17", "16", "18"], "time": [5491, 7306, 8399, 9641, 11969, 14171, 16124, 17668, 19281, 21733, 23560, 25070, 26581, 28612, 32021, 33744, 35277, 37165, 38697, 40127, 41614]}, "edge": {"target": [], "time": []}}, "mouseover": {"state": {"target": ["1", "1", "1", "7", "2", "12", "0", "23", "24", "25", "30", "32", "31", "24", "26", "29", "27", "28", "25", "33", "33", "23", "0", "12", "13", "14", "19", "22", "21", "20", "14", "17", "16", "18", "1", "0"], "time": [4318, 4695, 4911, 6545, 7025, 8135, 9082, 9348, 10375, 13595, 15673, 17174, 18672, 21010, 21487, 22541, 24273, 25961, 27991, 28220, 28408, 30150, 30185, 30224, 30396, 31061, 31636, 31737, 32981, 34505, 36933, 38222, 39596, 40633, 42853, 43258]}, "edge": {"target": [], "time": []}}, "mouseout": {"state": {"target": ["0", "0", "1", "1", "1", "7", "2", "12", "0", "23", "24", "25", "30", "32", "31", "24", "26", "29", "27", "28", "25", "33", "33", "23", "0", "12", "13", "14", "19", "22", "21", "20", "14", "17", "16", "16", "18", "1", "0"], "time": [1362, 2473, 4508, 4775, 6219, 6979, 7718, 9050, 9294, 10100, 13427, 15256, 17023, 18272, 20178, 21310, 22413, 23885, 25687, 27959, 28052, 28271, 29082, 30177, 30204, 30242, 31024, 31564, 31688, 32670, 34112, 36654, 37578, 39280, 40192, 40535, 42027, 43026, 43304]}, "edge": {"target": [], "time": []}}}, "displayed_time": "51.55", "trialTime": 58107, "trial_type": "mouselab-mdp", "trial_index": 4, "time_elapsed": 237190, "internal_node_id": "0.0-2.0-2.0-0.0"}}, {"uniqueid": "w11309130:a86368869", "current_trial": 5, "dateTime": 1691159638344, "trialdata": {"revealed_states": [], "clicked_states": ["1", "2", "3", "4", "7", "6", "5", "16", "18", "15", "12", "13", "14", "25", "24", "23", "30", "32"], "num_clicks_accrued": [0, 0, 0, 0, 0, 0, 0, 0, 0, 0, 0, 0, 0], "stateRewards": ["", -10, -10, -10, 10, 10, 10, 10, -10, 10, 10, 10, -10, -10, -10, -10, 10, -10, 10, 10, 10, 10, -10, 10, -10, -10, -10, 10, 10, -10, 10, -10, -10, 10], "withholdReward": false, "trial_id": "practice_2", "block": "test", "trialIndex": 1, "score": -15.5, "costs": -9, "simulationMode": [null, null, null, null, null], "rewards": [10, -10, -10, 10, -10], "path": ["0", "0", "23", "24", "25", "30", "31"], "rt": [34870, 210, 256, 835, 957], "actions": ["left", "left", "left", "down", "right"], "actionTimes": [37156, 37910, 38704, 40074, 41547], "queries": {"click": {"state": {"target": ["1", "2", "3", "4", "7", "6", "5", "16", "18", "15", "12", "13", "14", "25", "24", "23", "30", "32"], "time": [3999, 5509, 7394, 9081, 10492, 11915, 14636, 16503, 18454, 19908, 21321, 22775, 24181, 26709, 28075, 29475, 31427, 32915]}, "edge": {"target": [], "time": []}}, "mouseover": {"state": {"target": ["1", "1", "2", "2", "3", "4", "7", "6", "18", "4", "5", "16", "18", "15", "14", "13", "12", "13", "14", "25", "24", "24", "23", "30", "32", "31"], "time": [3340, 3669, 4637, 5098, 7050, 8815, 9881, 11299, 13790, 14264, 14398, 16051, 17943, 19333, 20589, 20720, 20848, 21955, 23401, 26487, 27015, 27422, 28396, 31063, 32669, 33309]}, "edge": {"target": [], "time": []}}, "mouseout": {"state": {"target": ["0", "1", "1", "2", "2", "3", "4", "7", "6", "18", "4", "5", "6", "16", "16", "18", "15", "15", "14", "13", "12", "13", "14", "14", "25", "24", "24", "23", "30", "32", "31"], "time": [3254, 3518, 4083, 4820, 5597, 8672, 9676, 10916, 13572, 14166, 14285, 15095, 15568, 16632, 17556, 18857, 19927, 20431, 20631, 20819, 21606, 22862, 24245, 24556, 26983, 27063, 28364, 30855, 31747, 33142, 35550]}, "edge": {"target": [], "time": []}}}, "displayed_time": "42.08", "trialTime": 44419, "trial_type": "mouselab-mdp", "trial_index": 5, "time_elapsed": 282649, "internal_node_id": "0.0-2.0-2.0-1.0"}}, {"uniqueid": "w11309130:a86368869", "current_trial": 6, "dateTime": 1691159705079, "trialdata": {"view_history": [{"page_index": 0, "viewing_time": 57039}, {"page_index": 1, "viewing_time": 9685}], "rt": 66726, "trial_id": "mouselab_instructions_2_control", "trial_type": "instructions", "trial_index": 6, "time_elapsed": 349388, "internal_node_id": "0.0-2.0-3.0"}}, {"uniqueid": "w11309130:a86368869", "current_trial": 7, "dateTime": 1691159736274, "trialdata": {"rt": 31179, "response": {"Q0": "The cost for clicking on nodes may vary between nodes.", "Q1": "The better I perform the higher my bonus will be.", "Q2": "No, the amount of cash at each node of the web may be different each time.", "Q3": "To get the highest total score.", "Q4": "Only before moving the spider.", "Q5": "3 seconds"}, "question_order": [0, 1, 2, 3, 4, 5], "correct": {"Q0": "The cost for clicking on nodes may vary between nodes.", "Q1": "The better I perform the higher my bonus will be.", "Q2": "No, the amount of cash at each node of the web may be different each time.", "Q3": "To get the highest total score.", "Q4": "Only before moving the spider.", "Q5": "3 seconds"}, "trial_id": "mouselab_quiz_control", "trial_type": "survey-multi-choice", "trial_index": 7, "time_elapsed": 380583, "internal_node_id": "0.0-2.0-4.0"}}, {"uniqueid": "w11309130:a86368869", "current_trial": 8, "dateTime": 1691159750691, "trialdata": {"rt": 14387, "stimulus": "\n<h1> Get ready to start the game! </h1>\n\nThank you for reading the instructions. Get ready start with the 40 rounds of this game.\n<br><br>\nIf you need to take a break, feel free to take one after the end of a round, before continuing to the next one.\n<br><br>\nRemember, the more money the spider gets, the bigger your bonus will be!\n<br><br>\n<div style='text-align: center;'>Press <code>space</code> to begin.</div>\n\n<br><br>\n(If, at any point, the <code>space</code> key does not take you to the next page, click once on the text and try again.)", "response": " ", "trial_id": "mdp_ready", "trial_type": "html-keyboard-response", "trial_index": 8, "time_elapsed": 394999, "internal_node_id": "0.0-4.0-0.0"}}, {"uniqueid": "w11309130:a86368869", "current_trial": 9, "dateTime": 1691159775832, "trialdata": {"revealed_states": [], "clicked_states": ["12", "13"], "num_clicks_accrued": [0, 0, 0, 0, 0, 0, 0, 0, 0, 0, 0, 0, 0], "stateRewards": ["", -1, -3, 4, -10, -5, 79, -87, -2, 53, 29, -20, -2, -1, -5, 10, 27, 86, 46, -16, -29, 40, 3, 2, 4, -1, -6, 37, 79, -29, 7, 86, -62, 29], "withholdReward": false, "trial_id": "mdp_trial_1", "block": "test", "trialIndex": 2, "score": 95.2, "costs": -2.8, "simulationMode": [null, null, null, null, null], "rewards": [2, 4, -1, 7, 86], "path": ["0", "0", "23", "24", "25", "30", "31"], "rt": [11047, 436, 441, 1792, 344], "actions": ["left", "left", "left", "down", "right"], "actionTimes": [14828, 15803, 16782, 19098, 19973], "queries": {"click": {"state": {"target": ["12", "13"], "time": [5794, 9389]}, "edge": {"target": [], "time": []}}, "mouseover": {"state": {"target": ["1", "12", "13", "14", "12", "0", "23"], "time": [4618, 5147, 6587, 9997, 12328, 12478, 12659]}, "edge": {"target": [], "time": []}}, "mouseout": {"state": {"target": ["10", "0", "0", "0", "1", "12", "13", "14", "13", "12", "0", "23"], "time": [1746, 1899, 2097, 3985, 4952, 6260, 9816, 12185, 12278, 12355, 12567, 12843]}, "edge": {"target": [], "time": []}}}, "displayed_time": "20.49", "trialTime": 24079, "trial_type": "mouselab-mdp", "trial_index": 9, "time_elapsed": 420137, "internal_node_id": "0.0-4.0-1.0-0.0"}}, {"uniqueid": "w11309130:a86368869", "current_trial": 10, "dateTime": 1691159805552, "trialdata": {"revealed_states": [], "clicked_states": ["12", "1", "23", "25", "28", "27"], "num_clicks_accrued": [0, 0, 0, 0, 0, 0, 0, 0, 0, 0, 0, 0, 0], "stateRewards": ["", -1, 2, -2, 13, -56, -28, 10, 14, 53, -80, -29, 1, -3, -3, -14, 14, 9, -40, -9, 18, 18, 48, 1, 1, 1, -9, 64, -39, -9, 7, -52, -78, 7], "withholdReward": false, "trial_id": "mdp_trial_2", "block": "test", "trialIndex": 3, "score": 49.6, "costs": -8.4, "simulationMode": [null, null, null, null, null], "rewards": [1, 1, 1, -9, 64], "path": ["0", "0", "23", "24", "25", "26", "27"], "rt": [18869, 231, 229, 795, 180], "actions": ["left", "left", "left", "up", "up"], "actionTimes": [21279, 22060, 22822, 24147, 24866], "queries": {"click": {"state": {"target": ["12", "1", "23", "25", "28", "27"], "time": [3625, 5626, 7526, 10942, 14809, 17844]}, "edge": {"target": [], "time": []}}, "mouseover": {"state": {"target": ["12", "1", "23", "23", "24", "24", "25", "24", "24", "23", "28", "27", "29", "26"], "time": [3082, 4584, 6171, 6554, 8054, 10339, 10695, 11236, 12839, 14303, 14518, 17533, 18454, 20056]}, "edge": {"target": [], "time": []}}, "mouseout": {"state": {"target": ["0", "12", "1", "23", "23", "24", "24", "25", "24", "24", "23", "28", "28", "27", "29", "26", "10", "0"], "time": [1563, 3714, 6089, 6221, 8005, 8120, 10652, 11210, 11313, 13789, 14355, 15354, 17239, 18237, 20019, 20082, 27528, 27848]}, "edge": {"target": [], "time": []}}}, "displayed_time": "25.40", "trialTime": 28677, "trial_type": "mouselab-mdp", "trial_index": 10, "time_elapsed": 449860, "internal_node_id": "0.0-4.0-1.0-1.0"}}, {"uniqueid": "w11309130:a86368869", "current_trial": 11, "dateTime": 1691159844866, "trialdata": {"revealed_states": [], "clicked_states": ["17", "16", "5", "9", "31", "32", "21", "20", "22", "28", "27", "29"], "num_clicks_accrued": [0, 0, 0, 0, 0, 0, 0, 0, 0, 0, 0, 0, 0], "stateRewards": ["", -1, -3, -7, -7, -76, 30, -49, 11, -70, 56, 2, 1, 4, -3, -14, -59, -83, -25, -9, -21, -67, -73, -2, 4, 4, -9, -11, -32, 60, 9, -87, 22, -64], "withholdReward": false, "trial_id": "mdp_trial_3", "block": "test", "trialIndex": 4, "score": 40.2, "costs": -16.8, "simulationMode": [null, null, null, null, null], "rewards": [-2, 4, 4, -9, 60], "path": ["0", "0", "23", "24", "25", "26", "29"], "rt": [30352, 192, 174, 699, 286], "actions": ["left", "left", "left", "up", "left"], "actionTimes": [32116, 32843, 33548, 34795, 35591], "queries": {"click": {"state": {"target": ["17", "16", "5", "9", "31", "32", "21", "20", "22", "28", "27", "29"], "time": [3234, 5250, 7335, 9363, 13072, 15193, 17740, 19934, 22331, 25281, 27252, 29160]}, "edge": {"target": [], "time": []}}, "mouseover": {"state": {"target": ["12", "13", "17", "15", "16", "4", "5", "9", "8", "25", "30", "30", "31", "31", "32", "21", "20", "19", "22", "25", "25", "28", "27", "29"], "time": [2459, 2651, 3001, 3924, 4163, 5922, 6328, 7996, 10052, 11750, 11933, 12239, 12383, 12815, 14498, 16767, 18268, 21536, 22065, 24704, 24889, 25123, 26105, 27709]}, "edge": {"target": [], "time": []}}, "mouseout": {"state": {"target": ["0", "12", "13", "17", "15", "16", "4", "5", "5", "9", "8", "25", "30", "30", "31", "31", "32", "21", "20", "19", "22", "25", "25", "28", "27", "27", "29", "25", "31"], "time": [1018, 2601, 2736, 3657, 4003, 5788, 5952, 7403, 7821, 9948, 11623, 11786, 12074, 12317, 12516, 13504, 15550, 17837, 21307, 21956, 24296, 24744, 24930, 25793, 27329, 27606, 30470, 36804, 36999]}, "edge": {"target": [], "time": []}}}, "displayed_time": "36.09", "trialTime": 38043, "trial_type": "mouselab-mdp", "trial_index": 11, "time_elapsed": 489174, "internal_node_id": "0.0-4.0-1.0-2.0"}}, {"uniqueid": "w11309130:a86368869", "current_trial": 12, "dateTime": 1691159864011, "trialdata": {"revealed_states": [], "clicked_states": ["29", "17", "16"], "num_clicks_accrued": [0, 0, 0, 0, 0, 0, 0, 0, 0, 0, 0, 0, 0], "stateRewards": ["", -1, 2, 7, 8, 75, 67, -11, 6, 52, -17, 38, -1, 4, -8, 14, 74, -37, -17, -12, 52, 55, 71, -2, -1, -5, 2, 21, 6, -88, -14, 64, -61, -47], "withholdReward": false, "trial_id": "mdp_trial_4", "block": "test", "trialIndex": 5, "score": 78.8, "costs": -4.199999999999999, "simulationMode": [null, null, null, null, null], "rewards": [-1, 4, -8, 14, 74], "path": ["0", "0", "12", "13", "14", "15", "16"], "rt": [9979, 185, 185, 474, 103], "actions": ["right", "right", "right", "up", "up"], "actionTimes": [12017, 12749, 13468, 14491, 15163], "queries": {"click": {"state": {"target": ["29", "17", "16"], "time": [3290, 6288, 8819]}, "edge": {"target": [], "time": []}}, "mouseover": {"state": {"target": ["26", "29", "26", "26", "28", "18", "15", "17", "16", "19", "21"], "time": [2745, 2872, 3676, 4019, 5613, 5755, 5806, 6088, 8427, 9710, 9946]}, "edge": {"target": [], "time": []}}, "mouseout": {"state": {"target": ["0", "26", "29", "26", "26", "28", "18", "15", "17", "16", "19", "21"], "time": [2066, 2810, 3647, 3705, 4058, 5672, 5779, 6053, 6651, 9182, 9790, 16688]}, "edge": {"target": [], "time": []}}}, "displayed_time": "16.04", "trialTime": 17897, "trial_type": "mouselab-mdp", "trial_index": 12, "time_elapsed": 508319, "internal_node_id": "0.0-4.0-1.0-3.0"}}, {"uniqueid": "w11309130:a86368869", "current_trial": 13, "dateTime": 1691159892834, "trialdata": {"revealed_states": [], "clicked_states": ["5", "6", "7", "11", "9", "10", "33", "20"], "num_clicks_accrued": [0, 0, 0, 0, 0, 0, 0, 0, 0, 0, 0, 0, 0], "stateRewards": ["", -2, 3, -5, -7, 66, 43, -60, -4, -70, -75, 4, -1, 2, 2, -13, 54, 11, -40, -1, 77, 32, 15, -2, 3, -8, -9, -35, 83, -27, 6, -74, -34, 44], "withholdReward": false, "trial_id": "mdp_trial_5", "block": "test", "trialIndex": 6, "score": 67.8, "costs": -11.200000000000001, "simulationMode": [null, null, null, null, null], "rewards": [-1, 2, 2, -1, 77], "path": ["0", "0", "12", "13", "14", "19", "20"], "rt": [19928, 252, 197, 354, 210], "actions": ["right", "right", "right", "down", "right"], "actionTimes": [21611, 22384, 23103, 23980, 24725], "queries": {"click": {"state": {"target": ["5", "6", "7", "11", "9", "10", "33", "20"], "time": [2751, 4870, 6995, 9018, 11013, 13170, 15637, 18674]}, "edge": {"target": [], "time": []}}, "mouseover": {"state": {"target": ["1", "2", "5", "6", "7", "8", "11", "11", "9", "8", "10", "28", "25", "33", "30", "31", "19", "20", "20", "19", "22"], "time": [2087, 2150, 2365, 3418, 5325, 7404, 7559, 7704, 9455, 11380, 11766, 13741, 15025, 15330, 16021, 16151, 18101, 18139, 18462, 18989, 19455]}, "edge": {"target": [], "time": []}}, "mouseout": {"state": {"target": ["0", "1", "2", "5", "6", "7", "8", "11", "11", "9", "9", "8", "10", "28", "25", "33", "30", "31", "19", "20", "20", "19", "22"], "time": [885, 2122, 2184, 3297, 5193, 7297, 7432, 7638, 9248, 11102, 11302, 11509, 13558, 14643, 15113, 15982, 16102, 18039, 18120, 18265, 18911, 19070, 26138]}, "edge": {"target": [], "time": []}}}, "displayed_time": "25.24", "trialTime": 27306, "trial_type": "mouselab-mdp", "trial_index": 13, "time_elapsed": 537141, "internal_node_id": "0.0-4.0-1.0-4.0"}}, {"uniqueid": "w11309130:a86368869", "current_trial": 14, "dateTime": 1691159911212, "trialdata": {"revealed_states": [], "clicked_states": ["20"], "num_clicks_accrued": [0, 0, 0, 0, 0, 0, 0, 0, 0, 0, 0, 0, 0], "stateRewards": ["", 1, -4, -6, 11, -20, 8, -30, 1, -38, 88, 42, 2, 3, 5, -12, -8, -74, 30, -8, 67, -19, 42, 2, -1, 4, 13, 50, -68, 2, -8, -15, 87, -46], "withholdReward": false, "trial_id": "mdp_trial_6", "block": "test", "trialIndex": 7, "score": 67.6, "costs": -1.4, "simulationMode": [null, null, null, null, null], "rewards": [2, 3, 5, -8, 67], "path": ["0", "0", "12", "13", "14", "19", "20"], "rt": [4748, 129, 213, 458, 144], "actions": ["right", "right", "right", "down", "right"], "actionTimes": [6640, 7349, 8068, 9058, 9772], "queries": {"click": {"state": {"target": ["20"], "time": [3066]}, "edge": {"target": [], "time": []}}, "mouseover": {"state": {"target": ["12", "13", "14", "20", "20"], "time": [2421, 2461, 2533, 2631, 2872]}, "edge": {"target": [], "time": []}}, "mouseout": {"state": {"target": ["0", "12", "13", "14", "20", "20", "21"], "time": [1081, 2454, 2485, 2560, 2664, 3388, 11356]}, "edge": {"target": [], "time": []}}}, "displayed_time": "15.89", "trialTime": 16990, "trial_type": "mouselab-mdp", "trial_index": 14, "time_elapsed": 555519, "internal_node_id": "0.0-4.0-1.0-5.0"}}, {"uniqueid": "w11309130:a86368869", "current_trial": 15, "dateTime": 1691159929880, "trialdata": {"revealed_states": [], "clicked_states": ["17", "27"], "num_clicks_accrued": [0, 0, 0, 0, 0, 0, 0, 0, 0, 0, 0, 0, 0], "stateRewards": ["", 2, -1, 5, 6, 10, 86, 55, 10, -45, 63, -71, 1, -2, 5, -8, -50, -72, 36, 15, 61, 12, 33, -1, -4, 6, 5, 79, -56, -21, -16, -87, 60, -81], "withholdReward": false, "trial_id": "mdp_trial_7", "block": "test", "trialIndex": 8, "score": 82.2, "costs": -2.8, "simulationMode": [null, null, null, null, null], "rewards": [-1, -4, 6, 5, 79], "path": ["0", "0", "23", "24", "25", "26", "27"], "rt": [7372, 105, 133, 503, 55], "actions": ["left", "left", "left", "up", "up"], "actionTimes": [9232, 9883, 10559, 11608, 12245], "queries": {"click": {"state": {"target": ["17", "27"], "time": [3390, 6242]}, "edge": {"target": [], "time": []}}, "mouseover": {"state": {"target": ["14", "15", "17", "13", "28", "27", "28", "30", "32"], "time": [2917, 2965, 3182, 5369, 5593, 6025, 6589, 6850, 6913]}, "edge": {"target": [], "time": []}}, "mouseout": {"state": {"target": ["0", "14", "15", "17", "13", "28", "27", "28", "30", "32"], "time": [980, 2958, 2992, 3636, 5399, 5743, 6512, 6728, 6884, 13434]}, "edge": {"target": [], "time": []}}}, "displayed_time": "15.86", "trialTime": 17473, "trial_type": "mouselab-mdp", "trial_index": 15, "time_elapsed": 574188, "internal_node_id": "0.0-4.0-1.0-6.0"}}, {"uniqueid": "w11309130:a86368869", "current_trial": 16, "dateTime": 1691159948733, "trialdata": {"revealed_states": [], "clicked_states": ["5", "11", "10"], "num_clicks_accrued": [0, 0, 0, 0, 0, 0, 0, 0, 0, 0, 0, 0, 0], "stateRewards": ["", 1, -4, -6, -1, -21, 17, -72, 10, 77, 67, -46, -1, 4, -2, 14, -66, -49, -45, -15, -52, 23, -67, 2, -2, -2, 15, -3, 45, -64, 5, -44, 83, 61], "withholdReward": false, "trial_id": "mdp_trial_8", "block": "test", "trialIndex": 9, "score": 63.8, "costs": -4.199999999999999, "simulationMode": [null, null, null, null, null], "rewards": [1, -4, -6, 10, 67], "path": ["0", "0", "1", "2", "3", "8", "10"], "rt": [9163, 237, 189, 471, 197], "actions": ["up", "up", "up", "left", "down"], "actionTimes": [11540, 12306, 13021, 14030, 14755], "queries": {"click": {"state": {"target": ["5", "11", "10"], "time": [3958, 6128, 8331]}, "edge": {"target": [], "time": []}}, "mouseover": {"state": {"target": ["22", "22", "12", "1", "3", "5", "4", "3", "8", "11", "8", "2", "7", "2", "10", "8", "9", "3", "7", "7", "1"], "time": [2877, 3056, 3143, 3210, 3609, 3726, 4368, 5416, 5577, 5909, 6503, 6943, 7077, 7831, 8133, 8616, 8760, 9052, 9188, 10075, 10259]}, "edge": {"target": [], "time": []}}, "mouseout": {"state": {"target": ["0", "22", "22", "12", "1", "3", "5", "4", "3", "8", "11", "8", "2", "7", "2", "10", "8", "9", "3", "7", "7", "1", "0"], "time": [2764, 2975, 3090, 3165, 3243, 3660, 4273, 5108, 5544, 5792, 6473, 6536, 6973, 7811, 7892, 8535, 8699, 9013, 9097, 9241, 10174, 16511, 17281]}, "edge": {"target": [], "time": []}}}, "displayed_time": "16.39", "trialTime": 17610, "trial_type": "mouselab-mdp", "trial_index": 16, "time_elapsed": 593041, "internal_node_id": "0.0-4.0-1.0-7.0"}}, {"uniqueid": "w11309130:a86368869", "current_trial": 17, "dateTime": 1691159972022, "trialdata": {"revealed_states": [], "clicked_states": ["21", "22", "33", "28", "29"], "num_clicks_accrued": [0, 0, 0, 0, 0, 0, 0, 0, 0, 0, 0, 0, 0], "stateRewards": ["", -1, 2, -6, 6, 43, 78, 78, -2, 55, -29, -17, -2, -4, 1, -15, 13, 7, -79, 8, -28, -68, 36, -1, -3, 3, -16, 84, -18, 87, 10, 32, 13, -81], "withholdReward": false, "trial_id": "mdp_trial_9", "block": "test", "trialIndex": 10, "score": 63, "costs": -7, "simulationMode": [null, null, null, null, null], "rewards": [-1, -3, 3, -16, 87], "path": ["0", "0", "23", "24", "25", "26", "29"], "rt": [13018, 177, 231, 571, 328], "actions": ["left", "left", "left", "up", "left"], "actionTimes": [14954, 15664, 16400, 17523, 18372], "queries": {"click": {"state": {"target": ["21", "22", "33", "28", "29"], "time": [3356, 5378, 7728, 9687, 11989]}, "edge": {"target": [], "time": []}}, "mouseover": {"state": {"target": ["0", "12", "13", "22", "21", "22", "31", "30", "33", "30", "28", "26", "29", "26", "30", "32", "31"], "time": [2529, 2605, 2663, 2738, 2919, 3991, 6057, 6343, 6553, 8056, 9009, 10342, 10852, 12314, 12669, 12712, 13314]}, "edge": {"target": [], "time": []}}, "mouseout": {"state": {"target": ["0", "0", "12", "13", "22", "21", "22", "31", "30", "33", "30", "28", "28", "26", "29", "26", "30", "32", "31", "31"], "time": [875, 2574, 2640, 2686, 2767, 3624, 5718, 6086, 6422, 8003, 8163, 9756, 10211, 10549, 12284, 12384, 12700, 12912, 13902, 20903]}, "edge": {"target": [], "time": []}}}, "displayed_time": "18.90", "trialTime": 21990, "trial_type": "mouselab-mdp", "trial_index": 17, "time_elapsed": 616326, "internal_node_id": "0.0-4.0-1.0-8.0"}}, {"uniqueid": "w11309130:a86368869", "current_trial": 18, "dateTime": 1691159995559, "trialdata": {"revealed_states": [], "clicked_states": ["6", "10", "21", "33", "16"], "num_clicks_accrued": [0, 0, 0, 0, 0, 0, 0, 0, 0, 0, 0, 0, 0], "stateRewards": ["", -2, 4, -7, -3, -76, 39, -28, 10, 14, 12, 60, 2, -3, 6, -10, 88, -34, -41, -3, 72, -13, -56, 1, 3, 2, 8, -51, 23, -57, 1, 14, -46, -16], "withholdReward": false, "trial_id": "mdp_trial_10", "block": "test", "trialIndex": 11, "score": 76, "costs": -7, "simulationMode": [null, null, null, null, null], "rewards": [2, -3, 6, -10, 88], "path": ["0", "0", "12", "13", "14", "15", "16"], "rt": [13652, 243, 243, 489, 147], "actions": ["right", "right", "right", "up", "up"], "actionTimes": [16005, 16760, 17511, 18538, 19244], "queries": {"click": {"state": {"target": ["6", "10", "21", "33", "16"], "time": [3293, 5621, 8209, 10456, 13167]}, "edge": {"target": [], "time": []}}, "mouseover": {"state": {"target": ["7", "6", "7", "2", "10", "8", "9", "9", "13", "22", "21", "30", "30", "33", "30", "23", "7", "16"], "time": [2837, 2926, 3936, 4273, 4796, 6060, 6224, 6482, 7344, 7579, 7953, 8787, 9360, 10165, 10775, 12517, 12584, 12951]}, "edge": {"target": [], "time": []}}, "mouseout": {"state": {"target": ["0", "0", "7", "6", "7", "2", "10", "8", "9", "9", "13", "22", "21", "30", "30", "33", "30", "23", "7", "16", "15", "22"], "time": [1359, 2430, 2872, 3662, 4194, 4549, 5931, 6090, 6278, 6592, 7365, 7694, 8475, 8997, 9712, 10673, 10883, 12556, 12660, 13532, 21596, 21794]}, "edge": {"target": [], "time": []}}}, "displayed_time": "19.77", "trialTime": 22185, "trial_type": "mouselab-mdp", "trial_index": 18, "time_elapsed": 639867, "internal_node_id": "0.0-4.0-1.0-9.0"}}, {"uniqueid": "w11309130:a86368869", "current_trial": 19, "dateTime": 1691160014225, "trialdata": {"revealed_states": [], "clicked_states": ["27", "6"], "num_clicks_accrued": [0, 0, 0, 0, 0, 0, 0, 0, 0, 0, 0, 0, 0], "stateRewards": ["", 1, -1, 1, -14, -10, 67, -28, -11, 72, 40, -65, -1, 1, 1, -2, 8, -55, 34, -10, 61, 33, -15, 2, -4, 7, 4, -75, 63, -21, -16, 61, 19, 21], "withholdReward": false, "trial_id": "mdp_trial_11", "block": "test", "trialIndex": 12, "score": 51.2, "costs": -2.8, "simulationMode": [null, null, null, null, null], "rewards": [1, -1, 1, -14, 67], "path": ["0", "0", "1", "2", "3", "4", "6"], "rt": [7829, 165, 161, 295, 65], "actions": ["up", "up", "up", "right", "right"], "actionTimes": [9882, 10584, 11268, 12099, 12704], "queries": {"click": {"state": {"target": ["27", "6"], "time": [3012, 6660]}, "edge": {"target": [], "time": []}}, "mouseover": {"state": {"target": ["26", "27", "28", "1", "18", "15", "6", "7"], "time": [2541, 2799, 5104, 5435, 5479, 5514, 6137, 7271]}, "edge": {"target": [], "time": []}}, "mouseout": {"state": {"target": ["0", "26", "27", "28", "1", "18", "15", "6", "7", "0"], "time": [1080, 2582, 3563, 5370, 5457, 5501, 5953, 6934, 14353, 14734]}, "edge": {"target": [], "time": []}}}, "displayed_time": "16.05", "trialTime": 17187, "trial_type": "mouselab-mdp", "trial_index": 19, "time_elapsed": 658533, "internal_node_id": "0.0-4.0-1.0-10.0"}}, {"uniqueid": "w11309130:a86368869", "current_trial": 20, "dateTime": 1691160053299, "trialdata": {"revealed_states": [], "clicked_states": ["9", "32", "20", "27", "29", "33", "17", "16", "18", "7", "6", "5"], "num_clicks_accrued": [0, 0, 0, 0, 0, 0, 0, 0, 0, 0, 0, 0, 0], "stateRewards": ["", 2, 3, -3, 4, 72, -28, 34, -12, 57, -64, -15, 2, 1, -4, -15, 2, 49, 31, -1, -42, -58, 31, -2, 1, -2, -13, -75, -19, -22, -6, 61, 10, -56], "withholdReward": false, "trial_id": "mdp_trial_12", "block": "test", "trialIndex": 13, "score": 61.2, "costs": -16.8, "simulationMode": [null, null, null, null, null], "rewards": [2, 3, -3, 4, 72], "path": ["0", "0", "1", "2", "3", "4", "5"], "rt": [30261, 152, 75, 593, 122], "actions": ["up", "up", "up", "right", "up"], "actionTimes": [32409, 33087, 33747, 34895, 35582], "queries": {"click": {"state": {"target": ["9", "32", "20", "27", "29", "33", "17", "16", "18", "7", "6", "5"], "time": [3437, 5629, 7699, 10348, 12460, 15025, 17318, 19518, 21752, 23865, 26357, 29289]}, "edge": {"target": [], "time": []}}, "mouseover": {"state": {"target": ["1", "2", "3", "9", "9", "5", "4", "2", "23", "31", "32", "20", "19", "28", "27", "10", "28", "26", "29", "26", "28", "28", "25", "33", "0", "12", "15", "17", "16", "18", "7", "6", "4", "3", "5", "4", "10"], "time": [2677, 2761, 2815, 2872, 3127, 3813, 3947, 4109, 4243, 4339, 4472, 6714, 7978, 9893, 10053, 10679, 11969, 12025, 12152, 12743, 12790, 14619, 14689, 14784, 16534, 16753, 16971, 17138, 17927, 20975, 22518, 26193, 27987, 28452, 29091, 29620, 30131]}, "edge": {"target": [], "time": []}}, "mouseout": {"state": {"target": ["0", "1", "2", "3", "9", "9", "5", "4", "2", "23", "31", "32", "20", "19", "28", "27", "10", "28", "26", "29", "26", "28", "28", "25", "33", "0", "12", "15", "17", "16", "18", "7", "6", "4", "3", "5", "4", "10", "23"], "time": [971, 2719, 2791, 2844, 2898, 3707, 3844, 4031, 4165, 4277, 4465, 6025, 7948, 8030, 9931, 10602, 10710, 12003, 12070, 12734, 12785, 12826, 14641, 14720, 15314, 16652, 16889, 17021, 17747, 19881, 22286, 24448, 26605, 28346, 28927, 29544, 29701, 36619, 37036]}, "edge": {"target": [], "time": []}}}, "displayed_time": "36.11", "trialTime": 37642, "trial_type": "mouselab-mdp", "trial_index": 20, "time_elapsed": 697607, "internal_node_id": "0.0-4.0-1.0-11.0"}}, {"uniqueid": "w11309130:a86368869", "current_trial": 21, "dateTime": 1691160072205, "trialdata": {"revealed_states": [], "clicked_states": ["5", "22", "28"], "num_clicks_accrued": [0, 0, 0, 0, 0, 0, 0, 0, 0, 0, 0, 0, 0], "stateRewards": ["", -2, 1, -8, 12, -65, -79, 16, 7, -80, -17, -45, -2, 2, -5, -2, -85, 23, -4, -7, 48, 27, -76, 2, 3, 5, 2, 43, 71, -13, 7, -49, 59, -31], "withholdReward": false, "trial_id": "mdp_trial_13", "block": "test", "trialIndex": 14, "score": 78.8, "costs": -4.199999999999999, "simulationMode": [null, null, null, null, null], "rewards": [2, 3, 5, 2, 71], "path": ["0", "0", "23", "24", "25", "26", "28"], "rt": [9725, 180, 82, 340, 289], "actions": ["left", "left", "left", "up", "right"], "actionTimes": [11579, 12302, 12972, 13836, 14646], "queries": {"click": {"state": {"target": ["5", "22", "28"], "time": [2637, 5559, 8666]}, "edge": {"target": [], "time": []}}, "mouseover": {"state": {"target": ["4", "5", "13", "22", "22", "19", "20", "25", "26", "28"], "time": [2093, 2177, 4779, 4838, 5165, 5829, 5998, 8082, 8352, 8429]}, "edge": {"target": [], "time": []}}, "mouseout": {"state": {"target": ["0", "4", "5", "13", "22", "22", "19", "20", "22", "25", "26", "28", "28", "28", "23"], "time": [865, 2129, 2972, 4812, 4865, 5799, 5911, 7667, 7712, 8111, 8391, 8703, 9615, 10517, 16516]}, "edge": {"target": [], "time": []}}}, "displayed_time": "15.86", "trialTime": 17239, "trial_type": "mouselab-mdp", "trial_index": 21, "time_elapsed": 716511, "internal_node_id": "0.0-4.0-1.0-12.0"}}, {"uniqueid": "w11309130:a86368869", "current_trial": 22, "dateTime": 1691160112226, "trialdata": {"revealed_states": [], "clicked_states": ["7", "32", "33", "16", "18", "21", "22", "27", "28", "11", "9", "10"], "num_clicks_accrued": [0, 0, 0, 0, 0, 0, 0, 0, 0, 0, 0, 0, 0], "stateRewards": ["", -2, 3, -1, 2, -72, 63, 20, -1, 62, -66, 39, -2, 3, -6, 14, 22, 47, 1, 8, -49, -1, -41, 2, 2, -6, -16, -64, -60, -34, 16, 54, 22, -7], "withholdReward": false, "trial_id": "mdp_trial_14", "block": "test", "trialIndex": 15, "score": 44.2, "costs": -16.8, "simulationMode": [null, null, null, null, null], "rewards": [-2, 3, -1, -1, 62], "path": ["0", "0", "1", "2", "3", "8", "9"], "rt": [30643, 130, 129, 304, 593], "actions": ["up", "up", "up", "left", "up"], "actionTimes": [33112, 33784, 34448, 35250, 36367], "queries": {"click": {"state": {"target": ["7", "32", "33", "16", "18", "21", "22", "27", "28", "11", "9", "10"], "time": [3994, 7981, 10808, 12736, 14716, 16739, 18942, 21225, 23626, 25574, 27947, 30535]}, "edge": {"target": [], "time": []}}, "mouseover": {"state": {"target": ["12", "0", "1", "2", "7", "2", "8", "11", "11", "30", "32", "32", "24", "25", "33", "30", "17", "16", "17", "18", "18", "14", "19", "21", "20", "20", "19", "22", "19", "12", "27", "29", "26", "28", "10", "3", "5", "9", "11", "8", "5", "9", "9", "8", "10", "10"], "time": [2521, 2976, 3090, 3414, 3791, 6192, 6358, 6410, 6860, 7492, 7521, 7798, 10115, 10341, 10575, 11086, 11916, 12032, 13159, 13637, 14010, 15075, 15370, 15653, 17085, 18274, 18376, 18573, 19320, 20048, 20712, 21867, 23212, 23391, 23940, 24012, 24201, 24693, 24930, 25911, 26408, 27517, 27781, 28212, 28324, 28740]}, "edge": {"target": [], "time": []}}, "mouseout": {"state": {"target": ["0", "12", "0", "1", "2", "7", "2", "8", "11", "11", "30", "32", "32", "24", "25", "33", "30", "17", "16", "17", "18", "18", "14", "19", "21", "20", "20", "19", "22", "19", "12", "27", "29", "26", "28", "10", "3", "5", "9", "11", "8", "5", "9", "9", "8", "10", "10", "0"], "time": [1207, 2865, 3009, 3158, 3709, 4333, 6225, 6380, 6627, 7398, 7514, 7547, 8055, 10258, 10482, 11078, 11170, 11957, 13076, 13395, 13844, 15004, 15295, 15592, 16952, 17117, 18325, 18402, 19238, 19365, 20090, 21601, 23190, 23257, 23836, 23981, 24070, 24507, 24775, 25878, 26068, 27464, 27589, 28173, 28265, 28404, 31012, 37694]}, "edge": {"target": [], "time": []}}}, "displayed_time": "36.91", "trialTime": 38487, "trial_type": "mouselab-mdp", "trial_index": 22, "time_elapsed": 756531, "internal_node_id": "0.0-4.0-1.0-13.0"}}, {"uniqueid": "w11309130:a86368869", "current_trial": 23, "dateTime": 1691160134829, "trialdata": {"revealed_states": [], "clicked_states": ["10", "17", "5", "31", "28"], "num_clicks_accrued": [0, 0, 0, 0, 0, 0, 0, 0, 0, 0, 0, 0, 0], "stateRewards": ["", -2, 1, -7, -8, -37, -76, -87, 11, 30, -63, 80, -1, 4, 2, -1, 42, 17, 52, -3, -75, -80, -68, 2, -3, -5, -15, -48, 82, 24, -7, 5, -22, -71], "withholdReward": false, "trial_id": "mdp_trial_15", "block": "test", "trialIndex": 16, "score": 54, "costs": -7, "simulationMode": [null, null, null, null, null], "rewards": [2, -3, -5, -15, 82], "path": ["0", "0", "23", "24", "25", "26", "28"], "rt": [14055, 186, 190, 613, 184], "actions": ["left", "left", "left", "up", "right"], "actionTimes": [15860, 16568, 17273, 18421, 19126], "queries": {"click": {"state": {"target": ["10", "17", "5", "31", "28"], "time": [2916, 5546, 8468, 10472, 12873]}, "edge": {"target": [], "time": []}}, "mouseover": {"state": {"target": ["1", "2", "10", "1", "18", "15", "17", "18", "7", "4", "5", "4", "7", "1", "30", "30", "33", "30", "31", "24", "28", "24"], "time": [2343, 2470, 2739, 3803, 5053, 5114, 5351, 7826, 7906, 7989, 8061, 8739, 8830, 8905, 9035, 9377, 9441, 9724, 9771, 12481, 12685, 13237]}, "edge": {"target": [], "time": []}}, "mouseout": {"state": {"target": ["0", "1", "2", "10", "1", "18", "15", "17", "18", "7", "4", "5", "4", "7", "1", "30", "30", "33", "30", "31", "31", "24", "28", "28", "24"], "time": [1886, 2420, 2693, 3459, 5012, 5087, 5310, 5739, 7873, 7941, 8036, 8683, 8795, 8870, 8972, 9095, 9407, 9691, 9763, 10553, 10766, 12575, 12953, 13152, 20290]}, "edge": {"target": [], "time": []}}}, "displayed_time": "19.66", "trialTime": 21057, "trial_type": "mouselab-mdp", "trial_index": 23, "time_elapsed": 779136, "internal_node_id": "0.0-4.0-1.0-14.0"}}, {"uniqueid": "w11309130:a86368869", "current_trial": 24, "dateTime": 1691160158578, "trialdata": {"revealed_states": [], "clicked_states": ["28", "7", "21", "16", "27", "33"], "num_clicks_accrued": [0, 0, 0, 0, 0, 0, 0, 0, 0, 0, 0, 0, 0], "stateRewards": ["", 1, -3, -1, 9, -34, -40, 22, -7, 45, 53, -11, 2, 4, 5, 15, 21, 37, -49, -3, 80, -28, -34, 1, -3, 1, 1, -40, -6, -5, -16, -85, -86, 59], "withholdReward": false, "trial_id": "mdp_trial_16", "block": "test", "trialIndex": 17, "score": -13.4, "costs": -8.4, "simulationMode": [null, null, null, null, null], "rewards": [1, -3, 1, 1, -5], "path": ["0", "0", "23", "24", "25", "26", "29"], "rt": [14239, 158, 95, 350, 1013], "actions": ["left", "left", "left", "up", "left"], "actionTimes": [16123, 16820, 17506, 18376, 19913], "queries": {"click": {"state": {"target": ["28", "7", "21", "16", "27", "33"], "time": [2745, 4715, 6755, 8715, 11013, 13054]}, "edge": {"target": [], "time": []}}, "mouseover": {"state": {"target": ["0", "28", "23", "3", "4", "7", "18", "13", "22", "21", "22", "16", "10", "27", "29", "33", "30"], "time": [2283, 2426, 3175, 3602, 3789, 4031, 5236, 5338, 5405, 5672, 7275, 7589, 9366, 9751, 11541, 11932, 13374]}, "edge": {"target": [], "time": []}}, "mouseout": {"state": {"target": ["0", "0", "28", "28", "23", "3", "4", "7", "18", "13", "22", "21", "22", "16", "16", "10", "27", "29", "33", "30", "31"], "time": [910, 2320, 2803, 2994, 3307, 3657, 3873, 5154, 5300, 5371, 5442, 7059, 7350, 8776, 9187, 9412, 11405, 11697, 13302, 13483, 21387]}, "edge": {"target": [], "time": []}}}, "displayed_time": "20.43", "trialTime": 22195, "trial_type": "mouselab-mdp", "trial_index": 24, "time_elapsed": 802882, "internal_node_id": "0.0-4.0-1.0-15.0"}}, {"uniqueid": "w11309130:a86368869", "current_trial": 25, "dateTime": 1691160191263, "trialdata": {"revealed_states": [], "clicked_states": ["28", "6", "11", "10", "9", "5", "7", "21", "33"], "num_clicks_accrued": [0, 0, 0, 0, 0, 0, 0, 0, 0, 0, 0, 0, 0], "stateRewards": ["", 1, 2, -8, 9, 18, -83, -11, 6, -64, -48, 17, -2, -2, -5, -3, -24, -3, -86, -2, 48, -41, -22, -2, 4, 7, 8, 81, 13, -48, 10, 61, 19, 57], "withholdReward": false, "trial_id": "mdp_trial_17", "block": "test", "trialIndex": 18, "score": -43.6, "costs": -12.600000000000001, "simulationMode": [null, null, null, null, null], "rewards": [-2, 4, 7, 8, -48], "path": ["0", "0", "23", "24", "25", "26", "29"], "rt": [21353, 158, 152, 226, 2473], "actions": ["left", "left", "left", "up", "left"], "actionTimes": [23928, 24593, 25284, 26020, 29038], "queries": {"click": {"state": {"target": ["28", "6", "11", "10", "9", "5", "7", "21", "33"], "time": [4177, 6225, 8120, 10080, 12044, 14085, 16098, 18764, 20911]}, "edge": {"target": [], "time": []}}, "mouseover": {"state": {"target": ["3", "7", "1", "23", "24", "28", "28", "10", "2", "6", "5", "9", "11", "8", "2", "10", "8", "9", "5", "4", "7", "7", "7", "18", "13", "19", "21", "19", "22", "32", "33", "30"], "time": [2628, 2803, 3178, 3247, 3562, 3847, 4060, 4750, 4908, 5063, 6655, 6783, 7022, 8416, 8743, 9148, 10394, 10494, 12613, 14396, 14481, 14735, 15004, 18134, 18194, 18243, 18531, 19557, 19705, 20100, 20445, 21338]}, "edge": {"target": [], "time": []}}, "mouseout": {"state": {"target": ["0", "0", "3", "7", "1", "23", "24", "28", "28", "10", "2", "6", "5", "9", "11", "8", "2", "10", "8", "9", "5", "4", "7", "7", "7", "18", "13", "19", "21", "19", "22", "32", "33", "30"], "time": [1063, 2623, 2756, 3139, 3221, 3516, 3591, 3872, 4286, 4793, 4986, 6288, 6696, 6912, 8367, 8458, 8940, 10316, 10426, 12389, 14365, 14450, 14522, 14826, 16136, 18168, 18222, 18279, 18942, 19665, 19742, 20189, 21259, 30215]}, "edge": {"target": [], "time": []}}}, "displayed_time": "29.59", "trialTime": 31096, "trial_type": "mouselab-mdp", "trial_index": 25, "time_elapsed": 835571, "internal_node_id": "0.0-4.0-1.0-16.0"}}, {"uniqueid": "w11309130:a86368869", "current_trial": 26, "dateTime": 1691160214633, "trialdata": {"revealed_states": [], "clicked_states": ["29", "16", "32", "9", "7"], "num_clicks_accrued": [0, 0, 0, 0, 0, 0, 0, 0, 0, 0, 0, 0, 0], "stateRewards": ["", 1, -2, -8, -3, 31, -84, -55, -14, 15, -58, 17, -2, -3, 7, 7, -12, 48, 67, 4, -44, -68, 46, 2, 3, -5, -7, 76, 27, 5, 11, 57, 52, 59], "withholdReward": false, "trial_id": "mdp_trial_18", "block": "test", "trialIndex": 19, "score": 56, "costs": -7, "simulationMode": [null, null, null, null, null], "rewards": [2, 3, -5, 11, 52], "path": ["0", "0", "23", "24", "25", "30", "32"], "rt": [13357, 195, 144, 713, 217], "actions": ["left", "left", "left", "down", "down"], "actionTimes": [15830, 16555, 17239, 18485, 19225], "queries": {"click": {"state": {"target": ["29", "16", "32", "9", "7"], "time": [3712, 5688, 7695, 9678, 12577]}, "edge": {"target": [], "time": []}}, "mouseover": {"state": {"target": ["23", "23", "24", "25", "26", "29", "2", "7", "16", "15", "14", "22", "31", "32", "24", "28", "10", "8", "9", "10", "2", "7"], "time": [2527, 2916, 3133, 3283, 3383, 3501, 4056, 4104, 4351, 6158, 6253, 6418, 6510, 6906, 8120, 8173, 8219, 8297, 8676, 11857, 12127, 12215]}, "edge": {"target": [], "time": []}}, "mouseout": {"state": {"target": ["31", "12", "0", "23", "23", "24", "25", "26", "29", "2", "7", "16", "15", "14", "22", "31", "32", "24", "28", "10", "8", "9", "10", "2", "7", "13"], "time": [702, 865, 2521, 2703, 3083, 3218, 3307, 3408, 3944, 4097, 4144, 6126, 6214, 6307, 6451, 6546, 7982, 8160, 8206, 8251, 8433, 10159, 12089, 12160, 12846, 20782]}, "edge": {"target": [], "time": []}}}, "displayed_time": "19.73", "trialTime": 21760, "trial_type": "mouselab-mdp", "trial_index": 26, "time_elapsed": 858939, "internal_node_id": "0.0-4.0-1.0-17.0"}}, {"uniqueid": "w11309130:a86368869", "current_trial": 27, "dateTime": 1691160233429, "trialdata": {"revealed_states": [], "clicked_states": ["16", "18"], "num_clicks_accrued": [0, 0, 0, 0, 0, 0, 0, 0, 0, 0, 0, 0, 0], "stateRewards": ["", 1, -1, 4, -2, -75, -75, 84, -9, -60, -79, 59, 2, -4, 8, 9, -17, -82, 80, 14, -4, 49, 49, -1, 3, 6, -11, -33, 34, 55, 9, -57, 5, 59], "withholdReward": false, "trial_id": "mdp_trial_19", "block": "test", "trialIndex": 20, "score": 92.2, "costs": -2.8, "simulationMode": [null, null, null, null, null], "rewards": [2, -4, 8, 9, 80], "path": ["0", "0", "12", "13", "14", "15", "18"], "rt": [5954, 141, 247, 449, 269], "actions": ["right", "right", "right", "up", "left"], "actionTimes": [7825, 8505, 9265, 10219, 11041], "queries": {"click": {"state": {"target": ["16", "18"], "time": [2980, 4935]}, "edge": {"target": [], "time": []}}, "mouseover": {"state": {"target": ["18", "15", "16", "15", "18", "15", "14", "19", "21", "22"], "time": [2415, 2557, 2690, 3324, 4084, 5554, 5920, 6059, 6487, 6960]}, "edge": {"target": [], "time": []}}, "mouseout": {"state": {"target": ["0", "18", "15", "16", "15", "18", "15", "14", "19", "21", "22"], "time": [908, 2459, 2608, 3267, 3420, 5498, 5839, 6027, 6347, 6831, 12598]}, "edge": {"target": [], "time": []}}}, "displayed_time": "15.87", "trialTime": 16899, "trial_type": "mouselab-mdp", "trial_index": 27, "time_elapsed": 877735, "internal_node_id": "0.0-4.0-1.0-18.0"}}, {"uniqueid": "w11309130:a86368869", "current_trial": 28, "dateTime": 1691160251783, "trialdata": {"revealed_states": [], "clicked_states": ["10"], "num_clicks_accrued": [0, 0, 0, 0, 0, 0, 0, 0, 0, 0, 0, 0, 0], "stateRewards": ["", 1, 3, 1, -13, 52, -28, 67, -14, 3, 63, -70, -1, -4, 7, -11, -10, 47, -18, 6, 69, -9, -61, 2, 3, -6, 10, 63, -34, 40, -6, -79, -35, -32], "withholdReward": false, "trial_id": "mdp_trial_20", "block": "test", "trialIndex": 21, "score": 52.6, "costs": -1.4, "simulationMode": [null, null, null, null, null], "rewards": [1, 3, 1, -14, 63], "path": ["0", "0", "1", "2", "3", "8", "10"], "rt": [4249, 138, 164, 307, 528], "actions": ["up", "up", "up", "left", "down"], "actionTimes": [6033, 6687, 7382, 8248, 9300], "queries": {"click": {"state": {"target": ["10"], "time": [2925]}, "edge": {"target": [], "time": []}}, "mouseover": {"state": {"target": ["12", "1", "2", "8", "10", "2", "7"], "time": [2026, 2258, 2342, 2403, 2668, 3232, 3524]}, "edge": {"target": [], "time": []}}, "mouseout": {"state": {"target": ["0", "0", "12", "1", "2", "8", "10", "2", "7"], "time": [676, 1811, 2059, 2309, 2367, 2616, 3157, 3292, 11328]}, "edge": {"target": [], "time": []}}}, "displayed_time": "15.79", "trialTime": 16691, "trial_type": "mouselab-mdp", "trial_index": 28, "time_elapsed": 896090, "internal_node_id": "0.0-4.0-1.0-19.0"}}, {"uniqueid": "w11309130:a86368869", "current_trial": 29, "dateTime": 1691160274364, "trialdata": {"revealed_states": [], "clicked_states": ["13", "8", "11", "10", "9"], "num_clicks_accrued": [0, 0, 0, 0, 0, 0, 0, 0, 0, 0, 0, 0, 0], "stateRewards": ["", 2, -3, -2, 14, -4, 85, 46, 15, -28, 41, 31, -1, -1, -1, 5, 62, 79, 57, 12, -73, -64, 86, -1, 1, -3, -5, 68, 11, -32, 8, -80, -21, -56], "withholdReward": false, "trial_id": "mdp_trial_21", "block": "test", "trialIndex": 22, "score": 46, "costs": -7, "simulationMode": [null, null, null, null, null], "rewards": [2, -3, -2, 15, 41], "path": ["0", "0", "1", "2", "3", "8", "10"], "rt": [13756, 119, 139, 617, 98], "actions": ["up", "up", "up", "left", "down"], "actionTimes": [15733, 16392, 17065, 18217, 18831], "queries": {"click": {"state": {"target": ["13", "8", "11", "10", "9"], "time": [2901, 5947, 7960, 10165, 12458]}, "edge": {"target": [], "time": []}}, "mouseover": {"state": {"target": ["13", "18", "2", "8", "3", "9", "11", "10", "9"], "time": [2580, 3362, 5231, 5720, 6414, 6942, 7527, 8548, 10531]}, "edge": {"target": [], "time": []}}, "mouseout": {"state": {"target": ["13", "18", "2", "8", "3", "9", "11", "8", "10", "8", "9", "3"], "time": [3196, 5154, 5265, 6251, 6615, 7255, 8219, 8408, 10382, 10448, 19953, 20079]}, "edge": {"target": [], "time": []}}}, "displayed_time": "19.35", "trialTime": 20995, "trial_type": "mouselab-mdp", "trial_index": 29, "time_elapsed": 918671, "internal_node_id": "0.0-4.0-1.0-20.0"}}, {"uniqueid": "w11309130:a86368869", "current_trial": 30, "dateTime": 1691160293260, "trialdata": {"revealed_states": [], "clicked_states": ["20", "28"], "num_clicks_accrued": [0, 0, 0, 0, 0, 0, 0, 0, 0, 0, 0, 0, 0], "stateRewards": ["", 1, 4, 5, -5, 58, -80, 75, 6, 25, -39, 46, 2, -2, 4, 2, 59, 31, -22, -12, -61, 15, 72, 1, -2, -7, 8, 77, 76, -23, -7, 71, -15, -3], "withholdReward": false, "trial_id": "mdp_trial_22", "block": "test", "trialIndex": 23, "score": 73.2, "costs": -2.8, "simulationMode": [null, null, null, null, null], "rewards": [1, -2, -7, 8, 76], "path": ["0", "0", "23", "24", "25", "26", "28"], "rt": [7723, 178, 198, 726, 159], "actions": ["left", "left", "left", "up", "right"], "actionTimes": [9755, 10486, 11194, 12437, 13118], "queries": {"click": {"state": {"target": ["20", "28"], "time": [3465, 6330]}, "edge": {"target": [], "time": []}}, "mouseover": {"state": {"target": ["19", "20", "22", "0", "28", "9"], "time": [2721, 2817, 5145, 5864, 6046, 7027]}, "edge": {"target": [], "time": []}}, "mouseout": {"state": {"target": ["0", "19", "20", "22", "0", "28", "9", "8", "10"], "time": [995, 2762, 3773, 5786, 5890, 6676, 14385, 14516, 16635]}, "edge": {"target": [], "time": []}}}, "displayed_time": "16.03", "trialTime": 17101, "trial_type": "mouselab-mdp", "trial_index": 30, "time_elapsed": 937567, "internal_node_id": "0.0-4.0-1.0-21.0"}}, {"uniqueid": "w11309130:a86368869", "current_trial": 31, "dateTime": 1691160313131, "trialdata": {"revealed_states": [], "clicked_states": ["18"], "num_clicks_accrued": [0, 0, 0, 0, 0, 0, 0, 0, 0, 0, 0, 0, 0], "stateRewards": ["", -1, 4, 3, 12, -27, 34, -33, 3, -63, 1, 6, 2, 2, -6, -11, -77, -85, 68, -6, 51, 81, -60, -2, -2, 1, 15, 20, 15, 68, -10, -14, 6, -4], "withholdReward": false, "trial_id": "mdp_trial_23", "block": "test", "trialIndex": 24, "score": 53.6, "costs": -1.4, "simulationMode": [null, null, null, null, null], "rewards": [2, 2, -6, -11, 68], "path": ["0", "0", "12", "13", "14", "15", "18"], "rt": [3938, 160, 180, 716, 171], "actions": ["right", "right", "right", "up", "left"], "actionTimes": [6089, 6785, 7485, 8748, 9432], "queries": {"click": {"state": {"target": ["18"], "time": [3061]}, "edge": {"target": [], "time": []}}, "mouseover": {"state": {"target": ["1", "18"], "time": [2525, 2650]}, "edge": {"target": [], "time": []}}, "mouseout": {"state": {"target": ["1", "0", "1", "18", "12"], "time": [850, 2178, 2579, 3352, 14534]}, "edge": {"target": [], "time": []}}}, "displayed_time": "16.15", "trialTime": 18233, "trial_type": "mouselab-mdp", "trial_index": 31, "time_elapsed": 957439, "internal_node_id": "0.0-4.0-1.0-22.0"}}, {"uniqueid": "w11309130:a86368869", "current_trial": 32, "dateTime": 1691160344623, "trialdata": {"revealed_states": [], "clicked_states": ["32", "5", "11", "6", "21", "18", "27", "28", "29"], "num_clicks_accrued": [0, 0, 0, 0, 0, 0, 0, 0, 0, 0, 0, 0, 0], "stateRewards": ["", 2, 4, 7, -6, -76, -81, 2, 5, -66, -3, 36, -2, -4, 6, -2, -69, 4, -49, -6, 67, 38, -67, 2, 1, 1, 6, -68, -21, 52, -16, -16, 6, -70], "withholdReward": false, "trial_id": "mdp_trial_24", "block": "test", "trialIndex": 25, "score": 49.4, "costs": -12.600000000000001, "simulationMode": [null, null, null, null, null], "rewards": [2, 1, 1, 6, 52], "path": ["0", "0", "23", "24", "25", "26", "29"], "rt": [22532, 201, 127, 657, 118], "actions": ["left", "left", "left", "up", "left"], "actionTimes": [24288, 25032, 25743, 26924, 27566], "queries": {"click": {"state": {"target": ["32", "5", "11", "6", "21", "18", "27", "28", "29"], "time": [2627, 5291, 7315, 9317, 11296, 13349, 16028, 18504, 21188]}, "edge": {"target": [], "time": []}}, "mouseover": {"state": {"target": ["12", "32", "31", "10", "3", "5", "3", "9", "11", "8", "3", "4", "6", "15", "21", "18", "1", "28", "26", "27", "26", "28", "26", "29", "26", "17", "16"], "time": [2042, 2408, 2883, 4826, 4943, 5108, 5608, 5858, 5986, 7654, 7742, 7781, 7843, 9696, 9987, 12218, 15474, 15523, 15559, 15777, 18124, 18208, 20546, 20974, 21538, 22057, 22299]}, "edge": {"target": [], "time": []}}, "mouseout": {"state": {"target": ["1", "12", "32", "31", "10", "3", "5", "3", "9", "11", "8", "3", "4", "6", "15", "21", "18", "1", "28", "26", "27", "26", "28", "28", "26", "29", "26", "17", "16", "15", "13"], "time": [383, 2066, 2833, 2981, 4877, 5041, 5504, 5729, 5923, 7614, 7693, 7773, 7816, 9613, 9740, 11625, 15433, 15510, 15553, 15592, 16983, 18158, 18865, 20532, 20612, 21504, 21579, 22098, 28491, 28728, 29040]}, "edge": {"target": [], "time": []}}}, "displayed_time": "28.09", "trialTime": 29733, "trial_type": "mouselab-mdp", "trial_index": 32, "time_elapsed": 988929, "internal_node_id": "0.0-4.0-1.0-23.0"}}, {"uniqueid": "w11309130:a86368869", "current_trial": 33, "dateTime": 1691160363512, "trialdata": {"revealed_states": [], "clicked_states": ["17", "5"], "num_clicks_accrued": [0, 0, 0, 0, 0, 0, 0, 0, 0, 0, 0, 0, 0], "stateRewards": ["", -2, 4, -3, -13, 63, -36, 62, 11, 78, 34, -51, 2, -2, 8, -6, -40, -18, 31, 9, 64, 39, 79, 1, 4, -4, 15, -12, 76, 73, -10, -77, 86, -4], "withholdReward": false, "trial_id": "mdp_trial_25", "block": "test", "trialIndex": 26, "score": 46.2, "costs": -2.8, "simulationMode": [null, null, null, null, null], "rewards": [-2, 4, -3, -13, 63], "path": ["0", "0", "1", "2", "3", "4", "5"], "rt": [6620, 158, 192, 329, 410], "actions": ["up", "up", "up", "right", "up"], "actionTimes": [8337, 8997, 9716, 10575, 11512], "queries": {"click": {"state": {"target": ["17", "5"], "time": [2800, 5332]}, "edge": {"target": [], "time": []}}, "mouseover": {"state": {"target": ["16", "17", "15", "18", "6", "5", "3", "4", "7"], "time": [2390, 2548, 3071, 3144, 4974, 5100, 6004, 6963, 7398]}, "edge": {"target": [], "time": []}}, "mouseout": {"state": {"target": ["12", "0", "16", "17", "15", "18", "6", "5", "5", "3", "4", "7"], "time": [505, 698, 2438, 3060, 3112, 3496, 5020, 5421, 5692, 6835, 7048, 13170]}, "edge": {"target": [], "time": []}}}, "displayed_time": "15.72", "trialTime": 17077, "trial_type": "mouselab-mdp", "trial_index": 33, "time_elapsed": 1007813, "internal_node_id": "0.0-4.0-1.0-24.0"}}, {"uniqueid": "w11309130:a86368869", "current_trial": 34, "dateTime": 1691160388167, "trialdata": {"revealed_states": [], "clicked_states": ["27", "32", "9", "7", "17", "22"], "num_clicks_accrued": [0, 0, 0, 0, 0, 0, 0, 0, 0, 0, 0, 0, 0], "stateRewards": ["", 2, 4, -6, -13, -75, -81, 30, 7, 5, 59, -65, -1, -1, 7, 14, -38, 36, -41, 1, -54, -5, 64, 2, -1, 5, 6, -19, 79, 11, 16, -33, -50, 58], "withholdReward": false, "trial_id": "mdp_trial_26", "block": "test", "trialIndex": 27, "score": 61.6, "costs": -8.4, "simulationMode": [null, null, null, null, null], "rewards": [-1, -1, 7, 1, 64], "path": ["0", "0", "12", "13", "14", "19", "22"], "rt": [14166, 143, 122, 576, 529], "actions": ["right", "right", "right", "down", "left"], "actionTimes": [16615, 17309, 17947, 19083, 20159], "queries": {"click": {"state": {"target": ["27", "32", "9", "7", "17", "22"], "time": [3746, 5720, 7703, 9619, 11649, 13747]}, "edge": {"target": [], "time": []}}, "mouseover": {"state": {"target": ["23", "28", "27", "28", "30", "32", "9", "2", "7", "17", "17", "18", "13", "22", "19"], "time": [3106, 3282, 3549, 4365, 4515, 4760, 6795, 8422, 8693, 10224, 10505, 12634, 12724, 12827, 14140]}, "edge": {"target": [], "time": []}}, "mouseout": {"state": {"target": ["0", "23", "28", "27", "28", "30", "32", "9", "2", "7", "17", "17", "18", "13", "22", "19", "21"], "time": [582, 3164, 3331, 4014, 4403, 4697, 6227, 8131, 8593, 10044, 10280, 12149, 12681, 12762, 14045, 14848, 21748]}, "edge": {"target": [], "time": []}}}, "displayed_time": "20.74", "trialTime": 22957, "trial_type": "mouselab-mdp", "trial_index": 34, "time_elapsed": 1032474, "internal_node_id": "0.0-4.0-1.0-25.0"}}, {"uniqueid": "w11309130:a86368869", "current_trial": 35, "dateTime": 1691160410752, "trialdata": {"revealed_states": [], "clicked_states": ["12", "23", "1", "21", "22"], "num_clicks_accrued": [0, 0, 0, 0, 0, 0, 0, 0, 0, 0, 0, 0, 0], "stateRewards": ["", 1, 2, 7, 13, 88, -71, 27, 3, 60, 5, -53, -2, 2, -6, -1, -30, 79, 47, -4, -14, 46, 68, 1, 1, 8, 10, -14, 86, 48, -11, -67, -44, 5], "withholdReward": false, "trial_id": "mdp_trial_27", "block": "test", "trialIndex": 28, "score": 51, "costs": -7, "simulationMode": [null, null, null, null, null], "rewards": [-2, 2, -6, -4, 68], "path": ["0", "0", "12", "13", "14", "19", "22"], "rt": [13447, 64, 43, 553, 184], "actions": ["right", "right", "right", "down", "left"], "actionTimes": [15300, 15934, 16566, 17661, 18375], "queries": {"click": {"state": {"target": ["12", "23", "1", "21", "22"], "time": [3291, 5532, 7426, 9612, 12461]}, "edge": {"target": [], "time": []}}, "mouseover": {"state": {"target": ["12", "1", "23", "1", "18", "14", "19", "21", "19", "22"], "time": [2444, 3907, 4382, 6010, 8043, 8302, 8381, 8763, 12163, 12247]}, "edge": {"target": [], "time": []}}, "mouseout": {"state": {"target": ["0", "12", "1", "23", "1", "1", "18", "14", "19", "21", "19", "22", "22"], "time": [2393, 3688, 4009, 5816, 7492, 7721, 8105, 8340, 8416, 9906, 12216, 12837, 20139]}, "edge": {"target": [], "time": []}}}, "displayed_time": "18.92", "trialTime": 20947, "trial_type": "mouselab-mdp", "trial_index": 35, "time_elapsed": 1055060, "internal_node_id": "0.0-4.0-1.0-26.0"}}, {"uniqueid": "w11309130:a86368869", "current_trial": 36, "dateTime": 1691160432607, "trialdata": {"revealed_states": [], "clicked_states": ["5", "32", "29", "20"], "num_clicks_accrued": [0, 0, 0, 0, 0, 0, 0, 0, 0, 0, 0, 0, 0], "stateRewards": ["", -1, 3, 1, -7, 56, 76, 57, 3, 11, -9, 14, 1, -2, 2, 8, -77, -3, 79, -5, 88, 24, -66, -2, -1, 7, -7, -30, 14, -76, 11, -36, 28, -6], "withholdReward": false, "trial_id": "mdp_trial_28", "block": "test", "trialIndex": 29, "score": 78.4, "costs": -5.6, "simulationMode": [null, null, null, null, null], "rewards": [1, -2, 2, -5, 88], "path": ["0", "0", "12", "13", "14", "19", "20"], "rt": [10635, 171, 251, 516, 277], "actions": ["right", "right", "right", "down", "right"], "actionTimes": [14146, 14831, 15611, 16654, 17434], "queries": {"click": {"state": {"target": ["5", "32", "29", "20"], "time": [4503, 6906, 8944, 10975]}, "edge": {"target": [], "time": []}}, "mouseover": {"state": {"target": ["1", "2", "4", "5", "4", "2", "31", "32", "30", "29", "1", "20"], "time": [3795, 3932, 4080, 4321, 4837, 4883, 5014, 5265, 7443, 7960, 9332, 9902]}, "edge": {"target": [], "time": []}}, "mouseout": {"state": {"target": ["0", "1", "2", "4", "5", "5", "4", "2", "31", "32", "30", "29", "1", "20", "21"], "time": [3699, 3880, 4029, 4105, 4581, 4798, 4877, 4924, 5115, 7303, 7508, 9215, 9384, 11298, 19300]}, "edge": {"target": [], "time": []}}}, "displayed_time": "17.95", "trialTime": 20048, "trial_type": "mouselab-mdp", "trial_index": 36, "time_elapsed": 1076915, "internal_node_id": "0.0-4.0-1.0-27.0"}}, {"uniqueid": "w11309130:a86368869", "current_trial": 37, "dateTime": 1691160452476, "trialdata": {"revealed_states": [], "clicked_states": ["6", "16", "27"], "num_clicks_accrued": [0, 0, 0, 0, 0, 0, 0, 0, 0, 0, 0, 0, 0], "stateRewards": ["", -1, -2, 8, -6, -79, -6, 87, 9, -5, -66, -38, 2, 2, 5, -6, -82, 74, 85, -8, 67, -30, -15, 1, -2, -2, -2, 87, 64, 49, 7, 2, -38, -9], "withholdReward": false, "trial_id": "mdp_trial_29", "block": "test", "trialIndex": 30, "score": 77.8, "costs": -4.199999999999999, "simulationMode": [null, null, null, null, null], "rewards": [1, -2, -2, -2, 87], "path": ["0", "0", "23", "24", "25", "26", "27"], "rt": [7978, 174, 129, 797, 145], "actions": ["left", "left", "left", "up", "up"], "actionTimes": [10442, 11163, 11838, 13171, 13841], "queries": {"click": {"state": {"target": ["6", "16", "27"], "time": [3417, 5364, 7438]}, "edge": {"target": [], "time": []}}, "mouseover": {"state": {"target": ["6", "6", "16", "18", "1", "27", "11", "9", "8", "10"], "time": [2496, 2975, 3956, 5809, 5887, 6296, 7852, 8056, 8204, 8406]}, "edge": {"target": [], "time": []}}, "mouseout": {"state": {"target": ["4", "4", "7", "1", "6", "6", "16", "18", "1", "27", "11", "9", "8", "10"], "time": [770, 889, 972, 1115, 2595, 3682, 5683, 5848, 5921, 7714, 7899, 8167, 8331, 15041]}, "edge": {"target": [], "time": []}}}, "displayed_time": "16.47", "trialTime": 17919, "trial_type": "mouselab-mdp", "trial_index": 37, "time_elapsed": 1096782, "internal_node_id": "0.0-4.0-1.0-28.0"}}, {"uniqueid": "w11309130:a86368869", "current_trial": 38, "dateTime": 1691160471728, "trialdata": {"revealed_states": [], "clicked_states": ["27", "22", "7"], "num_clicks_accrued": [0, 0, 0, 0, 0, 0, 0, 0, 0, 0, 0, 0, 0], "stateRewards": ["", -2, -3, -6, -7, 9, 16, 65, 5, -41, 20, -25, -1, -4, 1, -11, -49, -4, 71, 1, 39, -62, 52, -2, -3, 7, -9, -28, -70, 84, 8, 24, -58, 82], "withholdReward": false, "trial_id": "mdp_trial_30", "block": "test", "trialIndex": 31, "score": 42.8, "costs": -4.199999999999999, "simulationMode": [null, null, null, null, null], "rewards": [-2, -3, -6, -7, 65], "path": ["0", "0", "1", "2", "3", "4", "7"], "rt": [8491, 118, 72, 319, 123], "actions": ["up", "up", "up", "right", "down"], "actionTimes": [10327, 10973, 11595, 12449, 13106], "queries": {"click": {"state": {"target": ["27", "22", "7"], "time": [2792, 4694, 6816]}, "edge": {"target": [], "time": []}}, "mouseover": {"state": {"target": ["27", "27", "22", "19", "22", "13", "7", "7", "3", "9", "9"], "time": [2360, 2665, 3539, 3671, 3914, 5033, 5165, 5455, 7389, 7528, 7693]}, "edge": {"target": [], "time": []}}, "mouseout": {"state": {"target": ["0", "27", "27", "22", "19", "22", "13", "7", "7", "3", "9", "9", "8", "10"], "time": [1915, 2387, 3118, 3632, 3850, 4816, 5071, 5231, 7189, 7461, 7563, 14554, 14828, 15567]}, "edge": {"target": [], "time": []}}}, "displayed_time": "15.84", "trialTime": 17410, "trial_type": "mouselab-mdp", "trial_index": 38, "time_elapsed": 1116035, "internal_node_id": "0.0-4.0-1.0-29.0"}}, {"uniqueid": "w11309130:a86368869", "current_trial": 39, "dateTime": 1691160492275, "trialdata": {"revealed_states": [], "clicked_states": ["16", "33", "22", "9"], "num_clicks_accrued": [0, 0, 0, 0, 0, 0, 0, 0, 0, 0, 0, 0, 0], "stateRewards": ["", 1, 1, 1, -3, -7, -1, -41, -10, 20, -72, -63, 1, -4, -2, 2, -66, 30, -84, -2, 49, 23, 71, -1, -4, 4, -12, 67, 5, 18, -16, 88, 56, -5], "withholdReward": false, "trial_id": "mdp_trial_31", "block": "test", "trialIndex": 32, "score": 58.4, "costs": -5.6, "simulationMode": [null, null, null, null, null, null], "rewards": [1, -4, -2, -2, 71], "path": ["0", "0", "12", "13", "14", "19", "22"], "rt": [8987, 923, 143, 125, 116, 350], "actions": ["right", "right", "right", "right", "down", "left"], "actionTimes": [11802, 12733, 13417, 14073, 14777, 15690], "queries": {"click": {"state": {"target": ["16", "33", "22", "9"], "time": [3849, 6413, 8405, 10276]}, "edge": {"target": [], "time": []}}, "mouseover": {"state": {"target": ["16", "15", "18", "31", "33", "30", "31", "22", "22", "13", "7", "3", "9"], "time": [3517, 4285, 4728, 5112, 6194, 6713, 6995, 7313, 7679, 8774, 8851, 8951, 9168]}, "edge": {"target": [], "time": []}}, "mouseout": {"state": {"target": ["1", "0", "0", "16", "15", "18", "31", "33", "30", "31", "22", "22", "13", "7", "3", "9", "8", "10"], "time": [1234, 1288, 2844, 4159, 4326, 5049, 5147, 6499, 6797, 7194, 7570, 8698, 8810, 8917, 9016, 17322, 17696, 18422]}, "edge": {"target": [], "time": []}}}, "displayed_time": "16.82", "trialTime": 18805, "trial_type": "mouselab-mdp", "trial_index": 39, "time_elapsed": 1136579, "internal_node_id": "0.0-4.0-1.0-30.0"}}, {"uniqueid": "w11309130:a86368869", "current_trial": 40, "dateTime": 1691160516660, "trialdata": {"revealed_states": [], "clicked_states": ["20", "6", "10", "32", "5", "29"], "num_clicks_accrued": [0, 0, 0, 0, 0, 0, 0, 0, 0, 0, 0, 0, 0], "stateRewards": ["", 2, -1, -2, -5, -47, -57, -33, -11, 31, -18, -72, -2, 1, -4, -8, -46, -53, -50, 15, -85, -9, 39, -2, -2, 1, 14, -1, -8, 53, -12, -41, -74, 62], "withholdReward": false, "trial_id": "mdp_trial_32", "block": "test", "trialIndex": 33, "score": 55.6, "costs": -8.4, "simulationMode": [null, null, null, null, null], "rewards": [-2, -2, 1, 14, 53], "path": ["0", "0", "23", "24", "25", "26", "29"], "rt": [14882, 154, 150, 506, 138], "actions": ["left", "left", "left", "up", "left"], "actionTimes": [17142, 17821, 18501, 19550, 20251], "queries": {"click": {"state": {"target": ["20", "6", "10", "32", "5", "29"], "time": [3510, 5561, 7518, 9462, 11447, 13488]}, "edge": {"target": [], "time": []}}, "mouseover": {"state": {"target": ["14", "20", "14", "15", "3", "3", "4", "6", "4", "7", "2", "10", "28", "31", "32", "31", "24", "5", "8", "29", "26", "7"], "time": [2932, 3314, 3928, 3977, 4132, 4426, 4842, 5023, 6201, 6358, 6455, 6607, 8147, 8296, 8720, 9792, 9843, 10273, 12159, 12488, 13840, 14012]}, "edge": {"target": [], "time": []}}, "mouseout": {"state": {"target": ["1", "0", "14", "20", "14", "15", "3", "3", "4", "6", "4", "7", "2", "10", "28", "31", "32", "31", "24", "5", "8", "29", "26", "7", "18", "13", "22"], "time": [710, 2300, 2971, 3604, 3969, 4028, 4170, 4471, 4926, 5969, 6259, 6392, 6515, 7613, 8195, 8359, 9690, 9827, 9879, 11816, 12230, 13791, 13881, 14071, 21575, 21726, 21989]}, "edge": {"target": [], "time": []}}}, "displayed_time": "20.80", "trialTime": 22576, "trial_type": "mouselab-mdp", "trial_index": 40, "time_elapsed": 1160967, "internal_node_id": "0.0-4.0-1.0-31.0"}}, {"uniqueid": "w11309130:a86368869", "current_trial": 41, "dateTime": 1691160536600, "trialdata": {"revealed_states": [], "clicked_states": ["20", "7", "11"], "num_clicks_accrued": [0, 0, 0, 0, 0, 0, 0, 0, 0, 0, 0, 0, 0], "stateRewards": ["", -2, -2, -7, -13, -10, 49, -68, -1, 84, 70, 88, 1, 4, 4, 12, -57, 25, 30, 8, -1, -77, 57, 2, 3, 2, 3, -18, -80, 23, -15, -41, 70, 11], "withholdReward": false, "trial_id": "mdp_trial_33", "block": "test", "trialIndex": 34, "score": 71.8, "costs": -4.199999999999999, "simulationMode": [null, null, null, null, null], "rewards": [-2, -2, -7, -1, 88], "path": ["0", "0", "1", "2", "3", "8", "11"], "rt": [9499, 137, 79, 786, 103], "actions": ["up", "up", "up", "left", "left"], "actionTimes": [11989, 12651, 13268, 14594, 15214], "queries": {"click": {"state": {"target": ["20", "7", "11"], "time": [3680, 6202, 8710]}, "edge": {"target": [], "time": []}}, "mouseover": {"state": {"target": ["14", "20", "15", "7", "18", "2", "8", "11", "25", "30", "31", "24", "28", "28"], "time": [3123, 3453, 5739, 5998, 6656, 8282, 8397, 8497, 9319, 9393, 9574, 9825, 9989, 10268]}, "edge": {"target": [], "time": []}}, "mouseout": {"state": {"target": ["0", "14", "20", "20", "15", "7", "18", "2", "8", "11", "11", "25", "30", "31", "24", "28", "28", "12"], "time": [1434, 3177, 3765, 4081, 5783, 6494, 6831, 8310, 8448, 8774, 9158, 9358, 9566, 9759, 9952, 10144, 16358, 16416]}, "edge": {"target": [], "time": []}}}, "displayed_time": "16.49", "trialTime": 18030, "trial_type": "mouselab-mdp", "trial_index": 41, "time_elapsed": 1180907, "internal_node_id": "0.0-4.0-1.0-32.0"}}, {"uniqueid": "w11309130:a86368869", "current_trial": 42, "dateTime": 1691160558528, "trialdata": {"revealed_states": [], "clicked_states": ["6", "28", "17"], "num_clicks_accrued": [0, 0, 0, 0, 0, 0, 0, 0, 0, 0, 0, 0, 0], "stateRewards": ["", 1, 2, -3, -6, 50, -7, 7, -7, -80, 21, -1, 2, 2, 4, -1, 33, 84, 1, 14, -53, 81, 6, -2, -2, -3, -9, -87, -38, -59, -5, -74, -3, -71], "withholdReward": false, "trial_id": "mdp_trial_34", "block": "test", "trialIndex": 35, "score": 86.8, "costs": -4.199999999999999, "simulationMode": [null, null, null, null, null], "rewards": [2, 2, 4, -1, 84], "path": ["0", "0", "12", "13", "14", "15", "17"], "rt": [9487, 121, 146, 691, 108], "actions": ["right", "right", "right", "up", "right"], "actionTimes": [11708, 12376, 13026, 14240, 14894], "queries": {"click": {"state": {"target": ["6", "28", "17"], "time": [2988, 5804, 8676]}, "edge": {"target": [], "time": []}}, "mouseover": {"state": {"target": ["6", "6", "1", "28", "1", "18", "15", "17", "20"], "time": [2350, 2794, 5276, 5462, 6186, 7844, 7922, 8259, 9130]}, "edge": {"target": [], "time": []}}, "mouseout": {"state": {"target": ["0", "6", "6", "1", "28", "1", "18", "15", "17", "20", "19"], "time": [878, 2567, 3300, 5301, 6111, 6225, 7893, 7953, 8943, 16099, 19058]}, "edge": {"target": [], "time": []}}}, "displayed_time": "16.22", "trialTime": 19938, "trial_type": "mouselab-mdp", "trial_index": 42, "time_elapsed": 1202836, "internal_node_id": "0.0-4.0-1.0-33.0"}}, {"uniqueid": "w11309130:a86368869", "current_trial": 43, "dateTime": 1691160589404, "trialdata": {"revealed_states": [], "clicked_states": ["7", "10", "21", "32", "27", "17", "20", "11", "5"], "num_clicks_accrued": [0, 0, 0, 0, 0, 0, 0, 0, 0, 0, 0, 0, 0], "stateRewards": ["", 2, 4, -5, 7, 81, 35, 6, 11, 14, -72, 42, -1, 2, 3, -7, -77, -44, -40, -15, -85, 51, -32, -2, -1, -5, 7, -74, 47, 52, 16, -49, 48, -46], "withholdReward": false, "trial_id": "mdp_trial_35", "block": "test", "trialIndex": 36, "score": 76.4, "costs": -12.600000000000001, "simulationMode": [null, null, null, null, null], "rewards": [2, 4, -5, 7, 81], "path": ["0", "0", "1", "2", "3", "4", "5"], "rt": [21008, 112, 64, 234, 489], "actions": ["up", "up", "up", "right", "up"], "actionTimes": [23271, 23912, 24596, 25393, 26414], "queries": {"click": {"state": {"target": ["7", "10", "21", "32", "27", "17", "20", "11", "5"], "time": [3263, 5209, 7184, 9292, 11377, 13357, 15416, 18168, 20243]}, "edge": {"target": [], "time": []}}, "mouseover": {"state": {"target": ["7", "2", "10", "2", "18", "14", "20", "21", "32", "30", "27", "18", "17", "20", "19", "22", "22", "2", "11", "2", "5"], "time": [2510, 3617, 3926, 5561, 5636, 5709, 5807, 6083, 7687, 9651, 10401, 11804, 12214, 14100, 15826, 15953, 16359, 17495, 17997, 18586, 19047]}, "edge": {"target": [], "time": []}}, "mouseout": {"state": {"target": ["0", "7", "2", "10", "2", "18", "14", "20", "21", "32", "30", "27", "18", "17", "20", "19", "22", "22", "2", "11", "2", "5", "7"], "time": [782, 3575, 3714, 5510, 5603, 5674, 5745, 5843, 7556, 9542, 9724, 11659, 11841, 13691, 15788, 15897, 16177, 17338, 17524, 18427, 18679, 20697, 27895]}, "edge": {"target": [], "time": []}}}, "displayed_time": "26.93", "trialTime": 28952, "trial_type": "mouselab-mdp", "trial_index": 43, "time_elapsed": 1233712, "internal_node_id": "0.0-4.0-1.0-34.0"}}, {"uniqueid": "w11309130:a86368869", "current_trial": 44, "dateTime": 1691160609865, "trialdata": {"revealed_states": [], "clicked_states": ["27"], "num_clicks_accrued": [0, 0, 0, 0, 0, 0, 0, 0, 0, 0, 0, 0, 0], "stateRewards": ["", 2, 3, 8, 11, 25, -80, 6, -4, -56, 84, -23, -2, -4, -3, 4, -51, -9, -61, -15, -64, 67, -35, 1, -1, -7, -6, 83, 59, -15, 12, -79, 56, 41], "withholdReward": false, "trial_id": "mdp_trial_36", "block": "test", "trialIndex": 37, "score": 68.6, "costs": -1.4, "simulationMode": [null, null, null, null, null], "rewards": [1, -1, -7, -6, 83], "path": ["0", "0", "23", "24", "25", "26", "27"], "rt": [4312, 197, 142, 414, 147], "actions": ["left", "left", "left", "up", "up"], "actionTimes": [6707, 7434, 8104, 9027, 9727], "queries": {"click": {"state": {"target": ["27"], "time": [3841]}, "edge": {"target": [], "time": []}}, "mouseover": {"state": {"target": ["23", "28", "27", "32", "29", "26"], "time": [3091, 3196, 3664, 4519, 5411, 5737]}, "edge": {"target": [], "time": []}}, "mouseout": {"state": {"target": ["0", "0", "23", "28", "27", "32", "29", "26", "26", "25", "31"], "time": [1011, 3060, 3135, 3224, 4158, 5325, 5457, 5781, 10789, 10881, 13369]}, "edge": {"target": [], "time": []}}}, "displayed_time": "16.39", "trialTime": 17912, "trial_type": "mouselab-mdp", "trial_index": 44, "time_elapsed": 1254170, "internal_node_id": "0.0-4.0-1.0-35.0"}}, {"uniqueid": "w11309130:a86368869", "current_trial": 45, "dateTime": 1691160633884, "trialdata": {"revealed_states": [], "clicked_states": ["27", "31", "17", "11", "7", "22"], "num_clicks_accrued": [0, 0, 0, 0, 0, 0, 0, 0, 0, 0, 0, 0, 0], "stateRewards": ["", 2, -4, 7, 3, 23, -42, 4, 7, -81, -33, 7, -2, -4, 5, -1, 50, -57, -14, -13, -14, 44, 55, -2, -2, 5, -2, 33, 1, 57, -13, -7, 58, 87], "withholdReward": false, "trial_id": "mdp_trial_37", "block": "test", "trialIndex": 38, "score": 32.6, "costs": -8.4, "simulationMode": [null, null, null, null, null], "rewards": [-2, -4, 5, -13, 55], "path": ["0", "0", "12", "13", "14", "19", "22"], "rt": [13862, 250, 166, 464, 246], "actions": ["right", "right", "right", "down", "left"], "actionTimes": [16376, 17170, 17854, 18904, 19657], "queries": {"click": {"state": {"target": ["27", "31", "17", "11", "7", "22"], "time": [3558, 5599, 7553, 9539, 11569, 13554]}, "edge": {"target": [], "time": []}}, "mouseover": {"state": {"target": ["28", "26", "27", "28", "32", "32", "31", "13", "14", "17", "15", "7", "8", "11", "8", "3", "4", "7", "12", "22"], "time": [2785, 2901, 3159, 3977, 4176, 4364, 4599, 6100, 6172, 6396, 8008, 8322, 8634, 8876, 9924, 10083, 10130, 10348, 12092, 12548]}, "edge": {"target": [], "time": []}}, "mouseout": {"state": {"target": ["24", "23", "0", "28", "26", "27", "28", "32", "32", "31", "13", "14", "17", "15", "7", "8", "11", "8", "3", "4", "7", "12", "22", "22"], "time": [901, 1082, 1315, 2838, 3106, 3796, 4015, 4217, 4436, 5945, 6132, 6211, 7930, 8119, 8392, 8671, 9915, 10038, 10123, 10242, 12042, 12152, 13676, 20938]}, "edge": {"target": [], "time": []}}}, "displayed_time": "20.16", "trialTime": 22036, "trial_type": "mouselab-mdp", "trial_index": 45, "time_elapsed": 1278189, "internal_node_id": "0.0-4.0-1.0-36.0"}}, {"uniqueid": "w11309130:a86368869", "current_trial": 46, "dateTime": 1691160669521, "trialdata": {"revealed_states": [], "clicked_states": ["27", "18", "7", "32", "5", "11", "10", "9", "21", "22"], "num_clicks_accrued": [0, 0, 0, 0, 0, 0, 0, 0, 0, 0, 0, 0, 0], "stateRewards": ["", 2, -3, 5, 11, -79, 54, 11, -9, -78, 33, 22, -2, -1, 2, 14, 43, 34, 1, 10, 49, -65, 39, -1, 1, -1, 3, -16, -2, 11, 2, 12, 48, -65], "withholdReward": false, "trial_id": "mdp_trial_38", "block": "test", "trialIndex": 39, "score": 35, "costs": -14.000000000000002, "simulationMode": [null, null, null, null, null], "rewards": [-1, 1, -1, 2, 48], "path": ["0", "0", "23", "24", "25", "30", "32"], "rt": [26510, 126, 127, 317, 160], "actions": ["left", "left", "left", "down", "down"], "actionTimes": [28555, 29222, 29877, 30763, 31445], "queries": {"click": {"state": {"target": ["27", "18", "7", "32", "5", "11", "10", "9", "21", "22"], "time": [3581, 5567, 7535, 9620, 11811, 13832, 16622, 18699, 21400, 23519]}, "edge": {"target": [], "time": []}}, "mouseover": {"state": {"target": ["24", "26", "27", "18", "15", "18", "7", "1", "23", "31", "32", "4", "5", "8", "11", "8", "3", "4", "6", "4", "10", "10", "8", "9", "2", "13", "19", "21", "22", "20"], "time": [2855, 2950, 3283, 4180, 4386, 4566, 6082, 8217, 8264, 8367, 8559, 10315, 10558, 12581, 12716, 14243, 14306, 14357, 14424, 15565, 15933, 16422, 17205, 17604, 20640, 20750, 20999, 21083, 22043, 24293]}, "edge": {"target": [], "time": []}}, "mouseout": {"state": {"target": ["0", "24", "26", "27", "18", "15", "18", "7", "1", "23", "31", "32", "7", "4", "5", "8", "11", "8", "3", "4", "6", "4", "10", "10", "8", "9", "2", "13", "19", "21", "22", "20", "21"], "time": [925, 2908, 2985, 3882, 4217, 4473, 5811, 8185, 8251, 8301, 8434, 9899, 10267, 10351, 12351, 12647, 14149, 14268, 14351, 14391, 15521, 15649, 16066, 17022, 17448, 19627, 20688, 20800, 21034, 21607, 23919, 32578, 32764]}, "edge": {"target": [], "time": []}}}, "displayed_time": "31.99", "trialTime": 33655, "trial_type": "mouselab-mdp", "trial_index": 46, "time_elapsed": 1313827, "internal_node_id": "0.0-4.0-1.0-37.0"}}, {"uniqueid": "w11309130:a86368869", "current_trial": 47, "dateTime": 1691160689378, "trialdata": {"revealed_states": [], "clicked_states": ["6", "5", "7"], "num_clicks_accrued": [0, 0, 0, 0, 0, 0, 0, 0, 0, 0, 0, 0, 0], "stateRewards": ["", 2, 3, -2, -8, -8, -41, 74, 15, -23, -80, 1, 1, 3, 3, -15, -63, -78, 67, 13, 75, -41, 86, 2, -2, 6, -3, -8, -49, 50, -6, 83, 74, 80], "withholdReward": false, "trial_id": "mdp_trial_39", "block": "test", "trialIndex": 40, "score": 64.8, "costs": -4.199999999999999, "simulationMode": [null, null, null, null, null], "rewards": [2, 3, -2, -8, 74], "path": ["0", "0", "1", "2", "3", "4", "7"], "rt": [8459, 134, 114, 237, 1079], "actions": ["up", "up", "up", "right", "down"], "actionTimes": [10769, 11438, 12085, 12865, 14897], "queries": {"click": {"state": {"target": ["6", "5", "7"], "time": [3715, 5681, 7565]}, "edge": {"target": [], "time": []}}, "mouseover": {"state": {"target": ["12", "7", "6", "5", "4", "7", "8", "11"], "time": [2361, 3321, 3516, 4611, 5982, 6219, 8184, 8315]}, "edge": {"target": [], "time": []}}, "mouseout": {"state": {"target": ["0", "0", "12", "7", "6", "5", "4", "7", "8", "11", "10", "23"], "time": [1032, 2354, 2465, 3381, 4117, 5937, 6096, 8069, 8234, 15844, 16384, 16974]}, "edge": {"target": [], "time": []}}}, "displayed_time": "16.32", "trialTime": 17798, "trial_type": "mouselab-mdp", "trial_index": 47, "time_elapsed": 1333684, "internal_node_id": "0.0-4.0-1.0-38.0"}}, {"uniqueid": "w11309130:a86368869", "current_trial": 48, "dateTime": 1691160710659, "trialdata": {"revealed_states": [], "clicked_states": ["20", "21", "22", "27", "28"], "num_clicks_accrued": [0, 0, 0, 0, 0, 0, 0, 0, 0, 0, 0, 0, 0], "stateRewards": ["", -2, -2, -3, -6, -15, -11, 41, -12, -63, -76, 2, -2, -3, 8, 9, -36, -2, -18, -16, -32, -85, -17, -2, 1, 5, -16, 82, 35, -88, -1, 80, -82, -20], "withholdReward": false, "trial_id": "mdp_trial_40", "block": "test", "trialIndex": 41, "score": 63, "costs": -7, "simulationMode": [null, null, null, null, null], "rewards": [-2, 1, 5, -16, 82], "path": ["0", "0", "23", "24", "25", "26", "27"], "rt": [10883, 177, 148, 480, 162], "actions": ["left", "left", "left", "up", "up"], "actionTimes": [13128, 13833, 14510, 15524, 16204], "queries": {"click": {"state": {"target": ["20", "21", "22", "27", "28"], "time": [3356, 5287, 7205, 9134, 11013]}, "edge": {"target": [], "time": []}}, "mouseover": {"state": {"target": ["19", "19", "20", "21", "22", "23", "28", "27", "28"], "time": [2460, 2913, 3082, 3750, 5663, 7883, 8000, 8140, 9576]}, "edge": {"target": [], "time": []}}, "mouseout": {"state": {"target": ["0", "19", "19", "20", "21", "22", "23", "28", "27", "28", "24"], "time": [798, 2645, 3030, 3608, 5495, 7623, 7938, 8041, 9404, 18219, 18431]}, "edge": {"target": [], "time": []}}}, "displayed_time": "16.72", "trialTime": 19149, "trial_type": "mouselab-mdp", "trial_index": 48, "time_elapsed": 1354967, "internal_node_id": "0.0-4.0-1.0-39.0"}}, {"uniqueid": "w11309130:a86368869", "current_trial": 49, "dateTime": 1691160747934, "trialdata": {"rt": 37254, "response": {"Q0": "$-2 to $2", "Q1": "$-16 to $16", "Q2": "$-88 to $88", "Q3": "The cost was always $1.4.", "Q4": "Very motivated"}, "question_order": [0, 1, 2, 3, 4], "trial_id": "final_quiz_control", "trial_type": "survey-multi-choice", "trial_index": 49, "time_elapsed": 1392242, "internal_node_id": "0.0-4.0-2.0"}}, {"uniqueid": "w11309130:a86368869", "current_trial": 50, "dateTime": 1691160930476, "trialdata": {"rt": 182515, "response": {"Q0": "I randomly clicked on the end nodes till I saw a high number like 60 or more then I just went for that node. I also tried to not spend more than $12 or $14 when revealing nodes", "Q1": "Not really. I stuck with my strategy from the early rounds right through until the end", "Q2": "Because my strategy relied on luck, there wasn't really much room to improve "}, "trial_id": "self_report_control", "trial_type": "survey-text", "trial_index": 50, "time_elapsed": 1574785, "internal_node_id": "0.0-4.0-3.0"}}, {"uniqueid": "w11309130:a86368869", "current_trial": 51, "dateTime": 1691160948254, "trialdata": {"rt": 17758, "response": {"gender": "male", "age": "21", "colorblind": "0", "effort": "0"}, "trial_type": "survey-html-form", "trial_index": 51, "time_elapsed": 1592563, "internal_node_id": "0.0-4.0-4.0"}}], "questiondata": {"params": {"CODE": "C6DMOQA6", "MIN_TIME": 14, "inspectCost": 1, "startTime": "Fri Aug 04 2023 16:29:12 GMT+0200 (South Africa Standard Time)", "bonusRate": 0.002, "variance": "1_2_4_8_44", "branching": "31123"}}, "eventdata": [{"eventtype": "initialized", "value": null, "timestamp": 1691159351890, "interval": 0}, {"eventtype": "window_resize", "value": [1366, 670], "timestamp": 1691159351890, "interval": 0}, {"eventtype": "window_resize", "value": [1366, 670], "timestamp": 1691159352446, "interval": 556}, {"eventtype": "window_resize", "value": [1366, 768], "timestamp": 1691159359580, "interval": 7134}], "useragent": "Mozilla/5.0 (Windows NT 10.0; Win64; x64) AppleWebKit/537.36 (KHTML, like Gecko) Chrome/115.0.0.0 Safari/537.36", "mode": "live", "id": "w11309130:a86368869", "status": "user data saved", "Beginhit": "2023-08-04 14:29:06.843329", "Beginexp": "2023-08-04 14:29:22.746627", "Endhit": null, "psiturkStatus": 2, "browser": "<redacted>", "platform": "windows", "language": "en-US"}