{"condition": 1, "counterbalance": 0, "assignmentId": "a49645526", "workerId": "w51589364", "hitId": "h89299960", "currenttrial": 56, "bonus": 0, "data": [{"uniqueid": "w51589364:a49645526", "current_trial": 0, "dateTime": 1693480952495, "trialdata": {"success": true, "trial_type": "fullscreen", "trial_index": 0, "time_elapsed": 19281, "internal_node_id": "0.0-0.0"}}, {"uniqueid": "w51589364:a49645526", "current_trial": 1, "dateTime": 1693481029022, "trialdata": {"view_history": [{"page_index": 0, "viewing_time": 76518}], "rt": 76520, "trial_id": "exp_instructions_misaligned", "trial_type": "instructions", "trial_index": 1, "time_elapsed": 95809, "internal_node_id": "0.0-1.0"}}, {"uniqueid": "w51589364:a49645526", "current_trial": 2, "dateTime": 1693481409013, "trialdata": {"view_history": [{"page_index": 0, "viewing_time": 160292}, {"page_index": 1, "viewing_time": 136288}, {"page_index": 2, "viewing_time": 27720}, {"page_index": 3, "viewing_time": 55688}], "rt": 379988, "trial_id": "mouselab_instructions_1_misaligned", "trial_type": "instructions", "trial_index": 2, "time_elapsed": 475800, "internal_node_id": "0.0-2.0-1.0"}}, {"uniqueid": "w51589364:a49645526", "current_trial": 3, "dateTime": 1693481464975, "trialdata": {"revealed_states": [], "clicked_states": ["1", "7", "3", "8", "9", "10", "11", "4", "2", "13", "22", "14", "18", "16"], "num_clicks_accrued": [0, 0, 0, 0, 0, 0, 0, 0, 0, 0, 0, 0, 0], "stateRewards": ["", -10, -10, 10, 10, 10, 10, -10, 10, -10, 10, 10, -10, -10, 10, -10, 10, -10, 10, 10, 10, -10, -10, -10, 10, -10, 10, -10, 10, -10, -10, 10, -10, -10], "withholdReward": false, "trial_id": "practice_1", "block": "test", "trialIndex": 0, "score": 6.5, "costs": -7, "simulationMode": [null, null, null, null, null], "rewards": [-10, -10, 10, 10, 10], "path": ["0", "0", "1", "2", "3", "8", "11"], "rt": [41221, 819, 380, 742, 62], "actions": ["up", "up", "up", "left", "left"], "actionTimes": [45583, 46939, 47835, 49103, 49687], "queries": {"click": {"state": {"target": ["1", "7", "3", "8", "9", "10", "11", "4", "2", "13", "22", "14", "18", "16"], "time": [6171, 7313, 8363, 10073, 14449, 20355, 21585, 24696, 26048, 33968, 35536, 37377, 38840, 40049]}, "edge": {"target": [], "time": []}}, "mouseover": {"state": {"target": ["0", "1", "2", "7", "2", "3", "10", "8", "1", "7", "2", "2", "3", "9", "8", "10", "2", "3", "8", "2", "0", "0", "10", "11", "11", "28", "2", "6", "4", "2", "1", "3", "8", "11", "1", "2", "3", "8", "11", "8", "2", "13", "14", "14", "22", "19", "14", "15", "18", "15", "16", "15", "12", "0"], "time": [4398, 6022, 6437, 7089, 7565, 8205, 9066, 9720, 10540, 11771, 13021, 13487, 13755, 14253, 14803, 15499, 16236, 16303, 16719, 17355, 17803, 19420, 19903, 20712, 21503, 22099, 23603, 24087, 24453, 25920, 27635, 27952, 28219, 28419, 30435, 31202, 31552, 31901, 32251, 32519, 32603, 33737, 34165, 34495, 35434, 35940, 37068, 37764, 38667, 39300, 39638, 40365, 40912, 42201]}, "edge": {"target": [], "time": []}}, "mouseout": {"state": {"target": ["0", "0", "1", "2", "7", "2", "3", "10", "8", "1", "7", "3", "8", "2", "2", "3", "9", "8", "10", "2", "3", "8", "2", "0", "0", "10", "11", "11", "28", "2", "6", "4", "2", "1", "2", "3", "8", "11", "1", "2", "3", "8", "11", "8", "2", "13", "14", "14", "22", "19", "14", "15", "18", "15", "16", "15", "12", "0"], "time": [3884, 4421, 6297, 6866, 7486, 8009, 8727, 9654, 10340, 10826, 11888, 12203, 12888, 13104, 13688, 13820, 14698, 14872, 15620, 16270, 16337, 17236, 17403, 17821, 19443, 20605, 21157, 21825, 22835, 24003, 24335, 25018, 26258, 27701, 27852, 28102, 28269, 29918, 31019, 31319, 31803, 32220, 32467, 32535, 32635, 34141, 34189, 34924, 35688, 36238, 37665, 38327, 39201, 39523, 40303, 40462, 41031, 42252]}, "edge": {"target": [], "time": []}}}, "displayed_time": "50.21", "trialTime": 55145, "trial_type": "mouselab-mdp", "trial_index": 3, "time_elapsed": 531761, "internal_node_id": "0.0-2.0-2.0-0.0"}}, {"uniqueid": "w51589364:a49645526", "current_trial": 4, "dateTime": 1693481488902, "trialdata": {"revealed_states": [], "clicked_states": ["23", "25", "27", "14", "12", "18"], "num_clicks_accrued": [0, 0, 0, 0, 0, 0, 0, 0, 0, 0, 0, 0, 0], "stateRewards": ["", 10, -10, 10, -10, -10, -10, 10, 10, 10, 10, 10, -10, 10, 10, -10, 10, 10, 10, -10, 10, -10, -10, -10, 10, -10, 10, -10, 10, 10, -10, 10, -10, 10], "withholdReward": false, "trial_id": "practice_2", "block": "test", "trialIndex": 1, "score": 10.5, "costs": -3, "simulationMode": [null, null, null, null, null], "rewards": [-10, 10, 10, -10, 10], "path": ["0", "0", "12", "13", "14", "15", "18"], "rt": [15117, 169, 176, 113, 203], "actions": ["right", "right", "right", "up", "left"], "actionTimes": [17120, 17810, 18519, 19145, 19879], "queries": {"click": {"state": {"target": ["23", "25", "27", "14", "12", "18"], "time": [3723, 5859, 8243, 10347, 11699, 13395]}, "edge": {"target": [], "time": []}}, "mouseover": {"state": {"target": ["31", "24", "23", "24", "25", "24", "28", "26", "27", "28", "13", "14", "14", "13", "12", "13", "18", "13", "0", "13", "14", "15", "22"], "time": [2980, 3163, 3470, 4049, 5245, 6996, 7528, 7879, 8046, 8563, 9496, 9696, 10012, 11170, 11544, 12712, 13195, 13782, 15461, 15727, 15830, 16094, 16346]}, "edge": {"target": [], "time": []}}, "mouseout": {"state": {"target": ["0", "31", "24", "23", "24", "25", "24", "28", "26", "27", "28", "13", "14", "14", "13", "12", "13", "18", "13", "12", "0", "12", "13", "14", "15", "22"], "time": [1629, 2998, 3263, 3913, 5078, 6204, 7463, 7762, 7963, 8518, 8606, 9613, 9745, 10630, 11343, 12038, 13112, 13682, 15311, 15395, 15546, 15695, 15813, 15878, 16299, 16368]}, "edge": {"target": [], "time": []}}}, "displayed_time": "20.41", "trialTime": 23586, "trial_type": "mouselab-mdp", "trial_index": 4, "time_elapsed": 555688, "internal_node_id": "0.0-2.0-2.0-1.0"}}, {"uniqueid": "w51589364:a49645526", "current_trial": 5, "dateTime": 1693481563876, "trialdata": {"view_history": [{"page_index": 0, "viewing_time": 56099}, {"page_index": 1, "viewing_time": 18872}], "rt": 74971, "trial_id": "mouselab_instructions_2_misaligned", "trial_type": "instructions", "trial_index": 5, "time_elapsed": 630663, "internal_node_id": "0.0-2.0-3.0"}}, {"uniqueid": "w51589364:a49645526", "current_trial": 6, "dateTime": 1693481618997, "trialdata": {"rt": 55115, "response": {"Q0": "The cost for clicking on nodes may vary between nodes.", "Q1": "The better I perform the higher my bonus will be.", "Q2": "No, the amount of cash at each node of the web may be different each time.", "Q3": "To get the highest total score.", "Q4": "Only before moving the spider.", "Q5": "3 seconds"}, "question_order": [0, 1, 2, 3, 4, 5], "correct": {"Q0": "The cost for clicking on nodes may vary between nodes.", "Q1": "The better I perform the higher my bonus will be.", "Q2": "No, the amount of cash at each node of the web may be different each time.", "Q3": "To get the highest total score.", "Q4": "Only before moving the spider.", "Q5": "3 seconds"}, "trial_id": "mouselab_quiz_misaligned", "trial_type": "survey-multi-choice", "trial_index": 6, "time_elapsed": 685784, "internal_node_id": "0.0-2.0-4.0"}}, {"uniqueid": "w51589364:a49645526", "current_trial": 7, "dateTime": 1693481634101, "trialdata": {"rt": 15094, "response": {"Q0": "No"}, "question_order": [0], "trial_id": "repeat_check", "trial_type": "survey-multi-choice", "trial_index": 7, "time_elapsed": 700887, "internal_node_id": "0.0-4.0-0.0"}}, {"uniqueid": "w51589364:a49645526", "current_trial": 8, "dateTime": 1693481659285, "trialdata": {"rt": 25177, "stimulus": "\n<h1> Get ready to start the game! </h1>\n\nThank you for reading the instructions. Get ready start with the 40 rounds of this game.\n<br><br>\nIf you need to take a break, feel free to take one after the end of a round, before continuing to the next one.\n<br><br>\nRemember, the more money the spider gets, the bigger your bonus will be!\n<br><br>\n<div style='text-align: center;'>Press <code>space</code> to begin.</div>\n\n<br><br>\n(If, at any point, the <code>space</code> key does not take you to the next page, click once on the text and try again.)", "response": " ", "trial_id": "mdp_ready", "trial_type": "html-keyboard-response", "trial_index": 8, "time_elapsed": 726072, "internal_node_id": "0.0-6.0-0.0"}}, {"uniqueid": "w51589364:a49645526", "current_trial": 9, "dateTime": 1693481698750, "trialdata": {"revealed_states": [], "clicked_states": ["1", "2", "10", "3", "4", "7", "11", "25", "29", "28", "13", "14"], "num_clicks_accrued": [0, 0, 0, 0, 0, 0, 0, 0, 0, 0, 0, 0, 0], "stateRewards": ["", -2, 3, -5, -7, 66, 43, -60, -4, -70, -75, 4, -1, 2, 2, -13, 54, 11, -40, -1, 77, 32, 15, -2, 3, -8, -9, -35, 83, -27, 6, -74, -34, 44], "withholdReward": false, "trial_id": "mdp_trial_1", "block": "test", "trialIndex": 2, "score": -65.6, "costs": -15.6, "simulationMode": [null, null, null, null, null], "rewards": [-1, 2, 2, -13, -40], "path": ["0", "0", "12", "13", "14", "15", "18"], "rt": [25077, 136, 110, 1800, 95], "actions": ["right", "right", "right", "up", "left"], "actionTimes": [27164, 27823, 28446, 30785, 31402], "queries": {"click": {"state": {"target": ["1", "2", "10", "3", "4", "7", "11", "25", "29", "28", "13", "14"], "time": [2830, 3208, 3725, 6758, 7651, 8254, 11397, 14877, 16340, 19388, 22876, 23652]}, "edge": {"target": [], "time": []}}, "mouseover": {"state": {"target": ["1", "2", "10", "8", "3", "8", "3", "4", "7", "9", "11", "6", "2", "28", "25", "25", "26", "29", "26", "28", "28", "26", "1", "18", "14", "13", "14", "15", "15", "17"], "time": [2648, 3096, 3621, 4176, 4491, 5285, 6391, 7149, 8015, 10672, 11114, 12483, 12821, 12887, 13093, 14514, 15466, 16081, 16794, 17226, 19197, 20373, 20689, 20925, 21176, 22547, 23320, 24211, 24747, 24815]}, "edge": {"target": [], "time": []}}, "mouseout": {"state": {"target": ["2", "3", "2", "1", "0", "1", "2", "10", "8", "3", "8", "3", "4", "7", "9", "11", "6", "2", "28", "25", "25", "26", "29", "26", "28", "28", "26", "28", "1", "18", "14", "13", "14", "15", "15", "17", "17", "15", "18", "18", "18", "12"], "time": [616, 1166, 1299, 1382, 2482, 3033, 3353, 3875, 4389, 5018, 6317, 7102, 7930, 8530, 11042, 11783, 12757, 12845, 12937, 13788, 15318, 15768, 16683, 17081, 18937, 19787, 20567, 20621, 20774, 20989, 22230, 23246, 24065, 24617, 24797, 24834, 33779, 33862, 33962, 36396, 36795, 37729]}, "edge": {"target": [], "time": []}}}, "displayed_time": "31.90", "trialTime": 39108, "trial_type": "mouselab-mdp", "trial_index": 9, "time_elapsed": 765536, "internal_node_id": "0.0-6.0-1.0-0.0"}}, {"uniqueid": "w51589364:a49645526", "current_trial": 10, "dateTime": 1693481720454, "trialdata": {"revealed_states": [], "clicked_states": ["11", "6"], "num_clicks_accrued": [0, 0, 0, 0, 0, 0, 0, 0, 0, 0, 0, 0, 0], "stateRewards": ["", -1, -3, 1, -4, -48, -63, -49, -2, -84, -19, 65, 2, -2, -2, -12, -4, 59, 9, 6, 75, 69, -13, -1, -3, -3, -2, -37, -68, -36, 13, 32, 18, -14], "withholdReward": false, "trial_id": "mdp_trial_2", "block": "test", "trialIndex": 3, "score": 55.7, "costs": -4.3, "simulationMode": [null, null, null, null, null], "rewards": [-1, -3, 1, -2, 65], "path": ["0", "0", "1", "2", "3", "8", "11"], "rt": [12229, 866, 121, 34, 943], "actions": ["up", "up", "up", "left", "left"], "actionTimes": [13952, 15341, 15982, 16549, 18026], "queries": {"click": {"state": {"target": ["11", "6"], "time": [4092, 8961]}, "edge": {"target": [], "time": []}}, "mouseover": {"state": {"target": ["12", "13", "3", "8", "11", "10", "2", "7", "6", "6", "18", "13", "1", "4", "18"], "time": [1774, 2869, 3151, 3317, 3668, 4516, 4569, 4823, 5193, 7701, 9366, 10404, 12800, 12900, 13251]}, "edge": {"target": [], "time": []}}, "mouseout": {"state": {"target": ["0", "12", "13", "3", "8", "11", "10", "2", "7", "6", "6", "18", "13", "1", "4", "18"], "time": [1750, 1799, 2919, 3184, 3484, 4418, 4540, 4714, 4997, 6800, 9192, 10319, 10429, 12834, 12950, 20400]}, "edge": {"target": [], "time": []}}}, "displayed_time": "18.54", "trialTime": 21369, "trial_type": "mouselab-mdp", "trial_index": 10, "time_elapsed": 787240, "internal_node_id": "0.0-6.0-1.0-1.0"}}, {"uniqueid": "w51589364:a49645526", "current_trial": 11, "dateTime": 1693481746395, "trialdata": {"revealed_states": [], "clicked_states": ["29", "33", "20"], "num_clicks_accrued": [0, 0, 0, 0, 0, 0, 0, 0, 0, 0, 0, 0, 0], "stateRewards": ["", 1, 2, -6, -13, -51, 22, -4, -12, -44, -12, 6, -2, -2, -2, -14, -46, -4, -77, -2, 36, -79, 41, 2, -4, 2, -6, -55, 59, 70, -5, 39, -19, 24], "withholdReward": false, "trial_id": "mdp_trial_3", "block": "test", "trialIndex": 4, "score": 57.55, "costs": -6.449999999999999, "simulationMode": [null, null, null, null, null], "rewards": [2, -4, 2, -6, 70], "path": ["0", "0", "23", "24", "25", "26", "29"], "rt": [14998, 815, 443, 52, 873], "actions": ["left", "left", "left", "up", "left"], "actionTimes": [17737, 19080, 20057, 20632, 22037], "queries": {"click": {"state": {"target": ["29", "33", "20"], "time": [4246, 8445, 12166]}, "edge": {"target": [], "time": []}}, "mouseover": {"state": {"target": ["23", "24", "29", "33", "19", "20", "17", "15", "7", "11", "7"], "time": [3249, 3320, 3451, 4680, 9021, 9320, 15766, 15803, 15865, 16266, 16816]}, "edge": {"target": [], "time": []}}, "mouseout": {"state": {"target": ["0", "0", "0", "23", "24", "29", "33", "19", "20", "17", "15", "7", "11", "7"], "time": [1617, 1983, 3216, 3300, 3339, 4514, 8789, 9107, 12497, 15784, 15833, 15885, 16732, 16835]}, "edge": {"target": [], "time": []}}}, "displayed_time": "22.56", "trialTime": 25579, "trial_type": "mouselab-mdp", "trial_index": 11, "time_elapsed": 813182, "internal_node_id": "0.0-6.0-1.0-2.0"}}, {"uniqueid": "w51589364:a49645526", "current_trial": 12, "dateTime": 1693481777510, "trialdata": {"revealed_states": [], "clicked_states": ["11", "6", "33", "29", "20"], "num_clicks_accrued": [0, 0, 0, 0, 0, 0, 0, 0, 0, 0, 0, 0, 0], "stateRewards": ["", 1, 1, 7, -11, 80, -20, -53, -14, 3, 31, 27, 2, -1, -8, -10, 33, 41, 86, 9, 78, -37, -13, -1, -2, -6, -8, -80, 75, 4, -16, -49, -74, 24], "withholdReward": false, "trial_id": "mdp_trial_4", "block": "test", "trialIndex": 5, "score": 69.25, "costs": -10.75, "simulationMode": [null, null, null, null, null], "rewards": [2, -1, -8, 9, 78], "path": ["0", "0", "12", "13", "14", "19", "20"], "rt": [23507, 65, 147, 812, 110], "actions": ["right", "right", "right", "down", "right"], "actionTimes": [25113, 25704, 26376, 27720, 28354], "queries": {"click": {"state": {"target": ["11", "6", "33", "29", "20"], "time": [4331, 8003, 13210, 16770, 20500]}, "edge": {"target": [], "time": []}}, "mouseover": {"state": {"target": ["28", "11", "8", "3", "4", "6", "6", "1", "25", "33", "30", "31", "31", "25", "29", "26", "0", "12", "20", "20"], "time": [2349, 2749, 4686, 4743, 4850, 4957, 7666, 11697, 11764, 12265, 13528, 13592, 14061, 15680, 16014, 17061, 17156, 17202, 18421, 20096]}, "edge": {"target": [], "time": []}}, "mouseout": {"state": {"target": ["0", "28", "11", "8", "3", "4", "6", "6", "1", "25", "33", "30", "31", "31", "25", "29", "26", "0", "12", "20", "20"], "time": [2149, 2368, 4658, 4718, 4788, 4915, 5842, 8248, 11722, 11784, 13504, 13550, 13678, 15566, 15705, 17007, 17085, 17180, 17245, 18545, 20803]}, "edge": {"target": [], "time": []}}}, "displayed_time": "28.87", "trialTime": 30778, "trial_type": "mouselab-mdp", "trial_index": 12, "time_elapsed": 844296, "internal_node_id": "0.0-6.0-1.0-3.0"}}, {"uniqueid": "w51589364:a49645526", "current_trial": 13, "dateTime": 1693481820318, "trialdata": {"revealed_states": [], "clicked_states": ["33", "29", "20", "6", "11", "18", "17"], "num_clicks_accrued": [0, 0, 0, 0, 0, 0, 0, 0, 0, 0, 0, 0, 0], "stateRewards": ["", -1, 2, -2, 13, -56, -28, 10, 14, 53, -80, -29, 1, -3, -3, -14, 14, 9, -40, -9, 18, 18, 48, 1, 1, 1, -9, 64, -39, -9, 7, -52, -78, 7], "withholdReward": false, "trial_id": "mdp_trial_5", "block": "test", "trialIndex": 6, "score": 50.95, "costs": -15.05, "simulationMode": [null, null, null, null, null], "rewards": [-1, 2, -2, 14, 53], "path": ["0", "0", "1", "2", "3", "8", "9"], "rt": [32191, 15, 141, 1092, 463], "actions": ["up", "up", "up", "left", "up"], "actionTimes": [35088, 35642, 36302, 37931, 38927], "queries": {"click": {"state": {"target": ["33", "29", "20", "6", "11", "18", "17"], "time": [5039, 8542, 12218, 16783, 20759, 24706, 28719]}, "edge": {"target": [], "time": []}}, "mouseover": {"state": {"target": ["11", "25", "33", "29", "23", "12", "13", "14", "20", "17", "6", "7", "8", "11", "7", "15", "17", "14", "18", "14", "17", "20", "14", "7", "3", "9", "6"], "time": [3556, 4306, 4705, 5498, 8949, 9086, 9143, 9523, 10612, 15705, 16455, 20072, 20187, 20404, 21205, 21263, 21297, 24253, 24404, 25050, 28486, 32301, 32884, 32985, 33068, 33401, 33687]}, "edge": {"target": [], "time": []}}, "mouseout": {"state": {"target": ["14", "13", "12", "0", "11", "25", "33", "29", "23", "12", "13", "14", "20", "17", "6", "7", "8", "11", "7", "15", "17", "14", "18", "14", "17", "17", "20", "14", "7", "3", "9", "6", "3", "2"], "time": [1090, 1140, 1222, 3057, 4123, 4489, 5321, 8897, 8980, 9115, 9187, 9606, 12605, 16104, 17055, 20104, 20271, 21143, 21232, 21291, 21328, 24321, 24967, 25094, 28858, 28991, 32818, 32920, 33004, 33185, 33585, 33716, 41070, 41685]}, "edge": {"target": [], "time": []}}}, "displayed_time": "39.44", "trialTime": 42463, "trial_type": "mouselab-mdp", "trial_index": 13, "time_elapsed": 887105, "internal_node_id": "0.0-6.0-1.0-4.0"}}, {"uniqueid": "w51589364:a49645526", "current_trial": 14, "dateTime": 1693481842610, "trialdata": {"revealed_states": [], "clicked_states": ["11", "9", "5"], "num_clicks_accrued": [0, 0, 0, 0, 0, 0, 0, 0, 0, 0, 0, 0, 0], "stateRewards": ["", -2, 2, 3, -7, 76, 63, 21, 15, 35, -8, -44, 1, 1, -2, -12, 23, 24, 76, -9, 46, 66, -49, -2, -1, 7, 12, 40, -71, -45, -6, 38, -49, 46], "withholdReward": false, "trial_id": "mdp_trial_6", "block": "test", "trialIndex": 7, "score": 65.55, "costs": -6.449999999999999, "simulationMode": [null, null, null, null, null], "rewards": [-2, 2, 3, -7, 76], "path": ["0", "0", "1", "2", "3", "4", "5"], "rt": [14809, 41, 55, 1194, 456], "actions": ["up", "up", "up", "right", "up"], "actionTimes": [16307, 16861, 17432, 19150, 20138], "queries": {"click": {"state": {"target": ["11", "9", "5"], "time": [2706, 6347, 11112]}, "edge": {"target": [], "time": []}}, "mouseover": {"state": {"target": ["1", "10", "11", "9", "5", "6"], "time": [1834, 1954, 2368, 3153, 6931, 11772]}, "edge": {"target": [], "time": []}}, "mouseout": {"state": {"target": ["2", "1", "1", "10", "11", "9", "5", "6"], "time": [717, 851, 1887, 1978, 2904, 6768, 11501, 15333]}, "edge": {"target": [], "time": []}}}, "displayed_time": "20.66", "trialTime": 21839, "trial_type": "mouselab-mdp", "trial_index": 14, "time_elapsed": 909396, "internal_node_id": "0.0-6.0-1.0-5.0"}}, {"uniqueid": "w51589364:a49645526", "current_trial": 15, "dateTime": 1693481860947, "trialdata": {"revealed_states": [], "clicked_states": ["9"], "num_clicks_accrued": [0, 0, 0, 0, 0, 0, 0, 0, 0, 0, 0, 0, 0], "stateRewards": ["", -1, -3, -7, -4, -85, -70, 79, 8, 84, -66, 42, 2, -2, -3, -16, -54, -66, 68, -3, 21, -14, 7, -2, -1, -3, -8, 75, 80, 86, -7, -84, 73, -16], "withholdReward": false, "trial_id": "mdp_trial_7", "block": "test", "trialIndex": 8, "score": 78.85, "costs": -2.15, "simulationMode": [null, null, null, null, null], "rewards": [-1, -3, -7, 8, 84], "path": ["0", "0", "1", "2", "3", "8", "9"], "rt": [6005, 155, 222, 12, 79], "actions": ["up", "up", "up", "left", "up"], "actionTimes": [7878, 8554, 9301, 9867, 10466], "queries": {"click": {"state": {"target": ["9"], "time": [3265]}, "edge": {"target": [], "time": []}}, "mouseover": {"state": {"target": ["7", "2", "8", "9", "5", "6", "24", "33", "32"], "time": [2340, 2406, 2706, 2989, 3803, 4537, 4879, 5157, 5711]}, "edge": {"target": [], "time": []}}, "mouseout": {"state": {"target": ["7", "1", "0", "7", "2", "8", "9", "5", "6", "24", "33", "32", "30", "24", "23"], "time": [489, 855, 1906, 2361, 2457, 2840, 3604, 4420, 4568, 4928, 5342, 11672, 11938, 12154, 12338]}, "edge": {"target": [], "time": []}}}, "displayed_time": "15.87", "trialTime": 17982, "trial_type": "mouselab-mdp", "trial_index": 15, "time_elapsed": 927733, "internal_node_id": "0.0-6.0-1.0-6.0"}}, {"uniqueid": "w51589364:a49645526", "current_trial": 16, "dateTime": 1693481884362, "trialdata": {"revealed_states": [], "clicked_states": ["32", "21"], "num_clicks_accrued": [0, 0, 0, 0, 0, 0, 0, 0, 0, 0, 0, 0, 0], "stateRewards": ["", -2, -3, 8, -4, -30, 31, 69, 9, 66, 87, 64, -2, 2, 8, 5, 47, 16, -39, -8, -54, 51, -19, 1, -2, -2, -11, -25, -26, 43, -9, 19, -84, 86], "withholdReward": false, "trial_id": "mdp_trial_8", "block": "test", "trialIndex": 9, "score": 46.7, "costs": -4.3, "simulationMode": [null, null, null, null, null], "rewards": [-2, 2, 8, -8, 51], "path": ["0", "0", "12", "13", "14", "19", "21"], "rt": [15651, 77, 105, 58, 162], "actions": ["right", "right", "right", "down", "down"], "actionTimes": [16948, 17566, 18203, 18784, 19472], "queries": {"click": {"state": {"target": ["32", "21"], "time": [2138, 5849]}, "edge": {"target": [], "time": []}}, "mouseover": {"state": {"target": ["32", "21", "21", "20", "19", "22", "31", "30", "33", "33", "29", "27", "11", "8", "7"], "time": [1880, 2908, 5479, 9595, 11442, 11477, 11530, 11552, 11595, 11895, 13330, 13403, 13548, 14378, 15329]}, "edge": {"target": [], "time": []}}, "mouseout": {"state": {"target": ["0", "32", "21", "21", "21", "20", "19", "22", "31", "30", "33", "33", "29", "27", "11", "8", "7", "18", "12"], "time": [1480, 2388, 3445, 6195, 9281, 11412, 11471, 11508, 11549, 11574, 11616, 12630, 13363, 13442, 14311, 14480, 15411, 21845, 22043]}, "edge": {"target": [], "time": []}}}, "displayed_time": "20.00", "trialTime": 22971, "trial_type": "mouselab-mdp", "trial_index": 16, "time_elapsed": 951148, "internal_node_id": "0.0-6.0-1.0-7.0"}}, {"uniqueid": "w51589364:a49645526", "current_trial": 17, "dateTime": 1693481910210, "trialdata": {"revealed_states": [], "clicked_states": ["11", "9", "5", "6", "29"], "num_clicks_accrued": [0, 0, 0, 0, 0, 0, 0, 0, 0, 0, 0, 0, 0], "stateRewards": ["", -2, 2, -2, -7, -50, -62, -45, 7, 36, -24, -72, -1, -1, 8, -1, -67, 20, -52, 2, 35, -50, 80, -1, 1, 6, -6, -70, 6, 88, 8, -47, 74, -19], "withholdReward": false, "trial_id": "mdp_trial_9", "block": "test", "trialIndex": 10, "score": 77.25, "costs": -10.75, "simulationMode": [null, null, null, null, null], "rewards": [-1, 1, 6, -6, 88], "path": ["0", "0", "23", "24", "25", "26", "29"], "rt": [19244, 103, 142, 64, 13], "actions": ["left", "left", "left", "up", "left"], "actionTimes": [20589, 21223, 21895, 22492, 23013], "queries": {"click": {"state": {"target": ["11", "9", "5", "6", "29"], "time": [2292, 5680, 9171, 12507, 15866]}, "edge": {"target": [], "time": []}}, "mouseover": {"state": {"target": ["10", "8", "11", "9", "5", "6", "7", "28", "26", "29", "26", "27", "26", "25", "33", "30"], "time": [1554, 1671, 1922, 2839, 6236, 9864, 13494, 13695, 13785, 13935, 16447, 18262, 18853, 18919, 19269, 19519]}, "edge": {"target": [], "time": []}}, "mouseout": {"state": {"target": ["0", "0", "10", "8", "11", "9", "5", "6", "7", "28", "26", "29", "26", "27", "26", "25", "33", "30", "24", "23", "0"], "time": [520, 1406, 1621, 1737, 2599, 6102, 9676, 13010, 13575, 13742, 13891, 16310, 18136, 18803, 18886, 18987, 19486, 19570, 24452, 24551, 25135]}, "edge": {"target": [], "time": []}}}, "displayed_time": "23.53", "trialTime": 25366, "trial_type": "mouselab-mdp", "trial_index": 17, "time_elapsed": 976996, "internal_node_id": "0.0-6.0-1.0-8.0"}}, {"uniqueid": "w51589364:a49645526", "current_trial": 18, "dateTime": 1693481932099, "trialdata": {"revealed_states": [], "clicked_states": ["11", "29", "6"], "num_clicks_accrued": [0, 0, 0, 0, 0, 0, 0, 0, 0, 0, 0, 0, 0], "stateRewards": ["", 2, -3, -2, 14, -4, 85, 46, 15, -28, 41, 31, -1, -1, -1, 5, 62, 79, 57, 12, -73, -64, 86, -1, 1, -3, -5, 68, 11, -32, 8, -80, -21, -56], "withholdReward": false, "trial_id": "mdp_trial_10", "block": "test", "trialIndex": 11, "score": 89.55, "costs": -6.449999999999999, "simulationMode": [null, null, null, null, null], "rewards": [2, -3, -2, 14, 85], "path": ["0", "0", "1", "2", "3", "4", "6"], "rt": [12731, 663, 145, 28, 676], "actions": ["up", "up", "up", "right", "right"], "actionTimes": [14444, 15631, 16304, 16849, 18033], "queries": {"click": {"state": {"target": ["11", "29", "6"], "time": [2889, 6325, 9709]}, "edge": {"target": [], "time": []}}, "mouseover": {"state": {"target": ["1", "8", "11", "26", "29", "26", "29", "26", "28", "7", "6", "16", "17", "15"], "time": [2061, 2194, 2477, 3312, 3593, 4333, 4728, 6689, 6781, 6912, 7197, 10152, 10878, 13210]}, "edge": {"target": [], "time": []}}, "mouseout": {"state": {"target": ["0", "1", "1", "8", "11", "26", "29", "26", "29", "26", "28", "7", "6", "16", "17", "15", "16", "6", "7", "0"], "time": [510, 910, 2112, 2311, 3130, 3348, 4296, 4616, 6619, 6757, 6826, 6937, 10041, 10431, 11557, 13230, 19510, 19825, 20159, 20359]}, "edge": {"target": [], "time": []}}}, "displayed_time": "18.75", "trialTime": 21513, "trial_type": "mouselab-mdp", "trial_index": 18, "time_elapsed": 998885, "internal_node_id": "0.0-6.0-1.0-9.0"}}, {"uniqueid": "w51589364:a49645526", "current_trial": 19, "dateTime": 1693481951587, "trialdata": {"revealed_states": [], "clicked_states": ["20", "21", "33"], "num_clicks_accrued": [0, 0, 0, 0, 0, 0, 0, 0, 0, 0, 0, 0, 0], "stateRewards": ["", 2, 3, 6, -12, -29, 12, 87, 4, 35, -30, 67, 2, 3, -5, -9, 44, 69, -8, 1, 45, -8, 28, -2, -1, -8, 11, -12, -5, 81, 9, 87, 82, 88], "withholdReward": false, "trial_id": "mdp_trial_11", "block": "test", "trialIndex": 12, "score": 79.55, "costs": -6.449999999999999, "simulationMode": [null, null, null, null, null], "rewards": [-2, -1, -8, 9, 88], "path": ["0", "0", "23", "24", "25", "30", "33"], "rt": [13550, 14, 68, 52, 538], "actions": ["left", "left", "left", "down", "left"], "actionTimes": [15210, 15746, 16348, 16928, 18016], "queries": {"click": {"state": {"target": ["20", "21", "33"], "time": [3010, 6136, 10233]}, "edge": {"target": [], "time": []}}, "mouseover": {"state": {"target": ["12", "13", "20", "19", "22", "21", "22", "31", "30", "33", "30", "31", "30", "29"], "time": [2158, 2205, 2710, 3398, 3544, 3870, 6801, 7772, 7851, 7910, 10641, 10793, 12178, 12408]}, "edge": {"target": [], "time": []}}, "mouseout": {"state": {"target": ["0", "12", "13", "20", "19", "22", "21", "22", "31", "30", "33", "30", "31", "30"], "time": [2124, 2179, 2324, 3335, 3483, 3697, 6661, 7661, 7817, 7881, 10593, 10750, 12102, 12211]}, "edge": {"target": [], "time": []}}}, "displayed_time": "18.53", "trialTime": 19102, "trial_type": "mouselab-mdp", "trial_index": 19, "time_elapsed": 1018374, "internal_node_id": "0.0-6.0-1.0-10.0"}}, {"uniqueid": "w51589364:a49645526", "current_trial": 20, "dateTime": 1693481969403, "trialdata": {"revealed_states": [], "clicked_states": ["29", "33"], "num_clicks_accrued": [0, 0, 0, 0, 0, 0, 0, 0, 0, 0, 0, 0, 0], "stateRewards": ["", -1, -4, -1, -5, -28, -23, -15, -15, -38, 59, -87, 2, 2, -5, 9, -55, -39, -71, -6, 85, -85, -11, -1, -2, 5, -10, 1, 25, 41, -4, 69, -35, 86], "withholdReward": false, "trial_id": "mdp_trial_12", "block": "test", "trialIndex": 13, "score": 79.7, "costs": -4.3, "simulationMode": [null, null, null, null, null], "rewards": [-1, -2, 5, -4, 86], "path": ["0", "0", "23", "24", "25", "30", "33"], "rt": [8685, 95, 239, 682, 104], "actions": ["left", "left", "left", "down", "left"], "actionTimes": [10679, 11287, 12047, 13267, 13910], "queries": {"click": {"state": {"target": ["29", "33"], "time": [2926, 6260]}, "edge": {"target": [], "time": []}}, "mouseover": {"state": {"target": ["23", "26", "29", "33", "30", "31", "22", "19", "20"], "time": [2386, 2453, 2585, 3539, 6627, 6704, 6852, 7038, 7286]}, "edge": {"target": [], "time": []}}, "mouseout": {"state": {"target": ["29", "28", "12", "0", "23", "26", "29", "33", "30", "31", "22", "19", "20", "12", "0"], "time": [818, 869, 1236, 2220, 2405, 2503, 3213, 6602, 6678, 6729, 6971, 7178, 15734, 16019, 16600]}, "edge": {"target": [], "time": []}}}, "displayed_time": "16.00", "trialTime": 17464, "trial_type": "mouselab-mdp", "trial_index": 20, "time_elapsed": 1036190, "internal_node_id": "0.0-6.0-1.0-11.0"}}, {"uniqueid": "w51589364:a49645526", "current_trial": 21, "dateTime": 1693482011718, "trialdata": {"revealed_states": [], "clicked_states": ["6", "11", "17", "20", "31", "33", "32", "27", "16"], "num_clicks_accrued": [0, 0, 0, 0, 0, 0, 0, 0, 0, 0, 0, 0, 0], "stateRewards": ["", -1, 4, -5, 9, 29, -75, -42, -16, 24, -28, -41, 2, -3, 1, 10, 60, 47, 55, -1, -53, 22, -40, 2, -3, -6, 4, -26, 44, 54, 15, -76, 42, 14], "withholdReward": false, "trial_id": "mdp_trial_13", "block": "test", "trialIndex": 14, "score": 50.650000000000006, "costs": -19.349999999999998, "simulationMode": [null, null, null, null, null], "rewards": [2, -3, 1, 10, 60], "path": ["0", "0", "12", "13", "14", "15", "16"], "rt": [34721, 340, 72, 78, 823], "actions": ["right", "right", "right", "up", "up"], "actionTimes": [36301, 37176, 37759, 38347, 39703], "queries": {"click": {"state": {"target": ["6", "11", "17", "20", "31", "33", "32", "27", "16"], "time": [2820, 6068, 10040, 13206, 16741, 20035, 23459, 27827, 31843]}, "edge": {"target": [], "time": []}}, "mouseover": {"state": {"target": ["0", "4", "6", "4", "3", "8", "11", "11", "2", "7", "16", "17", "20", "19", "22", "22", "31", "30", "33", "30", "31", "30", "33", "30", "32", "30", "29", "27", "28", "0", "12", "15", "16", "15", "20", "19"], "time": [2069, 2286, 2356, 3192, 3220, 3268, 3316, 3824, 6552, 6624, 9336, 9702, 11845, 13698, 13794, 14460, 14918, 14966, 15036, 15291, 15651, 17119, 18024, 20593, 20789, 26982, 27149, 27549, 28251, 28561, 31215, 31332, 31615, 32117, 32509, 33629]}, "edge": {"target": [], "time": []}}, "mouseout": {"state": {"target": ["0", "0", "0", "4", "6", "4", "3", "8", "11", "11", "2", "7", "16", "17", "20", "19", "22", "22", "31", "30", "33", "30", "31", "30", "33", "30", "32", "30", "29", "27", "28", "0", "12", "15", "16", "15", "20", "19", "22"], "time": [78, 1839, 2088, 2335, 3150, 3217, 3242, 3293, 3369, 6383, 6599, 7116, 9384, 10365, 13633, 13751, 13944, 14833, 14941, 14990, 15226, 15464, 16995, 17406, 20550, 20657, 23855, 27001, 27416, 28187, 28273, 29356, 31248, 31382, 32072, 32159, 32558, 41248, 41298]}, "edge": {"target": [], "time": []}}}, "displayed_time": "40.23", "trialTime": 41964, "trial_type": "mouselab-mdp", "trial_index": 21, "time_elapsed": 1078504, "internal_node_id": "0.0-6.0-1.0-12.0"}}, {"uniqueid": "w51589364:a49645526", "current_trial": 22, "dateTime": 1693482028599, "trialdata": {"revealed_states": [], "clicked_states": ["9", "5"], "num_clicks_accrued": [0, 0, 0, 0, 0, 0, 0, 0, 0, 0, 0, 0, 0], "stateRewards": ["", 1, 1, 4, 11, 83, -66, 18, -16, -23, 5, 25, 1, -3, 1, -12, 18, 24, -86, -11, -64, 36, 40, 2, 1, -6, 13, 55, 29, 72, -2, 81, -72, -41], "withholdReward": false, "trial_id": "mdp_trial_14", "block": "test", "trialIndex": 15, "score": 95.7, "costs": -4.3, "simulationMode": [null, null, null, null, null], "rewards": [1, 1, 4, 11, 83], "path": ["0", "0", "1", "2", "3", "4", "5"], "rt": [9968, 61, 13, 522, 408], "actions": ["up", "up", "up", "right", "up"], "actionTimes": [11708, 12299, 12835, 13871, 14808], "queries": {"click": {"state": {"target": ["9", "5"], "time": [4246, 7375]}, "edge": {"target": [], "time": []}}, "mouseover": {"state": {"target": ["1", "2", "3", "9", "9", "5", "5", "6", "7", "2", "10", "26", "29"], "time": [3458, 3541, 3643, 3824, 4090, 4661, 6082, 7885, 8340, 8408, 8520, 9432, 9583]}, "edge": {"target": [], "time": []}}, "mouseout": {"state": {"target": ["0", "1", "2", "3", "9", "9", "5", "5", "5", "6", "7", "2", "10", "26"], "time": [3291, 3513, 3624, 3708, 3843, 4412, 5783, 7527, 7730, 8052, 8384, 8451, 8585, 9476]}, "edge": {"target": [], "time": []}}}, "displayed_time": "15.74", "trialTime": 16456, "trial_type": "mouselab-mdp", "trial_index": 22, "time_elapsed": 1095386, "internal_node_id": "0.0-6.0-1.0-13.0"}}, {"uniqueid": "w51589364:a49645526", "current_trial": 23, "dateTime": 1693482056580, "trialdata": {"revealed_states": [], "clicked_states": ["9", "10", "7", "18", "22"], "num_clicks_accrued": [0, 0, 0, 0, 0, 0, 0, 0, 0, 0, 0, 0, 0], "stateRewards": ["", -2, -1, -4, -15, -14, -67, 32, -3, -59, 63, 31, 2, -1, -7, -15, 71, -66, -27, -3, -54, -39, 72, 2, 1, 1, -13, 77, -40, 35, -9, 35, 75, 57], "withholdReward": false, "trial_id": "mdp_trial_15", "block": "test", "trialIndex": 16, "score": 52.25, "costs": -10.75, "simulationMode": [null, null, null, null, null], "rewards": [2, -1, -7, -3, 72], "path": ["0", "0", "12", "13", "14", "19", "22"], "rt": [21372, 42, 798, 126, 75], "actions": ["right", "right", "right", "down", "left"], "actionTimes": [23052, 23634, 24955, 25612, 26206], "queries": {"click": {"state": {"target": ["9", "10", "7", "18", "22"], "time": [2854, 7486, 11733, 15038, 18261]}, "edge": {"target": [], "time": []}}, "mouseover": {"state": {"target": ["1", "2", "9", "5", "4", "7", "2", "10", "3", "5", "3", "10", "2", "4", "5", "4", "7", "18", "13", "22", "24", "28", "26", "27"], "time": [2107, 2191, 2523, 3184, 4221, 4314, 4402, 4471, 5279, 5452, 7008, 7207, 7906, 8165, 8255, 11089, 11373, 12690, 15377, 15631, 19178, 19456, 19953, 20510]}, "edge": {"target": [], "time": []}}, "mouseout": {"state": {"target": ["29", "26", "28", "0", "1", "2", "9", "5", "4", "7", "2", "10", "3", "5", "3", "10", "2", "4", "5", "4", "7", "18", "13", "22", "24", "28", "26"], "time": [690, 740, 774, 1905, 2159, 2210, 3098, 4195, 4271, 4359, 4426, 5153, 5366, 6924, 7073, 7877, 7951, 8209, 11056, 11190, 12104, 15331, 15465, 18600, 19307, 19929, 20230]}, "edge": {"target": [], "time": []}}}, "displayed_time": "26.73", "trialTime": 27588, "trial_type": "mouselab-mdp", "trial_index": 23, "time_elapsed": 1123366, "internal_node_id": "0.0-6.0-1.0-14.0"}}, {"uniqueid": "w51589364:a49645526", "current_trial": 24, "dateTime": 1693482102476, "trialdata": {"revealed_states": [], "clicked_states": ["33", "20", "11", "6", "5", "9", "29", "27", "16", "17"], "num_clicks_accrued": [0, 0, 0, 0, 0, 0, 0, 0, 0, 0, 0, 0, 0], "stateRewards": ["", 2, -4, -8, -15, 71, -43, -41, 7, -17, 20, 67, -1, -1, -4, 6, 37, -24, -47, 9, 34, 57, 45, 1, 2, -4, -5, -23, 88, -5, 13, -40, 43, 44], "withholdReward": false, "trial_id": "mdp_trial_16", "block": "test", "trialIndex": 17, "score": 24.5, "costs": -21.499999999999996, "simulationMode": [null, null, null, null, null], "rewards": [2, -4, -8, -15, 71], "path": ["0", "0", "1", "2", "3", "4", "5"], "rt": [38534, 159, 63, 586, 79], "actions": ["up", "up", "up", "right", "up"], "actionTimes": [39977, 40669, 41253, 42369, 42995], "queries": {"click": {"state": {"target": ["33", "20", "11", "6", "5", "9", "29", "27", "16", "17"], "time": [2695, 5839, 9903, 13823, 17598, 21351, 25430, 29024, 32318, 35663]}, "edge": {"target": [], "time": []}}, "mouseover": {"state": {"target": ["23", "31", "30", "33", "30", "31", "20", "20", "19", "22", "0", "1", "8", "11", "10", "4", "6", "5", "9", "8", "11", "27", "29", "26", "27", "10", "2", "16", "17", "13", "12", "32", "21", "22"], "time": [1861, 2061, 2178, 2394, 3116, 3233, 3604, 3908, 6239, 6361, 9295, 9333, 9428, 9744, 13078, 13276, 13512, 17409, 20943, 24593, 24661, 24859, 25175, 25778, 28875, 29331, 29378, 29726, 33170, 36308, 36480, 36940, 37664, 39025]}, "edge": {"target": [], "time": []}}, "mouseout": {"state": {"target": ["27", "10", "0", "23", "31", "30", "33", "30", "31", "20", "20", "19", "22", "0", "1", "8", "11", "10", "4", "6", "6", "5", "9", "8", "11", "27", "29", "26", "27", "10", "2", "16", "17", "13", "12", "32", "21", "22", "1", "0"], "time": [93, 761, 1778, 1945, 2095, 2345, 3053, 3201, 3286, 3630, 6189, 6298, 6410, 9313, 9354, 9527, 10197, 13110, 13427, 14143, 17111, 17993, 21650, 24643, 24693, 24910, 25735, 25825, 29247, 29354, 29402, 32706, 36060, 36414, 36545, 37087, 38907, 39045, 44889, 45057]}, "edge": {"target": [], "time": []}}}, "displayed_time": "43.52", "trialTime": 45541, "trial_type": "mouselab-mdp", "trial_index": 24, "time_elapsed": 1169262, "internal_node_id": "0.0-6.0-1.0-15.0"}}, {"uniqueid": "w51589364:a49645526", "current_trial": 25, "dateTime": 1693482132322, "trialdata": {"revealed_states": [], "clicked_states": ["9", "29", "6", "17", "33", "20"], "num_clicks_accrued": [0, 0, 0, 0, 0, 0, 0, 0, 0, 0, 0, 0, 0], "stateRewards": ["", -2, -1, -1, 5, -54, -87, 35, 2, -8, 20, -22, 1, 3, 6, 13, -75, -32, -55, -3, 56, 62, -22, -1, -4, -1, -7, -51, 84, 70, 7, -15, 5, 55], "withholdReward": false, "trial_id": "mdp_trial_17", "block": "test", "trialIndex": 18, "score": 44.1, "costs": -12.9, "simulationMode": [null, null, null, null, null], "rewards": [-1, -4, -1, -7, 70], "path": ["0", "0", "23", "24", "25", "26", "29"], "rt": [22985, 169, 112, 567, 104], "actions": ["left", "left", "left", "up", "left"], "actionTimes": [25172, 25850, 26488, 27578, 28203], "queries": {"click": {"state": {"target": ["9", "29", "6", "17", "33", "20"], "time": [3243, 6401, 10393, 14025, 17794, 21128]}, "edge": {"target": [], "time": []}}, "mouseover": {"state": {"target": ["1", "10", "8", "9", "11", "27", "29", "29", "26", "28", "2", "4", "5", "6", "6", "5", "6", "17", "15", "18", "23", "24", "33", "30", "31", "22", "19", "20", "19", "22"], "time": [2580, 2630, 2730, 3013, 3717, 3881, 4036, 4238, 6805, 6861, 6928, 7019, 7272, 7630, 7800, 9395, 9946, 11064, 14415, 14464, 14679, 14790, 15545, 18181, 18349, 18732, 18901, 19011, 21471, 21560]}, "edge": {"target": [], "time": []}}, "mouseout": {"state": {"target": ["0", "1", "10", "8", "9", "11", "27", "29", "29", "26", "28", "2", "4", "5", "6", "6", "5", "6", "17", "15", "18", "23", "24", "33", "30", "31", "22", "19", "20", "19", "22"], "time": [1029, 2598, 2680, 2879, 3526, 3786, 3907, 4060, 6739, 6835, 6884, 6954, 7105, 7482, 7653, 9247, 9880, 10656, 14370, 14438, 14489, 14727, 14837, 18138, 18284, 18420, 18859, 18946, 21427, 21536, 21649]}, "edge": {"target": [], "time": []}}}, "displayed_time": "28.73", "trialTime": 29477, "trial_type": "mouselab-mdp", "trial_index": 25, "time_elapsed": 1199109, "internal_node_id": "0.0-6.0-1.0-16.0"}}, {"uniqueid": "w51589364:a49645526", "current_trial": 26, "dateTime": 1693482164065, "trialdata": {"revealed_states": [], "clicked_states": ["11", "5", "29", "33", "20", "17", "16"], "num_clicks_accrued": [0, 0, 0, 0, 0, 0, 0, 0, 0, 0, 0, 0, 0], "stateRewards": ["", -2, -4, -6, 12, -58, -70, -80, 2, 16, -88, -62, 1, 2, -5, 11, 77, -35, -44, -5, 18, -83, 87, 1, -3, -5, 13, -44, -21, -86, 10, -52, 8, 29], "withholdReward": false, "trial_id": "mdp_trial_18", "block": "test", "trialIndex": 19, "score": 70.95, "costs": -15.05, "simulationMode": [null, null, null, null, null], "rewards": [1, 2, -5, 11, 77], "path": ["0", "0", "12", "13", "14", "15", "16"], "rt": [25396, 634, 132, 21, 510], "actions": ["right", "right", "right", "up", "up"], "actionTimes": [26639, 27797, 28453, 28998, 30040], "queries": {"click": {"state": {"target": ["11", "5", "29", "33", "20", "17", "16"], "time": [2173, 5428, 8725, 11972, 15453, 18766, 22387]}, "edge": {"target": [], "time": []}}, "mouseover": {"state": {"target": ["11", "8", "3", "5", "6", "5", "3", "27", "29", "33", "30", "31", "13", "14", "20", "17", "15", "16", "15", "14", "19", "21"], "time": [1874, 2461, 2556, 2698, 3367, 3802, 5814, 5994, 6108, 9526, 12417, 12488, 12804, 13100, 13479, 16294, 19208, 19488, 22839, 22911, 22982, 23113]}, "edge": {"target": [], "time": []}}, "mouseout": {"state": {"target": ["0", "11", "8", "3", "5", "6", "5", "3", "27", "29", "33", "30", "31", "13", "14", "20", "17", "17", "15", "16", "15", "14", "19"], "time": [1558, 2437, 2526, 2593, 3259, 3545, 5745, 5863, 6040, 9145, 12358, 12464, 12511, 12848, 13184, 15635, 18937, 19114, 19416, 22792, 22883, 22956, 23048]}, "edge": {"target": [], "time": []}}}, "displayed_time": "30.57", "trialTime": 31335, "trial_type": "mouselab-mdp", "trial_index": 26, "time_elapsed": 1230851, "internal_node_id": "0.0-6.0-1.0-17.0"}}, {"uniqueid": "w51589364:a49645526", "current_trial": 27, "dateTime": 1693482197851, "trialdata": {"revealed_states": [], "clicked_states": ["9", "29", "10", "7", "6", "5"], "num_clicks_accrued": [0, 0, 0, 0, 0, 0, 0, 0, 0, 0, 0, 0, 0], "stateRewards": ["", -1, 1, 6, -6, 70, 66, 67, -16, -75, -35, 37, -1, 4, 4, -6, 47, -9, 63, 15, 21, -63, 13, 1, 3, -6, 10, 79, -29, 18, -15, 9, -67, -19], "withholdReward": false, "trial_id": "mdp_trial_19", "block": "test", "trialIndex": 20, "score": 57.1, "costs": -12.9, "simulationMode": [null, null, null, null, null], "rewards": [-1, 1, 6, -6, 70], "path": ["0", "0", "1", "2", "3", "4", "5"], "rt": [24463, 253, 80, 14, 43], "actions": ["up", "up", "up", "right", "up"], "actionTimes": [25897, 26681, 27289, 27831, 28401], "queries": {"click": {"state": {"target": ["9", "29", "10", "7", "6", "5"], "time": [2646, 5782, 9760, 13406, 17063, 21110]}, "edge": {"target": [], "time": []}}, "mouseover": {"state": {"target": ["12", "1", "8", "9", "9", "11", "29", "25", "28", "10", "2", "7", "6", "5", "16"], "time": [1945, 1996, 2063, 2102, 2430, 3191, 3963, 8894, 8977, 9494, 11875, 12234, 16710, 20793, 21643]}, "edge": {"target": [], "time": []}}, "mouseout": {"state": {"target": ["21", "22", "0", "12", "1", "8", "9", "9", "11", "29", "25", "28", "10", "2", "7", "6", "6", "5", "6"], "time": [444, 678, 1529, 1964, 2017, 2082, 2162, 3062, 3813, 6412, 8917, 9062, 10201, 11971, 13684, 17389, 20476, 21361, 21487]}, "edge": {"target": [], "time": []}}}, "displayed_time": "28.94", "trialTime": 33412, "trial_type": "mouselab-mdp", "trial_index": 27, "time_elapsed": 1264638, "internal_node_id": "0.0-6.0-1.0-18.0"}}, {"uniqueid": "w51589364:a49645526", "current_trial": 28, "dateTime": 1693482217022, "trialdata": {"revealed_states": [], "clicked_states": ["32", "33", "31"], "num_clicks_accrued": [0, 0, 0, 0, 0, 0, 0, 0, 0, 0, 0, 0, 0], "stateRewards": ["", -1, 4, -8, 12, 14, 69, -8, 5, -72, -14, 56, -1, -1, -1, 9, 67, 19, 11, -9, -88, -58, 3, 2, -4, -8, 4, 62, 77, -74, 5, -31, 65, 88], "withholdReward": false, "trial_id": "mdp_trial_20", "block": "test", "trialIndex": 21, "score": 76.55, "costs": -6.449999999999999, "simulationMode": [null, null, null, null, null], "rewards": [2, -4, -8, 5, 88], "path": ["0", "0", "23", "24", "25", "30", "33"], "rt": [12402, 112, 805, 53, 61], "actions": ["left", "left", "left", "down", "left"], "actionTimes": [14204, 14843, 16187, 16768, 17370], "queries": {"click": {"state": {"target": ["32", "33", "31"], "time": [2965, 6355, 9857]}, "edge": {"target": [], "time": []}}, "mouseover": {"state": {"target": ["23", "31", "32", "33", "30", "31"], "time": [2232, 2396, 2645, 3876, 6794, 6926]}, "edge": {"target": [], "time": []}}, "mouseout": {"state": {"target": ["16", "0", "23", "31", "32", "33", "30", "31"], "time": [845, 2213, 2280, 2429, 3339, 6766, 6818, 10299]}, "edge": {"target": [], "time": []}}}, "displayed_time": "17.89", "trialTime": 18804, "trial_type": "mouselab-mdp", "trial_index": 28, "time_elapsed": 1283808, "internal_node_id": "0.0-6.0-1.0-19.0"}}, {"uniqueid": "w51589364:a49645526", "current_trial": 29, "dateTime": 1693482239769, "trialdata": {"revealed_states": [], "clicked_states": ["29", "28", "27"], "num_clicks_accrued": [0, 0, 0, 0, 0, 0, 0, 0, 0, 0, 0, 0, 0], "stateRewards": ["", -1, -1, 7, -15, -43, -21, -84, -9, -45, -66, 2, 1, -2, 2, 8, -27, 44, -52, -5, -84, 11, 53, 1, 4, -4, 16, 83, -82, -15, -16, 68, -43, 81], "withholdReward": false, "trial_id": "mdp_trial_21", "block": "test", "trialIndex": 22, "score": 93.55, "costs": -6.449999999999999, "simulationMode": [null, null, null, null, null], "rewards": [1, 4, -4, 16, 83], "path": ["0", "0", "23", "24", "25", "26", "27"], "rt": [13999, 216, 140, 16, 573], "actions": ["left", "left", "left", "up", "up"], "actionTimes": [15484, 16207, 16911, 17450, 18545], "queries": {"click": {"state": {"target": ["29", "28", "27"], "time": [3155, 6435, 10245]}, "edge": {"target": [], "time": []}}, "mouseover": {"state": {"target": ["0", "23", "24", "25", "29", "26", "28", "27", "26", "32"], "time": [1742, 1992, 2074, 2109, 2635, 3592, 3804, 9833, 10572, 10961]}, "edge": {"target": [], "time": []}}, "mouseout": {"state": {"target": ["0", "0", "23", "24", "25", "29", "26", "28", "27", "26", "32", "0", "12"], "time": [784, 1968, 2038, 2104, 2139, 3562, 3712, 7077, 10483, 10596, 19916, 20233, 21031]}, "edge": {"target": [], "time": []}}}, "displayed_time": "19.06", "trialTime": 21957, "trial_type": "mouselab-mdp", "trial_index": 29, "time_elapsed": 1306555, "internal_node_id": "0.0-6.0-1.0-20.0"}}, {"uniqueid": "w51589364:a49645526", "current_trial": 30, "dateTime": 1693482259703, "trialdata": {"revealed_states": [], "clicked_states": [], "num_clicks_accrued": [0, 0, 0, 0, 0, 0, 0, 0, 0, 0, 0, 0, 0], "stateRewards": ["", 2, -1, 5, 6, 10, 86, 55, 10, -45, 63, -71, 1, -2, 5, -8, -50, -72, 36, 15, 61, 12, 33, -1, -4, 6, 5, 79, -56, -21, -16, -87, 60, -81], "withholdReward": false, "trial_id": "mdp_trial_22", "block": "test", "trialIndex": 23, "score": 98, "costs": 0, "simulationMode": [null, null, null, null, null], "rewards": [2, -1, 5, 6, 86], "path": ["0", "0", "1", "2", "3", "4", "6"], "rt": [11562, 315, 143, 46, 1030], "actions": ["up", "up", "up", "right", "right"], "actionTimes": [13512, 14349, 15001, 15567, 17131], "queries": {"click": {"state": {"target": [], "time": []}, "edge": {"target": [], "time": []}}, "mouseover": {"state": {"target": ["1", "8", "9", "9", "8", "2"], "time": [4747, 4963, 5230, 6531, 10881, 11663]}, "edge": {"target": [], "time": []}}, "mouseout": {"state": {"target": ["0", "1", "8", "9", "9", "8", "2"], "time": [1129, 4814, 5096, 5863, 10747, 11429, 11796]}, "edge": {"target": [], "time": []}}}, "displayed_time": "17.66", "trialTime": 19524, "trial_type": "mouselab-mdp", "trial_index": 30, "time_elapsed": 1326489, "internal_node_id": "0.0-6.0-1.0-21.0"}}, {"uniqueid": "w51589364:a49645526", "current_trial": 31, "dateTime": 1693482278503, "trialdata": {"revealed_states": [], "clicked_states": ["29", "33", "28"], "num_clicks_accrued": [0, 0, 0, 0, 0, 0, 0, 0, 0, 0, 0, 0, 0], "stateRewards": ["", 1, 4, -8, -13, -13, -87, -77, -10, -44, 54, 42, 2, -3, -4, 12, -9, -80, 52, 9, 84, -2, -65, 1, -4, -5, -6, 8, 80, 32, 13, -59, -5, -13], "withholdReward": false, "trial_id": "mdp_trial_23", "block": "test", "trialIndex": 24, "score": 59.55, "costs": -6.449999999999999, "simulationMode": [null, null, null, null, null], "rewards": [1, -4, -5, -6, 80], "path": ["0", "0", "23", "24", "25", "26", "28"], "rt": [12460, 151, 138, 12, 333], "actions": ["left", "left", "left", "up", "right"], "actionTimes": [14025, 14699, 15359, 15904, 16755], "queries": {"click": {"state": {"target": ["29", "33", "28"], "time": [3388, 6515, 9795]}, "edge": {"target": [], "time": []}}, "mouseover": {"state": {"target": ["1", "28", "26", "29", "29", "33", "30", "31", "22", "19", "24", "28", "27"], "time": [1925, 2159, 2209, 2709, 3211, 4195, 6985, 7033, 7226, 7450, 7751, 8074, 10436]}, "edge": {"target": [], "time": []}}, "mouseout": {"state": {"target": ["2", "1", "1", "28", "26", "29", "29", "33", "30", "31", "22", "19", "24", "28"], "time": [675, 825, 2058, 2179, 2426, 2859, 3852, 6959, 7027, 7083, 7379, 7540, 7799, 10095]}, "edge": {"target": [], "time": []}}}, "displayed_time": "17.30", "trialTime": 18421, "trial_type": "mouselab-mdp", "trial_index": 31, "time_elapsed": 1345290, "internal_node_id": "0.0-6.0-1.0-22.0"}}, {"uniqueid": "w51589364:a49645526", "current_trial": 32, "dateTime": 1693482333589, "trialdata": {"revealed_states": [], "clicked_states": ["6", "5", "9", "11", "25", "29", "27", "32", "21", "20", "16", "17", "22"], "num_clicks_accrued": [0, 0, 0, 0, 0, 0, 0, 0, 0, 0, 0, 0, 0], "stateRewards": ["", 2, -1, -1, 7, 11, -40, -22, -2, 69, 37, 8, -2, 4, -8, -12, -2, -72, -3, -12, 17, 63, 12, 1, 3, -7, 6, 25, 61, 61, -9, 28, -17, 27], "withholdReward": false, "trial_id": "mdp_trial_24", "block": "test", "trialIndex": 25, "score": 18.250000000000007, "costs": -26.749999999999993, "simulationMode": [null, null, null, null, null], "rewards": [-2, 4, -8, -12, 63], "path": ["0", "0", "12", "13", "14", "19", "21"], "rt": [48294, 13, 285, 11, 126], "actions": ["right", "right", "right", "down", "down"], "actionTimes": [50081, 50626, 51440, 51987, 52636], "queries": {"click": {"state": {"target": ["6", "5", "9", "11", "25", "29", "27", "32", "21", "20", "16", "17", "22"], "time": [2860, 6058, 10802, 14778, 19210, 20474, 24539, 28450, 31939, 35363, 39445, 42795, 46186]}, "edge": {"target": [], "time": []}}, "mouseover": {"state": {"target": ["7", "6", "5", "7", "3", "9", "11", "25", "29", "26", "27", "28", "24", "30", "32", "22", "19", "21", "20", "17", "16", "17", "13", "22", "21"], "time": [2365, 2667, 3353, 10165, 10315, 10516, 11474, 18815, 20208, 20976, 22812, 25024, 25115, 25248, 25383, 29171, 29412, 29710, 32691, 39029, 39330, 40152, 43358, 43633, 47370]}, "edge": {"target": [], "time": []}}, "mouseout": {"state": {"target": ["27", "1", "0", "7", "6", "5", "7", "3", "9", "9", "11", "25", "29", "26", "27", "28", "24", "30", "32", "22", "19", "21", "20", "17", "16", "17", "13", "22", "21"], "time": [467, 633, 1367, 2400, 3219, 6385, 10198, 10335, 10992, 11293, 15080, 19525, 20814, 21087, 24836, 25090, 25139, 25274, 28847, 29283, 29557, 32559, 38763, 39053, 39968, 43099, 43424, 46549, 48921]}, "edge": {"target": [], "time": []}}}, "displayed_time": "53.16", "trialTime": 54450, "trial_type": "mouselab-mdp", "trial_index": 32, "time_elapsed": 1400375, "internal_node_id": "0.0-6.0-1.0-23.0"}}, {"uniqueid": "w51589364:a49645526", "current_trial": 33, "dateTime": 1693482351723, "trialdata": {"revealed_states": [], "clicked_states": ["9", "5", "11"], "num_clicks_accrued": [0, 0, 0, 0, 0, 0, 0, 0, 0, 0, 0, 0, 0], "stateRewards": ["", -1, 1, -2, 5, 73, 15, 61, 8, 7, 38, 76, 2, 2, -4, -6, -6, -26, 43, -5, -45, -85, -35, -2, 1, -4, 15, -10, 69, 72, -11, 84, -49, -38], "withholdReward": false, "trial_id": "mdp_trial_25", "block": "test", "trialIndex": 26, "score": 75.55, "costs": -6.449999999999999, "simulationMode": [null, null, null, null, null, null], "rewards": [-1, 1, -2, 8, 76], "path": ["0", "0", "1", "2", "3", "8", "11"], "rt": [10162, 388, 135, 322, 89, 105], "actions": ["up", "up", "up", "up", "left", "left"], "actionTimes": [12593, 12985, 13653, 14492, 15103, 15716], "queries": {"click": {"state": {"target": ["9", "5", "11"], "time": [3389, 6540, 9862]}, "edge": {"target": [], "time": []}}, "mouseover": {"state": {"target": ["1", "2", "8", "9", "5", "3", "8", "11", "8", "3", "4", "6"], "time": [2885, 2938, 3051, 3184, 3823, 7025, 7117, 7318, 10379, 10456, 10635, 10870]}, "edge": {"target": [], "time": []}}, "mouseout": {"state": {"target": ["22", "12", "0", "0", "1", "2", "8", "9", "9", "5", "3", "8", "11", "8", "3", "4", "6", "6"], "time": [634, 1418, 1699, 2817, 2918, 2968, 3083, 3564, 3710, 6917, 7092, 7165, 10354, 10424, 10585, 10742, 17249, 17500]}, "edge": {"target": [], "time": []}}}, "displayed_time": "16.43", "trialTime": 17675, "trial_type": "mouselab-mdp", "trial_index": 33, "time_elapsed": 1418509, "internal_node_id": "0.0-6.0-1.0-24.0"}}, {"uniqueid": "w51589364:a49645526", "current_trial": 34, "dateTime": 1693482387517, "trialdata": {"revealed_states": [], "clicked_states": ["29", "33", "21", "20", "17", "5", "9", "11"], "num_clicks_accrued": [0, 0, 0, 0, 0, 0, 0, 0, 0, 0, 0, 0, 0], "stateRewards": ["", -2, 2, 8, -6, -25, 3, 87, 2, -62, -2, 74, -2, -1, 2, -1, 79, 49, -37, -14, 5, 67, -9, -1, 2, -2, 5, 15, 38, 32, -14, -38, -38, 30], "withholdReward": false, "trial_id": "mdp_trial_26", "block": "test", "trialIndex": 27, "score": 66.8, "costs": -17.2, "simulationMode": [null, null, null, null, null], "rewards": [-2, 2, 8, 2, 74], "path": ["0", "0", "1", "2", "3", "8", "11"], "rt": [30205, 44, 181, 24, 74], "actions": ["up", "up", "up", "left", "left"], "actionTimes": [31548, 32114, 32836, 33400, 34011], "queries": {"click": {"state": {"target": ["29", "33", "21", "20", "17", "5", "9", "11"], "time": [2215, 5199, 9351, 13016, 16151, 20623, 23920, 27478]}, "edge": {"target": [], "time": []}}, "mouseover": {"state": {"target": ["10", "27", "29", "33", "30", "31", "22", "19", "21", "20", "17", "15", "18", "16", "4", "5", "9", "11", "28", "27"], "time": [1692, 1792, 2009, 2749, 5831, 5900, 8690, 8975, 9157, 9911, 13508, 16429, 16475, 17184, 19926, 20056, 21185, 24737, 29221, 29869]}, "edge": {"target": [], "time": []}}, "mouseout": {"state": {"target": ["7", "1", "10", "27", "29", "33", "30", "31", "22", "19", "21", "20", "17", "15", "18", "16", "4", "5", "9", "11", "28"], "time": [41, 657, 1712, 1825, 2555, 5764, 5876, 8575, 8841, 9041, 9760, 13290, 16404, 16452, 16904, 19706, 19952, 21092, 24375, 27807, 29683]}, "edge": {"target": [], "time": []}}}, "displayed_time": "34.54", "trialTime": 35295, "trial_type": "mouselab-mdp", "trial_index": 34, "time_elapsed": 1454304, "internal_node_id": "0.0-6.0-1.0-25.0"}}, {"uniqueid": "w51589364:a49645526", "current_trial": 35, "dateTime": 1693482418626, "trialdata": {"revealed_states": [], "clicked_states": ["11", "6", "5", "9", "10", "7"], "num_clicks_accrued": [0, 0, 0, 0, 0, 0, 0, 0, 0, 0, 0, 0, 0], "stateRewards": ["", 1, 4, 5, -5, 58, -80, 75, 6, 25, -39, 46, 2, -2, 4, 2, 59, 31, -22, -12, -61, 15, 72, 1, -2, -7, 8, 77, 76, -23, -7, 71, -15, -3], "withholdReward": false, "trial_id": "mdp_trial_27", "block": "test", "trialIndex": 28, "score": 67.1, "costs": -12.9, "simulationMode": [null, null, null, null, null], "rewards": [1, 4, 5, -5, 75], "path": ["0", "0", "1", "2", "3", "4", "7"], "rt": [24989, 31, 41, 15, 79], "actions": ["up", "up", "up", "right", "down"], "actionTimes": [26760, 27310, 27871, 28430, 29044], "queries": {"click": {"state": {"target": ["11", "6", "5", "9", "10", "7"], "time": [4042, 7336, 11004, 15056, 19113, 22368]}, "edge": {"target": [], "time": []}}, "mouseover": {"state": {"target": ["28", "11", "3", "4", "6", "5", "9", "3", "10", "2", "7", "7", "7", "1", "28", "26", "29", "27", "10"], "time": [2267, 2618, 4108, 4901, 5217, 8024, 11603, 18483, 18849, 19520, 19569, 20216, 20429, 23005, 23278, 23624, 23717, 24267, 25798]}, "edge": {"target": [], "time": []}}, "mouseout": {"state": {"target": ["27", "0", "28", "11", "3", "4", "6", "5", "9", "5", "3", "10", "2", "7", "7", "7", "1", "28", "26", "29", "27", "10"], "time": [388, 2134, 2318, 4105, 4610, 5056, 7670, 11599, 15428, 18432, 18582, 19494, 19544, 19722, 20398, 22725, 23047, 23558, 23670, 23927, 25731, 25875]}, "edge": {"target": [], "time": []}}}, "displayed_time": "29.58", "trialTime": 30700, "trial_type": "mouselab-mdp", "trial_index": 35, "time_elapsed": 1485412, "internal_node_id": "0.0-6.0-1.0-26.0"}}, {"uniqueid": "w51589364:a49645526", "current_trial": 36, "dateTime": 1693482445459, "trialdata": {"revealed_states": [], "clicked_states": ["28", "27", "29", "33", "32"], "num_clicks_accrued": [0, 0, 0, 0, 0, 0, 0, 0, 0, 0, 0, 0, 0], "stateRewards": ["", 1, 1, 6, -14, -40, 37, 16, -13, 33, -68, 49, 2, 4, 3, 6, 55, 27, 32, 10, -65, 20, -87, 2, 1, -6, -5, -42, 12, 29, -8, 16, 76, -33], "withholdReward": false, "trial_id": "mdp_trial_28", "block": "test", "trialIndex": 29, "score": 57.25, "costs": -10.75, "simulationMode": [null, null, null, null, null, null, null, null, null, null, null, null], "rewards": [2, 2, 1, 1, -6, -8, 76], "path": ["0", "0", "23", "23", "24", "24", "25", "30", "32"], "rt": [19030, 18806, 585, 75, 855, 329, 677, 168, 921, 406, 83, 132], "actions": ["left", "left", "left", "left", "left", "left", "left", "left", "left", "left", "down", "down"], "actionTimes": [18805, 18809, 19397, 19400, 20258, 20260, 20941, 20943, 21867, 21870, 22481, 23145], "queries": {"click": {"state": {"target": ["28", "27", "29", "33", "32"], "time": [1087, 4648, 7976, 11431, 14575]}, "edge": {"target": [], "time": []}}, "mouseover": {"state": {"target": ["23", "24", "28", "26", "27", "29", "33", "30", "32", "31"], "time": [267, 617, 867, 1645, 1781, 5154, 8912, 11782, 12088, 15242]}, "edge": {"target": [], "time": []}}, "mouseout": {"state": {"target": ["2", "1", "0", "23", "24", "28", "26", "27", "29", "33", "30", "32"], "time": [null, null, 18, 289, 785, 1579, 1671, 5000, 8518, 11756, 11870, 15001]}, "edge": {"target": [], "time": []}}}, "displayed_time": "23.68", "trialTime": 24837, "trial_type": "mouselab-mdp", "trial_index": 36, "time_elapsed": 1512245, "internal_node_id": "0.0-6.0-1.0-27.0"}}, {"uniqueid": "w51589364:a49645526", "current_trial": 37, "dateTime": 1693482487379, "trialdata": {"revealed_states": [], "clicked_states": ["22", "21", "20", "17", "18", "16", "6", "7", "5", "9"], "num_clicks_accrued": [0, 0, 0, 0, 0, 0, 0, 0, 0, 0, 0, 0, 0], "stateRewards": ["", 1, -4, -6, -1, -21, 17, -72, 10, 77, 67, -46, -1, 4, -2, 14, -66, -49, -45, -15, -52, 23, -67, 2, -2, -2, 15, -3, 45, -64, 5, -44, 83, 61], "withholdReward": false, "trial_id": "mdp_trial_29", "block": "test", "trialIndex": 30, "score": 56.5, "costs": -21.499999999999996, "simulationMode": [null, null, null, null, null], "rewards": [1, -4, -6, 10, 77], "path": ["0", "0", "1", "2", "3", "8", "9"], "rt": [36133, 13, 40, 23, 488], "actions": ["up", "up", "up", "left", "up"], "actionTimes": [37657, 38198, 38758, 39317, 40345], "queries": {"click": {"state": {"target": ["22", "21", "20", "17", "18", "16", "6", "7", "5", "9"], "time": [2977, 6522, 10282, 14117, 17354, 20466, 23707, 27002, 30075, 33258]}, "edge": {"target": [], "time": []}}, "mouseover": {"state": {"target": ["12", "22", "21", "20", "17", "15", "18", "16", "6", "7", "4", "5", "9", "8", "11", "27", "27"], "time": [2344, 2509, 3622, 7228, 13892, 14871, 15476, 17910, 21107, 24264, 27458, 27694, 30857, 35203, 35338, 35920, 36517]}, "edge": {"target": [], "time": []}}, "mouseout": {"state": {"target": ["31", "0", "12", "22", "22", "21", "20", "17", "17", "15", "18", "16", "6", "7", "4", "5", "9", "8", "11", "27", "27"], "time": [527, 1026, 2376, 3149, 3406, 6949, 10878, 14283, 14577, 15207, 17709, 20909, 24064, 27354, 27546, 30475, 34963, 35228, 35795, 36456, 36757]}, "edge": {"target": [], "time": []}}}, "displayed_time": "40.87", "trialTime": 41536, "trial_type": "mouselab-mdp", "trial_index": 37, "time_elapsed": 1554165, "internal_node_id": "0.0-6.0-1.0-28.0"}}, {"uniqueid": "w51589364:a49645526", "current_trial": 38, "dateTime": 1693482522544, "trialdata": {"revealed_states": [], "clicked_states": ["33", "31", "32", "21", "22", "20", "9", "11"], "num_clicks_accrued": [0, 0, 0, 0, 0, 0, 0, 0, 0, 0, 0, 0, 0], "stateRewards": ["", -2, 1, -7, -8, -37, -76, -87, 11, 30, -63, 80, -1, 4, 2, -1, 42, 17, 52, -3, -75, -80, -68, 2, -3, -5, -15, -48, 82, 24, -7, 5, -22, -71], "withholdReward": false, "trial_id": "mdp_trial_30", "block": "test", "trialIndex": 31, "score": 65.8, "costs": -17.2, "simulationMode": [null, null, null, null, null], "rewards": [-2, 1, -7, 11, 80], "path": ["0", "0", "1", "2", "3", "8", "11"], "rt": [28081, 13, 95, 667, 68], "actions": ["up", "up", "up", "left", "left"], "actionTimes": [29671, 30209, 30837, 32037, 32639], "queries": {"click": {"state": {"target": ["33", "31", "32", "21", "22", "20", "9", "11"], "time": [2888, 6167, 9354, 12351, 15720, 18848, 22041, 25320]}, "edge": {"target": [], "time": []}}, "mouseover": {"state": {"target": ["23", "30", "33", "33", "30", "31", "32", "21", "22", "19", "20", "13", "3", "8", "9", "11", "8", "5", "5", "4"], "time": [2024, 2208, 2324, 2642, 3374, 3733, 6980, 10065, 12881, 16166, 16345, 19388, 19650, 19722, 19858, 22815, 25733, 25956, 26149, 28890]}, "edge": {"target": [], "time": []}}, "mouseout": {"state": {"target": ["23", "30", "33", "33", "30", "31", "32", "21", "22", "19", "20", "13", "3", "8", "9", "11", "8", "5", "5", "4", "2"], "time": [2076, 2291, 2374, 3348, 3445, 6577, 9782, 12661, 16121, 16256, 19280, 19433, 19697, 19747, 22553, 25709, 25760, 26026, 28804, 34188, 34771]}, "edge": {"target": [], "time": []}}}, "displayed_time": "33.16", "trialTime": 34787, "trial_type": "mouselab-mdp", "trial_index": 38, "time_elapsed": 1589330, "internal_node_id": "0.0-6.0-1.0-29.0"}}, {"uniqueid": "w51589364:a49645526", "current_trial": 39, "dateTime": 1693482591721, "trialdata": {"revealed_states": [], "clicked_states": ["6", "29", "33", "22", "20", "21", "9", "11", "10", "18", "16", "17", "5", "7", "27", "32", "31"], "num_clicks_accrued": [0, 0, 0, 0, 0, 0, 0, 0, 0, 0, 0, 0, 0], "stateRewards": ["", -1, 3, -7, 16, -32, -74, -48, 2, 10, 15, -30, 1, 1, -2, 10, 12, -83, 67, 13, -66, 47, 65, -2, 4, 2, -14, -8, -57, 24, 9, 65, 12, 46], "withholdReward": false, "trial_id": "mdp_trial_31", "block": "test", "trialIndex": 32, "score": 40.45000000000001, "costs": -36.54999999999999, "simulationMode": [null, null, null, null, null], "rewards": [1, 1, -2, 10, 67], "path": ["0", "0", "12", "13", "14", "15", "18"], "rt": [62946, 13, 257, 17, 14], "actions": ["right", "right", "right", "up", "left"], "actionTimes": [64157, 64695, 65467, 66015, 66566], "queries": {"click": {"state": {"target": ["6", "29", "33", "22", "20", "21", "9", "11", "10", "18", "16", "17", "5", "7", "27", "32", "31"], "time": [2603, 7100, 11003, 15099, 19074, 22515, 27035, 30291, 33483, 36787, 40275, 43531, 46780, 49939, 53156, 56394, 59722]}, "edge": {"target": [], "time": []}}, "mouseover": {"state": {"target": ["10", "8", "11", "11", "8", "4", "6", "7", "2", "28", "26", "29", "33", "30", "31", "22", "22", "21", "21", "20", "21", "0", "1", "8", "9", "8", "10", "11", "10", "2", "7", "18", "16", "17", "15", "4", "5", "4", "7", "28", "26", "27", "26", "25", "30", "32", "31", "12", "18"], "time": [1276, 1358, 1440, 1873, 2079, 2126, 2391, 3084, 6074, 6225, 6390, 6741, 10757, 11436, 11740, 14457, 14856, 15975, 16401, 18838, 19804, 26071, 26138, 26338, 26704, 27438, 27660, 29364, 30750, 33884, 34040, 34871, 37510, 40840, 44109, 44428, 44729, 47183, 47452, 50579, 50607, 50825, 53587, 53749, 53876, 54079, 57072, 60307, 60504]}, "edge": {"target": [], "time": []}}, "mouseout": {"state": {"target": ["2", "1", "10", "8", "11", "11", "8", "4", "6", "7", "2", "28", "26", "29", "33", "30", "31", "22", "22", "21", "21", "20", "21", "0", "1", "8", "9", "8", "10", "11", "10", "2", "7", "18", "16", "17", "15", "4", "5", "4", "7", "28", "26", "27", "26", "25", "30", "32", "31", "12", "18"], "time": [473, 557, 1304, 1407, 1623, 2057, 2101, 2158, 2931, 6023, 6094, 6325, 6623, 7692, 11390, 11568, 14324, 14489, 15581, 15998, 18455, 19413, 22685, 26092, 26205, 26389, 27369, 27547, 28297, 30598, 33838, 33972, 34421, 36934, 40618, 43948, 44167, 44523, 47113, 47316, 50289, 50604, 50632, 53520, 53702, 53852, 53943, 56811, 60006, 60334, 68118]}, "edge": {"target": [], "time": []}}}, "displayed_time": "67.10", "trialTime": 68767, "trial_type": "mouselab-mdp", "trial_index": 39, "time_elapsed": 1658507, "internal_node_id": "0.0-6.0-1.0-30.0"}}, {"uniqueid": "w51589364:a49645526", "current_trial": 40, "dateTime": 1693482629883, "trialdata": {"revealed_states": [], "clicked_states": ["9", "11", "10", "7", "6", "5", "16", "18", "17"], "num_clicks_accrued": [0, 0, 0, 0, 0, 0, 0, 0, 0, 0, 0, 0, 0], "stateRewards": ["", 1, -3, 4, 13, -72, 52, 5, 5, -58, 5, 14, 2, 1, 3, -14, -86, -4, 73, 6, -58, -50, 49, 2, -3, -4, 2, 33, -41, 42, -11, 81, 45, 53], "withholdReward": false, "trial_id": "mdp_trial_32", "block": "test", "trialIndex": 33, "score": 45.650000000000006, "costs": -19.349999999999998, "simulationMode": [null, null, null, null, null], "rewards": [2, 1, 3, -14, 73], "path": ["0", "0", "12", "13", "14", "15", "18"], "rt": [31741, 19, 64, 15, 14], "actions": ["right", "right", "right", "up", "left"], "actionTimes": [33088, 33636, 34228, 34741, 35278], "queries": {"click": {"state": {"target": ["9", "11", "10", "7", "6", "5", "16", "18", "17"], "time": [2244, 5588, 8980, 12380, 15724, 19925, 23504, 26684, 29828]}, "edge": {"target": [], "time": []}}, "mouseover": {"state": {"target": ["1", "2", "8", "9", "11", "11", "10", "2", "7", "6", "4", "5", "16", "18", "15", "17"], "time": [1676, 1775, 1893, 2108, 2778, 3111, 6118, 9397, 9601, 12935, 19457, 19690, 23273, 24151, 27104, 27241]}, "edge": {"target": [], "time": []}}, "mouseout": {"state": {"target": ["0", "0", "1", "2", "8", "9", "11", "11", "10", "2", "7", "6", "4", "5", "6", "16", "18", "15", "17", "17", "15"], "time": [398, 1426, 1742, 1825, 2027, 2571, 2826, 5932, 9351, 9488, 12824, 19423, 19490, 20285, 20422, 23944, 27057, 27173, 30328, 36706, 36756]}, "edge": {"target": [], "time": []}}}, "displayed_time": "35.80", "trialTime": 37738, "trial_type": "mouselab-mdp", "trial_index": 40, "time_elapsed": 1696670, "internal_node_id": "0.0-6.0-1.0-31.0"}}, {"uniqueid": "w51589364:a49645526", "current_trial": 41, "dateTime": 1693482647437, "trialdata": {"revealed_states": [], "clicked_states": ["29"], "num_clicks_accrued": [0, 0, 0, 0, 0, 0, 0, 0, 0, 0, 0, 0, 0], "stateRewards": ["", -1, -2, -8, 8, -27, -82, 19, -14, -62, 4, 1, -2, 2, 6, 10, 73, -51, -2, 2, 73, -48, 54, -1, 2, -4, 11, -25, 47, 86, 15, 33, 43, -42], "withholdReward": false, "trial_id": "mdp_trial_33", "block": "test", "trialIndex": 34, "score": 91.85, "costs": -2.15, "simulationMode": [null, null, null, null, null], "rewards": [-1, 2, -4, 11, 86], "path": ["0", "0", "23", "24", "25", "26", "29"], "rt": [6105, 87, 133, 104, 1184], "actions": ["left", "left", "left", "up", "left"], "actionTimes": [7699, 8322, 8985, 9621, 11335], "queries": {"click": {"state": {"target": ["29"], "time": [2810]}, "edge": {"target": [], "time": []}}, "mouseover": {"state": {"target": ["28", "26", "29", "26", "28"], "time": [2153, 2219, 2519, 3365, 3694]}, "edge": {"target": [], "time": []}}, "mouseout": {"state": {"target": ["0", "28", "26", "29", "26", "28"], "time": [1761, 2185, 2419, 2997, 3582, 12820]}, "edge": {"target": [], "time": []}}}, "displayed_time": "15.60", "trialTime": 17107, "trial_type": "mouselab-mdp", "trial_index": 41, "time_elapsed": 1714224, "internal_node_id": "0.0-6.0-1.0-32.0"}}, {"uniqueid": "w51589364:a49645526", "current_trial": 42, "dateTime": 1693482674184, "trialdata": {"revealed_states": [], "clicked_states": ["29", "16", "17", "18", "22"], "num_clicks_accrued": [0, 0, 0, 0, 0, 0, 0, 0, 0, 0, 0, 0, 0], "stateRewards": ["", 1, 1, -3, 7, 49, 78, 26, -5, 26, 48, -43, -1, -3, 2, -5, 4, -1, -60, 10, -35, 51, 81, -2, 1, -7, -5, -39, -86, -54, 4, -3, 74, 77], "withholdReward": false, "trial_id": "mdp_trial_34", "block": "test", "trialIndex": 35, "score": 78.25, "costs": -10.75, "simulationMode": [null, null, null, null, null], "rewards": [-1, -3, 2, 10, 81], "path": ["0", "0", "12", "13", "14", "19", "22"], "rt": [19811, 512, 68, 12, 78], "actions": ["right", "right", "right", "down", "left"], "actionTimes": [21399, 22439, 23031, 23574, 24173], "queries": {"click": {"state": {"target": ["29", "16", "17", "18", "22"], "time": [3854, 7076, 10259, 13476, 16675]}, "edge": {"target": [], "time": []}}, "mouseover": {"state": {"target": ["28", "26", "29", "26", "28", "1", "7", "16", "17", "15", "18", "22", "19", "20"], "time": [3163, 3396, 3647, 4264, 4294, 4560, 4699, 5040, 7917, 10655, 10881, 14208, 17207, 17368]}, "edge": {"target": [], "time": []}}, "mouseout": {"state": {"target": ["0", "0", "28", "26", "29", "26", "28", "1", "7", "16", "17", "15", "18", "18", "22", "19"], "time": [880, 1751, 3331, 3479, 4217, 4291, 4340, 4630, 4747, 7526, 10588, 10834, 13644, 13903, 17157, 17277]}, "edge": {"target": [], "time": []}}}, "displayed_time": "24.70", "trialTime": 26350, "trial_type": "mouselab-mdp", "trial_index": 42, "time_elapsed": 1740971, "internal_node_id": "0.0-6.0-1.0-33.0"}}, {"uniqueid": "w51589364:a49645526", "current_trial": 43, "dateTime": 1693482695151, "trialdata": {"revealed_states": [], "clicked_states": ["8", "5", "11", "10"], "num_clicks_accrued": [0, 0, 0, 0, 0, 0, 0, 0, 0, 0, 0, 0, 0], "stateRewards": ["", 1, 2, 2, -15, -84, 28, -26, 13, 31, 86, 30, -2, 1, -1, -8, 66, -40, -1, -10, -32, 57, -17, 1, 2, -2, 9, -23, 77, 85, 12, -32, -62, -35], "withholdReward": false, "trial_id": "mdp_trial_35", "block": "test", "trialIndex": 36, "score": 96, "costs": -8, "simulationMode": [null, null, null, null, null], "rewards": [1, 2, 2, 13, 86], "path": ["0", "0", "1", "2", "3", "8", "10"], "rt": [14148, 77, 207, 41, 14], "actions": ["up", "up", "up", "left", "down"], "actionTimes": [16086, 16687, 17417, 17979, 18537], "queries": {"click": {"state": {"target": ["8", "5", "11", "10"], "time": [3186, 4605, 8388, 11782]}, "edge": {"target": [], "time": []}}, "mouseover": {"state": {"target": ["1", "2", "8", "9", "5", "4", "3", "11", "10", "2", "7"], "time": [2531, 2647, 2780, 3729, 4414, 5065, 7143, 7997, 8902, 12257, 12398]}, "edge": {"target": [], "time": []}}, "mouseout": {"state": {"target": ["20", "0", "1", "2", "8", "9", "5", "4", "3", "11", "10", "2"], "time": [1013, 2448, 2598, 2713, 3564, 3822, 4994, 5352, 7812, 8786, 12174, 12342]}, "edge": {"target": [], "time": []}}}, "displayed_time": "19.06", "trialTime": 20503, "trial_type": "mouselab-mdp", "trial_index": 43, "time_elapsed": 1761938, "internal_node_id": "0.0-6.0-1.0-34.0"}}, {"uniqueid": "w51589364:a49645526", "current_trial": 44, "dateTime": 1693482754016, "trialdata": {"revealed_states": [], "clicked_states": ["33", "32", "31", "22", "20", "21", "5", "11", "9", "10", "27", "29", "28", "16"], "num_clicks_accrued": [0, 0, 0, 0, 0, 0, 0, 0, 0, 0, 0, 0, 0], "stateRewards": ["", -1, -3, 3, 5, 56, 39, 50, -1, -80, 33, -46, 1, -2, -6, -8, 87, 48, 54, -11, -20, -64, -54, -2, 3, -7, -3, 12, 88, 35, -16, -46, -70, -3], "withholdReward": false, "trial_id": "mdp_trial_36", "block": "test", "trialIndex": 37, "score": 48.900000000000006, "costs": -30.09999999999999, "simulationMode": [null, null, null, null, null], "rewards": [-2, 3, -7, -3, 88], "path": ["0", "0", "23", "24", "25", "26", "28"], "rt": [49798, 587, 151, 169, 61], "actions": ["left", "left", "left", "up", "right"], "actionTimes": [51565, 52686, 53364, 54043, 54608], "queries": {"click": {"state": {"target": ["33", "32", "31", "22", "20", "21", "5", "11", "9", "10", "27", "29", "28", "16"], "time": [2909, 6221, 10204, 13563, 16891, 20196, 23348, 26755, 30043, 33973, 37220, 40547, 44101, 47212]}, "edge": {"target": [], "time": []}}, "mouseover": {"state": {"target": ["23", "24", "25", "33", "32", "31", "22", "19", "20", "21", "14", "15", "4", "5", "3", "8", "11", "9", "8", "10", "27", "29", "26", "28", "1", "18", "16", "1"], "time": [2141, 2196, 2309, 2674, 3499, 6928, 11226, 14021, 14394, 17937, 20974, 21026, 21204, 21580, 24063, 25101, 25746, 27236, 30400, 30749, 34462, 37971, 41015, 41238, 44487, 44640, 45085, 48005]}, "edge": {"target": [], "time": []}}, "mouseout": {"state": {"target": ["7", "0", "23", "24", "25", "33", "32", "31", "22", "19", "20", "21", "14", "15", "4", "5", "3", "8", "11", "9", "8", "10", "27", "29", "26", "28", "1", "18", "16", "1", "28", "23"], "time": [751, 2074, 2175, 2225, 2475, 3318, 6654, 10641, 13925, 14221, 17355, 20556, 21003, 21072, 21228, 23748, 25056, 25212, 27080, 30334, 30596, 34331, 37690, 40969, 41128, 44439, 44511, 44930, 47782, 48031, 56399, 57417]}, "edge": {"target": [], "time": []}}}, "displayed_time": "55.13", "trialTime": 58413, "trial_type": "mouselab-mdp", "trial_index": 44, "time_elapsed": 1820802, "internal_node_id": "0.0-6.0-1.0-35.0"}}, {"uniqueid": "w51589364:a49645526", "current_trial": 45, "dateTime": 1693482778934, "trialdata": {"revealed_states": [], "clicked_states": ["3", "25", "14", "32", "27"], "num_clicks_accrued": [0, 0, 0, 0, 0, 0, 0, 0, 0, 0, 0, 0, 0], "stateRewards": ["", 2, -1, 5, 8, 75, -35, -77, 1, -9, -81, -58, 1, 2, -7, 5, 77, -16, 19, 16, -10, -18, 40, -2, 3, 7, -5, 64, 1, -62, 10, 27, 10, 65], "withholdReward": false, "trial_id": "mdp_trial_37", "block": "test", "trialIndex": 38, "score": 59.85, "costs": -7.15, "simulationMode": [null, null, null, null, null], "rewards": [-2, 3, 7, -5, 64], "path": ["0", "0", "23", "24", "25", "26", "27"], "rt": [18276, 113, 168, 54, 686], "actions": ["left", "left", "left", "up", "up"], "actionTimes": [19620, 20261, 20951, 21536, 22751], "queries": {"click": {"state": {"target": ["3", "25", "14", "32", "27"], "time": [3922, 6947, 8688, 11649, 15081]}, "edge": {"target": [], "time": []}}, "mouseover": {"state": {"target": ["1", "2", "3", "10", "28", "25", "24", "23", "0", "12", "13", "14", "31", "30", "32", "31", "26", "27", "29"], "time": [2002, 2255, 2972, 4313, 4419, 4710, 7363, 7416, 7488, 7561, 7678, 7968, 9819, 10084, 10235, 12996, 13244, 13385, 15869]}, "edge": {"target": [], "time": []}}, "mouseout": {"state": {"target": ["0", "1", "2", "3", "10", "28", "25", "24", "23", "0", "12", "13", "14", "31", "30", "32", "31", "26", "27"], "time": [869, 2185, 2419, 4227, 4344, 4467, 7339, 7389, 7461, 7534, 7607, 7811, 9133, 9919, 10151, 12091, 13021, 13337, 15500]}, "edge": {"target": [], "time": []}}}, "displayed_time": "23.28", "trialTime": 24434, "trial_type": "mouselab-mdp", "trial_index": 45, "time_elapsed": 1845720, "internal_node_id": "0.0-6.0-1.0-36.0"}}, {"uniqueid": "w51589364:a49645526", "current_trial": 46, "dateTime": 1693482798082, "trialdata": {"revealed_states": [], "clicked_states": ["9", "3"], "num_clicks_accrued": [0, 0, 0, 0, 0, 0, 0, 0, 0, 0, 0, 0, 0], "stateRewards": ["", 1, -3, -1, 9, -34, -40, 22, -7, 45, 53, -11, 2, 4, 5, 15, 21, 37, -49, -3, 80, -28, -34, 1, -3, 1, 1, -40, -6, -5, -16, -85, -86, 59], "withholdReward": false, "trial_id": "mdp_trial_38", "block": "test", "trialIndex": 39, "score": -105.1, "costs": -3.0999999999999996, "simulationMode": [null, null, null, null, null], "rewards": [1, -3, 1, -16, -85], "path": ["0", "0", "23", "24", "25", "30", "31"], "rt": [10892, 595, 147, 87, 69], "actions": ["left", "left", "left", "down", "right"], "actionTimes": [12519, 13635, 14316, 14917, 15518], "queries": {"click": {"state": {"target": ["9", "3"], "time": [2476, 6029]}, "edge": {"target": [], "time": []}}, "mouseover": {"state": {"target": ["1", "2", "8", "9", "8", "2", "3", "2", "28", "25", "24", "23"], "time": [1722, 1906, 2089, 2289, 2840, 3132, 3583, 6523, 6931, 7322, 11509, 11571]}, "edge": {"target": [], "time": []}}, "mouseout": {"state": {"target": ["29", "26", "28", "1", "0", "1", "2", "8", "9", "8", "2", "3", "2", "28", "25", "24", "23"], "time": [439, 539, 589, 873, 1652, 1822, 1939, 2189, 2769, 2909, 3382, 6431, 6637, 7073, 11488, 11530, 17654]}, "edge": {"target": [], "time": []}}}, "displayed_time": "16.06", "trialTime": 18738, "trial_type": "mouselab-mdp", "trial_index": 46, "time_elapsed": 1864868, "internal_node_id": "0.0-6.0-1.0-37.0"}}, {"uniqueid": "w51589364:a49645526", "current_trial": 47, "dateTime": 1693482816875, "trialdata": {"revealed_states": [], "clicked_states": ["21", "20"], "num_clicks_accrued": [0, 0, 0, 0, 0, 0, 0, 0, 0, 0, 0, 0, 0], "stateRewards": ["", -2, 1, -5, 2, -68, 80, 33, 10, 67, -59, 20, -1, -3, 3, 14, 74, -2, 24, -16, 63, 80, 46, -1, 4, 6, 12, 83, -38, -43, -4, 43, 14, -79], "withholdReward": false, "trial_id": "mdp_trial_39", "block": "test", "trialIndex": 40, "score": 58.7, "costs": -4.3, "simulationMode": [null, null, null, null, null], "rewards": [-1, -3, 3, -16, 80], "path": ["0", "0", "12", "13", "14", "19", "21"], "rt": [7362, 103, 134, 48, 138], "actions": ["right", "right", "right", "down", "down"], "actionTimes": [8960, 9595, 10253, 10811, 11480], "queries": {"click": {"state": {"target": ["21", "20"], "time": [2702, 5805]}, "edge": {"target": [], "time": []}}, "mouseover": {"state": {"target": ["12", "13", "19", "21", "20"], "time": [1777, 1861, 2192, 2542, 3156]}, "edge": {"target": [], "time": []}}, "mouseout": {"state": {"target": ["0", "12", "13", "19", "21", "20"], "time": [1726, 1809, 1962, 2343, 3017, 6387]}, "edge": {"target": [], "time": []}}}, "displayed_time": "15.60", "trialTime": 18387, "trial_type": "mouselab-mdp", "trial_index": 47, "time_elapsed": 1883661, "internal_node_id": "0.0-6.0-1.0-38.0"}}, {"uniqueid": "w51589364:a49645526", "current_trial": 48, "dateTime": 1693482864855, "trialdata": {"revealed_states": [], "clicked_states": ["3", "11", "6", "5", "9", "29", "27", "32", "33", "31", "16", "18", "17"], "num_clicks_accrued": [0, 0, 0, 0, 0, 0, 0, 0, 0, 0, 0, 0, 0], "stateRewards": ["", 1, -1, 4, -2, -75, -75, 84, -9, -60, -79, 59, 2, -4, 8, 9, -17, -82, 80, 14, -4, 49, 49, -1, 3, 6, -11, -33, 34, 55, 9, -57, 5, 59], "withholdReward": false, "trial_id": "mdp_trial_40", "block": "test", "trialIndex": 41, "score": 68.25, "costs": -26.749999999999993, "simulationMode": [null, null, null, null, null, null], "rewards": [2, -4, 8, 9, 80], "path": ["0", "0", "12", "13", "14", "15", "18"], "rt": [39832, 976, 55, 209, 56, 552], "actions": ["right", "right", "right", "right", "up", "left"], "actionTimes": [41881, 42861, 43443, 44180, 44772, 45856], "queries": {"click": {"state": {"target": ["3", "11", "6", "5", "9", "29", "27", "32", "33", "31", "16", "18", "17"], "time": [3129, 4439, 7815, 10920, 14024, 17256, 20935, 24178, 27424, 30720, 33823, 36888, 40273]}, "edge": {"target": [], "time": []}}, "mouseover": {"state": {"target": ["1", "1", "2", "3", "8", "11", "8", "4", "6", "5", "9", "11", "26", "29", "27", "26", "25", "30", "32", "33", "30", "31", "14", "14", "15", "16", "18", "15", "17"], "time": [2428, 2528, 2595, 2845, 3806, 4192, 5070, 5369, 5555, 8575, 11485, 14708, 15228, 15324, 17883, 21323, 21395, 21583, 22057, 24841, 27868, 28198, 31344, 31788, 31992, 32160, 34571, 37305, 37558]}, "edge": {"target": [], "time": []}}, "mouseout": {"state": {"target": ["19", "22", "12", "0", "1", "1", "2", "3", "8", "11", "8", "3", "4", "6", "5", "9", "11", "26", "29", "27", "26", "25", "30", "32", "33", "30", "31", "14", "14", "15", "16", "18", "15", "17"], "time": [1061, 1143, 1344, 2097, 2478, 2549, 2761, 3648, 4051, 5046, 5119, 5234, 5488, 8146, 11280, 14528, 14779, 15252, 17706, 21275, 21370, 21534, 21894, 24612, 27829, 27996, 31163, 31520, 31889, 32068, 34307, 37258, 37350, 40842]}, "edge": {"target": [], "time": []}}}, "displayed_time": "46.38", "trialTime": 47554, "trial_type": "mouselab-mdp", "trial_index": 48, "time_elapsed": 1931641, "internal_node_id": "0.0-6.0-1.0-39.0"}}, {"uniqueid": "w51589364:a49645526", "current_trial": 49, "dateTime": 1693482933219, "trialdata": {"rt": 67845, "response": {"Q0": "$-2 to $2", "Q1": "$-4 to $4", "Q2": "$-88 to $88", "Q3": "The cost for clicking on nodes varied between nodes.", "Q4": "Very motivated"}, "question_order": [0, 1, 2, 3, 4], "trial_id": "final_quiz_control", "trial_type": "survey-multi-choice", "trial_index": 49, "time_elapsed": 2000006, "internal_node_id": "0.0-6.0-2.0"}}, {"uniqueid": "w51589364:a49645526", "current_trial": 50, "dateTime": 1693483097755, "trialdata": {"rt": 163904, "response": {"Q0": "i only inspected the furthest nodes and only followed the route which led me to the the last node with the highest score", "Q1": "No i used the same strategy throughout the game.", "Q2": "the game was not that hard for me which is why i used the same stragtegy."}, "trial_id": "self_report_control", "trial_type": "survey-text", "trial_index": 50, "time_elapsed": 2164542, "internal_node_id": "0.0-6.0-3.0"}}, {"uniqueid": "w51589364:a49645526", "current_trial": 51, "dateTime": 1693483163484, "trialdata": {"rt": 65723, "response": {"Q0": "Strongly disagree", "Q1": "Neither disagree nor agree", "Q2": "Neither disagree nor agree", "Q3": "Neither disagree nor agree", "Q4": "Neither disagree nor agree", "Q5": "Neither disagree nor agree", "Q6": "Strongly disagree"}, "question_order": [0, 1, 2, 3, 4, 5, 6], "trial_id": "self_report_2", "trial_type": "survey-multi-choice", "trial_index": 51, "time_elapsed": 2230271, "internal_node_id": "0.0-6.0-4.0"}}, {"uniqueid": "w51589364:a49645526", "current_trial": 52, "dateTime": 1693483206828, "trialdata": {"rt": 43281, "response": {"gender": "male", "age": "23", "colorblind": "0", "effort": "1"}, "trial_type": "survey-html-form", "trial_index": 52, "time_elapsed": 2273615, "internal_node_id": "0.0-6.0-5.0"}}, {"uniqueid": "w51589364:a49645526", "current_trial": 53, "dateTime": 1693483267995, "trialdata": {"rt": 61101, "response": {"Q0": "No every was simple and easy to understand", "Q1": "No it was my first time participate in this game", "Q2": "None"}, "trial_type": "survey-text", "trial_index": 53, "time_elapsed": 2334782, "internal_node_id": "0.0-6.0-6.0"}}, {"uniqueid": "w51589364:a49645526", "current_trial": 54, "dateTime": 1693483328085, "trialdata": {"rt": 60033, "stimulus": "<h1>Completion Code Instructions (1/2)</h1>\n<br><br><br><br>\nYou have reached the end of the experiment! The completion code consists of two parts: (1) a code with 2 characters (2) a code with 6 characters. On this page, you will receive the second part of the code. The first part of the completion code will be on the next page.\n<br><br>\nThe second part of your completion code is: <b>EWEK22</b>\n<br><br>\nPlease note this down. Then, press 'Finish HIT' in order to find the first part of your completion code. Once the data has been saved, you will receive this code either in this window or in the original browser window where you started the experiment.\n", "response": 0, "trial_type": "html-button-response", "trial_index": 54, "time_elapsed": 2394872, "internal_node_id": "0.0-6.0-7.0"}}, {"uniqueid": "w51589364:a49645526", "current_trial": 55, "dateTime": 1693483329089, "trialdata": {"success": true, "trial_type": "fullscreen", "trial_index": 55, "time_elapsed": 2395876, "internal_node_id": "0.0-7.0"}}], "questiondata": {"params": {"CODE": "C6DMOQA6", "MIN_TIME": 14, "inspectCost": 1, "startTime": "Thu Aug 31 2023 13:21:41 GMT+0200 (South Africa Standard Time)", "bonusRate": 0.002, "variance": "1_2_4_8_44", "branching": "31123"}, "final_score": 2297.95}, "eventdata": [{"eventtype": "initialized", "value": null, "timestamp": 1693480900180, "interval": 0}, {"eventtype": "window_resize", "value": [1024, 694], "timestamp": 1693480900180, "interval": 0}, {"eventtype": "window_resize", "value": [1024, 694], "timestamp": 1693480901048, "interval": 868}, {"eventtype": "focus", "value": "off", "timestamp": 1693480929152, "interval": 28104}, {"eventtype": "focus", "value": "on", "timestamp": 1693480929152, "interval": 0}, {"eventtype": "focus", "value": "off", "timestamp": 1693480940694, "interval": 11542}, {"eventtype": "focus", "value": "on", "timestamp": 1693480950237, "interval": 9543}, {"eventtype": "window_resize", "value": [1366, 768], "timestamp": 1693480952107, "interval": 1870}, {"eventtype": "window_resize", "value": [1024, 694], "timestamp": 1693483305946, "interval": 2353839}], "useragent": "Mozilla/5.0 (Windows NT 10.0; Win64; x64) AppleWebKit/537.36 (KHTML, like Gecko) Chrome/116.0.0.0 Safari/537.36", "mode": "live", "id": "w51589364:a49645526", "status": "user data saved", "Beginhit": "2023-08-31 11:21:14.1357", "Beginexp": "2023-08-31 11:22:33.665537", "Endhit": "2023-08-31 14:20:34.382878", "psiturkStatus": 3, "browser": "<redacted>", "platform": "windows", "language": "en-US"}