{"condition": 1, "counterbalance": 0, "assignmentId": "a49711271", "workerId": "w88356372", "hitId": "h14608096", "currenttrial": 56, "bonus": 0, "data": [{"uniqueid": "w88356372:a49711271", "current_trial": 0, "dateTime": 1693660815520, "trialdata": {"success": true, "trial_type": "fullscreen", "trial_index": 0, "time_elapsed": 8963, "internal_node_id": "0.0-0.0"}}, {"uniqueid": "w88356372:a49711271", "current_trial": 1, "dateTime": 1693660882005, "trialdata": {"view_history": [{"page_index": 0, "viewing_time": 66469}], "rt": 66472, "trial_id": "exp_instructions_misaligned", "trial_type": "instructions", "trial_index": 1, "time_elapsed": 75449, "internal_node_id": "0.0-1.0"}}, {"uniqueid": "w88356372:a49711271", "current_trial": 2, "dateTime": 1693661171005, "trialdata": {"view_history": [{"page_index": 0, "viewing_time": 160179}, {"page_index": 1, "viewing_time": 75393}, {"page_index": 2, "viewing_time": 17403}, {"page_index": 3, "viewing_time": 36012}], "rt": 288988, "trial_id": "mouselab_instructions_1_misaligned", "trial_type": "instructions", "trial_index": 2, "time_elapsed": 364449, "internal_node_id": "0.0-2.0-1.0"}}, {"uniqueid": "w88356372:a49711271", "current_trial": 3, "dateTime": 1693661195715, "trialdata": {"revealed_states": [], "clicked_states": ["28", "12"], "num_clicks_accrued": [0, 0, 0, 0, 0, 0, 0, 0, 0, 0, 0, 0, 0], "stateRewards": ["", -10, 10, 10, 10, -10, -10, -10, 10, -10, -10, 10, -10, 10, 10, 10, 10, -10, -10, 10, 10, 10, 10, 10, -10, 10, 10, 10, 10, -10, 10, 10, 10, -10], "withholdReward": false, "trial_id": "practice_1", "block": "test", "trialIndex": 0, "score": 32.5, "costs": -1, "simulationMode": [null, null, null, null, null], "rewards": [10, -10, 10, 10, 10], "path": ["0", "0", "23", "24", "25", "26", "28"], "rt": [10523, 326, 345, 250, 477], "actions": ["left", "left", "left", "up", "right"], "actionTimes": [14503, 15333, 16184, 16940, 17916], "queries": {"click": {"state": {"target": ["28", "12"], "time": [7830, 12653]}, "edge": {"target": [], "time": []}}, "mouseover": {"state": {"target": ["0", "23", "24", "25", "28", "24", "25", "24", "23", "12", "0"], "time": [5506, 5585, 6187, 6502, 7352, 10214, 11403, 11751, 11901, 12250, 13571]}, "edge": {"target": [], "time": []}}, "mouseout": {"state": {"target": ["0", "0", "23", "24", "25", "28", "24", "25", "24", "23", "12", "0"], "time": [2235, 5530, 6112, 6353, 7052, 9452, 11301, 11716, 11834, 12018, 13538, 13638]}, "edge": {"target": [], "time": []}}}, "displayed_time": "18.44", "trialTime": 23893, "trial_type": "mouselab-mdp", "trial_index": 3, "time_elapsed": 389158, "internal_node_id": "0.0-2.0-2.0-0.0"}}, {"uniqueid": "w88356372:a49711271", "current_trial": 4, "dateTime": 1693661215451, "trialdata": {"revealed_states": [], "clicked_states": ["1", "23", "28"], "num_clicks_accrued": [0, 0, 0, 0, 0, 0, 0, 0, 0, 0, 0, 0, 0], "stateRewards": ["", 10, -10, -10, -10, 10, -10, -10, 10, 10, 10, -10, 10, 10, 10, 10, -10, -10, -10, -10, -10, -10, 10, 10, -10, 10, -10, 10, 10, 10, 10, -10, 10, 10], "withholdReward": false, "trial_id": "practice_2", "block": "test", "trialIndex": 1, "score": 12, "costs": -1.5, "simulationMode": [null, null, null, null, null], "rewards": [10, -10, 10, -10, 10], "path": ["0", "0", "23", "24", "25", "26", "28"], "rt": [7815, 538, 270, 161, 134], "actions": ["left", "left", "left", "up", "right"], "actionTimes": [10089, 11144, 11926, 12583, 13239], "queries": {"click": {"state": {"target": ["1", "23", "28"], "time": [3720, 5035, 7924]}, "edge": {"target": [], "time": []}}, "mouseover": {"state": {"target": ["1", "1", "23", "23", "12", "0", "24", "28"], "time": [3101, 3402, 4409, 4727, 6022, 7135, 7285, 7484]}, "edge": {"target": [], "time": []}}, "mouseout": {"state": {"target": ["0", "1", "1", "23", "23", "12", "0", "24", "28"], "time": [2785, 3119, 4339, 4457, 5902, 7118, 7168, 7401, 8856]}, "edge": {"target": [], "time": []}}}, "displayed_time": "13.75", "trialTime": 19162, "trial_type": "mouselab-mdp", "trial_index": 4, "time_elapsed": 408893, "internal_node_id": "0.0-2.0-2.0-1.0"}}, {"uniqueid": "w88356372:a49711271", "current_trial": 5, "dateTime": 1693661241588, "trialdata": {"view_history": [{"page_index": 0, "viewing_time": 23183}, {"page_index": 1, "viewing_time": 2944}], "rt": 26127, "trial_id": "mouselab_instructions_2_misaligned", "trial_type": "instructions", "trial_index": 5, "time_elapsed": 435032, "internal_node_id": "0.0-2.0-3.0"}}, {"uniqueid": "w88356372:a49711271", "current_trial": 6, "dateTime": 1693661269651, "trialdata": {"rt": 28045, "response": {"Q0": "The cost for clicking on nodes may vary between nodes.", "Q1": "The better I perform the higher my bonus will be.", "Q2": "No, the amount of cash at each node of the web may be different each time.", "Q3": "To get the highest total score.", "Q4": "Only before moving the spider.", "Q5": "3 seconds"}, "question_order": [0, 1, 2, 3, 4, 5], "correct": {"Q0": "The cost for clicking on nodes may vary between nodes.", "Q1": "The better I perform the higher my bonus will be.", "Q2": "No, the amount of cash at each node of the web may be different each time.", "Q3": "To get the highest total score.", "Q4": "Only before moving the spider.", "Q5": "3 seconds"}, "trial_id": "mouselab_quiz_misaligned", "trial_type": "survey-multi-choice", "trial_index": 6, "time_elapsed": 463095, "internal_node_id": "0.0-2.0-4.0"}}, {"uniqueid": "w88356372:a49711271", "current_trial": 7, "dateTime": 1693661276874, "trialdata": {"rt": 7198, "response": {"Q0": "No"}, "question_order": [0], "trial_id": "repeat_check", "trial_type": "survey-multi-choice", "trial_index": 7, "time_elapsed": 470317, "internal_node_id": "0.0-4.0-0.0"}}, {"uniqueid": "w88356372:a49711271", "current_trial": 8, "dateTime": 1693661332332, "trialdata": {"rt": 55436, "stimulus": "\n<h1> Get ready to start the game! </h1>\n\nThank you for reading the instructions. Get ready start with the 40 rounds of this game.\n<br><br>\nIf you need to take a break, feel free to take one after the end of a round, before continuing to the next one.\n<br><br>\nRemember, the more money the spider gets, the bigger your bonus will be!\n<br><br>\n<div style='text-align: center;'>Press <code>space</code> to begin.</div>\n\n<br><br>\n(If, at any point, the <code>space</code> key does not take you to the next page, click once on the text and try again.)", "response": " ", "trial_id": "mdp_ready", "trial_type": "html-keyboard-response", "trial_index": 8, "time_elapsed": 525776, "internal_node_id": "0.0-6.0-0.0"}}, {"uniqueid": "w88356372:a49711271", "current_trial": 9, "dateTime": 1693661356726, "trialdata": {"revealed_states": [], "clicked_states": ["23", "1", "12", "13", "14", "24", "25"], "num_clicks_accrued": [0, 0, 0, 0, 0, 0, 0, 0, 0, 0, 0, 0, 0], "stateRewards": ["", -2, -2, -3, -6, -15, -11, 41, -12, -63, -76, 2, -2, -3, 8, 9, -36, -2, -18, -16, -32, -85, -17, -2, 1, 5, -16, 82, 35, -88, -1, 80, -82, -20], "withholdReward": false, "trial_id": "mdp_trial_1", "block": "test", "trialIndex": 2, "score": 21.15, "costs": -1.8499999999999999, "simulationMode": [null, null, null, null, null], "rewards": [-2, 1, 5, -16, 35], "path": ["0", "0", "23", "24", "25", "26", "28"], "rt": [13795, 319, 318, 155, 231], "actions": ["left", "left", "left", "up", "right"], "actionTimes": [16708, 17554, 18369, 19022, 19749], "queries": {"click": {"state": {"target": ["23", "1", "12", "13", "14", "24", "25"], "time": [4142, 6768, 8162, 9565, 12511, 14300, 15668]}, "edge": {"target": [], "time": []}}, "mouseover": {"state": {"target": ["23", "1", "12", "13", "14", "13", "12", "0", "23", "24", "25"], "time": [3713, 5265, 7742, 8934, 10514, 13135, 13197, 13300, 13749, 13913, 14968]}, "edge": {"target": [], "time": []}}, "mouseout": {"state": {"target": ["0", "1", "23", "1", "12", "13", "14", "13", "12", "0", "23", "24", "24"], "time": [1664, 2054, 4987, 7619, 8867, 10448, 13116, 13180, 13237, 13728, 13813, 14499, 14927]}, "edge": {"target": [], "time": []}}}, "displayed_time": "20.27", "trialTime": 23750, "trial_type": "mouselab-mdp", "trial_index": 9, "time_elapsed": 550168, "internal_node_id": "0.0-6.0-1.0-0.0"}}, {"uniqueid": "w88356372:a49711271", "current_trial": 10, "dateTime": 1693661376598, "trialdata": {"revealed_states": [], "clicked_states": ["1", "2"], "num_clicks_accrued": [0, 0, 0, 0, 0, 0, 0, 0, 0, 0, 0, 0, 0], "stateRewards": ["", 1, -4, -6, -1, -21, 17, -72, 10, 77, 67, -46, -1, 4, -2, 14, -66, -49, -45, -15, -52, 23, -67, 2, -2, -2, 15, -3, 45, -64, 5, -44, 83, 61], "withholdReward": false, "trial_id": "mdp_trial_2", "block": "test", "trialIndex": 3, "score": -30.1, "costs": -0.09999999999999998, "simulationMode": [null, null, null, null, null], "rewards": [-1, 4, -2, 14, -45], "path": ["0", "0", "12", "13", "14", "15", "18"], "rt": [11186, 227, 94, 123, 96], "actions": ["right", "right", "right", "up", "left"], "actionTimes": [14640, 15383, 16001, 16628, 17250], "queries": {"click": {"state": {"target": ["1", "2"], "time": [4765, 6894]}, "edge": {"target": [], "time": []}}, "mouseover": {"state": {"target": ["1", "10", "2", "7", "4", "4", "0", "23"], "time": [4151, 6167, 6551, 7688, 8167, 8517, 9500, 10050]}, "edge": {"target": [], "time": []}}, "mouseout": {"state": {"target": ["25", "0", "1", "10", "2", "7", "4", "4", "0"], "time": [794, 4001, 5983, 6506, 7638, 8094, 8250, 9017, 9858]}, "edge": {"target": [], "time": []}}}, "displayed_time": "17.75", "trialTime": 19197, "trial_type": "mouselab-mdp", "trial_index": 10, "time_elapsed": 570040, "internal_node_id": "0.0-6.0-1.0-1.0"}}, {"uniqueid": "w88356372:a49711271", "current_trial": 11, "dateTime": 1693661515416, "trialdata": {"revealed_states": [], "clicked_states": ["1", "2", "3", "4", "23", "24", "25", "28"], "num_clicks_accrued": [0, 0, 0, 0, 0, 0, 0, 0, 0, 0, 0, 0, 0], "stateRewards": ["", 1, -2, -8, -3, 31, -84, -55, -14, 15, -58, 17, -2, -3, 7, 7, -12, 48, 67, 4, -44, -68, 46, 2, 3, -5, -7, 76, 27, 5, 11, 57, 52, 59], "withholdReward": false, "trial_id": "mdp_trial_3", "block": "test", "trialIndex": 4, "score": 14.200000000000001, "costs": -5.799999999999999, "simulationMode": [null, null, null, null, null], "rewards": [2, 3, -5, -7, 27], "path": ["0", "0", "23", "24", "25", "26", "28"], "rt": [14952, 30, 140, 98, 105], "actions": ["left", "left", "left", "up", "right"], "actionTimes": [20905, 21453, 22113, 22738, 23361], "queries": {"click": {"state": {"target": ["1", "2", "3", "4", "23", "24", "25", "28"], "time": [7012, 8480, 10064, 11546, 13477, 14535, 15668, 16999]}, "edge": {"target": [], "time": []}}, "mouseover": {"state": {"target": ["1", "2", "3", "4", "7", "1", "0", "23", "24", "25", "26", "28", "26", "26"], "time": [6654, 7807, 9506, 11158, 12404, 12702, 12869, 13102, 14189, 15239, 16423, 16670, 18600, 20063]}, "edge": {"target": [], "time": []}}, "mouseout": {"state": {"target": ["23", "0", "0", "1", "2", "3", "4", "7", "1", "0", "23", "24", "25", "26", "28", "26", "26", "24"], "time": [936, 3302, 6558, 7691, 9274, 11108, 12173, 12652, 12752, 12886, 14057, 15139, 16372, 16576, 17738, 19787, 24139, 24234]}, "edge": {"target": [], "time": []}}}, "displayed_time": "23.87", "trialTime": 138085, "trial_type": "mouselab-mdp", "trial_index": 11, "time_elapsed": 708858, "internal_node_id": "0.0-6.0-1.0-2.0"}}, {"uniqueid": "w88356372:a49711271", "current_trial": 12, "dateTime": 1693661534786, "trialdata": {"revealed_states": [], "clicked_states": ["23", "24", "25", "28"], "num_clicks_accrued": [0, 0, 0, 0, 0, 0, 0, 0, 0, 0, 0, 0, 0], "stateRewards": ["", 1, 2, 2, -15, -84, 28, -26, 13, 31, 86, 30, -2, 1, -1, -8, 66, -40, -1, -10, -32, 57, -17, 1, 2, -2, 9, -23, 77, 85, 12, -32, -62, -35], "withholdReward": false, "trial_id": "mdp_trial_4", "block": "test", "trialIndex": 5, "score": 83.8, "costs": -3.1999999999999997, "simulationMode": [null, null, null, null, null], "rewards": [1, 2, -2, 9, 77], "path": ["0", "0", "23", "24", "25", "26", "28"], "rt": [10171, 256, 161, 125, 53], "actions": ["left", "left", "left", "up", "right"], "actionTimes": [12007, 12792, 13480, 14127, 14704], "queries": {"click": {"state": {"target": ["23", "24", "25", "28"], "time": [3807, 5031, 6558, 8001]}, "edge": {"target": [], "time": []}}, "mouseover": {"state": {"target": ["1", "23", "24", "25", "28", "26"], "time": [2581, 3031, 4636, 6198, 7714, 8650]}, "edge": {"target": [], "time": []}}, "mouseout": {"state": {"target": ["0", "1", "23", "24", "25", "28"], "time": [2379, 2948, 4586, 5852, 6755, 8601]}, "edge": {"target": [], "time": []}}}, "displayed_time": "15.84", "trialTime": 18621, "trial_type": "mouselab-mdp", "trial_index": 12, "time_elapsed": 728229, "internal_node_id": "0.0-6.0-1.0-3.0"}}, {"uniqueid": "w88356372:a49711271", "current_trial": 13, "dateTime": 1693661553100, "trialdata": {"revealed_states": [], "clicked_states": ["1", "2", "3", "10", "8"], "num_clicks_accrued": [0, 0, 0, 0, 0, 0, 0, 0, 0, 0, 0, 0, 0], "stateRewards": ["", -1, -3, 4, -10, -5, 79, -87, -2, 53, 29, -20, -2, -1, -5, 10, 27, 86, 46, -16, -29, 40, 3, 2, 4, -1, -6, 37, 79, -29, 7, 86, -62, 29], "withholdReward": false, "trial_id": "mdp_trial_5", "block": "test", "trialIndex": 6, "score": 22.25, "costs": -4.75, "simulationMode": [null, null, null, null, null], "rewards": [-1, -3, 4, -2, 29], "path": ["0", "0", "1", "2", "3", "8", "10"], "rt": [9841, 61, 375, 43, 13], "actions": ["up", "up", "up", "left", "down"], "actionTimes": [12251, 12836, 13716, 14283, 14836], "queries": {"click": {"state": {"target": ["1", "2", "3", "10", "8"], "time": [3577, 5025, 6333, 7822, 11331]}, "edge": {"target": [], "time": []}}, "mouseover": {"state": {"target": ["1", "2", "3", "8", "10", "8", "8"], "time": [3165, 4593, 5890, 7273, 7586, 8427, 8738]}, "edge": {"target": [], "time": []}}, "mouseout": {"state": {"target": ["26", "28", "1", "2", "3", "8", "10", "8", "8"], "time": [387, 470, 4490, 5824, 7224, 7486, 8040, 8447, 15719]}, "edge": {"target": [], "time": []}}}, "displayed_time": "16.41", "trialTime": 17490, "trial_type": "mouselab-mdp", "trial_index": 13, "time_elapsed": 746542, "internal_node_id": "0.0-6.0-1.0-4.0"}}, {"uniqueid": "w88356372:a49711271", "current_trial": 14, "dateTime": 1693661600346, "trialdata": {"revealed_states": [], "clicked_states": ["23", "24", "25", "12", "13", "14", "19", "22", "20", "21"], "num_clicks_accrued": [0, 0, 0, 0, 0, 0, 0, 0, 0, 0, 0, 0, 0], "stateRewards": ["", -1, 4, -5, 9, 29, -75, -42, -16, 24, -28, -41, 2, -3, 1, 10, 60, 47, 55, -1, -53, 22, -40, 2, -3, -6, 4, -26, 44, 54, 15, -76, 42, 14], "withholdReward": false, "trial_id": "mdp_trial_6", "block": "test", "trialIndex": 7, "score": 10.9, "costs": -10.1, "simulationMode": [null, null, null, null, null], "rewards": [2, -3, 1, -1, 22], "path": ["0", "0", "12", "13", "14", "19", "21"], "rt": [20813, 138, 90, 189, 172], "actions": ["right", "right", "right", "down", "down"], "actionTimes": [42266, 42925, 43522, 44209, 44909], "queries": {"click": {"state": {"target": ["23", "24", "25", "12", "13", "14", "19", "22", "20", "21"], "time": [22433, 23996, 25240, 27506, 28336, 29265, 30281, 31265, 34902, 38453]}, "edge": {"target": [], "time": []}}, "mouseover": {"state": {"target": ["23", "24", "25", "28", "23", "0", "12", "13", "12", "13", "14", "19", "22", "20", "21", "19"], "time": [22068, 23137, 24817, 26138, 26650, 26683, 26705, 26750, 26933, 27954, 28923, 29973, 30902, 32051, 38155, 39366]}, "edge": {"target": [], "time": []}}, "mouseout": {"state": {"target": ["10", "23", "1", "1", "23", "24", "25", "28", "24", "23", "0", "12", "13", "12", "13", "14", "19", "22", "19", "20", "21", "19"], "time": [262, 1135, 19865, 20265, 23088, 24780, 25836, 26484, 26550, 26666, 26700, 26734, 26867, 27708, 28905, 29938, 30853, 31754, 31803, 35503, 38657, 39409]}, "edge": {"target": [], "time": []}}}, "displayed_time": "45.44", "trialTime": 46507, "trial_type": "mouselab-mdp", "trial_index": 14, "time_elapsed": 793789, "internal_node_id": "0.0-6.0-1.0-5.0"}}, {"uniqueid": "w88356372:a49711271", "current_trial": 15, "dateTime": 1693661618324, "trialdata": {"revealed_states": [], "clicked_states": [], "num_clicks_accrued": [0, 0, 0, 0, 0, 0, 0, 0, 0, 0, 0, 0, 0], "stateRewards": ["", 1, 2, -5, 14, 54, -14, -25, 16, -5, -87, 78, -1, 1, 3, -3, 52, 53, 53, -10, 73, -69, -48, 2, 3, 1, 8, -62, -7, 85, 7, 82, 52, -28], "withholdReward": false, "trial_id": "mdp_trial_7", "block": "test", "trialIndex": 8, "score": -48, "costs": 0, "simulationMode": [null, null, null, null, null], "rewards": [2, 3, 1, 8, -62], "path": ["0", "0", "23", "24", "25", "26", "27"], "rt": [5298, 127, 10, 3, 124], "actions": ["left", "left", "left", "up", "up"], "actionTimes": [7602, 8246, 8776, 9319, 9974], "queries": {"click": {"state": {"target": [], "time": []}, "edge": {"target": [], "time": []}}, "mouseover": {"state": {"target": ["1", "10", "1", "12", "13", "22", "31", "30", "30", "32"], "time": [3246, 4045, 4845, 5062, 5145, 5413, 5711, 5745, 5911, 6095]}, "edge": {"target": [], "time": []}}, "mouseout": {"state": {"target": ["18", "1", "10", "1", "12", "13", "22", "31", "30", "30", "32"], "time": [777, 3877, 4294, 4995, 5095, 5179, 5650, 5728, 5795, 6062, 12744]}, "edge": {"target": [], "time": []}}}, "displayed_time": "16.31", "trialTime": 16951, "trial_type": "mouselab-mdp", "trial_index": 15, "time_elapsed": 811768, "internal_node_id": "0.0-6.0-1.0-6.0"}}, {"uniqueid": "w88356372:a49711271", "current_trial": 16, "dateTime": 1693661636293, "trialdata": {"revealed_states": [], "clicked_states": ["31", "32"], "num_clicks_accrued": [0, 0, 0, 0, 0, 0, 0, 0, 0, 0, 0, 0, 0], "stateRewards": ["", 2, 4, -5, 7, 81, 35, 6, 11, 14, -72, 42, -1, 2, 3, -7, -77, -44, -40, -15, -85, 51, -32, -2, -1, -5, 7, -74, 47, 52, 16, -49, 48, -46], "withholdReward": false, "trial_id": "mdp_trial_8", "block": "test", "trialIndex": 9, "score": 51.7, "costs": -4.3, "simulationMode": [null, null, null, null, null], "rewards": [-2, -1, -5, 16, 48], "path": ["0", "0", "23", "24", "25", "30", "32"], "rt": [8084, 115, 184, 100, 16], "actions": ["left", "left", "left", "down", "down"], "actionTimes": [9589, 10208, 10895, 11512, 12043], "queries": {"click": {"state": {"target": ["31", "32"], "time": [2491, 5903]}, "edge": {"target": [], "time": []}}, "mouseover": {"state": {"target": ["31", "32", "33"], "time": [2089, 3106, 7889]}, "edge": {"target": [], "time": []}}, "mouseout": {"state": {"target": ["0", "31", "32"], "time": [1530, 3087, 7308]}, "edge": {"target": [], "time": []}}}, "displayed_time": "15.51", "trialTime": 17112, "trial_type": "mouselab-mdp", "trial_index": 16, "time_elapsed": 829736, "internal_node_id": "0.0-6.0-1.0-7.0"}}, {"uniqueid": "w88356372:a49711271", "current_trial": 17, "dateTime": 1693661654252, "trialdata": {"revealed_states": [], "clicked_states": ["31", "32"], "num_clicks_accrued": [0, 0, 0, 0, 0, 0, 0, 0, 0, 0, 0, 0, 0], "stateRewards": ["", 1, 1, 1, 15, -76, 52, -32, 14, -57, 37, 49, 1, -4, -3, 6, 83, -76, 25, 9, 36, -1, -17, -1, 4, 4, -2, -22, -21, 58, -15, -57, 49, -24], "withholdReward": false, "trial_id": "mdp_trial_9", "block": "test", "trialIndex": 10, "score": 36.7, "costs": -4.3, "simulationMode": [null, null, null, null, null], "rewards": [-1, 4, 4, -15, 49], "path": ["0", "0", "23", "24", "25", "30", "32"], "rt": [8412, 85, 37, 27, 4], "actions": ["left", "left", "left", "down", "down"], "actionTimes": [10765, 11379, 11930, 12513, 13013], "queries": {"click": {"state": {"target": ["31", "32"], "time": [3382, 6985]}, "edge": {"target": [], "time": []}}, "mouseover": {"state": {"target": ["31", "31", "32", "33"], "time": [2790, 3108, 4076, 7974]}, "edge": {"target": [], "time": []}}, "mouseout": {"state": {"target": ["33", "31", "23", "31", "31", "32", "33", "30"], "time": [16, 747, 1205, 2840, 3993, 7189, 16255, 16305]}, "edge": {"target": [], "time": []}}}, "displayed_time": "16.35", "trialTime": 17124, "trial_type": "mouselab-mdp", "trial_index": 17, "time_elapsed": 847694, "internal_node_id": "0.0-6.0-1.0-8.0"}}, {"uniqueid": "w88356372:a49711271", "current_trial": 18, "dateTime": 1693661674173, "trialdata": {"revealed_states": [], "clicked_states": ["31", "32"], "num_clicks_accrued": [0, 0, 0, 0, 0, 0, 0, 0, 0, 0, 0, 0, 0], "stateRewards": ["", 2, -4, -4, 13, -80, 62, 13, -11, 57, -13, -44, 1, 4, 3, -4, -29, -88, 15, 16, -58, 68, -45, -1, -3, -1, -9, -44, -86, -19, -7, -36, 59, 66], "withholdReward": false, "trial_id": "mdp_trial_10", "block": "test", "trialIndex": 11, "score": 42.7, "costs": -4.3, "simulationMode": [null, null, null, null, null], "rewards": [-1, -3, -1, -7, 59], "path": ["0", "0", "23", "24", "25", "30", "32"], "rt": [7672, 33, 84, 88, 109], "actions": ["left", "left", "left", "down", "down"], "actionTimes": [11878, 12426, 13028, 13657, 14284], "queries": {"click": {"state": {"target": ["31", "32"], "time": [4892, 8252]}, "edge": {"target": [], "time": []}}, "mouseover": {"state": {"target": ["31", "32", "33"], "time": [4555, 5531, 9224]}, "edge": {"target": [], "time": []}}, "mouseout": {"state": {"target": ["23", "23", "31", "24", "28", "23", "1", "31", "32"], "time": [853, 1037, 1374, 1861, 2264, 3103, 3303, 5488, 8992]}, "edge": {"target": [], "time": []}}}, "displayed_time": "18.21", "trialTime": 19029, "trial_type": "mouselab-mdp", "trial_index": 18, "time_elapsed": 867615, "internal_node_id": "0.0-6.0-1.0-9.0"}}, {"uniqueid": "w88356372:a49711271", "current_trial": 19, "dateTime": 1693661697483, "trialdata": {"revealed_states": [], "clicked_states": ["31", "32", "33", "29"], "num_clicks_accrued": [0, 0, 0, 0, 0, 0, 0, 0, 0, 0, 0, 0, 0], "stateRewards": ["", 1, 3, 1, -13, 52, -28, 67, -14, 3, 63, -70, -1, -4, 7, -11, -10, 47, -18, 6, 69, -9, -61, 2, 3, -6, 10, 63, -34, 40, -6, -79, -35, -32], "withholdReward": false, "trial_id": "mdp_trial_11", "block": "test", "trialIndex": 12, "score": 40.4, "costs": -8.6, "simulationMode": [null, null, null, null, null], "rewards": [2, 3, -6, 10, 40], "path": ["0", "0", "23", "24", "25", "26", "29"], "rt": [15473, 27, 127, 22, 38], "actions": ["left", "left", "left", "up", "left"], "actionTimes": [18119, 18665, 19343, 19909, 20477], "queries": {"click": {"state": {"target": ["31", "32", "33", "29"], "time": [3700, 7081, 10769, 14158]}, "edge": {"target": [], "time": []}}, "mouseover": {"state": {"target": ["0", "31", "31", "32", "33", "29", "27"], "time": [2672, 3153, 3372, 4470, 10321, 12589, 15502]}, "edge": {"target": [], "time": []}}, "mouseout": {"state": {"target": ["33", "30", "24", "23", "0", "31", "31", "32", "33", "29", "27", "28"], "time": [434, 927, 1483, 1517, 2735, 3181, 4453, 8635, 12237, 15268, 21133, 21184]}, "edge": {"target": [], "time": []}}}, "displayed_time": "21.02", "trialTime": 22504, "trial_type": "mouselab-mdp", "trial_index": 19, "time_elapsed": 890924, "internal_node_id": "0.0-6.0-1.0-10.0"}}, {"uniqueid": "w88356372:a49711271", "current_trial": 20, "dateTime": 1693661715541, "trialdata": {"revealed_states": [], "clicked_states": ["11"], "num_clicks_accrued": [0, 0, 0, 0, 0, 0, 0, 0, 0, 0, 0, 0, 0], "stateRewards": ["", 2, 4, 7, -6, -76, -81, 2, 5, -66, -3, 36, -2, -4, 6, -2, -69, 4, -49, -6, 67, 38, -67, 2, 1, 1, 6, -68, -21, 52, -16, -16, 6, -70], "withholdReward": false, "trial_id": "mdp_trial_12", "block": "test", "trialIndex": 13, "score": 51.85, "costs": -2.15, "simulationMode": [null, null, null, null, null], "rewards": [2, 4, 7, 5, 36], "path": ["0", "0", "1", "2", "3", "8", "11"], "rt": [5499, 136, 111, 111, 13], "actions": ["up", "up", "up", "left", "left"], "actionTimes": [7855, 8519, 9141, 9775, 10325], "queries": {"click": {"state": {"target": ["11"], "time": [3767]}, "edge": {"target": [], "time": []}}, "mouseover": {"state": {"target": ["0", "11", "10"], "time": [2658, 3210, 4529]}, "edge": {"target": [], "time": []}}, "mouseout": {"state": {"target": ["12", "0", "11"], "time": [1526, 2776, 4446]}, "edge": {"target": [], "time": []}}}, "displayed_time": "16.36", "trialTime": 17225, "trial_type": "mouselab-mdp", "trial_index": 20, "time_elapsed": 908983, "internal_node_id": "0.0-6.0-1.0-11.0"}}, {"uniqueid": "w88356372:a49711271", "current_trial": 21, "dateTime": 1693661737787, "trialdata": {"revealed_states": [], "clicked_states": ["5", "6", "7"], "num_clicks_accrued": [0, 0, 0, 0, 0, 0, 0, 0, 0, 0, 0, 0, 0], "stateRewards": ["", 2, 3, -2, -8, -8, -41, 74, 15, -23, -80, 1, 1, 3, 3, -15, -63, -78, 67, 13, 75, -41, 86, 2, -2, 6, -3, -8, -49, 50, -6, 83, 74, 80], "withholdReward": false, "trial_id": "mdp_trial_13", "block": "test", "trialIndex": 14, "score": 62.55, "costs": -6.449999999999999, "simulationMode": [null, null, null, null, null], "rewards": [2, 3, -2, -8, 74], "path": ["0", "0", "1", "2", "3", "4", "7"], "rt": [11597, 65, 160, 93, 171], "actions": ["up", "up", "up", "right", "down"], "actionTimes": [17017, 17605, 18283, 18900, 19577], "queries": {"click": {"state": {"target": ["5", "6", "7"], "time": [6549, 9914, 13298]}, "edge": {"target": [], "time": []}}, "mouseover": {"state": {"target": ["7", "6", "5", "6", "7", "2"], "time": [5879, 5907, 6203, 7423, 10806, 16251]}, "edge": {"target": [], "time": []}}, "mouseout": {"state": {"target": ["10", "2", "7", "6", "0", "7", "6", "5", "6", "7", "2", "1", "0"], "time": [552, 635, 1419, 4168, 4585, 5902, 5936, 7240, 10707, 16118, 20653, 20735, 20801]}, "edge": {"target": [], "time": []}}}, "displayed_time": "20.09", "trialTime": 21299, "trial_type": "mouselab-mdp", "trial_index": 21, "time_elapsed": 931229, "internal_node_id": "0.0-6.0-1.0-12.0"}}, {"uniqueid": "w88356372:a49711271", "current_trial": 22, "dateTime": 1693661776644, "trialdata": {"revealed_states": [], "clicked_states": ["10", "11", "9", "5", "6", "7", "18", "16"], "num_clicks_accrued": [0, 0, 0, 0, 0, 0, 0, 0, 0, 0, 0, 0, 0], "stateRewards": ["", -1, -2, -8, 8, -27, -82, 19, -14, -62, 4, 1, -2, 2, 6, 10, 73, -51, -2, 2, 73, -48, 54, -1, 2, -4, 11, -25, 47, 86, 15, 33, 43, -42], "withholdReward": false, "trial_id": "mdp_trial_14", "block": "test", "trialIndex": 15, "score": 71.8, "costs": -17.2, "simulationMode": [null, null, null, null, null], "rewards": [-2, 2, 6, 10, 73], "path": ["0", "0", "12", "13", "14", "15", "16"], "rt": [29175, 153, 75, 6, 167], "actions": ["right", "right", "right", "up", "up"], "actionTimes": [33467, 34147, 34734, 35264, 35959], "queries": {"click": {"state": {"target": ["10", "11", "9", "5", "6", "7", "18", "16"], "time": [5610, 9045, 12448, 15782, 19110, 22414, 25971, 29250]}, "edge": {"target": [], "time": []}}, "mouseover": {"state": {"target": ["10", "11", "9", "5", "6", "7", "18", "16", "17"], "time": [5175, 6627, 9744, 14094, 17125, 19792, 24277, 26710, 29908]}, "edge": {"target": [], "time": []}}, "mouseout": {"state": {"target": ["0", "1", "0", "0", "10", "11", "9", "5", "5", "6", "7", "18", "16"], "time": [707, 790, 1442, 4762, 6434, 9643, 13194, 15991, 16594, 19642, 23843, 26559, 29825]}, "edge": {"target": [], "time": []}}}, "displayed_time": "36.48", "trialTime": 37915, "trial_type": "mouselab-mdp", "trial_index": 22, "time_elapsed": 970086, "internal_node_id": "0.0-6.0-1.0-13.0"}}, {"uniqueid": "w88356372:a49711271", "current_trial": 23, "dateTime": 1693661797215, "trialdata": {"revealed_states": [], "clicked_states": ["21"], "num_clicks_accrued": [0, 0, 0, 0, 0, 0, 0, 0, 0, 0, 0, 0, 0], "stateRewards": ["", 2, -4, -8, -15, 71, -43, -41, 7, -17, 20, 67, -1, -1, -4, 6, 37, -24, -47, 9, 34, 57, 45, 1, 2, -4, -5, -23, 88, -5, 13, -40, 43, 44], "withholdReward": false, "trial_id": "mdp_trial_15", "block": "test", "trialIndex": 16, "score": 57.85, "costs": -2.15, "simulationMode": [null, null, null, null, null], "rewards": [-1, -1, -4, 9, 57], "path": ["0", "0", "12", "13", "14", "19", "21"], "rt": [4538, 110, 49, 123, 9], "actions": ["right", "right", "right", "down", "down"], "actionTimes": [8631, 9265, 9842, 10494, 11013], "queries": {"click": {"state": {"target": ["21"], "time": [5066]}, "edge": {"target": [], "time": []}}, "mouseover": {"state": {"target": ["22", "19", "21", "22"], "time": [4416, 4516, 4766, 5820]}, "edge": {"target": [], "time": []}}, "mouseout": {"state": {"target": ["17", "12", "0", "22", "19", "21"], "time": [183, 3149, 4251, 4466, 4683, 5263]}, "edge": {"target": [], "time": []}}}, "displayed_time": "18.10", "trialTime": 19516, "trial_type": "mouselab-mdp", "trial_index": 23, "time_elapsed": 990657, "internal_node_id": "0.0-6.0-1.0-14.0"}}, {"uniqueid": "w88356372:a49711271", "current_trial": 24, "dateTime": 1693661815245, "trialdata": {"revealed_states": [], "clicked_states": ["31"], "num_clicks_accrued": [0, 0, 0, 0, 0, 0, 0, 0, 0, 0, 0, 0, 0], "stateRewards": ["", 1, 1, -5, 10, -31, 73, 14, -8, -23, 63, -70, -1, 2, 8, 7, 25, -59, 27, -10, -40, -71, -15, -2, 3, -8, -5, -19, 77, -34, 7, 67, 63, 19], "withholdReward": false, "trial_id": "mdp_trial_16", "block": "test", "trialIndex": 17, "score": 64.85, "costs": -2.15, "simulationMode": [null, null, null, null, null], "rewards": [-2, 3, -8, 7, 67], "path": ["0", "0", "23", "24", "25", "30", "31"], "rt": [4968, 50, 94, 111, 71], "actions": ["left", "left", "left", "down", "right"], "actionTimes": [7007, 7571, 8195, 8812, 9400], "queries": {"click": {"state": {"target": ["31"], "time": [3339]}, "edge": {"target": [], "time": []}}, "mouseover": {"state": {"target": ["31", "31", "32"], "time": [2405, 3013, 3810]}, "edge": {"target": [], "time": []}}, "mouseout": {"state": {"target": ["12", "0", "31", "31", "32"], "time": [445, 2065, 2430, 3723, 10514]}, "edge": {"target": [], "time": []}}}, "displayed_time": "16.04", "trialTime": 16915, "trial_type": "mouselab-mdp", "trial_index": 24, "time_elapsed": 1008688, "internal_node_id": "0.0-6.0-1.0-15.0"}}, {"uniqueid": "w88356372:a49711271", "current_trial": 25, "dateTime": 1693661833027, "trialdata": {"revealed_states": [], "clicked_states": ["31", "32"], "num_clicks_accrued": [0, 0, 0, 0, 0, 0, 0, 0, 0, 0, 0, 0, 0], "stateRewards": ["", 2, -3, -8, 14, -7, -51, 73, 2, 36, 36, -43, -1, 3, -4, 1, 6, 87, -65, 15, 61, -42, -83, -1, 3, -2, -7, 30, -48, 35, 13, 26, 60, 78], "withholdReward": false, "trial_id": "mdp_trial_17", "block": "test", "trialIndex": 18, "score": 68.7, "costs": -4.3, "simulationMode": [null, null, null, null, null], "rewards": [-1, 3, -2, 13, 60], "path": ["0", "0", "23", "24", "25", "30", "32"], "rt": [9003, 79, 31, 103, 114], "actions": ["left", "left", "left", "down", "down"], "actionTimes": [10733, 11327, 11878, 12522, 13164], "queries": {"click": {"state": {"target": ["31", "32"], "time": [2805, 7195]}, "edge": {"target": [], "time": []}}, "mouseover": {"state": {"target": ["31", "32", "33"], "time": [2411, 3402, 7954]}, "edge": {"target": [], "time": []}}, "mouseout": {"state": {"target": ["23", "0", "31", "31", "32"], "time": [677, 2029, 2999, 3314, 7767]}, "edge": {"target": [], "time": []}}}, "displayed_time": "15.73", "trialTime": 16598, "trial_type": "mouselab-mdp", "trial_index": 25, "time_elapsed": 1026470, "internal_node_id": "0.0-6.0-1.0-16.0"}}, {"uniqueid": "w88356372:a49711271", "current_trial": 26, "dateTime": 1693661851981, "trialdata": {"revealed_states": [], "clicked_states": ["31"], "num_clicks_accrued": [0, 0, 0, 0, 0, 0, 0, 0, 0, 0, 0, 0, 0], "stateRewards": ["", -1, -1, 7, -15, -43, -21, -84, -9, -45, -66, 2, 1, -2, 2, 8, -27, 44, -52, -5, -84, 11, 53, 1, 4, -4, 16, 83, -82, -15, -16, 68, -43, 81], "withholdReward": false, "trial_id": "mdp_trial_18", "block": "test", "trialIndex": 19, "score": 50.85, "costs": -2.15, "simulationMode": [null, null, null, null, null], "rewards": [1, 4, -4, -16, 68], "path": ["0", "0", "23", "24", "25", "30", "31"], "rt": [4534, 4, 27, 89, 42], "actions": ["left", "left", "left", "down", "right"], "actionTimes": [7174, 7685, 8240, 8853, 9439], "queries": {"click": {"state": {"target": ["31"], "time": [3591]}, "edge": {"target": [], "time": []}}, "mouseover": {"state": {"target": ["0", "31", "32"], "time": [3021, 3160, 4280]}, "edge": {"target": [], "time": []}}, "mouseout": {"state": {"target": ["33", "26", "28", "0", "0", "0", "31", "31", "32"], "time": [492, 592, 1430, 1592, 1775, 3043, 3791, 4063, 10509]}, "edge": {"target": [], "time": []}}}, "displayed_time": "16.64", "trialTime": 17814, "trial_type": "mouselab-mdp", "trial_index": 26, "time_elapsed": 1045423, "internal_node_id": "0.0-6.0-1.0-17.0"}}, {"uniqueid": "w88356372:a49711271", "current_trial": 27, "dateTime": 1693661871158, "trialdata": {"revealed_states": [], "clicked_states": ["31"], "num_clicks_accrued": [0, 0, 0, 0, 0, 0, 0, 0, 0, 0, 0, 0, 0], "stateRewards": ["", -2, -1, -4, -15, -14, -67, 32, -3, -59, 63, 31, 2, -1, -7, -15, 71, -66, -27, -3, -54, -39, 72, 2, 1, 1, -13, 77, -40, 35, -9, 35, 75, 57], "withholdReward": false, "trial_id": "mdp_trial_19", "block": "test", "trialIndex": 20, "score": 27.85, "costs": -2.15, "simulationMode": [null, null, null, null, null], "rewards": [2, 1, 1, -9, 35], "path": ["0", "0", "23", "24", "25", "30", "31"], "rt": [5501, 158, 85, 17, 31], "actions": ["left", "left", "left", "down", "right"], "actionTimes": [8832, 9507, 10104, 10665, 11213], "queries": {"click": {"state": {"target": ["31"], "time": [4813]}, "edge": {"target": [], "time": []}}, "mouseover": {"state": {"target": ["23", "31", "32", "32"], "time": [3978, 4445, 5386, 5813]}, "edge": {"target": [], "time": []}}, "mouseout": {"state": {"target": ["31", "0", "23", "31", "31", "32", "32", "31"], "time": [2110, 2210, 4163, 5004, 5348, 5447, 17293, 17426]}, "edge": {"target": [], "time": []}}}, "displayed_time": "17.33", "trialTime": 18150, "trial_type": "mouselab-mdp", "trial_index": 27, "time_elapsed": 1064601, "internal_node_id": "0.0-6.0-1.0-18.0"}}, {"uniqueid": "w88356372:a49711271", "current_trial": 28, "dateTime": 1693661889024, "trialdata": {"revealed_states": [], "clicked_states": ["31"], "num_clicks_accrued": [0, 0, 0, 0, 0, 0, 0, 0, 0, 0, 0, 0, 0], "stateRewards": ["", 1, -2, -2, 10, -31, -77, 35, 9, -47, 8, 48, -2, 1, -4, -3, -26, -50, 43, -11, 76, -38, 17, 1, -1, 6, 10, 15, -9, 12, -8, 85, 11, -55], "withholdReward": false, "trial_id": "mdp_trial_20", "block": "test", "trialIndex": 21, "score": 80.85, "costs": -2.15, "simulationMode": [null, null, null, null, null], "rewards": [1, -1, 6, -8, 85], "path": ["0", "0", "23", "24", "25", "30", "31"], "rt": [4883, 6, 177, 48, 43], "actions": ["left", "left", "left", "down", "right"], "actionTimes": [6479, 7008, 7772, 8331, 8909], "queries": {"click": {"state": {"target": ["31"], "time": [2698]}, "edge": {"target": [], "time": []}}, "mouseover": {"state": {"target": ["0", "31", "32"], "time": [2000, 2413, 3429]}, "edge": {"target": [], "time": []}}, "mouseout": {"state": {"target": ["0", "0", "31"], "time": [767, 2029, 3381]}, "edge": {"target": [], "time": []}}}, "displayed_time": "15.60", "trialTime": 16532, "trial_type": "mouselab-mdp", "trial_index": 28, "time_elapsed": 1082466, "internal_node_id": "0.0-6.0-1.0-19.0"}}, {"uniqueid": "w88356372:a49711271", "current_trial": 29, "dateTime": 1693661906594, "trialdata": {"revealed_states": [], "clicked_states": ["31"], "num_clicks_accrued": [0, 0, 0, 0, 0, 0, 0, 0, 0, 0, 0, 0, 0], "stateRewards": ["", -2, 2, 5, -14, -56, 64, 84, -5, 52, 39, 85, -2, 1, 7, 8, 21, 29, -78, -9, -10, -69, 10, -2, -1, -7, 15, 72, 20, 41, -2, 52, 80, 22], "withholdReward": false, "trial_id": "mdp_trial_21", "block": "test", "trialIndex": 22, "score": 37.85, "costs": -2.15, "simulationMode": [null, null, null, null, null], "rewards": [-2, -1, -7, -2, 52], "path": ["0", "0", "23", "24", "25", "30", "31"], "rt": [4575, 118, 145, 17, 660], "actions": ["left", "left", "left", "down", "right"], "actionTimes": [6359, 6999, 7661, 8226, 9393], "queries": {"click": {"state": {"target": ["31"], "time": [2709]}, "edge": {"target": [], "time": []}}, "mouseover": {"state": {"target": ["0", "31", "31", "32"], "time": [1985, 2200, 2409, 3465]}, "edge": {"target": [], "time": []}}, "mouseout": {"state": {"target": ["30", "31", "23", "0", "31", "31"], "time": [241, 608, 792, 2001, 2257, 3428]}, "edge": {"target": [], "time": []}}}, "displayed_time": "15.79", "trialTime": 16401, "trial_type": "mouselab-mdp", "trial_index": 29, "time_elapsed": 1100036, "internal_node_id": "0.0-6.0-1.0-20.0"}}, {"uniqueid": "w88356372:a49711271", "current_trial": 30, "dateTime": 1693661925675, "trialdata": {"revealed_states": [], "clicked_states": ["31"], "num_clicks_accrued": [0, 0, 0, 0, 0, 0, 0, 0, 0, 0, 0, 0, 0], "stateRewards": ["", 2, 4, 7, 7, -79, -2, -21, -5, -53, 47, -21, 1, -3, -1, 7, 83, 7, 84, -7, 80, -37, 69, 2, -4, 5, 2, 4, -20, -30, 7, 71, 44, -81], "withholdReward": false, "trial_id": "mdp_trial_22", "block": "test", "trialIndex": 23, "score": 78.85, "costs": -2.15, "simulationMode": [null, null, null, null, null], "rewards": [2, -4, 5, 7, 71], "path": ["0", "0", "23", "24", "25", "30", "31"], "rt": [4616, 21, 13, 444, 206], "actions": ["left", "left", "left", "down", "right"], "actionTimes": [7783, 8302, 8844, 9811, 10523], "queries": {"click": {"state": {"target": ["31"], "time": [4259]}, "edge": {"target": [], "time": []}}, "mouseover": {"state": {"target": ["31", "32", "32"], "time": [3915, 4873, 5190]}, "edge": {"target": [], "time": []}}, "mouseout": {"state": {"target": ["32", "31", "23", "0", "31", "32", "32"], "time": [1538, 1776, 2226, 3744, 4812, 5164, 13144]}, "edge": {"target": [], "time": []}}}, "displayed_time": "17.17", "trialTime": 17836, "trial_type": "mouselab-mdp", "trial_index": 30, "time_elapsed": 1119117, "internal_node_id": "0.0-6.0-1.0-21.0"}}, {"uniqueid": "w88356372:a49711271", "current_trial": 31, "dateTime": 1693661962833, "trialdata": {"revealed_states": [], "clicked_states": ["31", "32", "33", "29", "27", "28", "10"], "num_clicks_accrued": [0, 0, 0, 0, 0, 0, 0, 0, 0, 0, 0, 0, 0], "stateRewards": ["", 2, 3, -1, 16, -78, -11, 46, 2, -20, 79, -67, 2, 3, 2, 11, -83, -42, -58, -11, -67, -22, 55, 2, -1, -1, -16, -83, -82, 23, -11, -29, 13, 13], "withholdReward": false, "trial_id": "mdp_trial_23", "block": "test", "trialIndex": 24, "score": 69.95, "costs": -15.05, "simulationMode": [null, null, null, null, null], "rewards": [2, 3, -1, 2, 79], "path": ["0", "0", "1", "2", "3", "8", "10"], "rt": [26855, 6, 190, 138, 548], "actions": ["up", "up", "up", "left", "down"], "actionTimes": [29966, 30520, 31222, 31886, 32946], "queries": {"click": {"state": {"target": ["31", "32", "33", "29", "27", "28", "10"], "time": [4091, 7425, 11482, 15160, 19346, 22634, 26110]}, "edge": {"target": [], "time": []}}, "mouseover": {"state": {"target": ["0", "23", "31", "32", "30", "33", "29", "27", "28", "10", "11"], "time": [3281, 3363, 3780, 4869, 9432, 11129, 12697, 16065, 20098, 25703, 28146]}, "edge": {"target": [], "time": []}}, "mouseout": {"state": {"target": ["31", "23", "0", "23", "31", "32", "30", "33", "29", "27", "27", "28", "10", "11"], "time": [2096, 2180, 3298, 3531, 4801, 8732, 10984, 12149, 15363, 19561, 20015, 24882, 27865, 29538]}, "edge": {"target": [], "time": []}}}, "displayed_time": "33.46", "trialTime": 35866, "trial_type": "mouselab-mdp", "trial_index": 31, "time_elapsed": 1156276, "internal_node_id": "0.0-6.0-1.0-22.0"}}, {"uniqueid": "w88356372:a49711271", "current_trial": 32, "dateTime": 1693661981950, "trialdata": {"revealed_states": [], "clicked_states": ["31", "32"], "num_clicks_accrued": [0, 0, 0, 0, 0, 0, 0, 0, 0, 0, 0, 0, 0], "stateRewards": ["", 2, -4, 1, -12, -59, -53, -74, 16, -88, -66, 66, 1, -2, 8, -9, -14, 22, 25, -1, -39, 47, -14, -1, -1, -2, 1, -4, 52, -26, 15, -7, 46, 43], "withholdReward": false, "trial_id": "mdp_trial_24", "block": "test", "trialIndex": 25, "score": 52.7, "costs": -4.3, "simulationMode": [null, null, null, null, null], "rewards": [-1, -1, -2, 15, 46], "path": ["0", "0", "23", "24", "25", "30", "32"], "rt": [8462, 24, 161, 70, 109], "actions": ["left", "left", "left", "down", "down"], "actionTimes": [10970, 11556, 12300, 13012, 13624], "queries": {"click": {"state": {"target": ["31", "32"], "time": [3850, 7192]}, "edge": {"target": [], "time": []}}, "mouseover": {"state": {"target": ["23", "31", "32", "33"], "time": [3143, 3509, 4671, 9733]}, "edge": {"target": [], "time": []}}, "mouseout": {"state": {"target": ["8", "1", "23", "31", "32"], "time": [1158, 1509, 3210, 4665, 9157]}, "edge": {"target": [], "time": []}}}, "displayed_time": "16.51", "trialTime": 18071, "trial_type": "mouselab-mdp", "trial_index": 32, "time_elapsed": 1175393, "internal_node_id": "0.0-6.0-1.0-23.0"}}, {"uniqueid": "w88356372:a49711271", "current_trial": 33, "dateTime": 1693662012401, "trialdata": {"revealed_states": [], "clicked_states": ["31", "32", "33", "29", "27"], "num_clicks_accrued": [0, 0, 0, 0, 0, 0, 0, 0, 0, 0, 0, 0, 0], "stateRewards": ["", -2, 1, 6, -2, -10, -78, -69, 14, -15, 7, -1, 1, -1, -2, 13, 77, 32, 87, 5, -74, 30, -26, 1, 3, 4, 12, 39, 54, -43, 2, 10, 23, 13], "withholdReward": false, "trial_id": "mdp_trial_25", "block": "test", "trialIndex": 26, "score": 48.25, "costs": -10.75, "simulationMode": [null, null, null, null, null], "rewards": [1, 3, 4, 12, 39], "path": ["0", "0", "23", "24", "25", "26", "27"], "rt": [19266, 10, 139, 84, 892], "actions": ["left", "left", "left", "up", "up"], "actionTimes": [22381, 22905, 23584, 24216, 25605], "queries": {"click": {"state": {"target": ["31", "32", "33", "29", "27"], "time": [4304, 8009, 11673, 15267, 18595]}, "edge": {"target": [], "time": []}}, "mouseover": {"state": {"target": ["31", "32", "33", "29", "27", "28"], "time": [3974, 5778, 8782, 14624, 16069, 19214]}, "edge": {"target": [], "time": []}}, "mouseout": {"state": {"target": ["0", "31", "32", "33", "29", "27", "27"], "time": [3226, 5370, 8579, 14474, 15946, 18788, 19127]}, "edge": {"target": [], "time": []}}}, "displayed_time": "26.13", "trialTime": 27522, "trial_type": "mouselab-mdp", "trial_index": 33, "time_elapsed": 1205843, "internal_node_id": "0.0-6.0-1.0-24.0"}}, {"uniqueid": "w88356372:a49711271", "current_trial": 34, "dateTime": 1693662031070, "trialdata": {"revealed_states": [], "clicked_states": ["31", "32"], "num_clicks_accrued": [0, 0, 0, 0, 0, 0, 0, 0, 0, 0, 0, 0, 0], "stateRewards": ["", -2, 1, -8, 12, -65, -79, 16, 7, -80, -17, -45, -2, 2, -5, -2, -85, 23, -4, -7, 48, 27, -76, 2, 3, 5, 2, 43, 71, -13, 7, -49, 59, -31], "withholdReward": false, "trial_id": "mdp_trial_26", "block": "test", "trialIndex": 27, "score": 71.7, "costs": -4.3, "simulationMode": [null, null, null, null, null], "rewards": [2, 3, 5, 7, 59], "path": ["0", "0", "23", "24", "25", "30", "32"], "rt": [8567, 6, 101, 20, 44], "actions": ["left", "left", "left", "down", "down"], "actionTimes": [11376, 11910, 12548, 13084, 13657], "queries": {"click": {"state": {"target": ["31", "32"], "time": [4146, 7596]}, "edge": {"target": [], "time": []}}, "mouseover": {"state": {"target": ["0", "31", "32", "33"], "time": [3491, 3828, 4936, 9924]}, "edge": {"target": [], "time": []}}, "mouseout": {"state": {"target": ["28", "1", "0", "31", "31", "32"], "time": [1633, 1743, 3511, 4329, 4881, 9684]}, "edge": {"target": [], "time": []}}}, "displayed_time": "16.83", "trialTime": 17649, "trial_type": "mouselab-mdp", "trial_index": 34, "time_elapsed": 1224514, "internal_node_id": "0.0-6.0-1.0-25.0"}}, {"uniqueid": "w88356372:a49711271", "current_trial": 35, "dateTime": 1693662051578, "trialdata": {"revealed_states": [], "clicked_states": ["31", "32", "33"], "num_clicks_accrued": [0, 0, 0, 0, 0, 0, 0, 0, 0, 0, 0, 0, 0], "stateRewards": ["", 2, 4, -3, 16, -58, 30, -35, 11, -60, 47, 27, -2, -1, -7, -16, 23, -70, 68, -10, -65, -43, -34, -2, 1, 7, 9, -63, 34, -31, -8, -12, -86, 59], "withholdReward": false, "trial_id": "mdp_trial_27", "block": "test", "trialIndex": 28, "score": 50.55, "costs": -6.449999999999999, "simulationMode": [null, null, null, null, null], "rewards": [-2, 1, 7, -8, 59], "path": ["0", "0", "23", "24", "25", "30", "33"], "rt": [10966, 142, 5, 55, 537], "actions": ["left", "left", "left", "down", "left"], "actionTimes": [15339, 16046, 16574, 17157, 18223], "queries": {"click": {"state": {"target": ["31", "32", "33"], "time": [5175, 8464, 11746]}, "edge": {"target": [], "time": []}}, "mouseover": {"state": {"target": ["31", "32", "33", "29"], "time": [4883, 5756, 9145, 12859]}, "edge": {"target": [], "time": []}}, "mouseout": {"state": {"target": ["33", "30", "32", "0", "31", "32", "33"], "time": [1897, 2266, 2898, 3463, 5685, 9019, 12368]}, "edge": {"target": [], "time": []}}}, "displayed_time": "18.73", "trialTime": 19529, "trial_type": "mouselab-mdp", "trial_index": 35, "time_elapsed": 1245020, "internal_node_id": "0.0-6.0-1.0-26.0"}}, {"uniqueid": "w88356372:a49711271", "current_trial": 36, "dateTime": 1693662081192, "trialdata": {"revealed_states": [], "clicked_states": ["31", "32", "33", "29", "27", "28"], "num_clicks_accrued": [0, 0, 0, 0, 0, 0, 0, 0, 0, 0, 0, 0, 0], "stateRewards": ["", -2, -1, 3, -3, 71, -58, -21, 7, -10, -75, -37, 2, 4, -1, -12, -79, -29, -48, 3, -41, -10, -30, -1, -2, 1, -15, 13, 66, 22, -1, -42, -86, -55], "withholdReward": false, "trial_id": "mdp_trial_28", "block": "test", "trialIndex": 29, "score": 36.1, "costs": -12.9, "simulationMode": [null, null, null, null, null], "rewards": [-1, -2, 1, -15, 66], "path": ["0", "0", "23", "24", "25", "26", "28"], "rt": [22561, 70, 105, 124, 67], "actions": ["left", "left", "left", "up", "right"], "actionTimes": [24647, 25231, 25859, 26483, 27043], "queries": {"click": {"state": {"target": ["31", "32", "33", "29", "27", "28"], "time": [3841, 7167, 10539, 13829, 17248, 20698]}, "edge": {"target": [], "time": []}}, "mouseover": {"state": {"target": ["0", "23", "24", "31", "31", "32", "33", "29", "27", "28", "10"], "time": [2729, 2775, 3191, 3257, 3457, 4331, 8029, 11674, 14431, 17918, 22613]}, "edge": {"target": [], "time": []}}, "mouseout": {"state": {"target": ["29", "28", "12", "0", "23", "24", "31", "31", "32", "33", "29", "27", "28", "10", "1"], "time": [917, 957, 1089, 2757, 2907, 3224, 3341, 4310, 7715, 11083, 14259, 17827, 21242, 28121, 28221]}, "edge": {"target": [], "time": []}}}, "displayed_time": "27.56", "trialTime": 28606, "trial_type": "mouselab-mdp", "trial_index": 36, "time_elapsed": 1274635, "internal_node_id": "0.0-6.0-1.0-27.0"}}, {"uniqueid": "w88356372:a49711271", "current_trial": 37, "dateTime": 1693662102750, "trialdata": {"revealed_states": [], "clicked_states": ["21"], "num_clicks_accrued": [0, 0, 0, 0, 0, 0, 0, 0, 0, 0, 0, 0, 0], "stateRewards": ["", 1, 3, 3, -10, 52, 68, 59, 12, 7, 49, 21, -2, -3, -4, -2, -2, 63, 63, -4, 44, 43, -76, -2, -3, -6, 13, 48, 36, 12, -5, -36, -33, -11], "withholdReward": false, "trial_id": "mdp_trial_29", "block": "test", "trialIndex": 30, "score": 27.85, "costs": -2.15, "simulationMode": [null, null, null, null, null], "rewards": [-2, -3, -4, -4, 43], "path": ["0", "0", "12", "13", "14", "19", "21"], "rt": [4815, 166, 18, 162, 25], "actions": ["right", "right", "right", "down", "down"], "actionTimes": [9431, 10121, 10656, 11350, 11881], "queries": {"click": {"state": {"target": ["21"], "time": [5734]}, "edge": {"target": [], "time": []}}, "mouseover": {"state": {"target": ["21", "22"], "time": [5285, 8667]}, "edge": {"target": [], "time": []}}, "mouseout": {"state": {"target": ["0", "21"], "time": [4646, 5949]}, "edge": {"target": [], "time": []}}}, "displayed_time": "18.62", "trialTime": 20495, "trial_type": "mouselab-mdp", "trial_index": 37, "time_elapsed": 1296193, "internal_node_id": "0.0-6.0-1.0-28.0"}}, {"uniqueid": "w88356372:a49711271", "current_trial": 38, "dateTime": 1693662124146, "trialdata": {"revealed_states": [], "clicked_states": ["5", "6"], "num_clicks_accrued": [0, 0, 0, 0, 0, 0, 0, 0, 0, 0, 0, 0, 0], "stateRewards": ["", -2, -2, -7, -13, -10, 49, -68, -1, 84, 70, 88, 1, 4, 4, 12, -57, 25, 30, 8, -1, -77, 57, 2, 3, 2, 3, -18, -80, 23, -15, -41, 70, 11], "withholdReward": false, "trial_id": "mdp_trial_30", "block": "test", "trialIndex": 31, "score": 20.7, "costs": -4.3, "simulationMode": [null, null, null, null, null], "rewards": [-2, -2, -7, -13, 49], "path": ["0", "0", "1", "2", "3", "4", "6"], "rt": [8104, 113, 154, 79, 14], "actions": ["up", "up", "up", "right", "right"], "actionTimes": [12457, 13098, 13757, 14354, 14881], "queries": {"click": {"state": {"target": ["5", "6"], "time": [5431, 8738]}, "edge": {"target": [], "time": []}}, "mouseover": {"state": {"target": ["7", "4", "5", "6", "7"], "time": [4813, 4865, 5131, 6206, 9303]}, "edge": {"target": [], "time": []}}, "mouseout": {"state": {"target": ["22", "19", "21", "0", "7", "4", "5", "6", "6"], "time": [400, 2446, 3139, 4732, 4847, 5064, 6087, 8963, 9209]}, "edge": {"target": [], "time": []}}}, "displayed_time": "18.36", "trialTime": 19773, "trial_type": "mouselab-mdp", "trial_index": 38, "time_elapsed": 1317590, "internal_node_id": "0.0-6.0-1.0-29.0"}}, {"uniqueid": "w88356372:a49711271", "current_trial": 39, "dateTime": 1693662145340, "trialdata": {"revealed_states": [], "clicked_states": ["9", "11", "10"], "num_clicks_accrued": [0, 0, 0, 0, 0, 0, 0, 0, 0, 0, 0, 0, 0], "stateRewards": ["", 2, 3, 8, 11, 25, -80, 6, -4, -56, 84, -23, -2, -4, -3, 4, -51, -9, -61, -15, -64, 67, -35, 1, -1, -7, -6, 83, 59, -15, 12, -79, 56, 41], "withholdReward": false, "trial_id": "mdp_trial_31", "block": "test", "trialIndex": 32, "score": 86.55, "costs": -6.449999999999999, "simulationMode": [null, null, null, null, null], "rewards": [2, 3, 8, -4, 84], "path": ["0", "0", "1", "2", "3", "8", "10"], "rt": [12031, 7, 241, 38, 515], "actions": ["up", "up", "up", "left", "down"], "actionTimes": [15795, 16318, 17086, 17632, 18660], "queries": {"click": {"state": {"target": ["9", "11", "10"], "time": [5300, 8808, 12191]}, "edge": {"target": [], "time": []}}, "mouseover": {"state": {"target": ["1", "8", "9", "11", "10", "2", "7", "7"], "time": [4742, 4858, 4995, 6081, 9388, 12686, 12736, 13309]}, "edge": {"target": [], "time": []}}, "mouseout": {"state": {"target": ["7", "3", "0", "0", "1", "8", "9", "11", "10", "2", "7"], "time": [200, 1074, 1656, 4326, 4777, 4959, 5960, 9327, 12661, 12713, 12759]}, "edge": {"target": [], "time": []}}}, "displayed_time": "19.16", "trialTime": 20068, "trial_type": "mouselab-mdp", "trial_index": 39, "time_elapsed": 1338783, "internal_node_id": "0.0-6.0-1.0-30.0"}}, {"uniqueid": "w88356372:a49711271", "current_trial": 40, "dateTime": 1693662201209, "trialdata": {"revealed_states": [], "clicked_states": ["5", "6", "7", "18", "16", "17", "20", "21", "22", "31", "32", "33", "29"], "num_clicks_accrued": [0, 0, 0, 0, 0, 0, 0, 0, 0, 0, 0, 0, 0], "stateRewards": ["", -1, -3, -7, -7, -76, 30, -49, 11, -70, 56, 2, 1, 4, -3, -14, -59, -83, -25, -9, -21, -67, -73, -2, 4, 4, -9, -11, -32, 60, 9, -87, 22, -64], "withholdReward": false, "trial_id": "mdp_trial_32", "block": "test", "trialIndex": 33, "score": 29.050000000000008, "costs": -27.949999999999992, "simulationMode": [null, null, null, null, null], "rewards": [-2, 4, 4, -9, 60], "path": ["0", "0", "23", "24", "25", "26", "29"], "rt": [48421, 81, 164, 90, 50], "actions": ["left", "left", "left", "up", "left"], "actionTimes": [50505, 51094, 51777, 52389, 52962], "queries": {"click": {"state": {"target": ["5", "6", "7", "18", "16", "17", "20", "21", "22", "31", "32", "33", "29"], "time": [3192, 6510, 10147, 13601, 16901, 21181, 24650, 29204, 32532, 36491, 39856, 43398, 46873]}, "edge": {"target": [], "time": []}}, "mouseover": {"state": {"target": ["7", "4", "5", "6", "7", "18", "15", "16", "17", "20", "21", "22", "31", "32", "30", "33", "29", "27", "27"], "time": [2497, 2549, 2813, 4192, 7076, 12034, 14526, 15447, 17478, 22027, 28827, 32011, 36126, 37542, 41976, 42343, 46275, 48995, 49496]}, "edge": {"target": [], "time": []}}, "mouseout": {"state": {"target": ["7", "12", "7", "4", "5", "6", "7", "18", "15", "16", "17", "20", "21", "22", "31", "32", "30", "33", "29", "27"], "time": [609, 962, 2530, 2747, 4043, 7019, 11036, 14425, 14603, 17416, 21949, 28728, 31651, 33368, 37448, 41863, 42017, 43609, 47070, 49072]}, "edge": {"target": [], "time": []}}}, "displayed_time": "53.50", "trialTime": 54256, "trial_type": "mouselab-mdp", "trial_index": 40, "time_elapsed": 1394651, "internal_node_id": "0.0-6.0-1.0-31.0"}}, {"uniqueid": "w88356372:a49711271", "current_trial": 41, "dateTime": 1693662226624, "trialdata": {"revealed_states": [], "clicked_states": ["31", "32", "33"], "num_clicks_accrued": [0, 0, 0, 0, 0, 0, 0, 0, 0, 0, 0, 0, 0], "stateRewards": ["", -1, 1, 3, -8, -23, -15, -14, -11, -23, 58, 68, 1, 3, 5, 12, -17, -41, -7, -10, -4, 82, 10, 1, 4, -4, 11, 73, 55, -55, -1, -86, -86, 54], "withholdReward": false, "trial_id": "mdp_trial_33", "block": "test", "trialIndex": 34, "score": 47.55, "costs": -6.449999999999999, "simulationMode": [null, null, null, null, null], "rewards": [1, 4, -4, -1, 54], "path": ["0", "0", "23", "24", "25", "30", "33"], "rt": [11423, 33, 69, 37, 531], "actions": ["left", "left", "left", "down", "left"], "actionTimes": [20431, 20967, 21551, 22092, 23199], "queries": {"click": {"state": {"target": ["31", "32", "33"], "time": [10224, 13517, 16847]}, "edge": {"target": [], "time": []}}, "mouseover": {"state": {"target": ["0", "31", "32", "33", "29"], "time": [9611, 9711, 11005, 14382, 17667]}, "edge": {"target": [], "time": []}}, "mouseout": {"state": {"target": ["27", "23", "0", "0", "0", "31", "32", "33", "29", "25"], "time": [6727, 7403, 7459, 7992, 9630, 10948, 14169, 17061, 24167, 24225]}, "edge": {"target": [], "time": []}}}, "displayed_time": "23.70", "trialTime": 24324, "trial_type": "mouselab-mdp", "trial_index": 41, "time_elapsed": 1420066, "internal_node_id": "0.0-6.0-1.0-32.0"}}, {"uniqueid": "w88356372:a49711271", "current_trial": 42, "dateTime": 1693662252825, "trialdata": {"revealed_states": [], "clicked_states": ["28", "27", "29", "33", "32"], "num_clicks_accrued": [0, 0, 0, 0, 0, 0, 0, 0, 0, 0, 0, 0, 0], "stateRewards": ["", -1, 4, -3, 3, 57, -61, 5, -11, 23, -1, 34, -2, -4, -1, -13, 27, 38, -36, 4, -45, 21, 88, 1, -2, -1, 1, -69, -5, -78, -12, -9, 38, -54], "withholdReward": false, "trial_id": "mdp_trial_34", "block": "test", "trialIndex": 35, "score": 13.25, "costs": -10.75, "simulationMode": [null, null, null, null, null], "rewards": [1, -2, -1, -12, 38], "path": ["0", "0", "23", "24", "25", "30", "32"], "rt": [19333, 169, 12, 68, 44], "actions": ["left", "left", "left", "down", "down"], "actionTimes": [21070, 21757, 22274, 22872, 23463], "queries": {"click": {"state": {"target": ["28", "27", "29", "33", "32"], "time": [3006, 6338, 9668, 13074, 16470]}, "edge": {"target": [], "time": []}}, "mouseover": {"state": {"target": ["24", "28", "27", "29", "33", "33", "32", "31"], "time": [2335, 2518, 4177, 6880, 10444, 12483, 14967, 19247]}, "edge": {"target": [], "time": []}}, "mouseout": {"state": {"target": ["24", "23", "24", "28", "27", "29", "33", "33", "32", "31"], "time": [484, 616, 2401, 3890, 6783, 10226, 12118, 14796, 18180, 24198]}, "edge": {"target": [], "time": []}}}, "displayed_time": "24.00", "trialTime": 24804, "trial_type": "mouselab-mdp", "trial_index": 42, "time_elapsed": 1446268, "internal_node_id": "0.0-6.0-1.0-33.0"}}, {"uniqueid": "w88356372:a49711271", "current_trial": 43, "dateTime": 1693662283951, "trialdata": {"revealed_states": [], "clicked_states": ["31", "32"], "num_clicks_accrued": [0, 0, 0, 0, 0, 0, 0, 0, 0, 0, 0, 0, 0], "stateRewards": ["", -1, 3, -5, -2, -13, -9, -34, -7, -81, 32, 35, -2, -2, 1, -14, -32, 81, 7, 4, 82, 56, -8, -1, 3, -8, 6, -24, -24, -53, 2, 38, 61, 54], "withholdReward": false, "trial_id": "mdp_trial_35", "block": "test", "trialIndex": 36, "score": 52.7, "costs": -4.3, "simulationMode": [null, null, null, null, null], "rewards": [-1, 3, -8, 2, 61], "path": ["0", "0", "23", "24", "25", "30", "32"], "rt": [9064, 74, 167, 150, 20], "actions": ["left", "left", "left", "down", "down"], "actionTimes": [23724, 24328, 25026, 25686, 26239], "queries": {"click": {"state": {"target": ["31", "32"], "time": [16221, 19855]}, "edge": {"target": [], "time": []}}, "mouseover": {"state": {"target": ["31", "32", "30"], "time": [15882, 18140, 23048]}, "edge": {"target": [], "time": []}}, "mouseout": {"state": {"target": ["32", "31", "23", "1", "0", "31", "32", "30"], "time": [683, 1199, 1249, 1300, 15516, 18028, 22898, 23081]}, "edge": {"target": [], "time": []}}}, "displayed_time": "28.66", "trialTime": 29397, "trial_type": "mouselab-mdp", "trial_index": 43, "time_elapsed": 1477393, "internal_node_id": "0.0-6.0-1.0-34.0"}}, {"uniqueid": "w88356372:a49711271", "current_trial": 44, "dateTime": 1693662392967, "trialdata": {"revealed_states": [], "clicked_states": ["29", "27", "28", "10", "11", "9", "5"], "num_clicks_accrued": [0, 0, 0, 0, 0, 0, 0, 0, 0, 0, 0, 0, 0], "stateRewards": ["", -2, -3, 1, -14, 48, -49, 67, -1, -35, -48, 3, -2, 1, -4, -5, 86, -84, 39, 1, 48, 41, -42, -1, -4, 2, -7, 18, -86, 17, 7, -9, 57, -69], "withholdReward": false, "trial_id": "mdp_trial_36", "block": "test", "trialIndex": 37, "score": 14.950000000000003, "costs": -15.05, "simulationMode": [null, null, null, null, null], "rewards": [-2, -3, 1, -14, 48], "path": ["0", "0", "1", "2", "3", "4", "5"], "rt": [27248, 42, 178, 8, 1104], "actions": ["up", "up", "up", "right", "up"], "actionTimes": [29521, 30054, 30757, 31270, 32899], "queries": {"click": {"state": {"target": ["29", "27", "28", "10", "11", "9", "5"], "time": [4308, 7789, 11296, 14805, 18631, 22043, 25757]}, "edge": {"target": [], "time": []}}, "mouseover": {"state": {"target": ["23", "26", "29", "27", "28", "10", "11", "9", "5", "6"], "time": [3294, 3526, 3876, 6612, 9911, 14030, 18154, 19377, 25391, 28312]}, "edge": {"target": [], "time": []}}, "mouseout": {"state": {"target": ["0", "23", "26", "29", "27", "27", "28", "10", "11", "9", "5"], "time": [3147, 3343, 3710, 6285, 8008, 9485, 13462, 17249, 19280, 25092, 27996]}, "edge": {"target": [], "time": []}}}, "displayed_time": "33.40", "trialTime": 107475, "trial_type": "mouselab-mdp", "trial_index": 44, "time_elapsed": 1586409, "internal_node_id": "0.0-6.0-1.0-35.0"}}, {"uniqueid": "w88356372:a49711271", "current_trial": 45, "dateTime": 1693662499235, "trialdata": {"revealed_states": [], "clicked_states": ["29"], "num_clicks_accrued": [0, 0, 0, 0, 0, 0, 0, 0, 0, 0, 0, 0, 0], "stateRewards": ["", -2, 2, 2, -6, 9, 37, 50, -13, -7, -18, -75, -2, -4, 4, 7, 23, -57, -66, -7, -81, -48, -76, 1, 1, -8, 1, 51, -2, 70, 14, 59, 71, -37], "withholdReward": false, "trial_id": "mdp_trial_37", "block": "test", "trialIndex": 38, "score": 62.85, "costs": -2.15, "simulationMode": [null, null, null, null, null], "rewards": [1, 1, -8, 1, 70], "path": ["0", "0", "23", "24", "25", "26", "29"], "rt": [5765, 23, 49, 597, 27], "actions": ["left", "left", "left", "up", "left"], "actionTimes": [49887, 50407, 50983, 52113, 52660], "queries": {"click": {"state": {"target": ["29"], "time": [46289]}, "edge": {"target": [], "time": []}}, "mouseover": {"state": {"target": ["23", "24", "25", "28", "29", "27"], "time": [45330, 45383, 45479, 45646, 45962, 47116]}, "edge": {"target": [], "time": []}}, "mouseout": {"state": {"target": ["6", "2", "1", "23", "24", "25", "28", "29", "27", "26", "31"], "time": [4050, 4217, 4367, 45363, 45429, 45512, 45762, 46966, 53578, 53629, 53745]}, "edge": {"target": [], "time": []}}}, "displayed_time": "58.12", "trialTime": 104814, "trial_type": "mouselab-mdp", "trial_index": 45, "time_elapsed": 1692677, "internal_node_id": "0.0-6.0-1.0-36.0"}}, {"uniqueid": "w88356372:a49711271", "current_trial": 46, "dateTime": 1693662518199, "trialdata": {"revealed_states": [], "clicked_states": ["31", "32", "33"], "num_clicks_accrued": [0, 0, 0, 0, 0, 0, 0, 0, 0, 0, 0, 0, 0], "stateRewards": ["", -2, -1, -1, 5, -54, -87, 35, 2, -8, 20, -22, 1, 3, 6, 13, -75, -32, -55, -3, 56, 62, -22, -1, -4, -1, -7, -51, 84, 70, 7, -15, 5, 55], "withholdReward": false, "trial_id": "mdp_trial_38", "block": "test", "trialIndex": 39, "score": 49.55, "costs": -6.449999999999999, "simulationMode": [null, null, null, null, null], "rewards": [-1, -4, -1, 7, 55], "path": ["0", "0", "23", "24", "25", "30", "33"], "rt": [11388, 140, 133, 51, 32], "actions": ["left", "left", "left", "down", "left"], "actionTimes": [13785, 14433, 15076, 15627, 16179], "queries": {"click": {"state": {"target": ["31", "32", "33"], "time": [3292, 6685, 10100]}, "edge": {"target": [], "time": []}}, "mouseover": {"state": {"target": ["31", "32", "33", "29"], "time": [2771, 3953, 7358, 10746]}, "edge": {"target": [], "time": []}}, "mouseout": {"state": {"target": ["30", "31", "0", "31", "31", "32", "33"], "time": [959, 1087, 2424, 3491, 3830, 7279, 10608]}, "edge": {"target": [], "time": []}}}, "displayed_time": "16.69", "trialTime": 17464, "trial_type": "mouselab-mdp", "trial_index": 46, "time_elapsed": 1711641, "internal_node_id": "0.0-6.0-1.0-37.0"}}, {"uniqueid": "w88356372:a49711271", "current_trial": 47, "dateTime": 1693662606950, "trialdata": {"revealed_states": [], "clicked_states": ["31", "32"], "num_clicks_accrued": [0, 0, 0, 0, 0, 0, 0, 0, 0, 0, 0, 0, 0], "stateRewards": ["", -2, -3, 7, -13, 60, 9, 37, -6, 37, 20, 1, 2, -2, -8, 6, -80, -31, -10, -7, 70, -65, -44, -1, 1, 7, 6, -11, 73, -85, 16, -21, 47, 34], "withholdReward": false, "trial_id": "mdp_trial_39", "block": "test", "trialIndex": 40, "score": 65.7, "costs": -4.3, "simulationMode": [null, null, null, null, null], "rewards": [-1, 1, 7, 16, 47], "path": ["0", "0", "23", "24", "25", "30", "32"], "rt": [8741, 91, 90, 163, 137], "actions": ["left", "left", "left", "down", "down"], "actionTimes": [21244, 21849, 22483, 23147, 23804], "queries": {"click": {"state": {"target": ["31", "32"], "time": [14161, 17520]}, "edge": {"target": [], "time": []}}, "mouseover": {"state": {"target": ["31", "32", "32", "33"], "time": [13830, 15012, 16176, 19570]}, "edge": {"target": [], "time": []}}, "mouseout": {"state": {"target": ["29", "26", "0", "31", "32", "32"], "time": [5459, 5533, 13519, 14967, 15265, 18141]}, "edge": {"target": [], "time": []}}}, "displayed_time": "26.50", "trialTime": 87447, "trial_type": "mouselab-mdp", "trial_index": 47, "time_elapsed": 1800393, "internal_node_id": "0.0-6.0-1.0-38.0"}}, {"uniqueid": "w88356372:a49711271", "current_trial": 48, "dateTime": 1693662680730, "trialdata": {"revealed_states": [], "clicked_states": ["31", "32"], "num_clicks_accrued": [0, 0, 0, 0, 0, 0, 0, 0, 0, 0, 0, 0, 0], "stateRewards": ["", 1, -1, -7, -7, -22, 15, -13, 13, 26, -32, 38, -1, 1, -7, -4, 16, -62, 86, 12, -54, 56, 64, -2, -1, 6, 14, -57, 37, 62, -6, -25, 50, -70], "withholdReward": false, "trial_id": "mdp_trial_40", "block": "test", "trialIndex": 41, "score": 42.7, "costs": -4.3, "simulationMode": [null, null, null, null, null], "rewards": [-2, -1, 6, -6, 50], "path": ["0", "0", "23", "24", "25", "30", "32"], "rt": [8783, 21, 167, 28, 182], "actions": ["left", "left", "left", "down", "down"], "actionTimes": [10835, 11373, 12071, 12597, 13300], "queries": {"click": {"state": {"target": ["31", "32"], "time": [3035, 6643]}, "edge": {"target": [], "time": []}}, "mouseover": {"state": {"target": ["0", "31", "32", "33"], "time": [2247, 2748, 3618, 7234]}, "edge": {"target": [], "time": []}}, "mouseout": {"state": {"target": ["26", "28", "23", "0", "0", "31", "31", "32", "33", "32"], "time": [147, 713, 797, 1063, 2281, 3247, 3537, 7109, 72122, 72205]}, "edge": {"target": [], "time": []}}}, "displayed_time": "16.05", "trialTime": 72368, "trial_type": "mouselab-mdp", "trial_index": 48, "time_elapsed": 1874172, "internal_node_id": "0.0-6.0-1.0-39.0"}}, {"uniqueid": "w88356372:a49711271", "current_trial": 49, "dateTime": 1693662713186, "trialdata": {"rt": 32379, "response": {"Q0": "$-2 to $2", "Q1": "$-16 to $16", "Q2": "$-88 to $88", "Q3": "The cost for clicking on nodes varied between nodes.", "Q4": "Very motivated"}, "question_order": [0, 1, 2, 3, 4], "trial_id": "final_quiz_control", "trial_type": "survey-multi-choice", "trial_index": 49, "time_elapsed": 1906629, "internal_node_id": "0.0-6.0-2.0"}}, {"uniqueid": "w88356372:a49711271", "current_trial": 50, "dateTime": 1693662800297, "trialdata": {"rt": 87042, "response": {"Q0": "the most important node was the last one so just clicked on them until i found a good one and then went to it", "Q1": "once i discovered what i did above i stuck with that which took about 5 turns", "Q2": "not difficult as i stuck with the same stratergy after 5 goes"}, "trial_id": "self_report_control", "trial_type": "survey-text", "trial_index": 50, "time_elapsed": 1993741, "internal_node_id": "0.0-6.0-3.0"}}, {"uniqueid": "w88356372:a49711271", "current_trial": 51, "dateTime": 1693662833873, "trialdata": {"rt": 33543, "response": {"Q0": "Strongly disagree", "Q1": "Strongly disagree", "Q2": "Strongly disagree", "Q3": "Strongly disagree", "Q4": "Strongly disagree", "Q5": "Strongly disagree", "Q6": "Strongly disagree"}, "question_order": [0, 1, 2, 3, 4, 5, 6], "trial_id": "self_report_2", "trial_type": "survey-multi-choice", "trial_index": 51, "time_elapsed": 2027317, "internal_node_id": "0.0-6.0-4.0"}}, {"uniqueid": "w88356372:a49711271", "current_trial": 52, "dateTime": 1693662852006, "trialdata": {"rt": 18118, "response": {"gender": "male", "age": "33", "colorblind": "0", "effort": "0"}, "trial_type": "survey-html-form", "trial_index": 52, "time_elapsed": 2045450, "internal_node_id": "0.0-6.0-5.0"}}, {"uniqueid": "w88356372:a49711271", "current_trial": 53, "dateTime": 1693662865453, "trialdata": {"rt": 13416, "response": {"Q0": "no", "Q1": "no", "Q2": "none"}, "trial_type": "survey-text", "trial_index": 53, "time_elapsed": 2058897, "internal_node_id": "0.0-6.0-6.0"}}, {"uniqueid": "w88356372:a49711271", "current_trial": 54, "dateTime": 1693662930937, "trialdata": {"rt": 65462, "stimulus": "<h1>Completion Code Instructions (1/2)</h1>\n<br><br><br><br>\nYou have reached the end of the experiment! The completion code consists of two parts: (1) a code with 2 characters (2) a code with 6 characters. On this page, you will receive the second part of the code. The first part of the completion code will be on the next page.\n<br><br>\nThe second part of your completion code is: <b>EWEK22</b>\n<br><br>\nPlease note this down. Then, press 'Next' in order to find the first part of your completion code. Once the data has been saved, you will receive this code either in this window or in the original browser window where you started the experiment.\n <br><br>\n<h2 style='color: red;'>Note: this is <strong>NOT</strong> the full completion code. Copy this down and click 'Next' to get the full completion code on the next page.</h2>", "response": 0, "trial_type": "html-button-response", "trial_index": 54, "time_elapsed": 2124381, "internal_node_id": "0.0-6.0-7.0"}}, {"uniqueid": "w88356372:a49711271", "current_trial": 55, "dateTime": 1693662931964, "trialdata": {"success": true, "trial_type": "fullscreen", "trial_index": 55, "time_elapsed": 2125408, "internal_node_id": "0.0-7.0"}}], "questiondata": {"params": {"CODE": "C6DMOQA6", "MIN_TIME": 14, "inspectCost": 1, "startTime": "Sat Sep 02 2023 14:20:05 GMT+0100 (British Summer Time)", "bonusRate": 0.002, "variance": "1_2_4_8_44", "branching": "31123"}, "final_score": 1742.2}, "eventdata": [{"eventtype": "initialized", "value": null, "timestamp": 1693660805186, "interval": 0}, {"eventtype": "window_resize", "value": [1028, 744], "timestamp": 1693660805186, "interval": 0}, {"eventtype": "window_resize", "value": [1028, 744], "timestamp": 1693660805534, "interval": 348}, {"eventtype": "window_resize", "value": [1536, 864], "timestamp": 1693660814830, "interval": 9296}, {"eventtype": "window_resize", "value": [1028, 744], "timestamp": 1693662882497, "interval": 2067667}, {"eventtype": "focus", "value": "off", "timestamp": 1693662884722, "interval": 2225}, {"eventtype": "focus", "value": "on", "timestamp": 1693662906219, "interval": 21497}], "useragent": "Mozilla/5.0 (Windows NT 10.0; Win64; x64) AppleWebKit/537.36 (KHTML, like Gecko) Chrome/116.0.0.0 Safari/537.36", "mode": "live", "id": "w88356372:a49711271", "status": "user data saved", "Beginhit": "2023-09-02 13:20:04.036991", "Beginexp": "2023-09-02 13:20:16.624429", "Endhit": "2023-09-02 13:55:33.512421", "psiturkStatus": 3, "browser": "<redacted>", "platform": "windows", "language": "en-GB"}