{"condition": 1, "counterbalance": 0, "assignmentId": "a20039058", "workerId": "w29104725", "hitId": "h23863368", "currenttrial": 61, "bonus": 0, "data": [{"uniqueid": "w29104725:a20039058", "current_trial": 0, "dateTime": 1693841652666, "trialdata": {"success": true, "trial_type": "fullscreen", "trial_index": 0, "time_elapsed": 42881, "internal_node_id": "0.0-0.0"}}, {"uniqueid": "w29104725:a20039058", "current_trial": 1, "dateTime": 1693841706213, "trialdata": {"view_history": [{"page_index": 0, "viewing_time": 53543}], "rt": 53544, "trial_id": "exp_instructions_control", "trial_type": "instructions", "trial_index": 1, "time_elapsed": 96428, "internal_node_id": "0.0-1.0"}}, {"uniqueid": "w29104725:a20039058", "current_trial": 2, "dateTime": 1693841803205, "trialdata": {"view_history": [{"page_index": 0, "viewing_time": 30867}, {"page_index": 1, "viewing_time": 31609}, {"page_index": 2, "viewing_time": 15931}, {"page_index": 3, "viewing_time": 18579}], "rt": 96988, "trial_id": "mouselab_instructions_1_control", "trial_type": "instructions", "trial_index": 2, "time_elapsed": 193420, "internal_node_id": "0.0-2.0-1.0"}}, {"uniqueid": "w29104725:a20039058", "current_trial": 3, "dateTime": 1693841819650, "trialdata": {"revealed_states": [], "clicked_states": [], "num_clicks_accrued": [0, 0, 0, 0, 0, 0, 0, 0, 0, 0, 0, 0, 0], "stateRewards": ["", -10, 10, -10, 10, 10, -10, 10, -10, -10, -10, -10, 10, -10, -10, -10, -10, 10, -10, 10, 10, -10, 10, -10, 10, 10, -10, 10, -10, 10, -10, -10, -10, -10], "withholdReward": false, "trial_id": "practice_1", "block": "test", "trialIndex": 0, "score": -26.5, "costs": 0, "simulationMode": [null, null, null, null, null], "rewards": [10, -10, -10, -10, -10], "path": ["0", "0", "12", "13", "14", "15", "16"], "rt": [4337, 1537, 2044, 453, 253], "actions": ["right", "right", "right", "up", "up"], "actionTimes": [6060, 8095, 10637, 11583, 12331], "queries": {"click": {"state": {"target": [], "time": []}, "edge": {"target": [], "time": []}}, "mouseover": {"state": {"target": [], "time": []}, "edge": {"target": [], "time": []}}, "mouseout": {"state": {"target": ["0"], "time": [1971]}, "edge": {"target": [], "time": []}}}, "displayed_time": "12.83", "trialTime": 16047, "trial_type": "mouselab-mdp", "trial_index": 3, "time_elapsed": 209865, "internal_node_id": "0.0-2.0-2.0-0.0"}}, {"uniqueid": "w29104725:a20039058", "current_trial": 4, "dateTime": 1693841829024, "trialdata": {"revealed_states": [], "clicked_states": [], "num_clicks_accrued": [0, 0, 0, 0, 0, 0, 0, 0, 0, 0, 0, 0, 0], "stateRewards": ["", -10, -10, -10, -10, 10, -10, 10, -10, 10, -10, 10, -10, 10, -10, -10, -10, -10, -10, -10, 10, 10, -10, -10, 10, 10, -10, 10, 10, -10, 10, -10, 10, 10], "withholdReward": false, "trial_id": "practice_2", "block": "test", "trialIndex": 1, "score": 13.5, "costs": 0, "simulationMode": [null, null, null, null, null], "rewards": [-10, 10, 10, 10, -10], "path": ["0", "0", "23", "24", "25", "30", "31"], "rt": [2330, 167, 175, 96, 138], "actions": ["left", "left", "left", "down", "right"], "actionTimes": [4656, 5325, 6001, 6586, 7214], "queries": {"click": {"state": {"target": [], "time": []}, "edge": {"target": [], "time": []}}, "mouseover": {"state": {"target": [], "time": []}, "edge": {"target": [], "time": []}}, "mouseout": {"state": {"target": ["31", "0"], "time": [1823, 2622]}, "edge": {"target": [], "time": []}}}, "displayed_time": "7.71", "trialTime": 9308, "trial_type": "mouselab-mdp", "trial_index": 4, "time_elapsed": 219238, "internal_node_id": "0.0-2.0-2.0-1.0"}}, {"uniqueid": "w29104725:a20039058", "current_trial": 5, "dateTime": 1693841857916, "trialdata": {"view_history": [{"page_index": 0, "viewing_time": 26854}, {"page_index": 1, "viewing_time": 2035}], "rt": 28889, "trial_id": "mouselab_instructions_2_control", "trial_type": "instructions", "trial_index": 5, "time_elapsed": 248131, "internal_node_id": "0.0-2.0-3.0"}}, {"uniqueid": "w29104725:a20039058", "current_trial": 6, "dateTime": 1693841892062, "trialdata": {"rt": 34142, "response": {"Q0": "The cost for clicking on nodes may vary between nodes.", "Q1": "The better I perform the higher my bonus will be.", "Q2": "No, the amount of cash at each node of the web may be different each time.", "Q3": "To get the highest total score.", "Q4": "Only before moving the spider.", "Q5": "Unlimited time"}, "question_order": [0, 1, 2, 3, 4, 5], "correct": {"Q0": "The cost for clicking on nodes may vary between nodes.", "Q1": "The better I perform the higher my bonus will be.", "Q2": "No, the amount of cash at each node of the web may be different each time.", "Q3": "To get the highest total score.", "Q4": "Only before moving the spider.", "Q5": "3 seconds"}, "trial_id": "mouselab_quiz_control", "trial_type": "survey-multi-choice", "trial_index": 6, "time_elapsed": 282277, "internal_node_id": "0.0-2.0-4.0"}}, {"uniqueid": "w29104725:a20039058", "current_trial": 7, "dateTime": 1693841898068, "trialdata": {"success": true, "trial_type": "fullscreen", "trial_index": 7, "time_elapsed": 288283, "internal_node_id": "0.0-2.1-0.1-0.1"}}, {"uniqueid": "w29104725:a20039058", "current_trial": 8, "dateTime": 1693841949943, "trialdata": {"view_history": [{"page_index": 0, "viewing_time": 21903}, {"page_index": 1, "viewing_time": 16174}, {"page_index": 2, "viewing_time": 6073}, {"page_index": 3, "viewing_time": 7722}], "rt": 51872, "trial_id": "mouselab_instructions_1_control", "trial_type": "instructions", "trial_index": 8, "time_elapsed": 340158, "internal_node_id": "0.0-2.1-1.1"}}, {"uniqueid": "w29104725:a20039058", "current_trial": 9, "dateTime": 1693841958130, "trialdata": {"revealed_states": [], "clicked_states": [], "num_clicks_accrued": [0, 0, 0, 0, 0, 0, 0, 0, 0, 0, 0, 0, 0], "stateRewards": ["", -10, 10, -10, 10, 10, -10, 10, -10, -10, -10, -10, 10, -10, -10, -10, -10, 10, -10, 10, 10, -10, 10, -10, 10, 10, -10, 10, -10, 10, -10, -10, -10, -10], "withholdReward": false, "trial_id": "practice_1", "block": "test", "trialIndex": 2, "score": 13.5, "costs": 0, "simulationMode": [null, null, null, null, null], "rewards": [-10, 10, 10, -10, 10], "path": ["0", "0", "23", "24", "25", "26", "29"], "rt": [1733, 79, 126, 91, 47], "actions": ["left", "left", "left", "up", "left"], "actionTimes": [3385, 3968, 4599, 5181, 5722], "queries": {"click": {"state": {"target": [], "time": []}, "edge": {"target": [], "time": []}}, "mouseover": {"state": {"target": [], "time": []}, "edge": {"target": [], "time": []}}, "mouseout": {"state": {"target": ["12", "0", "0"], "time": [900, 1403, 7491]}, "edge": {"target": [], "time": []}}}, "displayed_time": "6.22", "trialTime": 8106, "trial_type": "mouselab-mdp", "trial_index": 9, "time_elapsed": 348344, "internal_node_id": "0.0-2.1-2.1-0.1"}}, {"uniqueid": "w29104725:a20039058", "current_trial": 10, "dateTime": 1693841964700, "trialdata": {"revealed_states": [], "clicked_states": [], "num_clicks_accrued": [0, 0, 0, 0, 0, 0, 0, 0, 0, 0, 0, 0, 0], "stateRewards": ["", -10, -10, -10, -10, 10, -10, 10, -10, 10, -10, 10, -10, 10, -10, -10, -10, -10, -10, -10, 10, 10, -10, -10, 10, 10, -10, 10, 10, -10, 10, -10, 10, 10], "withholdReward": false, "trial_id": "practice_2", "block": "test", "trialIndex": 3, "score": -46.5, "costs": 0, "simulationMode": [null, null, null, null, null], "rewards": [-10, -10, -10, -10, -10], "path": ["0", "0", "1", "2", "3", "8", "10"], "rt": [309, 101, 84, 39, 75], "actions": ["up", "up", "up", "left", "down"], "actionTimes": [2423, 3028, 3612, 4151, 4737], "queries": {"click": {"state": {"target": [], "time": []}, "edge": {"target": [], "time": []}}, "mouseover": {"state": {"target": [], "time": []}, "edge": {"target": [], "time": []}}, "mouseout": {"state": {"target": [], "time": []}, "edge": {"target": [], "time": []}}}, "displayed_time": "5.23", "trialTime": 6493, "trial_type": "mouselab-mdp", "trial_index": 10, "time_elapsed": 354915, "internal_node_id": "0.0-2.1-2.1-1.1"}}, {"uniqueid": "w29104725:a20039058", "current_trial": 11, "dateTime": 1693841978966, "trialdata": {"view_history": [{"page_index": 0, "viewing_time": 12897}, {"page_index": 1, "viewing_time": 1367}], "rt": 14264, "trial_id": "mouselab_instructions_2_control", "trial_type": "instructions", "trial_index": 11, "time_elapsed": 369181, "internal_node_id": "0.0-2.1-3.1"}}, {"uniqueid": "w29104725:a20039058", "current_trial": 12, "dateTime": 1693842015313, "trialdata": {"rt": 36344, "response": {"Q0": "The cost for clicking on nodes may vary between nodes.", "Q1": "The better I perform the higher my bonus will be.", "Q2": "No, the amount of cash at each node of the web may be different each time.", "Q3": "To get the highest total score.", "Q4": "Only before moving the spider.", "Q5": "3 seconds"}, "question_order": [0, 1, 2, 3, 4, 5], "correct": {"Q0": "The cost for clicking on nodes may vary between nodes.", "Q1": "The better I perform the higher my bonus will be.", "Q2": "No, the amount of cash at each node of the web may be different each time.", "Q3": "To get the highest total score.", "Q4": "Only before moving the spider.", "Q5": "3 seconds"}, "trial_id": "mouselab_quiz_control", "trial_type": "survey-multi-choice", "trial_index": 12, "time_elapsed": 405528, "internal_node_id": "0.0-2.1-4.1"}}, {"uniqueid": "w29104725:a20039058", "current_trial": 13, "dateTime": 1693842020351, "trialdata": {"rt": 5032, "response": {"Q0": "No"}, "question_order": [0], "trial_id": "repeat_check", "trial_type": "survey-multi-choice", "trial_index": 13, "time_elapsed": 410565, "internal_node_id": "0.0-4.0-0.0"}}, {"uniqueid": "w29104725:a20039058", "current_trial": 14, "dateTime": 1693842026486, "trialdata": {"rt": 6131, "stimulus": "\n<h1> Get ready to start the game! </h1>\n\nThank you for reading the instructions. Get ready start with the 40 rounds of this game.\n<br><br>\nIf you need to take a break, feel free to take one after the end of a round, before continuing to the next one.\n<br><br>\nRemember, the more money the spider gets, the bigger your bonus will be!\n<br><br>\n<div style='text-align: center;'>Press <code>space</code> to begin.</div>\n\n<br><br>\n(If, at any point, the <code>space</code> key does not take you to the next page, click once on the text and try again.)", "response": " ", "trial_id": "mdp_ready", "trial_type": "html-keyboard-response", "trial_index": 14, "time_elapsed": 416701, "internal_node_id": "0.0-6.0-0.0"}}, {"uniqueid": "w29104725:a20039058", "current_trial": 15, "dateTime": 1693842045028, "trialdata": {"revealed_states": [], "clicked_states": ["26", "29", "24", "13"], "num_clicks_accrued": [0, 0, 0, 0, 0, 0, 0, 0, 0, 0, 0, 0, 0], "stateRewards": ["", -2, 3, -5, -7, 66, 43, -60, -4, -70, -75, 4, -1, 2, 2, -13, 54, 11, -40, -1, 77, 32, 15, -2, 3, -8, -9, -35, 83, -27, 6, -74, -34, 44], "withholdReward": false, "trial_id": "mdp_trial_1", "block": "test", "trialIndex": 4, "score": 73.4, "costs": -5.6, "simulationMode": [null, null, null, null, null], "rewards": [-1, 2, 2, -1, 77], "path": ["0", "0", "12", "13", "14", "19", "20"], "rt": [10674, 320, 801, 135, 191], "actions": ["right", "right", "right", "down", "right"], "actionTimes": [12462, 13277, 14574, 15210, 15898], "queries": {"click": {"state": {"target": ["26", "29", "24", "13"], "time": [2837, 5119, 7121, 9493]}, "edge": {"target": [], "time": []}}, "mouseover": {"state": {"target": ["23", "24", "28", "26", "8", "3", "4", "10", "29", "29", "25", "24", "0", "12", "13", "1", "2", "2"], "time": [2082, 2161, 2281, 2345, 3180, 3361, 3481, 4515, 4632, 4982, 5397, 5632, 7800, 8350, 8868, 10170, 10488, 11455]}, "edge": {"target": [], "time": []}}, "mouseout": {"state": {"target": ["31", "23", "0", "23", "24", "28", "26", "8", "3", "4", "10", "29", "29", "25", "24", "0", "12", "13", "1", "2", "2", "1"], "time": [895, 1111, 1317, 2129, 2195, 2329, 3030, 3313, 3430, 4465, 4548, 4783, 5298, 5549, 7434, 8067, 8735, 9687, 10254, 11237, 16609, 16643]}, "edge": {"target": [], "time": []}}}, "displayed_time": "16.39", "trialTime": 18467, "trial_type": "mouselab-mdp", "trial_index": 15, "time_elapsed": 435243, "internal_node_id": "0.0-6.0-1.0-0.0"}}, {"uniqueid": "w29104725:a20039058", "current_trial": 16, "dateTime": 1693842063638, "trialdata": {"revealed_states": [], "clicked_states": ["13", "2", "15"], "num_clicks_accrued": [0, 0, 0, 0, 0, 0, 0, 0, 0, 0, 0, 0, 0], "stateRewards": ["", -2, 1, -7, -8, -37, -76, -87, 11, 30, -63, 80, -1, 4, 2, -1, 42, 17, 52, -3, -75, -80, -68, 2, -3, -5, -15, -48, 82, 24, -7, 5, -22, -71], "withholdReward": false, "trial_id": "mdp_trial_2", "block": "test", "trialIndex": 5, "score": -70.2, "costs": -4.199999999999999, "simulationMode": [null, null, null, null, null], "rewards": [-1, 4, 2, -3, -68], "path": ["0", "0", "12", "13", "14", "19", "22"], "rt": [11541, 85, 401, 61, 123], "actions": ["right", "right", "right", "down", "left"], "actionTimes": [13575, 14168, 15086, 15645, 16274], "queries": {"click": {"state": {"target": ["13", "2", "15"], "time": [4815, 6964, 11090]}, "edge": {"target": [], "time": []}}, "mouseover": {"state": {"target": ["18", "13", "12", "12", "13", "12", "1", "2", "24", "23", "12", "15", "14"], "time": [2723, 3389, 3739, 4175, 4359, 5175, 5408, 5642, 7510, 9928, 9997, 10330, 12399]}, "edge": {"target": [], "time": []}}, "mouseout": {"state": {"target": ["32", "31", "23", "0", "18", "13", "12", "12", "13", "12", "1", "2", "24", "23", "12", "15", "14", "22"], "time": [691, 738, 819, 2357, 3306, 3707, 3941, 4292, 5109, 5259, 5509, 7427, 9915, 9963, 10027, 12332, 13575, 14332]}, "edge": {"target": [], "time": []}}}, "displayed_time": "16.77", "trialTime": 18505, "trial_type": "mouselab-mdp", "trial_index": 16, "time_elapsed": 453853, "internal_node_id": "0.0-6.0-1.0-1.0"}}, {"uniqueid": "w29104725:a20039058", "current_trial": 17, "dateTime": 1693842082018, "trialdata": {"revealed_states": [], "clicked_states": ["23"], "num_clicks_accrued": [0, 0, 0, 0, 0, 0, 0, 0, 0, 0, 0, 0, 0], "stateRewards": ["", -2, -4, -2, -13, -15, 87, -19, -6, -80, 30, 12, 1, 1, -8, 2, 55, 56, 15, 11, -68, -7, 55, -2, 3, -3, -3, 48, 62, 4, 1, -3, 69, -33], "withholdReward": false, "trial_id": "mdp_trial_3", "block": "test", "trialIndex": 6, "score": 50.6, "costs": -1.4, "simulationMode": [null, null, null, null, null], "rewards": [1, 1, -8, 2, 56], "path": ["0", "0", "12", "13", "14", "15", "17"], "rt": [9516, 126, 254, 18, 64], "actions": ["right", "right", "right", "up", "right"], "actionTimes": [12266, 12896, 13640, 14155, 14719], "queries": {"click": {"state": {"target": ["23"], "time": [5218]}, "edge": {"target": [], "time": []}}, "mouseover": {"state": {"target": ["23", "12", "13", "12", "12"], "time": [4714, 7684, 7832, 9032, 10168]}, "edge": {"target": [], "time": []}}, "mouseout": {"state": {"target": ["0", "23", "12", "13", "12", "12"], "time": [1044, 5513, 7732, 8965, 9567, 13170]}, "edge": {"target": [], "time": []}}}, "displayed_time": "16.76", "trialTime": 18274, "trial_type": "mouselab-mdp", "trial_index": 17, "time_elapsed": 472232, "internal_node_id": "0.0-6.0-1.0-2.0"}}, {"uniqueid": "w29104725:a20039058", "current_trial": 18, "dateTime": 1693842101053, "trialdata": {"revealed_states": [], "clicked_states": ["12", "1", "23"], "num_clicks_accrued": [0, 0, 0, 0, 0, 0, 0, 0, 0, 0, 0, 0, 0], "stateRewards": ["", -1, -4, 8, 8, -68, 47, 24, -7, -61, 49, -69, -1, -1, 8, -7, 42, 1, -45, -11, 10, -63, -6, 1, 4, 6, -16, 79, -37, -58, -12, 81, 18, -53], "withholdReward": false, "trial_id": "mdp_trial_4", "block": "test", "trialIndex": 7, "score": -58.2, "costs": -4.199999999999999, "simulationMode": [null, null, null, null, null], "rewards": [1, 4, 6, -12, -53], "path": ["0", "0", "23", "24", "25", "30", "33"], "rt": [7840, 163, 106, 189, 80], "actions": ["left", "left", "left", "down", "left"], "actionTimes": [9079, 9752, 10360, 11047, 11621], "queries": {"click": {"state": {"target": ["12", "1", "23"], "time": [2075, 4190, 6208]}, "edge": {"target": [], "time": []}}, "mouseover": {"state": {"target": ["12", "1", "23", "24"], "time": [1535, 2752, 4819, 8722]}, "edge": {"target": [], "time": []}}, "mouseout": {"state": {"target": ["0", "12", "1", "23", "24", "12"], "time": [867, 2451, 4702, 8691, 9773, 18380]}, "edge": {"target": [], "time": []}}}, "displayed_time": "15.25", "trialTime": 18934, "trial_type": "mouselab-mdp", "trial_index": 18, "time_elapsed": 491267, "internal_node_id": "0.0-6.0-1.0-3.0"}}, {"uniqueid": "w29104725:a20039058", "current_trial": 19, "dateTime": 1693842122517, "trialdata": {"revealed_states": [], "clicked_states": ["13", "2", "24"], "num_clicks_accrued": [0, 0, 0, 0, 0, 0, 0, 0, 0, 0, 0, 0, 0], "stateRewards": ["", 1, -3, -2, 14, 49, -40, -39, 2, 26, -61, 73, 1, -4, -8, 12, 79, 29, -65, -13, 55, -26, 27, -1, 3, 3, 9, -17, -60, -18, -8, 35, -88, 69], "withholdReward": false, "trial_id": "mdp_trial_5", "block": "test", "trialIndex": 8, "score": -50.2, "costs": -4.199999999999999, "simulationMode": [null, null, null, null, null], "rewards": [-1, 3, 3, 9, -60], "path": ["0", "0", "23", "24", "25", "26", "28"], "rt": [7054, 78, 69, 90, 92], "actions": ["left", "left", "left", "up", "right"], "actionTimes": [10636, 11220, 11779, 12366, 12952], "queries": {"click": {"state": {"target": ["13", "2", "24"], "time": [4324, 6525, 8612]}, "edge": {"target": [], "time": []}}, "mouseover": {"state": {"target": ["12", "13", "2", "24"], "time": [3785, 4071, 5103, 7138]}, "edge": {"target": [], "time": []}}, "mouseout": {"state": {"target": ["0", "12", "13", "2", "24", "24", "23", "0", "12", "13", "12"], "time": [3753, 3836, 4753, 6938, 10476, 18631, 19216, 19699, 20184, 20566, 20731]}, "edge": {"target": [], "time": []}}}, "displayed_time": "17.59", "trialTime": 21367, "trial_type": "mouselab-mdp", "trial_index": 19, "time_elapsed": 512732, "internal_node_id": "0.0-6.0-1.0-4.0"}}, {"uniqueid": "w29104725:a20039058", "current_trial": 20, "dateTime": 1693842139211, "trialdata": {"revealed_states": [], "clicked_states": ["14", "3", "25"], "num_clicks_accrued": [0, 0, 0, 0, 0, 0, 0, 0, 0, 0, 0, 0, 0], "stateRewards": ["", -2, -1, -3, -1, -78, -6, 2, -1, 22, -88, 32, 2, 2, -7, -8, -51, -17, 54, 2, -44, 54, 75, 2, -2, -8, -15, -29, 12, -67, 15, -1, -47, -47], "withholdReward": false, "trial_id": "mdp_trial_6", "block": "test", "trialIndex": 9, "score": -99.2, "costs": -4.199999999999999, "simulationMode": [null, null, null, null, null], "rewards": [-2, -1, -3, -1, -88], "path": ["0", "0", "1", "2", "3", "8", "10"], "rt": [6801, 83, 86, 150, 201], "actions": ["up", "up", "up", "left", "down"], "actionTimes": [7829, 8411, 8997, 9646, 10346], "queries": {"click": {"state": {"target": ["14", "3", "25"], "time": [1695, 3582, 5449]}, "edge": {"target": [], "time": []}}, "mouseover": {"state": {"target": ["12", "13", "14", "15", "3", "10", "28", "25"], "time": [1242, 1322, 1371, 1990, 2107, 3909, 3943, 4292]}, "edge": {"target": [], "time": []}}, "mouseout": {"state": {"target": ["0", "12", "13", "14", "15", "3", "10", "28", "25", "24"], "time": [855, 1287, 1356, 1954, 2004, 3892, 3942, 3973, 10999, 13067]}, "edge": {"target": [], "time": []}}}, "displayed_time": "15.04", "trialTime": 16599, "trial_type": "mouselab-mdp", "trial_index": 20, "time_elapsed": 529425, "internal_node_id": "0.0-6.0-1.0-5.0"}}, {"uniqueid": "w29104725:a20039058", "current_trial": 21, "dateTime": 1693842163512, "trialdata": {"revealed_states": [], "clicked_states": ["26", "30", "19", "3", "15", "8"], "num_clicks_accrued": [0, 0, 0, 0, 0, 0, 0, 0, 0, 0, 0, 0, 0], "stateRewards": ["", -2, -3, 1, -7, 39, -67, 16, 5, -20, 73, 66, -1, 4, 5, -3, 23, -68, -87, -8, 3, -3, 17, 1, -4, -2, -13, -32, 34, 61, -5, -11, -18, 12], "withholdReward": false, "trial_id": "mdp_trial_7", "block": "test", "trialIndex": 10, "score": 65.6, "costs": -8.4, "simulationMode": [null, null, null, null, null], "rewards": [-2, -3, 1, 5, 73], "path": ["0", "0", "1", "2", "3", "8", "10"], "rt": [13736, 498, 104, 64, 127], "actions": ["up", "up", "up", "left", "down"], "actionTimes": [16013, 17026, 17634, 18194, 18826], "queries": {"click": {"state": {"target": ["26", "30", "19", "3", "15", "8"], "time": [3458, 5677, 7576, 10053, 12214, 14104]}, "edge": {"target": [], "time": []}}, "mouseover": {"state": {"target": ["26", "25", "30", "31", "22", "19", "14", "15", "16", "15", "4", "3", "4", "15", "4", "8", "4"], "time": [3053, 3853, 3919, 5937, 6106, 6321, 7889, 7939, 8239, 8956, 9676, 9924, 10825, 10942, 12843, 13360, 14946]}, "edge": {"target": [], "time": []}}, "mouseout": {"state": {"target": ["30", "31", "12", "0", "26", "25", "30", "31", "22", "19", "14", "15", "16", "15", "4", "3", "4", "15", "4", "3", "8", "3", "4", "3"], "time": [1515, 1533, 1818, 2652, 3818, 3886, 5921, 5988, 6270, 7822, 7922, 8022, 8372, 9591, 9723, 10793, 10841, 12743, 13027, 13326, 14378, 14727, 19747, 19832]}, "edge": {"target": [], "time": []}}}, "displayed_time": "19.32", "trialTime": 24181, "trial_type": "mouselab-mdp", "trial_index": 21, "time_elapsed": 553727, "internal_node_id": "0.0-6.0-1.0-6.0"}}, {"uniqueid": "w29104725:a20039058", "current_trial": 22, "dateTime": 1693842181198, "trialdata": {"revealed_states": [], "clicked_states": ["32", "21"], "num_clicks_accrued": [0, 0, 0, 0, 0, 0, 0, 0, 0, 0, 0, 0, 0], "stateRewards": ["", 1, 2, -3, -6, 50, -7, 7, -7, -80, 21, -1, 2, 2, 4, -1, 33, 84, 1, 14, -53, 81, 6, -2, -2, -3, -9, -87, -38, -59, -5, -74, -3, -71], "withholdReward": false, "trial_id": "mdp_trial_8", "block": "test", "trialIndex": 11, "score": 100.2, "costs": -2.8, "simulationMode": [null, null, null, null, null], "rewards": [2, 2, 4, 14, 81], "path": ["0", "0", "12", "13", "14", "19", "21"], "rt": [5671, 19, 85, 19, 71], "actions": ["right", "right", "right", "down", "down"], "actionTimes": [7195, 7717, 8301, 8819, 9387], "queries": {"click": {"state": {"target": ["32", "21"], "time": [2386, 4628]}, "edge": {"target": [], "time": []}}, "mouseover": {"state": {"target": ["23", "31", "32", "32", "21", "19", "14", "16", "18", "12"], "time": [1679, 1714, 1763, 1997, 3179, 5030, 5079, 6247, 7097, 7131]}, "edge": {"target": [], "time": []}}, "mouseout": {"state": {"target": ["1", "0", "0", "23", "31", "32", "32", "21", "19", "14", "16", "18", "12", "12", "9", "25", "24", "23"], "time": [661, 695, 1128, 1713, 1728, 1796, 2929, 4945, 5062, 5095, 7064, 7115, 7148, 12919, 12990, 13889, 13956, 14006]}, "edge": {"target": [], "time": []}}}, "displayed_time": "15.53", "trialTime": 17591, "trial_type": "mouselab-mdp", "trial_index": 22, "time_elapsed": 571412, "internal_node_id": "0.0-6.0-1.0-7.0"}}, {"uniqueid": "w29104725:a20039058", "current_trial": 23, "dateTime": 1693842199356, "trialdata": {"revealed_states": [], "clicked_states": ["27"], "num_clicks_accrued": [0, 0, 0, 0, 0, 0, 0, 0, 0, 0, 0, 0, 0], "stateRewards": ["", -2, -2, -3, -6, -15, -11, 41, -12, -63, -76, 2, -2, -3, 8, 9, -36, -2, -18, -16, -32, -85, -17, -2, 1, 5, -16, 82, 35, -88, -1, 80, -82, -20], "withholdReward": false, "trial_id": "mdp_trial_9", "block": "test", "trialIndex": 12, "score": 68.6, "costs": -1.4, "simulationMode": [null, null, null, null, null], "rewards": [-2, 1, 5, -16, 82], "path": ["0", "0", "23", "24", "25", "26", "27"], "rt": [3244, 2, 2, 543, 68], "actions": ["left", "left", "left", "up", "up"], "actionTimes": [5779, 6274, 6792, 7849, 8411], "queries": {"click": {"state": {"target": ["27"], "time": [3477]}, "edge": {"target": [], "time": []}}, "mouseover": {"state": {"target": ["23", "28", "27", "11"], "time": [2785, 2836, 3122, 4786]}, "edge": {"target": [], "time": []}}, "mouseout": {"state": {"target": ["0", "23", "28", "27", "11", "0", "23", "24"], "time": [2284, 2801, 2869, 4554, 9492, 10008, 10076, 10091]}, "edge": {"target": [], "time": []}}}, "displayed_time": "16.55", "trialTime": 18040, "trial_type": "mouselab-mdp", "trial_index": 23, "time_elapsed": 589570, "internal_node_id": "0.0-6.0-1.0-8.0"}}, {"uniqueid": "w29104725:a20039058", "current_trial": 24, "dateTime": 1693842217110, "trialdata": {"revealed_states": [], "clicked_states": ["9"], "num_clicks_accrued": [0, 0, 0, 0, 0, 0, 0, 0, 0, 0, 0, 0, 0], "stateRewards": ["", -1, 2, 6, 11, 21, -21, -21, -6, 48, -71, 88, -1, -3, 3, 7, 64, 2, 9, -4, 37, -67, 72, 2, 2, -8, -8, -10, 71, -40, -3, 73, 80, 47], "withholdReward": false, "trial_id": "mdp_trial_10", "block": "test", "trialIndex": 13, "score": 47.6, "costs": -1.4, "simulationMode": [null, null, null, null, null], "rewards": [-1, 2, 6, -6, 48], "path": ["0", "0", "1", "2", "3", "8", "9"], "rt": [2723, 135, 95, 74, 108], "actions": ["up", "up", "up", "left", "up"], "actionTimes": [5186, 5818, 6413, 6977, 7578], "queries": {"click": {"state": {"target": ["9"], "time": [3138]}, "edge": {"target": [], "time": []}}, "mouseover": {"state": {"target": ["10", "8", "9", "5"], "time": [2631, 2731, 2917, 4232]}, "edge": {"target": [], "time": []}}, "mouseout": {"state": {"target": ["29", "27", "11", "10", "1", "10", "8", "9"], "time": [629, 679, 1682, 1812, 2048, 2666, 2832, 3665]}, "edge": {"target": [], "time": []}}}, "displayed_time": "16.48", "trialTime": 17643, "trial_type": "mouselab-mdp", "trial_index": 24, "time_elapsed": 607324, "internal_node_id": "0.0-6.0-1.0-9.0"}}, {"uniqueid": "w29104725:a20039058", "current_trial": 25, "dateTime": 1693842239877, "trialdata": {"revealed_states": [], "clicked_states": ["5", "16", "32", "27"], "num_clicks_accrued": [0, 0, 0, 0, 0, 0, 0, 0, 0, 0, 0, 0, 0], "stateRewards": ["", -1, 2, -7, -12, -62, 12, -13, 5, 77, -71, 83, 1, -4, 7, 15, -42, -87, -4, 5, -25, 44, 88, -1, 4, -5, -8, 14, 51, 8, -5, 83, -24, -19], "withholdReward": false, "trial_id": "mdp_trial_11", "block": "test", "trialIndex": 14, "score": -1.5999999999999996, "costs": -5.6, "simulationMode": [null, null, null, null, null], "rewards": [-1, 4, -5, -8, 14], "path": ["0", "0", "23", "24", "25", "26", "27"], "rt": [11828, 293, 101, 553, 558], "actions": ["left", "left", "left", "up", "up"], "actionTimes": [13359, 14144, 14738, 15789, 16845], "queries": {"click": {"state": {"target": ["5", "16", "32", "27"], "time": [2234, 5131, 7933, 11187]}, "edge": {"target": [], "time": []}}, "mouseover": {"state": {"target": ["7", "4", "5", "6", "16", "17", "16", "13", "12", "0", "22", "32", "32", "1", "2", "3", "9", "11", "27", "27", "21"], "time": [1688, 1772, 1925, 4211, 4259, 4460, 4892, 5725, 5759, 7089, 7194, 7529, 7781, 9229, 9247, 9481, 10233, 10315, 10398, 11081, 12050]}, "edge": {"target": [], "time": []}}, "mouseout": {"state": {"target": ["5", "1", "7", "4", "5", "6", "16", "17", "16", "13", "12", "0", "22", "32", "32", "1", "2", "3", "9", "11", "27", "27", "27"], "time": [1028, 1124, 1738, 1857, 4176, 4225, 4293, 4826, 5676, 5742, 5810, 7113, 7212, 7596, 8413, 9246, 9262, 9515, 10266, 10331, 10634, 11192, 11515]}, "edge": {"target": [], "time": []}}}, "displayed_time": "17.34", "trialTime": 22672, "trial_type": "mouselab-mdp", "trial_index": 25, "time_elapsed": 630091, "internal_node_id": "0.0-6.0-1.0-10.0"}}, {"uniqueid": "w29104725:a20039058", "current_trial": 26, "dateTime": 1693842257406, "trialdata": {"revealed_states": [], "clicked_states": ["9", "5"], "num_clicks_accrued": [0, 0, 0, 0, 0, 0, 0, 0, 0, 0, 0, 0, 0], "stateRewards": ["", -2, -3, 1, -14, 48, -49, 67, -1, -35, -48, 3, -2, 1, -4, -5, 86, -84, 39, 1, 48, 41, -42, -1, -4, 2, -7, 18, -86, 17, 7, -9, 57, -69], "withholdReward": false, "trial_id": "mdp_trial_12", "block": "test", "trialIndex": 15, "score": 27.2, "costs": -2.8, "simulationMode": [null, null, null, null, null], "rewards": [-2, -3, 1, -14, 48], "path": ["0", "0", "1", "2", "3", "4", "5"], "rt": [5136, 95, 158, 162, 166], "actions": ["up", "up", "up", "right", "up"], "actionTimes": [6429, 7038, 7687, 8342, 9013], "queries": {"click": {"state": {"target": ["9", "5"], "time": [2030, 4015]}, "edge": {"target": [], "time": []}}, "mouseover": {"state": {"target": ["10", "9", "6", "5", "6", "15", "17", "16"], "time": [1424, 1757, 2825, 3039, 4375, 4459, 4875, 5059]}, "edge": {"target": [], "time": []}}, "mouseout": {"state": {"target": ["21", "12", "10", "9", "6", "5", "6", "15", "17", "16"], "time": [517, 606, 1437, 2441, 2989, 4325, 4392, 4610, 5007, 5957]}, "edge": {"target": [], "time": []}}}, "displayed_time": "15.30", "trialTime": 17432, "trial_type": "mouselab-mdp", "trial_index": 26, "time_elapsed": 647621, "internal_node_id": "0.0-6.0-1.0-11.0"}}, {"uniqueid": "w29104725:a20039058", "current_trial": 27, "dateTime": 1693842279008, "trialdata": {"revealed_states": [], "clicked_states": ["21", "32", "27", "16", "6", "11"], "num_clicks_accrued": [0, 0, 0, 0, 0, 0, 0, 0, 0, 0, 0, 0, 0], "stateRewards": ["", -1, 1, 8, -3, -24, 11, -65, -6, -77, 48, 44, -2, 1, -2, -7, -55, -35, 33, 8, -28, 19, -53, -1, -1, -5, -5, -70, 10, 44, 8, -58, -70, 51], "withholdReward": false, "trial_id": "mdp_trial_13", "block": "test", "trialIndex": 16, "score": 37.6, "costs": -8.4, "simulationMode": [null, null, null, null, null], "rewards": [-1, 1, 8, -6, 44], "path": ["0", "0", "1", "2", "3", "8", "11"], "rt": [13435, 92, 54, 73, 83], "actions": ["up", "up", "up", "left", "left"], "actionTimes": [14631, 15215, 15777, 16347, 16924], "queries": {"click": {"state": {"target": ["21", "32", "27", "16", "6", "11"], "time": [1868, 4092, 6687, 8711, 10694, 12697]}, "edge": {"target": [], "time": []}}, "mouseover": {"state": {"target": ["22", "21", "32", "30", "26", "27", "10", "2", "7", "16", "6", "6", "4", "3", "8", "11"], "time": [1391, 1494, 2844, 6082, 6249, 6532, 7097, 7116, 7149, 7464, 9150, 9534, 11052, 11086, 11119, 11302]}, "edge": {"target": [], "time": []}}, "mouseout": {"state": {"target": ["0", "22", "21", "32", "30", "26", "27", "10", "2", "7", "16", "6", "6", "4", "3", "8", "11", "31"], "time": [1311, 1425, 2695, 6056, 6097, 6396, 7064, 7115, 7148, 7164, 9084, 9183, 11033, 11069, 11103, 11153, 13987, 20491]}, "edge": {"target": [], "time": []}}}, "displayed_time": "17.42", "trialTime": 21472, "trial_type": "mouselab-mdp", "trial_index": 27, "time_elapsed": 669223, "internal_node_id": "0.0-6.0-1.0-12.0"}}, {"uniqueid": "w29104725:a20039058", "current_trial": 28, "dateTime": 1693842296870, "trialdata": {"revealed_states": [], "clicked_states": ["32", "21"], "num_clicks_accrued": [0, 0, 0, 0, 0, 0, 0, 0, 0, 0, 0, 0, 0], "stateRewards": ["", -2, 2, 3, -7, 76, 63, 21, 15, 35, -8, -44, 1, 1, -2, -12, 23, 24, 76, -9, 46, 66, -49, -2, -1, 7, 12, 40, -71, -45, -6, 38, -49, 46], "withholdReward": false, "trial_id": "mdp_trial_14", "block": "test", "trialIndex": 17, "score": 54.2, "costs": -2.8, "simulationMode": [null, null, null, null, null], "rewards": [1, 1, -2, -9, 66], "path": ["0", "0", "12", "13", "14", "19", "21"], "rt": [5275, 115, 71, 110, 128], "actions": ["right", "right", "right", "down", "down"], "actionTimes": [6497, 7126, 7713, 8321, 8939], "queries": {"click": {"state": {"target": ["32", "21"], "time": [2177, 4213]}, "edge": {"target": [], "time": []}}, "mouseover": {"state": {"target": ["23", "31", "30", "33", "30", "32", "21", "15", "16", "16", "15", "18"], "time": [1406, 1473, 1507, 1572, 1907, 2039, 2923, 4441, 4474, 4757, 6275, 6359]}, "edge": {"target": [], "time": []}}, "mouseout": {"state": {"target": ["30", "31", "23", "23", "31", "30", "33", "30", "32", "21", "15", "16", "16", "15", "18", "13", "25"], "time": [587, 670, 772, 1439, 1506, 1540, 1874, 1922, 2505, 4358, 4457, 4507, 6261, 6293, 6470, 6776, 12562]}, "edge": {"target": [], "time": []}}}, "displayed_time": "15.23", "trialTime": 17745, "trial_type": "mouselab-mdp", "trial_index": 28, "time_elapsed": 687084, "internal_node_id": "0.0-6.0-1.0-13.0"}}, {"uniqueid": "w29104725:a20039058", "current_trial": 29, "dateTime": 1693842314042, "trialdata": {"revealed_states": [], "clicked_states": ["27", "16"], "num_clicks_accrued": [0, 0, 0, 0, 0, 0, 0, 0, 0, 0, 0, 0, 0], "stateRewards": ["", -1, 2, 5, -6, 13, -64, -47, 8, -79, -80, -33, 1, 2, -2, -16, 56, -71, -10, 3, 29, 44, 85, -1, 4, 5, 4, -36, -56, 19, 8, 52, -13, -2], "withholdReward": false, "trial_id": "mdp_trial_15", "block": "test", "trialIndex": 18, "score": 38.2, "costs": -2.8, "simulationMode": [null, null, null, null, null], "rewards": [1, 2, -2, -16, 56], "path": ["0", "0", "12", "13", "14", "15", "16"], "rt": [5034, 87, 61, 51, 3], "actions": ["right", "right", "right", "up", "up"], "actionTimes": [7141, 7724, 8284, 8825, 9343], "queries": {"click": {"state": {"target": ["27", "16"], "time": [2692, 4976]}, "edge": {"target": [], "time": []}}, "mouseover": {"state": {"target": ["27", "10", "2", "7", "16", "6"], "time": [2436, 3169, 3202, 3236, 3485, 5403]}, "edge": {"target": [], "time": []}}, "mouseout": {"state": {"target": ["33", "30", "27", "10", "2", "7", "16"], "time": [600, 1398, 3135, 3186, 3219, 3252, 5320]}, "edge": {"target": [], "time": []}}}, "displayed_time": "16.12", "trialTime": 17064, "trial_type": "mouselab-mdp", "trial_index": 29, "time_elapsed": 704257, "internal_node_id": "0.0-6.0-1.0-14.0"}}, {"uniqueid": "w29104725:a20039058", "current_trial": 30, "dateTime": 1693842331613, "trialdata": {"revealed_states": [], "clicked_states": ["11"], "num_clicks_accrued": [0, 0, 0, 0, 0, 0, 0, 0, 0, 0, 0, 0, 0], "stateRewards": ["", -2, -2, -7, -13, -10, 49, -68, -1, 84, 70, 88, 1, 4, 4, 12, -57, 25, 30, 8, -1, -77, 57, 2, 3, 2, 3, -18, -80, 23, -15, -41, 70, 11], "withholdReward": false, "trial_id": "mdp_trial_16", "block": "test", "trialIndex": 19, "score": 74.6, "costs": -1.4, "simulationMode": [null, null, null, null, null], "rewards": [-2, -2, -7, -1, 88], "path": ["0", "0", "1", "2", "3", "8", "11"], "rt": [3458, 58, 28, 536, 127], "actions": ["up", "up", "up", "left", "left"], "actionTimes": [5475, 6030, 6568, 7609, 8234], "queries": {"click": {"state": {"target": ["11"], "time": [3507]}, "edge": {"target": [], "time": []}}, "mouseover": {"state": {"target": ["28", "11", "11", "8", "3", "4", "6"], "time": [2636, 2968, 3286, 3768, 3801, 3836, 3952]}, "edge": {"target": [], "time": []}}, "mouseout": {"state": {"target": ["6", "0", "28", "11", "11", "8", "3", "4"], "time": [618, 2551, 2650, 3002, 3750, 3784, 3835, 3885]}, "edge": {"target": [], "time": []}}}, "displayed_time": "16.03", "trialTime": 17439, "trial_type": "mouselab-mdp", "trial_index": 30, "time_elapsed": 721828, "internal_node_id": "0.0-6.0-1.0-15.0"}}, {"uniqueid": "w29104725:a20039058", "current_trial": 31, "dateTime": 1693842347610, "trialdata": {"revealed_states": [], "clicked_states": ["6", "21"], "num_clicks_accrued": [0, 0, 0, 0, 0, 0, 0, 0, 0, 0, 0, 0, 0], "stateRewards": ["", 1, 2, 7, 13, 88, -71, 27, 3, 60, 5, -53, -2, 2, -6, -1, -30, 79, 47, -4, -14, 46, 68, 1, 1, 8, 10, -14, 86, 48, -11, -67, -44, 5], "withholdReward": false, "trial_id": "mdp_trial_17", "block": "test", "trialIndex": 20, "score": 33.2, "costs": -2.8, "simulationMode": [null, null, null, null, null], "rewards": [-2, 2, -6, -4, 46], "path": ["0", "0", "12", "13", "14", "19", "21"], "rt": [5331, 160, 140, 142, 111], "actions": ["right", "right", "right", "down", "down"], "actionTimes": [6332, 6986, 7615, 8253, 8853], "queries": {"click": {"state": {"target": ["6", "21"], "time": [1660, 3916]}, "edge": {"target": [], "time": []}}, "mouseover": {"state": {"target": ["6", "19", "21", "32"], "time": [1438, 2521, 2788, 4574]}, "edge": {"target": [], "time": []}}, "mouseout": {"state": {"target": ["6", "0", "6", "19", "21"], "time": [452, 736, 2388, 2688, 4156]}, "edge": {"target": [], "time": []}}}, "displayed_time": "15.01", "trialTime": 15873, "trial_type": "mouselab-mdp", "trial_index": 31, "time_elapsed": 737824, "internal_node_id": "0.0-6.0-1.0-16.0"}}, {"uniqueid": "w29104725:a20039058", "current_trial": 32, "dateTime": 1693842364434, "trialdata": {"revealed_states": [], "clicked_states": ["27"], "num_clicks_accrued": [0, 0, 0, 0, 0, 0, 0, 0, 0, 0, 0, 0, 0], "stateRewards": ["", -1, 3, 2, 9, 41, 4, -46, -12, -54, -87, -25, 2, 3, -1, 11, -77, 12, -33, -9, -32, 35, 72, 1, 3, -7, 4, 37, 65, -73, 6, 77, -43, 8], "withholdReward": false, "trial_id": "mdp_trial_18", "block": "test", "trialIndex": 21, "score": 36.6, "costs": -1.4, "simulationMode": [null, null, null, null, null], "rewards": [1, 3, -7, 4, 37], "path": ["0", "0", "23", "24", "25", "26", "27"], "rt": [3952, 156, 124, 190, 126], "actions": ["left", "left", "left", "up", "up"], "actionTimes": [5331, 5985, 6603, 7287, 7907], "queries": {"click": {"state": {"target": ["27"], "time": [2099]}, "edge": {"target": [], "time": []}}, "mouseover": {"state": {"target": ["23", "26", "27", "26", "30", "32", "32"], "time": [1660, 1742, 1893, 2473, 2526, 2543, 2676]}, "edge": {"target": [], "time": []}}, "mouseout": {"state": {"target": ["32", "31", "23", "26", "27", "26", "30", "32"], "time": [510, 540, 1693, 1791, 2442, 2492, 2542, 2575]}, "edge": {"target": [], "time": []}}}, "displayed_time": "15.39", "trialTime": 16690, "trial_type": "mouselab-mdp", "trial_index": 32, "time_elapsed": 754649, "internal_node_id": "0.0-6.0-1.0-17.0"}}, {"uniqueid": "w29104725:a20039058", "current_trial": 33, "dateTime": 1693842386353, "trialdata": {"revealed_states": [], "clicked_states": ["6"], "num_clicks_accrued": [0, 0, 0, 0, 0, 0, 0, 0, 0, 0, 0, 0, 0], "stateRewards": ["", 1, 3, 3, -10, 52, 68, 59, 12, 7, 49, 21, -2, -3, -4, -2, -2, 63, 63, -4, 44, 43, -76, -2, -3, -6, 13, 48, 36, 12, -5, -36, -33, -11], "withholdReward": false, "trial_id": "mdp_trial_19", "block": "test", "trialIndex": 22, "score": 63.6, "costs": -1.4, "simulationMode": [null, null, null, null, null], "rewards": [1, 3, 3, -10, 68], "path": ["0", "0", "1", "2", "3", "4", "6"], "rt": [3893, 129, 82, 105, 93], "actions": ["up", "up", "up", "right", "right"], "actionTimes": [5283, 5906, 6491, 7098, 7687], "queries": {"click": {"state": {"target": ["6"], "time": [3231]}, "edge": {"target": [], "time": []}}, "mouseover": {"state": {"target": ["12", "18", "4", "5", "6", "4", "3", "8", "11"], "time": [1922, 1989, 2172, 2324, 2823, 3358, 3390, 3422, 3492]}, "edge": {"target": [], "time": []}}, "mouseout": {"state": {"target": ["32", "0", "12", "18", "4", "5", "6", "4", "3", "8", "11", "27", "0"], "time": [438, 1904, 1955, 2073, 2292, 2756, 3293, 3390, 3421, 3457, 9629, 9663, 21124]}, "edge": {"target": [], "time": []}}}, "displayed_time": "15.40", "trialTime": 21792, "trial_type": "mouselab-mdp", "trial_index": 33, "time_elapsed": 776568, "internal_node_id": "0.0-6.0-1.0-18.0"}}, {"uniqueid": "w29104725:a20039058", "current_trial": 34, "dateTime": 1693842403724, "trialdata": {"revealed_states": [], "clicked_states": ["32", "27", "16", "21", "11"], "num_clicks_accrued": [0, 0, 0, 0, 0, 0, 0, 0, 0, 0, 0, 0, 0], "stateRewards": ["", 1, -2, -2, 10, -31, -77, 35, 9, -47, 8, 48, -2, 1, -4, -3, -26, -50, 43, -11, 76, -38, 17, 1, -1, 6, 10, 15, -9, 12, -8, 85, 11, -55], "withholdReward": false, "trial_id": "mdp_trial_20", "block": "test", "trialIndex": 23, "score": 47, "costs": -7, "simulationMode": [null, null, null, null, null], "rewards": [1, -2, -2, 9, 48], "path": ["0", "0", "1", "2", "3", "8", "11"], "rt": [11115, 81, 20, 15, 464], "actions": ["up", "up", "up", "left", "left"], "actionTimes": [12165, 12746, 13270, 13780, 14748], "queries": {"click": {"state": {"target": ["32", "27", "16", "21", "11"], "time": [1861, 3898, 6117, 8101, 10051]}, "edge": {"target": [], "time": []}}, "mouseover": {"state": {"target": ["23", "24", "25", "30", "32", "30", "25", "26", "27", "10", "2", "7", "16", "15", "21", "19", "7", "3", "11", "8", "3", "4", "6"], "time": [1307, 1355, 1406, 1454, 1639, 2239, 2273, 2306, 2606, 4175, 4192, 4225, 4275, 6492, 6894, 8378, 8445, 8462, 8728, 10330, 10397, 10462, 10646]}, "edge": {"target": [], "time": []}}, "mouseout": {"state": {"target": ["23", "23", "24", "25", "30", "32", "30", "25", "26", "27", "10", "2", "7", "16", "15", "21", "19", "7", "3", "11", "8", "3", "4", "6", "1", "28", "26"], "time": [672, 1340, 1389, 1422, 1523, 2207, 2256, 2290, 2339, 4159, 4192, 4208, 4242, 6491, 6512, 8344, 8395, 8461, 8477, 10329, 10379, 10430, 10597, 15987, 16086, 16135, 16170]}, "edge": {"target": [], "time": []}}}, "displayed_time": "15.25", "trialTime": 17245, "trial_type": "mouselab-mdp", "trial_index": 34, "time_elapsed": 793938, "internal_node_id": "0.0-6.0-1.0-19.0"}}, {"uniqueid": "w29104725:a20039058", "current_trial": 35, "dateTime": 1693842425075, "trialdata": {"revealed_states": [], "clicked_states": ["11", "6"], "num_clicks_accrued": [0, 0, 0, 0, 0, 0, 0, 0, 0, 0, 0, 0, 0], "stateRewards": ["", -1, 2, -6, 6, 43, 78, 78, -2, 55, -29, -17, -2, -4, 1, -15, 13, 7, -79, 8, -28, -68, 36, -1, -3, 3, -16, 84, -18, 87, 10, 32, 13, -81], "withholdReward": false, "trial_id": "mdp_trial_21", "block": "test", "trialIndex": 24, "score": 76.2, "costs": -2.8, "simulationMode": [null, null, null, null, null], "rewards": [-1, 2, -6, 6, 78], "path": ["0", "0", "1", "2", "3", "4", "6"], "rt": [5448, 81, 59, 116, 130], "actions": ["up", "up", "up", "right", "right"], "actionTimes": [12156, 12739, 13302, 13910, 14539], "queries": {"click": {"state": {"target": ["11", "6"], "time": [7598, 9781]}, "edge": {"target": [], "time": []}}, "mouseover": {"state": {"target": ["11", "8", "3", "4", "6", "6", "16", "16"], "time": [7206, 7890, 7922, 7939, 7972, 8590, 10040, 10239]}, "edge": {"target": [], "time": []}}, "mouseout": {"state": {"target": ["25", "25", "23", "11", "8", "3", "4", "6", "6", "6", "16"], "time": [3768, 4051, 6355, 7889, 7905, 7938, 7955, 8006, 9876, 9989, 10090]}, "edge": {"target": [], "time": []}}}, "displayed_time": "20.72", "trialTime": 21243, "trial_type": "mouselab-mdp", "trial_index": 35, "time_elapsed": 815290, "internal_node_id": "0.0-6.0-1.0-20.0"}}, {"uniqueid": "w29104725:a20039058", "current_trial": 36, "dateTime": 1693842441439, "trialdata": {"revealed_states": [], "clicked_states": ["32", "21", "16", "27"], "num_clicks_accrued": [0, 0, 0, 0, 0, 0, 0, 0, 0, 0, 0, 0, 0], "stateRewards": ["", 1, -2, 4, 7, -43, -83, -60, -5, -86, -80, 83, -1, -2, 6, 11, -15, 21, 13, 9, 29, -49, 11, -1, 4, -6, -11, 87, 40, 63, -8, -39, -11, 62], "withholdReward": false, "trial_id": "mdp_trial_22", "block": "test", "trialIndex": 25, "score": 67.4, "costs": -5.6, "simulationMode": [null, null, null, null, null], "rewards": [-1, 4, -6, -11, 87], "path": ["0", "0", "23", "24", "25", "26", "27"], "rt": [8702, 76, 63, 12, 106], "actions": ["left", "left", "left", "up", "up"], "actionTimes": [9914, 10485, 11039, 11555, 12166], "queries": {"click": {"state": {"target": ["32", "21", "16", "27"], "time": [2123, 4125, 6013, 7962]}, "edge": {"target": [], "time": []}}, "mouseover": {"state": {"target": ["23", "24", "30", "32", "21", "19", "14", "15", "16", "27", "8", "11"], "time": [1567, 1602, 1653, 1901, 2533, 4487, 4520, 4570, 4854, 6605, 8237, 8755]}, "edge": {"target": [], "time": []}}, "mouseout": {"state": {"target": ["16", "18", "0", "23", "24", "30", "32", "21", "19", "14", "15", "16", "27", "8"], "time": [534, 565, 1036, 1600, 1617, 1802, 2191, 4435, 4502, 4539, 4820, 6272, 8206, 8690]}, "edge": {"target": [], "time": []}}}, "displayed_time": "15.22", "trialTime": 16240, "trial_type": "mouselab-mdp", "trial_index": 36, "time_elapsed": 831653, "internal_node_id": "0.0-6.0-1.0-21.0"}}, {"uniqueid": "w29104725:a20039058", "current_trial": 37, "dateTime": 1693842462718, "trialdata": {"revealed_states": [], "clicked_states": ["11"], "num_clicks_accrued": [0, 0, 0, 0, 0, 0, 0, 0, 0, 0, 0, 0, 0], "stateRewards": ["", 1, 2, -5, 14, 54, -14, -25, 16, -5, -87, 78, -1, 1, 3, -3, 52, 53, 53, -10, 73, -69, -48, 2, 3, 1, 8, -62, -7, 85, 7, 82, 52, -28], "withholdReward": false, "trial_id": "mdp_trial_23", "block": "test", "trialIndex": 26, "score": 90.6, "costs": -1.4, "simulationMode": [null, null, null, null, null], "rewards": [1, 2, -5, 16, 78], "path": ["0", "0", "1", "2", "3", "8", "11"], "rt": [2867, 102, 75, 23, 31], "actions": ["up", "up", "up", "left", "left"], "actionTimes": [4252, 4845, 5419, 5935, 6475], "queries": {"click": {"state": {"target": ["11"], "time": [2145]}, "edge": {"target": [], "time": []}}, "mouseover": {"state": {"target": ["1", "10", "11", "8", "3", "4", "6"], "time": [1724, 1756, 1807, 2390, 2423, 2454, 2507]}, "edge": {"target": [], "time": []}}, "mouseout": {"state": {"target": ["11", "0", "1", "10", "11", "11", "8", "3", "4", "6", "8"], "time": [857, 1658, 1739, 1772, 2209, 2373, 2407, 2440, 2489, 9747, 9797]}, "edge": {"target": [], "time": []}}}, "displayed_time": "15.40", "trialTime": 21146, "trial_type": "mouselab-mdp", "trial_index": 37, "time_elapsed": 852933, "internal_node_id": "0.0-6.0-1.0-22.0"}}, {"uniqueid": "w29104725:a20039058", "current_trial": 38, "dateTime": 1693842478853, "trialdata": {"revealed_states": [], "clicked_states": ["32"], "num_clicks_accrued": [0, 0, 0, 0, 0, 0, 0, 0, 0, 0, 0, 0, 0], "stateRewards": ["", -2, 3, 3, -14, 62, 36, 49, 16, 11, 17, -84, 2, -1, 6, 2, -82, -73, 49, -6, -87, 48, 50, -1, -2, -1, -16, -11, 37, -44, 4, 55, 73, -10], "withholdReward": false, "trial_id": "mdp_trial_24", "block": "test", "trialIndex": 27, "score": 71.6, "costs": -1.4, "simulationMode": [null, null, null, null, null], "rewards": [-1, -2, -1, 4, 73], "path": ["0", "0", "23", "24", "25", "30", "32"], "rt": [4651, 21, 73, 181, 12], "actions": ["left", "left", "left", "down", "down"], "actionTimes": [5916, 6454, 7039, 7716, 8230], "queries": {"click": {"state": {"target": ["32"], "time": [3336]}, "edge": {"target": [], "time": []}}, "mouseover": {"state": {"target": ["23", "24", "30", "33", "32", "21"], "time": [2044, 2094, 2128, 2162, 3078, 3930]}, "edge": {"target": [], "time": []}}, "mouseout": {"state": {"target": ["0", "23", "24", "30", "33", "32", "21"], "time": [2031, 2080, 2112, 2145, 2179, 3629, 5849]}, "edge": {"target": [], "time": []}}}, "displayed_time": "15.27", "trialTime": 16017, "trial_type": "mouselab-mdp", "trial_index": 38, "time_elapsed": 869068, "internal_node_id": "0.0-6.0-1.0-23.0"}}, {"uniqueid": "w29104725:a20039058", "current_trial": 39, "dateTime": 1693842495468, "trialdata": {"revealed_states": [], "clicked_states": ["27", "16", "11", "6"], "num_clicks_accrued": [0, 0, 0, 0, 0, 0, 0, 0, 0, 0, 0, 0, 0], "stateRewards": ["", -1, -1, 4, -16, -75, 81, -51, -7, -84, 73, -30, -2, 1, -3, -16, -77, 33, 14, 1, 45, 87, -66, 2, 2, -5, -7, -19, -17, 79, -3, 8, 49, 47], "withholdReward": false, "trial_id": "mdp_trial_25", "block": "test", "trialIndex": 28, "score": 61.4, "costs": -5.6, "simulationMode": [null, null, null, null, null], "rewards": [-1, -1, 4, -16, 81], "path": ["0", "0", "1", "2", "3", "4", "6"], "rt": [8906, 70, 16, 17, 65], "actions": ["up", "up", "up", "right", "right"], "actionTimes": [10611, 11172, 11688, 12205, 12769], "queries": {"click": {"state": {"target": ["27", "16", "11", "6"], "time": [2517, 4536, 6520, 8443]}, "edge": {"target": [], "time": []}}, "mouseover": {"state": {"target": ["23", "27", "10", "16", "4", "8", "11", "8", "3", "4", "6", "21", "21"], "time": [1996, 2311, 2843, 2945, 4914, 5232, 5929, 6716, 6750, 6816, 6964, 8819, 9018]}, "edge": {"target": [], "time": []}}, "mouseout": {"state": {"target": ["0", "23", "27", "10", "16", "4", "8", "11", "8", "3", "4", "6", "21"], "time": [1965, 2030, 2812, 2862, 4637, 5035, 5799, 6602, 6749, 6799, 6900, 8751, 8852]}, "edge": {"target": [], "time": []}}}, "displayed_time": "15.72", "trialTime": 16469, "trial_type": "mouselab-mdp", "trial_index": 39, "time_elapsed": 885683, "internal_node_id": "0.0-6.0-1.0-24.0"}}, {"uniqueid": "w29104725:a20039058", "current_trial": 40, "dateTime": 1693842511523, "trialdata": {"revealed_states": [], "clicked_states": ["32"], "num_clicks_accrued": [0, 0, 0, 0, 0, 0, 0, 0, 0, 0, 0, 0, 0], "stateRewards": ["", -1, 3, 8, 9, -53, 20, -84, 2, -28, -62, -31, -1, -2, -7, 2, 51, 58, 45, -4, -17, -41, 36, 2, -2, -7, -15, 29, -54, -37, -16, -43, 65, -17], "withholdReward": false, "trial_id": "mdp_trial_26", "block": "test", "trialIndex": 29, "score": 40.6, "costs": -1.4, "simulationMode": [null, null, null, null, null], "rewards": [2, -2, -7, -16, 65], "path": ["0", "0", "23", "24", "25", "30", "32"], "rt": [3319, 109, 138, 112, 32], "actions": ["left", "left", "left", "down", "down"], "actionTimes": [4706, 5314, 5944, 6550, 7073], "queries": {"click": {"state": {"target": ["32"], "time": [2645]}, "edge": {"target": [], "time": []}}, "mouseover": {"state": {"target": ["0", "31", "32", "30", "25", "26", "27"], "time": [1887, 1983, 2286, 2903, 2954, 2987, 3237]}, "edge": {"target": [], "time": []}}, "mouseout": {"state": {"target": ["21", "1", "0", "31", "32", "30", "25", "26", "27", "24", "31"], "time": [482, 1018, 1916, 2002, 2722, 2954, 2969, 3002, 7740, 7805, 7841]}, "edge": {"target": [], "time": []}}}, "displayed_time": "15.40", "trialTime": 15934, "trial_type": "mouselab-mdp", "trial_index": 40, "time_elapsed": 901738, "internal_node_id": "0.0-6.0-1.0-25.0"}}, {"uniqueid": "w29104725:a20039058", "current_trial": 41, "dateTime": 1693842527901, "trialdata": {"revealed_states": [], "clicked_states": ["27", "16", "6"], "num_clicks_accrued": [0, 0, 0, 0, 0, 0, 0, 0, 0, 0, 0, 0, 0], "stateRewards": ["", -1, -4, -1, -11, 43, 69, 39, 4, 17, -20, -82, -2, -1, 4, 8, -79, 24, -79, 11, 36, 64, 41, 2, 4, -1, 11, -79, -47, 75, -3, 63, -36, -19], "withholdReward": false, "trial_id": "mdp_trial_27", "block": "test", "trialIndex": 30, "score": 47.8, "costs": -4.199999999999999, "simulationMode": [null, null, null, null, null], "rewards": [-1, -4, -1, -11, 69], "path": ["0", "0", "1", "2", "3", "4", "6"], "rt": [6998, 157, 135, 167, 141], "actions": ["up", "up", "up", "right", "right"], "actionTimes": [8133, 8782, 9409, 10075, 10716], "queries": {"click": {"state": {"target": ["27", "16", "6"], "time": [1890, 3858, 6076]}, "edge": {"target": [], "time": []}}, "mouseover": {"state": {"target": ["27", "10", "2", "7", "16", "6", "4", "11"], "time": [1553, 2283, 2303, 2334, 2469, 5770, 6305, 6655]}, "edge": {"target": [], "time": []}}, "mouseout": {"state": {"target": ["0", "27", "10", "2", "7", "16", "6", "4"], "time": [1436, 2217, 2302, 2330, 2353, 5705, 6141, 6339]}, "edge": {"target": [], "time": []}}}, "displayed_time": "15.15", "trialTime": 16249, "trial_type": "mouselab-mdp", "trial_index": 41, "time_elapsed": 918116, "internal_node_id": "0.0-6.0-1.0-26.0"}}, {"uniqueid": "w29104725:a20039058", "current_trial": 42, "dateTime": 1693842546851, "trialdata": {"revealed_states": [], "clicked_states": ["32", "21", "16", "27", "11", "6"], "num_clicks_accrued": [0, 0, 0, 0, 0, 0, 0, 0, 0, 0, 0, 0, 0], "stateRewards": ["", 1, -1, 8, 4, 76, -33, -17, -3, -1, -54, -74, -2, 2, -5, 13, -51, 63, 83, 1, 84, 29, -36, 2, -1, 7, -12, -10, -44, -43, -14, 8, -69, 19], "withholdReward": false, "trial_id": "mdp_trial_28", "block": "test", "trialIndex": 31, "score": 16.6, "costs": -8.4, "simulationMode": [null, null, null, null, null], "rewards": [-2, 2, -5, 1, 29], "path": ["0", "0", "12", "13", "14", "19", "21"], "rt": [12610, 47, 104, 2, 2], "actions": ["right", "right", "right", "down", "down"], "actionTimes": [13815, 14352, 14960, 15458, 15975], "queries": {"click": {"state": {"target": ["32", "21", "16", "27", "11", "6"], "time": [1849, 3920, 6070, 7956, 9925, 11891]}, "edge": {"target": [], "time": []}}, "mouseover": {"state": {"target": ["31", "32", "21", "19", "14", "15", "16", "16", "2", "27", "11", "11", "8", "3", "4", "6", "19"], "time": [1429, 1627, 2743, 4096, 4114, 4146, 4163, 4595, 6415, 6681, 8200, 8499, 10169, 10202, 10226, 10517, 12887]}, "edge": {"target": [], "time": []}}, "mouseout": {"state": {"target": ["11", "10", "31", "32", "21", "19", "14", "15", "16", "16", "2", "27", "11", "11", "8", "3", "4", "6", "19", "22"], "time": [528, 562, 1449, 1947, 4063, 4113, 4129, 4162, 4179, 6184, 6431, 8149, 8233, 10152, 10186, 10225, 10269, 12487, 17274, 17342]}, "edge": {"target": [], "time": []}}}, "displayed_time": "16.49", "trialTime": 18811, "trial_type": "mouselab-mdp", "trial_index": 42, "time_elapsed": 937065, "internal_node_id": "0.0-6.0-1.0-27.0"}}, {"uniqueid": "w29104725:a20039058", "current_trial": 43, "dateTime": 1693842563340, "trialdata": {"revealed_states": [], "clicked_states": ["11", "6", "21", "32"], "num_clicks_accrued": [0, 0, 0, 0, 0, 0, 0, 0, 0, 0, 0, 0, 0], "stateRewards": ["", -2, 2, -2, -7, -50, -62, -45, 7, 36, -24, -72, -1, -1, 8, -1, -67, 20, -52, 2, 35, -50, 80, -1, 1, 6, -6, -70, 6, 88, 8, -47, 74, -19], "withholdReward": false, "trial_id": "mdp_trial_29", "block": "test", "trialIndex": 32, "score": 82.4, "costs": -5.6, "simulationMode": [null, null, null, null, null], "rewards": [-1, 1, 6, 8, 74], "path": ["0", "0", "23", "24", "25", "30", "32"], "rt": [8849, 91, 69, 41, 100], "actions": ["left", "left", "left", "down", "down"], "actionTimes": [10025, 10612, 11173, 11711, 12320], "queries": {"click": {"state": {"target": ["11", "6", "21", "32"], "time": [2084, 4052, 5938, 7855]}, "edge": {"target": [], "time": []}}, "mouseover": {"state": {"target": ["10", "11", "8", "11", "8", "3", "4", "6", "19", "21", "32", "32", "25", "26", "27"], "time": [1530, 1579, 1780, 1879, 2262, 2327, 2413, 2713, 4514, 4830, 6248, 6431, 8133, 8166, 8483]}, "edge": {"target": [], "time": []}}, "mouseout": {"state": {"target": ["0", "0", "0", "10", "11", "8", "11", "8", "3", "4", "6", "19", "21", "32", "32", "25", "26"], "time": [629, 845, 962, 1545, 1712, 1829, 2245, 2296, 2378, 2613, 4412, 4748, 6051, 6281, 8033, 8150, 8201]}, "edge": {"target": [], "time": []}}}, "displayed_time": "15.19", "trialTime": 16302, "trial_type": "mouselab-mdp", "trial_index": 43, "time_elapsed": 953554, "internal_node_id": "0.0-6.0-1.0-28.0"}}, {"uniqueid": "w29104725:a20039058", "current_trial": 44, "dateTime": 1693842580599, "trialdata": {"revealed_states": [], "clicked_states": ["27", "16", "21"], "num_clicks_accrued": [0, 0, 0, 0, 0, 0, 0, 0, 0, 0, 0, 0, 0], "stateRewards": ["", -2, -3, -3, 9, 79, 67, 22, -15, -56, 27, -85, -2, 4, -4, -15, -20, -32, 60, 15, 71, 57, 17, 1, 2, -8, 15, -37, -81, 82, 15, 21, -3, 2], "withholdReward": false, "trial_id": "mdp_trial_30", "block": "test", "trialIndex": 33, "score": 65.8, "costs": -4.199999999999999, "simulationMode": [null, null, null, null, null], "rewards": [-2, 4, -4, 15, 57], "path": ["0", "0", "12", "13", "14", "19", "21"], "rt": [7322, 105, 155, 112, 142], "actions": ["right", "right", "right", "down", "down"], "actionTimes": [8513, 9121, 9772, 10378, 11009], "queries": {"click": {"state": {"target": ["27", "16", "21"], "time": [2335, 4319, 6320]}, "edge": {"target": [], "time": []}}, "mouseover": {"state": {"target": ["28", "27", "10", "7", "16", "14", "19", "21", "32"], "time": [1678, 1945, 2778, 2811, 3095, 4744, 4764, 4796, 6698]}, "edge": {"target": [], "time": []}}, "mouseout": {"state": {"target": ["27", "28", "28", "27", "10", "7", "16", "14", "19", "21"], "time": [543, 591, 1743, 2745, 2794, 2828, 4713, 4763, 4781, 6450]}, "edge": {"target": [], "time": []}}}, "displayed_time": "15.20", "trialTime": 17130, "trial_type": "mouselab-mdp", "trial_index": 44, "time_elapsed": 970814, "internal_node_id": "0.0-6.0-1.0-29.0"}}, {"uniqueid": "w29104725:a20039058", "current_trial": 45, "dateTime": 1693842596959, "trialdata": {"revealed_states": [], "clicked_states": ["11"], "num_clicks_accrued": [0, 0, 0, 0, 0, 0, 0, 0, 0, 0, 0, 0, 0], "stateRewards": ["", 1, 2, 8, -2, 23, -69, -18, -16, 54, -21, 71, -1, -4, 7, 11, 43, -6, 88, 6, -55, 72, 43, 1, -3, -2, -1, 68, -31, -54, 4, -8, 25, -2], "withholdReward": false, "trial_id": "mdp_trial_31", "block": "test", "trialIndex": 34, "score": 64.6, "costs": -1.4, "simulationMode": [null, null, null, null, null], "rewards": [1, 2, 8, -16, 71], "path": ["0", "0", "1", "2", "3", "8", "11"], "rt": [4175, 37, 72, 22, 9], "actions": ["up", "up", "up", "left", "left"], "actionTimes": [5357, 5894, 6482, 6997, 7503], "queries": {"click": {"state": {"target": ["11"], "time": [3046]}, "edge": {"target": [], "time": []}}, "mouseover": {"state": {"target": ["23", "24", "31", "24", "11", "8", "3", "4", "6"], "time": [1586, 1620, 1970, 2539, 2721, 3288, 3337, 3404, 3554]}, "edge": {"target": [], "time": []}}, "mouseout": {"state": {"target": ["32", "0", "0", "23", "24", "31", "24", "11", "8", "3", "4"], "time": [552, 921, 1553, 1603, 1636, 2529, 2571, 3270, 3321, 3388, 3454]}, "edge": {"target": [], "time": []}}}, "displayed_time": "15.20", "trialTime": 16204, "trial_type": "mouselab-mdp", "trial_index": 45, "time_elapsed": 987174, "internal_node_id": "0.0-6.0-1.0-30.0"}}, {"uniqueid": "w29104725:a20039058", "current_trial": 46, "dateTime": 1693842613561, "trialdata": {"revealed_states": [], "clicked_states": ["32"], "num_clicks_accrued": [0, 0, 0, 0, 0, 0, 0, 0, 0, 0, 0, 0, 0], "stateRewards": ["", -2, 2, 2, -6, 9, 37, 50, -13, -7, -18, -75, -2, -4, 4, 7, 23, -57, -66, -7, -81, -48, -76, 1, 1, -8, 1, 51, -2, 70, 14, 59, 71, -37], "withholdReward": false, "trial_id": "mdp_trial_32", "block": "test", "trialIndex": 35, "score": 77.6, "costs": -1.4, "simulationMode": [null, null, null, null, null], "rewards": [1, 1, -8, 14, 71], "path": ["0", "0", "23", "24", "25", "30", "32"], "rt": [2560, 73, 41, 527, 185], "actions": ["left", "left", "left", "down", "down"], "actionTimes": [3887, 4451, 4988, 6025, 6701], "queries": {"click": {"state": {"target": ["32"], "time": [1900]}, "edge": {"target": [], "time": []}}, "mouseover": {"state": {"target": ["32", "21"], "time": [1795, 2943]}, "edge": {"target": [], "time": []}}, "mouseout": {"state": {"target": ["6", "18", "12", "32"], "time": [661, 728, 893, 2077]}, "edge": {"target": [], "time": []}}}, "displayed_time": "15.33", "trialTime": 16464, "trial_type": "mouselab-mdp", "trial_index": 46, "time_elapsed": 1003776, "internal_node_id": "0.0-6.0-1.0-31.0"}}, {"uniqueid": "w29104725:a20039058", "current_trial": 47, "dateTime": 1693842629523, "trialdata": {"revealed_states": [], "clicked_states": ["21"], "num_clicks_accrued": [0, 0, 0, 0, 0, 0, 0, 0, 0, 0, 0, 0, 0], "stateRewards": ["", -2, -1, -1, 5, -54, -87, 35, 2, -8, 20, -22, 1, 3, 6, 13, -75, -32, -55, -3, 56, 62, -22, -1, -4, -1, -7, -51, 84, 70, 7, -15, 5, 55], "withholdReward": false, "trial_id": "mdp_trial_33", "block": "test", "trialIndex": 36, "score": 67.6, "costs": -1.4, "simulationMode": [null, null, null, null, null], "rewards": [1, 3, 6, -3, 62], "path": ["0", "0", "12", "13", "14", "19", "21"], "rt": [3243, 112, 117, 198, 243], "actions": ["right", "right", "right", "down", "down"], "actionTimes": [4291, 4898, 5504, 6203, 6948], "queries": {"click": {"state": {"target": ["21"], "time": [2160]}, "edge": {"target": [], "time": []}}, "mouseover": {"state": {"target": ["12", "13", "14", "19", "21", "20", "16"], "time": [1401, 1450, 1552, 1618, 1802, 2501, 3420]}, "edge": {"target": [], "time": []}}, "mouseout": {"state": {"target": ["21", "20", "12", "12", "13", "14", "19", "21", "20"], "time": [465, 516, 733, 1434, 1500, 1585, 1684, 2468, 2518]}, "edge": {"target": [], "time": []}}}, "displayed_time": "15.06", "trialTime": 15820, "trial_type": "mouselab-mdp", "trial_index": 47, "time_elapsed": 1019738, "internal_node_id": "0.0-6.0-1.0-32.0"}}, {"uniqueid": "w29104725:a20039058", "current_trial": 48, "dateTime": 1693842646257, "trialdata": {"revealed_states": [], "clicked_states": ["27"], "num_clicks_accrued": [0, 0, 0, 0, 0, 0, 0, 0, 0, 0, 0, 0, 0], "stateRewards": ["", -1, -3, 4, -10, -5, 79, -87, -2, 53, 29, -20, -2, -1, -5, 10, 27, 86, 46, -16, -29, 40, 3, 2, 4, -1, -6, 37, 79, -29, 7, 86, -62, 29], "withholdReward": false, "trial_id": "mdp_trial_34", "block": "test", "trialIndex": 37, "score": 34.6, "costs": -1.4, "simulationMode": [null, null, null, null, null], "rewards": [2, 4, -1, -6, 37], "path": ["0", "0", "23", "24", "25", "26", "27"], "rt": [3605, 152, 109, 115, 81], "actions": ["left", "left", "left", "up", "up"], "actionTimes": [4839, 5493, 6102, 6710, 7292], "queries": {"click": {"state": {"target": ["27"], "time": [1796]}, "edge": {"target": [], "time": []}}, "mouseover": {"state": {"target": ["0", "23", "24", "26", "27", "10", "2", "7", "16"], "time": [1245, 1286, 1338, 1422, 1591, 2407, 2422, 2443, 2505]}, "edge": {"target": [], "time": []}}, "mouseout": {"state": {"target": ["16", "4", "7", "1", "0", "23", "24", "26", "27", "10", "2", "7", "16", "15", "14"], "time": [421, 637, 689, 823, 1253, 1320, 1355, 1523, 1876, 2421, 2442, 2454, 10914, 10929, 10947]}, "edge": {"target": [], "time": []}}}, "displayed_time": "15.24", "trialTime": 16612, "trial_type": "mouselab-mdp", "trial_index": 48, "time_elapsed": 1036472, "internal_node_id": "0.0-6.0-1.0-33.0"}}, {"uniqueid": "w29104725:a20039058", "current_trial": 49, "dateTime": 1693842663060, "trialdata": {"revealed_states": [], "clicked_states": ["21"], "num_clicks_accrued": [0, 0, 0, 0, 0, 0, 0, 0, 0, 0, 0, 0, 0], "stateRewards": ["", -2, -1, -5, 10, -36, -70, 68, -9, 86, 71, -10, 2, -4, 7, -7, 66, 44, -66, -13, -69, 43, 15, -2, 2, 6, -13, 62, 57, 50, -10, -69, 42, -72], "withholdReward": false, "trial_id": "mdp_trial_35", "block": "test", "trialIndex": 38, "score": 33.6, "costs": -1.4, "simulationMode": [null, null, null, null, null], "rewards": [2, -4, 7, -13, 43], "path": ["0", "0", "12", "13", "14", "19", "21"], "rt": [3509, 25, 76, 72, 86], "actions": ["right", "right", "right", "down", "down"], "actionTimes": [4885, 5403, 5985, 6550, 7133], "queries": {"click": {"state": {"target": ["21"], "time": [2746]}, "edge": {"target": [], "time": []}}, "mouseover": {"state": {"target": ["12", "13", "19", "21", "19", "15", "16"], "time": [1874, 1922, 2108, 2192, 2889, 2958, 3257]}, "edge": {"target": [], "time": []}}, "mouseout": {"state": {"target": ["0", "12", "13", "19", "21", "19", "15", "16", "7", "2", "1", "0"], "time": [991, 1908, 1972, 2142, 2795, 2906, 2974, 15618, 15736, 15802, 15868, 15918]}, "edge": {"target": [], "time": []}}}, "displayed_time": "15.38", "trialTime": 16652, "trial_type": "mouselab-mdp", "trial_index": 49, "time_elapsed": 1053275, "internal_node_id": "0.0-6.0-1.0-34.0"}}, {"uniqueid": "w29104725:a20039058", "current_trial": 50, "dateTime": 1693842680294, "trialdata": {"revealed_states": [], "clicked_states": ["32"], "num_clicks_accrued": [0, 0, 0, 0, 0, 0, 0, 0, 0, 0, 0, 0, 0], "stateRewards": ["", -1, 3, -4, -14, 78, 67, 2, 13, -32, 28, 39, -2, 1, -4, -4, -4, -42, -86, 11, 64, -29, -32, -1, -4, 2, -7, 5, 68, -61, 2, -21, 85, 50], "withholdReward": false, "trial_id": "mdp_trial_36", "block": "test", "trialIndex": 39, "score": 82.6, "costs": -1.4, "simulationMode": [null, null, null, null, null], "rewards": [-1, -4, 2, 2, 85], "path": ["0", "0", "23", "24", "25", "30", "32"], "rt": [2793, 137, 1056, 179, 194], "actions": ["left", "left", "left", "down", "down"], "actionTimes": [3739, 4369, 5922, 6596, 7293], "queries": {"click": {"state": {"target": ["32"], "time": [1683]}, "edge": {"target": [], "time": []}}, "mouseover": {"state": {"target": ["23", "24", "30", "32", "30", "26", "27", "27"], "time": [1196, 1228, 1330, 1513, 1812, 1845, 1863, 2212]}, "edge": {"target": [], "time": []}}, "mouseout": {"state": {"target": ["0", "23", "24", "30", "32", "30", "26", "27", "27", "28", "23"], "time": [1162, 1212, 1263, 1461, 1795, 1830, 1862, 1879, 16260, 16292, 16326]}, "edge": {"target": [], "time": []}}}, "displayed_time": "14.95", "trialTime": 17079, "trial_type": "mouselab-mdp", "trial_index": 50, "time_elapsed": 1070509, "internal_node_id": "0.0-6.0-1.0-35.0"}}, {"uniqueid": "w29104725:a20039058", "current_trial": 51, "dateTime": 1693842697044, "trialdata": {"revealed_states": [], "clicked_states": ["11", "6", "16"], "num_clicks_accrued": [0, 0, 0, 0, 0, 0, 0, 0, 0, 0, 0, 0, 0], "stateRewards": ["", -2, -4, -6, 12, -58, -70, -80, 2, 16, -88, -62, 1, 2, -5, 11, 77, -35, -44, -5, 18, -83, 87, 1, -3, -5, 13, -44, -21, -86, 10, -52, 8, 29], "withholdReward": false, "trial_id": "mdp_trial_37", "block": "test", "trialIndex": 40, "score": 81.8, "costs": -4.199999999999999, "simulationMode": [null, null, null, null, null], "rewards": [1, 2, -5, 11, 77], "path": ["0", "0", "12", "13", "14", "15", "16"], "rt": [7234, 168, 443, 242, 79], "actions": ["right", "right", "right", "up", "up"], "actionTimes": [8265, 8930, 9876, 10608, 11179], "queries": {"click": {"state": {"target": ["11", "6", "16"], "time": [1712, 3749, 6220]}, "edge": {"target": [], "time": []}}, "mouseover": {"state": {"target": ["11", "8", "3", "4", "6", "19", "21", "19", "14", "15", "16", "18", "12", "31", "26", "27"], "time": [1558, 2123, 2156, 2191, 2524, 4160, 4492, 5679, 5726, 5777, 6030, 6562, 6596, 7196, 7244, 7264]}, "edge": {"target": [], "time": []}}, "mouseout": {"state": {"target": ["0", "11", "8", "3", "4", "6", "19", "21", "19", "14", "15", "16", "18", "12", "31", "26", "27"], "time": [1130, 2107, 2141, 2174, 2225, 4094, 4211, 5678, 5712, 5762, 5994, 6530, 6579, 6613, 7214, 7264, 16053]}, "edge": {"target": [], "time": []}}}, "displayed_time": "15.04", "trialTime": 16609, "trial_type": "mouselab-mdp", "trial_index": 51, "time_elapsed": 1087258, "internal_node_id": "0.0-6.0-1.0-36.0"}}, {"uniqueid": "w29104725:a20039058", "current_trial": 52, "dateTime": 1693842713346, "trialdata": {"revealed_states": [], "clicked_states": ["32"], "num_clicks_accrued": [0, 0, 0, 0, 0, 0, 0, 0, 0, 0, 0, 0, 0], "stateRewards": ["", 1, -3, -6, -5, 47, 80, -29, 11, -71, 10, -29, -2, 3, -6, 12, 2, -78, -6, 8, 34, -16, -5, -1, 3, 3, -13, 84, -36, -62, -3, -27, 66, 15], "withholdReward": false, "trial_id": "mdp_trial_38", "block": "test", "trialIndex": 41, "score": 66.6, "costs": -1.4, "simulationMode": [null, null, null, null, null], "rewards": [-1, 3, 3, -3, 66], "path": ["0", "0", "23", "24", "25", "30", "32"], "rt": [2632, 90, 114, 106, 134], "actions": ["left", "left", "left", "down", "down"], "actionTimes": [3737, 4321, 4929, 5536, 6167], "queries": {"click": {"state": {"target": ["32"], "time": [1735]}, "edge": {"target": [], "time": []}}, "mouseover": {"state": {"target": ["23", "32", "30", "25", "26", "27"], "time": [1294, 1565, 1880, 1897, 1930, 2197]}, "edge": {"target": [], "time": []}}, "mouseout": {"state": {"target": ["23", "0", "23", "32", "30", "25", "26"], "time": [763, 1252, 1331, 1847, 1897, 1929, 1963]}, "edge": {"target": [], "time": []}}}, "displayed_time": "15.11", "trialTime": 16154, "trial_type": "mouselab-mdp", "trial_index": 52, "time_elapsed": 1103560, "internal_node_id": "0.0-6.0-1.0-37.0"}}, {"uniqueid": "w29104725:a20039058", "current_trial": 53, "dateTime": 1693842729617, "trialdata": {"revealed_states": [], "clicked_states": ["27", "16"], "num_clicks_accrued": [0, 0, 0, 0, 0, 0, 0, 0, 0, 0, 0, 0, 0], "stateRewards": ["", 1, 1, -6, -2, 7, 77, 3, 16, -16, 66, 31, -1, 3, -8, -6, 33, -50, -48, 7, -60, -66, 36, 2, -3, 3, -7, -12, -61, -79, -4, 8, 74, -70], "withholdReward": false, "trial_id": "mdp_trial_39", "block": "test", "trialIndex": 42, "score": 18.2, "costs": -2.8, "simulationMode": [null, null, null, null, null], "rewards": [-1, 3, -8, -6, 33], "path": ["0", "0", "12", "13", "14", "15", "16"], "rt": [4771, 111, 127, 71, 111], "actions": ["right", "right", "right", "up", "up"], "actionTimes": [5903, 6508, 7139, 7701, 8308], "queries": {"click": {"state": {"target": ["27", "16"], "time": [1846, 3900]}, "edge": {"target": [], "time": []}}, "mouseover": {"state": {"target": ["27", "27", "10", "2", "7", "16"], "time": [1441, 1674, 2226, 2259, 2291, 2357]}, "edge": {"target": [], "time": []}}, "mouseout": {"state": {"target": ["27", "27", "27", "27", "10", "2", "7", "16", "16", "18", "12"], "time": [543, 1456, 1915, 2175, 2241, 2275, 2307, 14887, 15186, 15254, 15269]}, "edge": {"target": [], "time": []}}}, "displayed_time": "15.14", "trialTime": 16139, "trial_type": "mouselab-mdp", "trial_index": 53, "time_elapsed": 1119831, "internal_node_id": "0.0-6.0-1.0-38.0"}}, {"uniqueid": "w29104725:a20039058", "current_trial": 54, "dateTime": 1693842746856, "trialdata": {"revealed_states": [], "clicked_states": ["27"], "num_clicks_accrued": [0, 0, 0, 0, 0, 0, 0, 0, 0, 0, 0, 0, 0], "stateRewards": ["", -1, -3, -6, -2, -7, 80, -45, -3, -38, -72, 76, 2, 1, 7, 4, -62, 14, -74, 14, -87, -21, -88, -2, 1, -7, -10, 66, 56, -76, 10, -29, -72, -70], "withholdReward": false, "trial_id": "mdp_trial_40", "block": "test", "trialIndex": 43, "score": 46.6, "costs": -1.4, "simulationMode": [null, null, null, null, null], "rewards": [-2, 1, -7, -10, 66], "path": ["0", "0", "23", "24", "25", "26", "27"], "rt": [2649, 125, 156, 73, 78], "actions": ["left", "left", "left", "up", "up"], "actionTimes": [3614, 4239, 4888, 5454, 6027], "queries": {"click": {"state": {"target": ["27"], "time": [1584]}, "edge": {"target": [], "time": []}}, "mouseover": {"state": {"target": ["28", "27", "11"], "time": [1145, 1395, 2143]}, "edge": {"target": [], "time": []}}, "mouseout": {"state": {"target": ["0", "28", "27"], "time": [1093, 1176, 2094]}, "edge": {"target": [], "time": []}}}, "displayed_time": "14.97", "trialTime": 17068, "trial_type": "mouselab-mdp", "trial_index": 54, "time_elapsed": 1137070, "internal_node_id": "0.0-6.0-1.0-39.0"}}, {"uniqueid": "w29104725:a20039058", "current_trial": 55, "dateTime": 1693842786430, "trialdata": {"rt": 39568, "response": {"Q0": "$-2 to $2", "Q1": "$-32 to $32", "Q2": "$-88 to $88", "Q3": "The cost for clicking on nodes varied between nodes.", "Q4": "Very motivated"}, "question_order": [0, 1, 2, 3, 4], "trial_id": "final_quiz_control", "trial_type": "survey-multi-choice", "trial_index": 55, "time_elapsed": 1176644, "internal_node_id": "0.0-6.0-2.0"}}, {"uniqueid": "w29104725:a20039058", "current_trial": 56, "dateTime": 1693842851565, "trialdata": {"rt": 65126, "response": {"Q0": "I worked out that the highest paying nodes were on the last step, so used my detector to see which was the best paying of those.", "Q1": "Yes - it took me a few attempts to work out that I should focus on the final step nodes.", "Q2": "It was quite easy to be honest."}, "trial_id": "self_report_control", "trial_type": "survey-text", "trial_index": 56, "time_elapsed": 1241780, "internal_node_id": "0.0-6.0-3.0"}}, {"uniqueid": "w29104725:a20039058", "current_trial": 57, "dateTime": 1693842866110, "trialdata": {"rt": 14542, "response": {"gender": "male", "age": "42", "colorblind": "0", "effort": "0"}, "trial_type": "survey-html-form", "trial_index": 57, "time_elapsed": 1256325, "internal_node_id": "0.0-6.0-4.0"}}, {"uniqueid": "w29104725:a20039058", "current_trial": 58, "dateTime": 1693842891498, "trialdata": {"rt": 25384, "response": {"Q0": "No, I think I followed the instructions quite well.", "Q1": "No I didn't", "Q2": "That was fun, thanks!"}, "trial_type": "survey-text", "trial_index": 58, "time_elapsed": 1281712, "internal_node_id": "0.0-6.0-5.0"}}, {"uniqueid": "w29104725:a20039058", "current_trial": 59, "dateTime": 1693842923876, "trialdata": {"rt": 32374, "stimulus": "<h1>Completion Code Instructions (1/2)</h1>\n<br><br><br><br>\nYou have reached the end of the experiment! The completion code consists of two parts: (1) a code with 2 characters (2) a code with 6 characters. On this page, you will receive the second part of the code. The first part of the completion code will be on the next page.\n<br><br>\nThe second part of your completion code is: <b>EWEK22</b>\n<br><br>\nPlease note this down. Then, press 'Next' in order to find the first part of your completion code. Once the data has been saved, you will receive this code either in this window or in the original browser window where you started the experiment.\n <br><br>\n<h2 style='color: red;'>Note: this is <strong>NOT</strong> the full completion code. Copy this down and click 'Next' to get the full completion code on the next page.</h2>", "response": 0, "trial_type": "html-button-response", "trial_index": 59, "time_elapsed": 1314091, "internal_node_id": "0.0-6.0-6.0"}}, {"uniqueid": "w29104725:a20039058", "current_trial": 60, "dateTime": 1693842924882, "trialdata": {"success": true, "trial_type": "fullscreen", "trial_index": 60, "time_elapsed": 1315097, "internal_node_id": "0.0-7.0"}}], "questiondata": {"params": {"CODE": "C6DMOQA6", "MIN_TIME": 14, "inspectCost": 1, "startTime": "Mon Sep 04 2023 16:33:28 GMT+0100 (British Summer Time)", "bonusRate": 0.002, "variance": "1_2_4_8_44", "branching": "31123"}, "final_score": 1733}, "eventdata": [{"eventtype": "initialized", "value": null, "timestamp": 1693841608501, "interval": 0}, {"eventtype": "window_resize", "value": [1024, 767], "timestamp": 1693841608501, "interval": 0}, {"eventtype": "window_resize", "value": [1024, 767], "timestamp": 1693841608857, "interval": 356}, {"eventtype": "focus", "value": "off", "timestamp": 1693841614122, "interval": 5265}, {"eventtype": "focus", "value": "on", "timestamp": 1693841646482, "interval": 32360}, {"eventtype": "focus", "value": "off", "timestamp": 1693841648783, "interval": 2301}, {"eventtype": "focus", "value": "on", "timestamp": 1693841650255, "interval": 1472}, {"eventtype": "window_resize", "value": [2560, 1440], "timestamp": 1693841651903, "interval": 1648}, {"eventtype": "focus", "value": "off", "timestamp": 1693841659044, "interval": 7141}, {"eventtype": "focus", "value": "on", "timestamp": 1693841699936, "interval": 40892}, {"eventtype": "focus", "value": "off", "timestamp": 1693841895439, "interval": 195503}, {"eventtype": "focus", "value": "on", "timestamp": 1693841895600, "interval": 161}, {"eventtype": "window_resize", "value": [1024, 767], "timestamp": 1693841895660, "interval": 60}, {"eventtype": "window_resize", "value": [2560, 1440], "timestamp": 1693841897300, "interval": 1640}, {"eventtype": "focus", "value": "off", "timestamp": 1693842292831, "interval": 395531}, {"eventtype": "focus", "value": "on", "timestamp": 1693842293759, "interval": 928}, {"eventtype": "focus", "value": "off", "timestamp": 1693842381095, "interval": 87336}, {"eventtype": "focus", "value": "on", "timestamp": 1693842384368, "interval": 3273}, {"eventtype": "focus", "value": "off", "timestamp": 1693842452438, "interval": 68070}, {"eventtype": "focus", "value": "on", "timestamp": 1693842462003, "interval": 9565}, {"eventtype": "window_resize", "value": [1024, 767], "timestamp": 1693842924181, "interval": 462178}], "useragent": "Mozilla/5.0 (Macintosh; Intel Mac OS X 10_15_7) AppleWebKit/537.36 (KHTML, like Gecko) Chrome/116.0.0.0 Safari/537.36", "mode": "live", "id": "w29104725:a20039058", "status": "user data saved", "Beginhit": "2023-09-04 15:33:27.409769", "Beginexp": "2023-09-04 15:34:12.9377", "Endhit": "2023-09-04 15:55:25.683137", "psiturkStatus": 3, "browser": "<redacted>", "platform": "macos", "language": "en-GB"}