{"condition": 0, "counterbalance": 0, "assignmentId": "a75562611", "workerId": "w14925228", "hitId": "h20610039", "currenttrial": 61, "bonus": 0, "data": [{"uniqueid": "w14925228:a75562611", "current_trial": 0, "dateTime": 1693390032140, "trialdata": {"success": true, "trial_type": "fullscreen", "trial_index": 0, "time_elapsed": 8095, "internal_node_id": "0.0-0.0"}}, {"uniqueid": "w14925228:a75562611", "current_trial": 1, "dateTime": 1693390040019, "trialdata": {"view_history": [{"page_index": 0, "viewing_time": 7876}], "rt": 7876, "trial_id": "exp_instructions_control", "trial_type": "instructions", "trial_index": 1, "time_elapsed": 15974, "internal_node_id": "0.0-1.0"}}, {"uniqueid": "w14925228:a75562611", "current_trial": 2, "dateTime": 1693390285445, "trialdata": {"view_history": [{"page_index": 0, "viewing_time": 130374}, {"page_index": 1, "viewing_time": 61286}, {"page_index": 2, "viewing_time": 24788}, {"page_index": 3, "viewing_time": 28972}], "rt": 245421, "trial_id": "mouselab_instructions_1_control", "trial_type": "instructions", "trial_index": 2, "time_elapsed": 261400, "internal_node_id": "0.0-2.0-1.0"}}, {"uniqueid": "w14925228:a75562611", "current_trial": 3, "dateTime": 1693390335328, "trialdata": {"revealed_states": [], "clicked_states": ["27", "26", "28", "25", "24", "23", "12", "13", "14", "19", "22", "21", "20"], "num_clicks_accrued": [0, 0, 0, 0, 0, 0, 0, 0, 0, 0, 0, 0, 0], "stateRewards": ["", -10, -10, 10, 10, -10, 10, 10, -10, 10, -10, -10, 10, 10, 10, 10, 10, -10, 10, 10, 10, -10, -10, -10, -10, 10, 10, 10, 10, 10, 10, 10, 10, 10], "withholdReward": false, "trial_id": "practice_1", "block": "test", "trialIndex": 0, "score": 47, "costs": -6.5, "simulationMode": [null, null, null, null, null], "rewards": [10, 10, 10, 10, 10], "path": ["0", "0", "12", "13", "14", "19", "20"], "rt": [35574, 381, 106, 217, 300], "actions": ["right", "right", "right", "down", "right"], "actionTimes": [39566, 40440, 41046, 41759, 42559], "queries": {"click": {"state": {"target": ["27", "26", "28", "25", "24", "23", "12", "13", "14", "19", "22", "21", "20"], "time": [9515, 12792, 15189, 19727, 22387, 24950, 26523, 28335, 29706, 31104, 32659, 34677, 36043]}, "edge": {"target": [], "time": []}}, "mouseover": {"state": {"target": ["23", "24", "25", "29", "27", "26", "28", "28", "25", "24", "23", "0", "12", "12", "1", "13", "14", "19", "22", "21", "21", "21", "20", "13", "12", "0"], "time": [4457, 4541, 4575, 5708, 6475, 10264, 13032, 14432, 16384, 20156, 22773, 25227, 25260, 25494, 26845, 28077, 28578, 30533, 32449, 32949, 33599, 34500, 35200, 38136, 38319, 38553]}, "edge": {"target": [], "time": []}}, "mouseout": {"state": {"target": ["23", "24", "25", "23", "23", "24", "25", "29", "27", "26", "28", "28", "25", "24", "23", "0", "12", "12", "1", "13", "14", "19", "19", "22", "21", "21", "21", "20", "20", "13", "12", "0", "0"], "time": [null, null, 3, 2559, 4508, 4574, 4608, 5792, 10197, 13015, 13065, 16250, 20056, 22657, 25194, 25243, 25276, 26729, 27977, 28495, 29948, 31171, 32364, 32915, 32965, 33682, 34884, 36237, 37935, 38187, 38386, 38719, 44558]}, "edge": {"target": [], "time": []}}}, "displayed_time": "43.06", "trialTime": 49599, "trial_type": "mouselab-mdp", "trial_index": 3, "time_elapsed": 311282, "internal_node_id": "0.0-2.0-2.0-0.0"}}, {"uniqueid": "w14925228:a75562611", "current_trial": 4, "dateTime": 1693390360777, "trialdata": {"revealed_states": [], "clicked_states": ["1", "2", "12", "13", "23", "24", "25", "30", "26", "31"], "num_clicks_accrued": [0, 0, 0, 0, 0, 0, 0, 0, 0, 0, 0, 0, 0], "stateRewards": ["", 10, -10, 10, -10, 10, 10, -10, -10, -10, -10, 10, -10, -10, -10, 10, 10, 10, 10, 10, 10, 10, 10, 10, 10, 10, -10, 10, 10, 10, -10, 10, -10, -10], "withholdReward": false, "trial_id": "practice_2", "block": "test", "trialIndex": 1, "score": 28.5, "costs": -5, "simulationMode": [null, null, null, null, null], "rewards": [10, 10, 10, -10, 10], "path": ["0", "0", "23", "24", "25", "30", "31"], "rt": [18626, 593, 133, 98, 67], "actions": ["left", "left", "left", "down", "right"], "actionTimes": [20720, 21813, 22436, 23036, 23604], "queries": {"click": {"state": {"target": ["1", "2", "12", "13", "23", "24", "25", "30", "26", "31"], "time": [2912, 4378, 6570, 8000, 9296, 10668, 12182, 13655, 15746, 17864]}, "edge": {"target": [], "time": []}}, "mouseover": {"state": {"target": ["1", "2", "3", "12", "13", "0", "23", "24", "25", "30", "32", "31", "24", "26", "28", "24", "31", "32", "30", "24"], "time": [2734, 3220, 4739, 6354, 6907, 8391, 8923, 10260, 12092, 13159, 14010, 15095, 15428, 15628, 16849, 17563, 17765, 18400, 19064, 19998]}, "edge": {"target": [], "time": []}}, "mouseout": {"state": {"target": ["0", "1", "2", "3", "12", "13", "12", "0", "23", "24", "24", "25", "30", "32", "31", "24", "26", "28", "24", "31", "31", "32", "30", "24"], "time": [1883, 3154, 4538, 6137, 6859, 8291, 8373, 8439, 10193, 11192, 12009, 12459, 13911, 14945, 15396, 15444, 15981, 17530, 17613, 17884, 18099, 19014, 19097, 20048]}, "edge": {"target": [], "time": []}}}, "displayed_time": "24.11", "trialTime": 25317, "trial_type": "mouselab-mdp", "trial_index": 4, "time_elapsed": 336731, "internal_node_id": "0.0-2.0-2.0-1.0"}}, {"uniqueid": "w14925228:a75562611", "current_trial": 5, "dateTime": 1693390406201, "trialdata": {"view_history": [{"page_index": 0, "viewing_time": 41758}, {"page_index": 1, "viewing_time": 3662}], "rt": 45420, "trial_id": "mouselab_instructions_2_control", "trial_type": "instructions", "trial_index": 5, "time_elapsed": 382156, "internal_node_id": "0.0-2.0-3.0"}}, {"uniqueid": "w14925228:a75562611", "current_trial": 6, "dateTime": 1693390452108, "trialdata": {"rt": 45904, "response": {"Q0": "The cost for clicking on nodes may vary between nodes.", "Q1": "The better I perform the higher my bonus will be.", "Q2": "No, the amount of cash at each node of the web may be different each time.", "Q3": "To get the highest total score.", "Q4": "Only before moving the spider.", "Q5": "10 seconds"}, "question_order": [0, 1, 2, 3, 4, 5], "correct": {"Q0": "The cost for clicking on nodes may vary between nodes.", "Q1": "The better I perform the higher my bonus will be.", "Q2": "No, the amount of cash at each node of the web may be different each time.", "Q3": "To get the highest total score.", "Q4": "Only before moving the spider.", "Q5": "3 seconds"}, "trial_id": "mouselab_quiz_control", "trial_type": "survey-multi-choice", "trial_index": 6, "time_elapsed": 428063, "internal_node_id": "0.0-2.0-4.0"}}, {"uniqueid": "w14925228:a75562611", "current_trial": 7, "dateTime": 1693390465398, "trialdata": {"success": true, "trial_type": "fullscreen", "trial_index": 7, "time_elapsed": 441353, "internal_node_id": "0.0-2.1-0.1-0.1"}}, {"uniqueid": "w14925228:a75562611", "current_trial": 8, "dateTime": 1693390470975, "trialdata": {"view_history": [{"page_index": 0, "viewing_time": 1556}, {"page_index": 1, "viewing_time": 2001}, {"page_index": 2, "viewing_time": 1163}, {"page_index": 3, "viewing_time": 856}], "rt": 5576, "trial_id": "mouselab_instructions_1_control", "trial_type": "instructions", "trial_index": 8, "time_elapsed": 446930, "internal_node_id": "0.0-2.1-1.1"}}, {"uniqueid": "w14925228:a75562611", "current_trial": 9, "dateTime": 1693390476985, "trialdata": {"revealed_states": [], "clicked_states": [], "num_clicks_accrued": [0, 0, 0, 0, 0, 0, 0, 0, 0, 0, 0, 0, 0], "stateRewards": ["", -10, -10, 10, 10, -10, 10, 10, -10, 10, -10, -10, 10, 10, 10, 10, 10, -10, 10, 10, 10, -10, -10, -10, -10, 10, 10, 10, 10, 10, 10, 10, 10, 10], "withholdReward": false, "trial_id": "practice_1", "block": "test", "trialIndex": 2, "score": 33.5, "costs": 0, "simulationMode": [null, null, null, null, null], "rewards": [10, 10, 10, 10, -10], "path": ["0", "0", "12", "13", "14", "19", "22"], "rt": [683, 34, 84, 686, 254], "actions": ["right", "right", "right", "down", "left"], "actionTimes": [1305, 1830, 2413, 3599, 4351], "queries": {"click": {"state": {"target": [], "time": []}, "edge": {"target": [], "time": []}}, "mouseover": {"state": {"target": [], "time": []}, "edge": {"target": [], "time": []}}, "mouseout": {"state": {"target": ["0"], "time": [4894]}, "edge": {"target": [], "time": []}}}, "displayed_time": "4.85", "trialTime": 5871, "trial_type": "mouselab-mdp", "trial_index": 9, "time_elapsed": 452939, "internal_node_id": "0.0-2.1-2.1-0.1"}}, {"uniqueid": "w14925228:a75562611", "current_trial": 10, "dateTime": 1693390482431, "trialdata": {"revealed_states": [], "clicked_states": [], "num_clicks_accrued": [0, 0, 0, 0, 0, 0, 0, 0, 0, 0, 0, 0, 0], "stateRewards": ["", 10, -10, 10, -10, 10, 10, -10, -10, -10, -10, 10, -10, -10, -10, 10, 10, 10, 10, 10, 10, 10, 10, 10, 10, 10, -10, 10, 10, 10, -10, 10, -10, -10], "withholdReward": false, "trial_id": "practice_2", "block": "test", "trialIndex": 3, "score": 33.5, "costs": 0, "simulationMode": [null, null, null, null, null], "rewards": [10, 10, 10, -10, 10], "path": ["0", "0", "23", "24", "25", "30", "31"], "rt": [195, 23, 66, 501, 42], "actions": ["left", "left", "left", "down", "right"], "actionTimes": [1862, 2386, 2946, 3948, 4490], "queries": {"click": {"state": {"target": [], "time": []}, "edge": {"target": [], "time": []}}, "mouseover": {"state": {"target": [], "time": []}, "edge": {"target": [], "time": []}}, "mouseout": {"state": {"target": ["0", "0"], "time": [1525, 4562]}, "edge": {"target": [], "time": []}}}, "displayed_time": "5.00", "trialTime": 5315, "trial_type": "mouselab-mdp", "trial_index": 10, "time_elapsed": 458386, "internal_node_id": "0.0-2.1-2.1-1.1"}}, {"uniqueid": "w14925228:a75562611", "current_trial": 11, "dateTime": 1693390489899, "trialdata": {"view_history": [{"page_index": 0, "viewing_time": 6210}, {"page_index": 1, "viewing_time": 1254}], "rt": 7465, "trial_id": "mouselab_instructions_2_control", "trial_type": "instructions", "trial_index": 11, "time_elapsed": 465854, "internal_node_id": "0.0-2.1-3.1"}}, {"uniqueid": "w14925228:a75562611", "current_trial": 12, "dateTime": 1693390515630, "trialdata": {"rt": 25729, "response": {"Q0": "The cost for clicking on nodes may vary between nodes.", "Q1": "The better I perform the higher my bonus will be.", "Q2": "No, the amount of cash at each node of the web may be different each time.", "Q3": "To get the highest total score.", "Q4": "Only before moving the spider.", "Q5": "3 seconds"}, "question_order": [0, 1, 2, 3, 4, 5], "correct": {"Q0": "The cost for clicking on nodes may vary between nodes.", "Q1": "The better I perform the higher my bonus will be.", "Q2": "No, the amount of cash at each node of the web may be different each time.", "Q3": "To get the highest total score.", "Q4": "Only before moving the spider.", "Q5": "3 seconds"}, "trial_id": "mouselab_quiz_control", "trial_type": "survey-multi-choice", "trial_index": 12, "time_elapsed": 491585, "internal_node_id": "0.0-2.1-4.1"}}, {"uniqueid": "w14925228:a75562611", "current_trial": 13, "dateTime": 1693390525176, "trialdata": {"rt": 9539, "response": {"Q0": "No"}, "question_order": [0], "trial_id": "repeat_check", "trial_type": "survey-multi-choice", "trial_index": 13, "time_elapsed": 501131, "internal_node_id": "0.0-4.0-0.0"}}, {"uniqueid": "w14925228:a75562611", "current_trial": 14, "dateTime": 1693390534121, "trialdata": {"rt": 8939, "stimulus": "\n<h1> Get ready to start the game! </h1>\n\nThank you for reading the instructions. Get ready start with the 40 rounds of this game.\n<br><br>\nIf you need to take a break, feel free to take one after the end of a round, before continuing to the next one.\n<br><br>\nRemember, the more money the spider gets, the bigger your bonus will be!\n<br><br>\n<div style='text-align: center;'>Press <code>space</code> to begin.</div>\n\n<br><br>\n(If, at any point, the <code>space</code> key does not take you to the next page, click once on the text and try again.)", "response": " ", "trial_id": "mdp_ready", "trial_type": "html-keyboard-response", "trial_index": 14, "time_elapsed": 510076, "internal_node_id": "0.0-6.0-0.0"}}, {"uniqueid": "w14925228:a75562611", "current_trial": 15, "dateTime": 1693390574159, "trialdata": {"revealed_states": [], "clicked_states": ["12", "1", "13", "14", "15", "19", "22", "21", "20", "23", "24", "25", "30", "31"], "num_clicks_accrued": [0, 0, 0, 0, 0, 0, 0, 0, 0, 0, 0, 0, 0], "stateRewards": ["", -2, -3, 8, 14, -73, 73, 84, -12, -2, -50, -17, 2, 1, -2, -9, -44, -27, -33, 16, -63, -47, -66, -2, 1, 4, -5, -33, -11, 50, 9, 38, -79, 31], "withholdReward": false, "trial_id": "mdp_trial_1", "block": "test", "trialIndex": 4, "score": 30.400000000000002, "costs": -19.599999999999998, "simulationMode": [null, null, null, null, null], "rewards": [-2, 1, 4, 9, 38], "path": ["0", "0", "23", "24", "25", "30", "31"], "rt": [34781, 55, 24, 61, 102], "actions": ["left", "left", "left", "down", "right"], "actionTimes": [36135, 36688, 37206, 37775, 38368], "queries": {"click": {"state": {"target": ["12", "1", "13", "14", "15", "19", "22", "21", "20", "23", "24", "25", "30", "31"], "time": [2198, 3840, 7464, 9542, 12175, 14183, 16421, 18853, 21042, 25523, 28208, 30187, 32053, 33922]}, "edge": {"target": [], "time": []}}, "mouseover": {"state": {"target": ["12", "13", "1", "23", "0", "12", "13", "14", "19", "15", "19", "22", "21", "21", "20", "20", "14", "13", "12", "0", "23", "24", "24", "24", "25", "30", "31", "32"], "time": [1600, 2404, 3388, 4186, 6905, 6955, 7038, 7708, 11560, 11742, 13197, 15846, 16732, 18515, 19084, 19367, 23802, 23886, 23986, 24069, 25256, 26137, 27505, 28022, 28776, 30508, 32445, 34795]}, "edge": {"target": [], "time": []}}, "mouseout": {"state": {"target": ["6", "7", "0", "12", "13", "1", "23", "0", "12", "13", "14", "19", "14", "15", "14", "19", "22", "21", "21", "20", "20", "14", "13", "12", "0", "23", "24", "24", "24", "25", "30", "31", "32"], "time": [282, 399, 1567, 2371, 2671, 4087, 6888, 6921, 6971, 7658, 9826, 11592, 11642, 12414, 13163, 14914, 16648, 16782, 19034, 19134, 21302, 23835, 23952, 24035, 24135, 26004, 27104, 27689, 28676, 30442, 32328, 34162, 38948]}, "edge": {"target": [], "time": []}}}, "displayed_time": "38.88", "trialTime": 39903, "trial_type": "mouselab-mdp", "trial_index": 15, "time_elapsed": 550114, "internal_node_id": "0.0-6.0-1.0-0.0"}}, {"uniqueid": "w14925228:a75562611", "current_trial": 16, "dateTime": 1693390591193, "trialdata": {"revealed_states": [], "clicked_states": ["23", "24", "25", "30", "31"], "num_clicks_accrued": [0, 0, 0, 0, 0, 0, 0, 0, 0, 0, 0, 0, 0], "stateRewards": ["", -1, 3, -5, -2, -13, -9, -34, -7, -81, 32, 35, -2, -2, 1, -14, -32, 81, 7, 4, 82, 56, -8, -1, 3, -8, 6, -24, -24, -53, 2, 38, 61, 54], "withholdReward": false, "trial_id": "mdp_trial_2", "block": "test", "trialIndex": 5, "score": 27, "costs": -7, "simulationMode": [null, null, null, null, null], "rewards": [-1, 3, -8, 2, 38], "path": ["0", "0", "23", "24", "25", "30", "31"], "rt": [11888, 342, 27, 38, 38], "actions": ["left", "left", "left", "down", "right"], "actionTimes": [13230, 14077, 14612, 15156, 15707], "queries": {"click": {"state": {"target": ["23", "24", "25", "30", "31"], "time": [2067, 4041, 6103, 8183, 10110]}, "edge": {"target": [], "time": []}}, "mouseover": {"state": {"target": ["23", "24", "25", "26", "30", "31", "32"], "time": [1806, 2524, 4298, 6680, 6963, 8397, 10498]}, "edge": {"target": [], "time": []}}, "mouseout": {"state": {"target": ["0", "23", "24", "25", "26", "25", "30", "31", "32"], "time": [1656, 2407, 4261, 6396, 6847, 6913, 8364, 10347, 14200]}, "edge": {"target": [], "time": []}}}, "displayed_time": "16.22", "trialTime": 16909, "trial_type": "mouselab-mdp", "trial_index": 16, "time_elapsed": 567147, "internal_node_id": "0.0-6.0-1.0-1.0"}}, {"uniqueid": "w14925228:a75562611", "current_trial": 17, "dateTime": 1693390613569, "trialdata": {"revealed_states": [], "clicked_states": ["23", "24", "25", "30", "31", "26", "28", "27"], "num_clicks_accrued": [0, 0, 0, 0, 0, 0, 0, 0, 0, 0, 0, 0, 0], "stateRewards": ["", 1, -4, -6, 11, -20, 8, -30, 1, -38, 88, 42, 2, 3, 5, -12, -8, -74, 30, -8, 67, -19, 42, 2, -1, 4, 13, 50, -68, 2, -8, -15, 87, -46], "withholdReward": false, "trial_id": "mdp_trial_3", "block": "test", "trialIndex": 6, "score": 56.8, "costs": -11.200000000000001, "simulationMode": [null, null, null, null, null], "rewards": [2, -1, 4, 13, 50], "path": ["0", "0", "23", "24", "25", "26", "27"], "rt": [17118, 429, 41, 67, 65], "actions": ["left", "left", "left", "up", "up"], "actionTimes": [18153, 19081, 19627, 20202, 20784], "queries": {"click": {"state": {"target": ["23", "24", "25", "30", "31", "26", "28", "27"], "time": [1533, 3507, 5439, 7277, 9389, 11481, 13436, 15330]}, "edge": {"target": [], "time": []}}, "mouseover": {"state": {"target": ["23", "24", "25", "30", "31", "24", "32", "25", "26", "28", "27", "29", "29"], "time": [1218, 1789, 3771, 5824, 7542, 9709, 10010, 10827, 10944, 11996, 13748, 15667, 16009]}, "edge": {"target": [], "time": []}}, "mouseout": {"state": {"target": ["0", "23", "24", "25", "30", "31", "24", "25", "30", "32", "30", "25", "26", "28", "27", "29", "29", "31"], "time": [1151, 1740, 3721, 5742, 7492, 9676, 9726, 9926, 9993, 10761, 10811, 10844, 11879, 13664, 15600, 15750, 19900, 20001]}, "edge": {"target": [], "time": []}}}, "displayed_time": "21.29", "trialTime": 22250, "trial_type": "mouselab-mdp", "trial_index": 17, "time_elapsed": 589524, "internal_node_id": "0.0-6.0-1.0-2.0"}}, {"uniqueid": "w14925228:a75562611", "current_trial": 18, "dateTime": 1693390632447, "trialdata": {"revealed_states": [], "clicked_states": ["1", "2", "3", "8", "4", "6"], "num_clicks_accrued": [0, 0, 0, 0, 0, 0, 0, 0, 0, 0, 0, 0, 0], "stateRewards": ["", -2, -4, 6, 14, -34, 49, 36, -8, -3, 32, -4, 1, -2, 1, -8, -20, -71, -57, -7, -86, -62, -16, -2, -3, -5, 11, 23, -21, 53, 5, -5, 85, 73], "withholdReward": false, "trial_id": "mdp_trial_4", "block": "test", "trialIndex": 7, "score": 54.6, "costs": -8.4, "simulationMode": [null, null, null, null, null], "rewards": [-2, -4, 6, 14, 49], "path": ["0", "0", "1", "2", "3", "4", "6"], "rt": [14041, 89, 41, 85, 116], "actions": ["up", "up", "up", "right", "right"], "actionTimes": [15060, 15651, 16187, 16779, 17395], "queries": {"click": {"state": {"target": ["1", "2", "3", "8", "4", "6"], "time": [2389, 4314, 6195, 8118, 10457, 12945]}, "edge": {"target": [], "time": []}}, "mouseover": {"state": {"target": ["23", "1", "2", "3", "8", "11", "4", "9", "6", "5"], "time": [1780, 2231, 2867, 4713, 7286, 8423, 10337, 10824, 12823, 13190]}, "edge": {"target": [], "time": []}}, "mouseout": {"state": {"target": ["0", "23", "1", "2", "3", "8", "11", "8", "3", "4", "9", "6", "5", "4", "7"], "time": [881, 2181, 2734, 4519, 6453, 8340, 10088, 10138, 10170, 10707, 12522, 13141, 17813, 17880, 17944]}, "edge": {"target": [], "time": []}}}, "displayed_time": "17.90", "trialTime": 18755, "trial_type": "mouselab-mdp", "trial_index": 18, "time_elapsed": 608402, "internal_node_id": "0.0-6.0-1.0-3.0"}}, {"uniqueid": "w14925228:a75562611", "current_trial": 19, "dateTime": 1693390653791, "trialdata": {"revealed_states": [], "clicked_states": ["12", "13", "14", "19", "15", "18", "16"], "num_clicks_accrued": [0, 0, 0, 0, 0, 0, 0, 0, 0, 0, 0, 0, 0], "stateRewards": ["", 2, -4, 7, 3, 23, -42, 4, 7, -81, -33, 7, -2, -4, 5, -1, 50, -57, -14, -13, -14, 44, 55, -2, -2, 5, -2, 33, 1, 57, -13, -7, 58, 87], "withholdReward": false, "trial_id": "mdp_trial_5", "block": "test", "trialIndex": 8, "score": 38.2, "costs": -9.8, "simulationMode": [null, null, null, null, null], "rewards": [-2, -4, 5, -1, 50], "path": ["0", "0", "12", "13", "14", "15", "16"], "rt": [16575, 58, 37, 495, 94], "actions": ["right", "right", "right", "up", "up"], "actionTimes": [17336, 17894, 18438, 19447, 20031], "queries": {"click": {"state": {"target": ["12", "13", "14", "19", "15", "18", "16"], "time": [2843, 4744, 6612, 8586, 10535, 13332, 15227]}, "edge": {"target": [], "time": []}}, "mouseover": {"state": {"target": ["12", "1", "12", "13", "14", "19", "15", "23", "18", "16", "17"], "time": [1486, 2087, 2670, 3260, 5009, 7475, 8897, 12478, 13046, 13615, 15484]}, "edge": {"target": [], "time": []}}, "mouseout": {"state": {"target": ["0", "12", "1", "12", "13", "14", "19", "14", "15", "23", "18", "16", "17", "14", "19", "21"], "time": [1041, 2020, 2620, 3206, 4975, 6858, 8793, 8860, 11430, 12963, 13513, 15418, 20030, 20153, 20287, 20504]}, "edge": {"target": [], "time": []}}}, "displayed_time": "20.54", "trialTime": 21206, "trial_type": "mouselab-mdp", "trial_index": 19, "time_elapsed": 629745, "internal_node_id": "0.0-6.0-1.0-4.0"}}, {"uniqueid": "w14925228:a75562611", "current_trial": 20, "dateTime": 1693390675503, "trialdata": {"revealed_states": [], "clicked_states": ["1", "2", "3", "8", "4", "9", "11", "10"], "num_clicks_accrued": [0, 0, 0, 0, 0, 0, 0, 0, 0, 0, 0, 0, 0], "stateRewards": ["", 2, 4, -6, -13, -75, -81, 30, 7, 5, 59, -65, -1, -1, 7, 14, -38, 36, -41, 1, -54, -5, 64, 2, -1, 5, 6, -19, 79, 11, 16, -33, -50, 58], "withholdReward": false, "trial_id": "mdp_trial_6", "block": "test", "trialIndex": 9, "score": 54.8, "costs": -11.200000000000001, "simulationMode": [null, null, null, null, null], "rewards": [2, 4, -6, 7, 59], "path": ["0", "0", "1", "2", "3", "8", "10"], "rt": [16355, 485, 151, 75, 92], "actions": ["up", "up", "up", "left", "down"], "actionTimes": [17308, 18298, 18948, 19522, 20106], "queries": {"click": {"state": {"target": ["1", "2", "3", "8", "4", "9", "11", "10"], "time": [1872, 3747, 5588, 7621, 9657, 11657, 13510, 15390]}, "edge": {"target": [], "time": []}}, "mouseover": {"state": {"target": ["12", "1", "2", "3", "8", "4", "9", "9", "11", "10"], "time": [1296, 1696, 2349, 4019, 6102, 8972, 10022, 10354, 12074, 13758]}, "edge": {"target": [], "time": []}}, "mouseout": {"state": {"target": ["0", "12", "1", "2", "3", "8", "3", "4", "9", "9", "9", "11", "10", "23"], "time": [1262, 1629, 2296, 3917, 6036, 8743, 8855, 9872, 10072, 11763, 11941, 13708, 15778, 20812]}, "edge": {"target": [], "time": []}}}, "displayed_time": "20.60", "trialTime": 21577, "trial_type": "mouselab-mdp", "trial_index": 20, "time_elapsed": 651458, "internal_node_id": "0.0-6.0-1.0-5.0"}}, {"uniqueid": "w14925228:a75562611", "current_trial": 21, "dateTime": 1693390697170, "trialdata": {"revealed_states": [], "clicked_states": ["23", "24", "25", "30", "26", "31", "32"], "num_clicks_accrued": [0, 0, 0, 0, 0, 0, 0, 0, 0, 0, 0, 0, 0], "stateRewards": ["", -2, 2, -2, -7, -50, -62, -45, 7, 36, -24, -72, -1, -1, 8, -1, -67, 20, -52, 2, 35, -50, 80, -1, 1, 6, -6, -70, 6, 88, 8, -47, 74, -19], "withholdReward": false, "trial_id": "mdp_trial_7", "block": "test", "trialIndex": 10, "score": 78.2, "costs": -9.8, "simulationMode": [null, null, null, null, null], "rewards": [-1, 1, 6, 8, 74], "path": ["0", "0", "23", "24", "25", "30", "32"], "rt": [15002, 498, 51, 77, 126], "actions": ["left", "left", "left", "down", "down"], "actionTimes": [15822, 16821, 17373, 17950, 18583], "queries": {"click": {"state": {"target": ["23", "24", "25", "30", "26", "31", "32"], "time": [1738, 3531, 5428, 7282, 9630, 11542, 13520]}, "edge": {"target": [], "time": []}}, "mouseover": {"state": {"target": ["1", "23", "24", "25", "30", "30", "26", "31", "32", "30", "33"], "time": [1123, 1507, 1993, 3844, 6297, 6514, 8565, 10233, 11933, 13735, 13985]}, "edge": {"target": [], "time": []}}, "mouseout": {"state": {"target": ["0", "1", "23", "24", "25", "30", "30", "25", "26", "31", "32", "30", "33"], "time": [1022, 1423, 1976, 3777, 6251, 6331, 8348, 8464, 9884, 11733, 13669, 13752, 16304]}, "edge": {"target": [], "time": []}}}, "displayed_time": "19.09", "trialTime": 21535, "trial_type": "mouselab-mdp", "trial_index": 21, "time_elapsed": 673125, "internal_node_id": "0.0-6.0-1.0-6.0"}}, {"uniqueid": "w14925228:a75562611", "current_trial": 22, "dateTime": 1693390717889, "trialdata": {"revealed_states": [], "clicked_states": ["23", "24", "25", "30", "26", "28", "27", "29"], "num_clicks_accrued": [0, 0, 0, 0, 0, 0, 0, 0, 0, 0, 0, 0, 0], "stateRewards": ["", 1, -1, -7, -7, -22, 15, -13, 13, 26, -32, 38, -1, 1, -7, -4, 16, -62, 86, 12, -54, 56, 64, -2, -1, 6, 14, -57, 37, 62, -6, -25, 50, -70], "withholdReward": false, "trial_id": "mdp_trial_8", "block": "test", "trialIndex": 11, "score": 67.8, "costs": -11.200000000000001, "simulationMode": [null, null, null, null, null], "rewards": [-2, -1, 6, 14, 62], "path": ["0", "0", "23", "24", "25", "26", "29"], "rt": [16791, 19, 37, 57, 106], "actions": ["left", "left", "left", "up", "left"], "actionTimes": [17513, 18032, 18568, 19138, 19738], "queries": {"click": {"state": {"target": ["23", "24", "25", "30", "26", "28", "27", "29"], "time": [1576, 3329, 5112, 6861, 9308, 11484, 13810, 15668]}, "edge": {"target": [], "time": []}}, "mouseover": {"state": {"target": ["23", "24", "25", "30", "31", "26", "24", "31", "24", "28", "27", "29"], "time": [1199, 1815, 3617, 5401, 7154, 9071, 10205, 10274, 11222, 11273, 12157, 14127]}, "edge": {"target": [], "time": []}}, "mouseout": {"state": {"target": ["0", "23", "24", "25", "30", "31", "26", "24", "31", "24", "28", "27", "29"], "time": [1147, 1749, 3584, 5335, 7121, 8971, 10105, 10222, 11206, 11239, 11569, 14077, 15896]}, "edge": {"target": [], "time": []}}}, "displayed_time": "20.23", "trialTime": 20562, "trial_type": "mouselab-mdp", "trial_index": 22, "time_elapsed": 693843, "internal_node_id": "0.0-6.0-1.0-7.0"}}, {"uniqueid": "w14925228:a75562611", "current_trial": 23, "dateTime": 1693390739363, "trialdata": {"revealed_states": [], "clicked_states": ["12", "13", "14", "15", "19", "20", "21", "22"], "num_clicks_accrued": [0, 0, 0, 0, 0, 0, 0, 0, 0, 0, 0, 0, 0], "stateRewards": ["", 1, -4, 6, -3, 40, 76, -51, 5, -24, -63, 44, -2, -2, 8, 1, 76, -85, -58, 10, 59, 20, 11, -2, 3, -3, 3, -82, -10, 54, -7, -57, -6, -32], "withholdReward": false, "trial_id": "mdp_trial_9", "block": "test", "trialIndex": 12, "score": 61.8, "costs": -11.200000000000001, "simulationMode": [null, null, null, null, null], "rewards": [-2, -2, 8, 10, 59], "path": ["0", "0", "12", "13", "14", "19", "20"], "rt": [16253, 113, 65, 88, 129], "actions": ["right", "right", "right", "down", "right"], "actionTimes": [17430, 18070, 18640, 19230, 19855], "queries": {"click": {"state": {"target": ["12", "13", "14", "15", "19", "20", "21", "22"], "time": [1678, 3530, 5339, 7289, 9101, 11533, 14020, 15916]}, "edge": {"target": [], "time": []}}, "mouseover": {"state": {"target": ["12", "13", "14", "15", "19", "17", "20", "20", "21", "22"], "time": [1425, 1891, 3728, 5612, 7631, 9466, 11198, 11415, 11802, 14570]}, "edge": {"target": [], "time": []}}, "mouseout": {"state": {"target": ["14", "13", "12", "12", "13", "14", "15", "14", "19", "17", "20", "20", "21", "22"], "time": [623, 706, 790, 1874, 3695, 5546, 7498, 7548, 9249, 11132, 11215, 11752, 14107, 16137]}, "edge": {"target": [], "time": []}}}, "displayed_time": "20.36", "trialTime": 21343, "trial_type": "mouselab-mdp", "trial_index": 23, "time_elapsed": 715317, "internal_node_id": "0.0-6.0-1.0-8.0"}}, {"uniqueid": "w14925228:a75562611", "current_trial": 24, "dateTime": 1693390759842, "trialdata": {"revealed_states": [], "clicked_states": ["12", "13", "14", "15", "19", "20", "21"], "num_clicks_accrued": [0, 0, 0, 0, 0, 0, 0, 0, 0, 0, 0, 0, 0], "stateRewards": ["", 1, 2, -3, -6, 50, -7, 7, -7, -80, 21, -1, 2, 2, 4, -1, 33, 84, 1, 14, -53, 81, 6, -2, -2, -3, -9, -87, -38, -59, -5, -74, -3, -71], "withholdReward": false, "trial_id": "mdp_trial_10", "block": "test", "trialIndex": 13, "score": 93.2, "costs": -9.8, "simulationMode": [null, null, null, null, null], "rewards": [2, 2, 4, 14, 81], "path": ["0", "0", "12", "13", "14", "19", "21"], "rt": [15314, 426, 104, 340, 249], "actions": ["right", "right", "right", "down", "down"], "actionTimes": [16214, 17145, 17749, 18589, 19343], "queries": {"click": {"state": {"target": ["12", "13", "14", "15", "19", "20", "21"], "time": [1400, 3205, 4943, 6764, 8831, 11209, 13270]}, "edge": {"target": [], "time": []}}, "mouseover": {"state": {"target": ["12", "13", "14", "15", "19", "17", "20", "21", "22", "22"], "time": [1277, 1662, 3396, 5283, 7035, 9320, 10867, 11451, 13522, 13804]}, "edge": {"target": [], "time": []}}, "mouseout": {"state": {"target": ["0", "12", "12", "13", "14", "15", "14", "19", "14", "17", "20", "21", "22", "22"], "time": [1177, 1489, 1629, 3362, 5233, 6968, 7018, 8969, 9020, 10801, 11401, 13347, 13554, 15739]}, "edge": {"target": [], "time": []}}}, "displayed_time": "19.84", "trialTime": 20342, "trial_type": "mouselab-mdp", "trial_index": 24, "time_elapsed": 735797, "internal_node_id": "0.0-6.0-1.0-9.0"}}, {"uniqueid": "w14925228:a75562611", "current_trial": 25, "dateTime": 1693390778250, "trialdata": {"revealed_states": [], "clicked_states": ["1", "2", "3", "8", "4", "9", "11"], "num_clicks_accrued": [0, 0, 0, 0, 0, 0, 0, 0, 0, 0, 0, 0, 0], "stateRewards": ["", -2, -3, 1, -7, 39, -67, 16, 5, -20, 73, 66, -1, 4, 5, -3, 23, -68, -87, -8, 3, -3, 17, 1, -4, -2, -13, -32, 34, 61, -5, -11, -18, 12], "withholdReward": false, "trial_id": "mdp_trial_11", "block": "test", "trialIndex": 14, "score": 57.2, "costs": -9.8, "simulationMode": [null, null, null, null, null], "rewards": [-2, -3, 1, 5, 66], "path": ["0", "0", "1", "2", "3", "8", "11"], "rt": [14058, 17, 15, 8, 79], "actions": ["up", "up", "up", "left", "left"], "actionTimes": [15082, 15599, 16113, 16623, 17215], "queries": {"click": {"state": {"target": ["1", "2", "3", "8", "4", "9", "11"], "time": [1723, 3492, 5331, 7350, 9291, 11204, 13054]}, "edge": {"target": [], "time": []}}, "mouseover": {"state": {"target": ["12", "1", "2", "3", "3", "8", "4", "5", "9", "9", "11", "11", "10"], "time": [1283, 1566, 1953, 3704, 3987, 5704, 7806, 9891, 10191, 10458, 11593, 11826, 13310]}, "edge": {"target": [], "time": []}}, "mouseout": {"state": {"target": ["0", "12", "1", "2", "3", "3", "8", "4", "5", "9", "9", "11", "11", "10", "23"], "time": [1149, 1450, 1869, 3621, 3737, 5597, 7522, 9841, 10108, 10325, 11409, 11676, 13227, 17432, 17532]}, "edge": {"target": [], "time": []}}}, "displayed_time": "17.72", "trialTime": 18272, "trial_type": "mouselab-mdp", "trial_index": 25, "time_elapsed": 754204, "internal_node_id": "0.0-6.0-1.0-10.0"}}, {"uniqueid": "w14925228:a75562611", "current_trial": 26, "dateTime": 1693390794896, "trialdata": {"revealed_states": [], "clicked_states": [], "num_clicks_accrued": [0, 0, 0, 0, 0, 0, 0, 0, 0, 0, 0, 0, 0], "stateRewards": ["", 2, -3, -5, 5, 11, -9, -33, 6, 67, 6, -30, -1, -2, -6, 13, 55, 13, 72, -14, 75, 21, -66, -2, -4, 6, 15, -1, -35, 60, 2, 51, -73, 12], "withholdReward": false, "trial_id": "mdp_trial_12", "block": "test", "trialIndex": 15, "score": -34, "costs": 0, "simulationMode": [null, null, null, null, null], "rewards": [2, -3, -5, 5, -33], "path": ["0", "0", "1", "2", "3", "4", "7"], "rt": [337, 4593, 673, 87, 145], "actions": ["up", "up", "up", "right", "down"], "actionTimes": [1010, 6112, 7298, 7882, 8522], "queries": {"click": {"state": {"target": [], "time": []}, "edge": {"target": [], "time": []}}, "mouseover": {"state": {"target": [], "time": []}, "edge": {"target": [], "time": []}}, "mouseout": {"state": {"target": ["0", "1", "2", "1", "0"], "time": [484, 4638, 5956, 9809, 9859]}, "edge": {"target": [], "time": []}}}, "displayed_time": "14.68", "trialTime": 16489, "trial_type": "mouselab-mdp", "trial_index": 26, "time_elapsed": 770851, "internal_node_id": "0.0-6.0-1.0-11.0"}}, {"uniqueid": "w14925228:a75562611", "current_trial": 27, "dateTime": 1693390812340, "trialdata": {"revealed_states": [], "clicked_states": ["12", "13", "14", "19", "15", "20"], "num_clicks_accrued": [0, 0, 0, 0, 0, 0, 0, 0, 0, 0, 0, 0, 0], "stateRewards": ["", 2, 3, -2, -8, -8, -41, 74, 15, -23, -80, 1, 1, 3, 3, -15, -63, -78, 67, 13, 75, -41, 86, 2, -2, 6, -3, -8, -49, 50, -6, 83, 74, 80], "withholdReward": false, "trial_id": "mdp_trial_13", "block": "test", "trialIndex": 16, "score": 86.6, "costs": -8.4, "simulationMode": [null, null, null, null, null], "rewards": [1, 3, 3, 13, 75], "path": ["0", "0", "12", "13", "14", "19", "20"], "rt": [12164, 517, 106, 53, 139], "actions": ["right", "right", "right", "down", "right"], "actionTimes": [13118, 14152, 14758, 15309, 15958], "queries": {"click": {"state": {"target": ["12", "13", "14", "19", "15", "20"], "time": [1425, 3298, 5144, 6957, 8790, 10591]}, "edge": {"target": [], "time": []}}, "mouseover": {"state": {"target": ["12", "13", "14", "13", "14", "14", "19", "19", "15", "20", "21"], "time": [1155, 1691, 2124, 2541, 3459, 3676, 5360, 5711, 7265, 9462, 11030]}, "edge": {"target": [], "time": []}}, "mouseout": {"state": {"target": ["0", "12", "13", "14", "13", "14", "14", "19", "19", "14", "15", "20", "21"], "time": [788, 1640, 2091, 2458, 3442, 3492, 5344, 5444, 7113, 7179, 9346, 10780, 14351]}, "edge": {"target": [], "time": []}}}, "displayed_time": "16.45", "trialTime": 17289, "trial_type": "mouselab-mdp", "trial_index": 27, "time_elapsed": 788294, "internal_node_id": "0.0-6.0-1.0-12.0"}}, {"uniqueid": "w14925228:a75562611", "current_trial": 28, "dateTime": 1693390833378, "trialdata": {"revealed_states": [], "clicked_states": ["1", "2", "3", "8", "4", "5", "6", "7"], "num_clicks_accrued": [0, 0, 0, 0, 0, 0, 0, 0, 0, 0, 0, 0, 0], "stateRewards": ["", 2, -1, -1, 7, 11, -40, -22, -2, 69, 37, 8, -2, 4, -8, -12, -2, -72, -3, -12, 17, 63, 12, 1, 3, -7, 6, 25, 61, 61, -9, 28, -17, 27], "withholdReward": false, "trial_id": "mdp_trial_14", "block": "test", "trialIndex": 17, "score": 6.799999999999999, "costs": -11.200000000000001, "simulationMode": [null, null, null, null, null], "rewards": [2, -1, -1, 7, 11], "path": ["0", "0", "1", "2", "3", "4", "5"], "rt": [16723, 85, 109, 51, 110], "actions": ["up", "up", "up", "right", "up"], "actionTimes": [17423, 18013, 18621, 19164, 19773], "queries": {"click": {"state": {"target": ["1", "2", "3", "8", "4", "5", "6", "7"], "time": [1965, 3857, 5620, 7308, 9610, 11624, 13547, 15401]}, "edge": {"target": [], "time": []}}, "mouseover": {"state": {"target": ["1", "2", "3", "8", "4", "5", "5", "6", "7"], "time": [1095, 2232, 4065, 5901, 9502, 9804, 10321, 11923, 13774]}, "edge": {"target": [], "time": []}}, "mouseout": {"state": {"target": ["1", "2", "3", "8", "4", "5", "5", "6", "7", "16", "18"], "time": [2165, 4031, 5867, 7552, 9619, 9871, 11701, 13741, 15607, 20527, 20544]}, "edge": {"target": [], "time": []}}}, "displayed_time": "20.27", "trialTime": 20885, "trial_type": "mouselab-mdp", "trial_index": 28, "time_elapsed": 809333, "internal_node_id": "0.0-6.0-1.0-13.0"}}, {"uniqueid": "w14925228:a75562611", "current_trial": 29, "dateTime": 1693390855418, "trialdata": {"revealed_states": [], "clicked_states": ["23", "24", "25", "30", "26", "31", "32", "33"], "num_clicks_accrued": [0, 0, 0, 0, 0, 0, 0, 0, 0, 0, 0, 0, 0], "stateRewards": ["", -1, -1, 4, -16, -75, 81, -51, -7, -84, 73, -30, -2, 1, -3, -16, -77, 33, 14, 1, 45, 87, -66, 2, 2, -5, -7, -19, -17, 79, -3, 8, 49, 47], "withholdReward": false, "trial_id": "mdp_trial_15", "block": "test", "trialIndex": 18, "score": 33.8, "costs": -11.200000000000001, "simulationMode": [null, null, null, null, null], "rewards": [2, 2, -5, -3, 49], "path": ["0", "0", "23", "24", "25", "30", "32"], "rt": [17567, 19, 55, 176, 111], "actions": ["left", "left", "left", "down", "down"], "actionTimes": [18350, 18869, 19421, 20093, 20694], "queries": {"click": {"state": {"target": ["23", "24", "25", "30", "26", "31", "32", "33"], "time": [1971, 3762, 5442, 7288, 9438, 12221, 14097, 16548]}, "edge": {"target": [], "time": []}}, "mouseover": {"state": {"target": ["23", "24", "25", "30", "31", "26", "25", "31", "24", "28", "24", "31", "32", "33", "33"], "time": [1333, 2252, 4035, 6455, 7558, 8376, 10009, 10259, 10842, 10909, 11840, 11908, 12611, 14512, 15262]}, "edge": {"target": [], "time": []}}, "mouseout": {"state": {"target": ["0", "23", "24", "25", "30", "31", "26", "25", "31", "24", "28", "24", "31", "32", "33"], "time": [1248, 2202, 4018, 6238, 7524, 8191, 9927, 10025, 10810, 10859, 11807, 11858, 12444, 14261, 14611]}, "edge": {"target": [], "time": []}}}, "displayed_time": "21.18", "trialTime": 21878, "trial_type": "mouselab-mdp", "trial_index": 29, "time_elapsed": 831372, "internal_node_id": "0.0-6.0-1.0-14.0"}}, {"uniqueid": "w14925228:a75562611", "current_trial": 30, "dateTime": 1693390872605, "trialdata": {"revealed_states": [], "clicked_states": ["23", "24", "25", "26", "30", "31"], "num_clicks_accrued": [0, 0, 0, 0, 0, 0, 0, 0, 0, 0, 0, 0, 0], "stateRewards": ["", 1, -1, 1, 13, 31, -56, 72, 2, 41, 5, 63, -2, -3, -2, 3, -71, -26, 52, 13, -31, 24, -67, 2, -2, 5, 4, 66, 43, 72, 9, 86, -26, 44], "withholdReward": false, "trial_id": "mdp_trial_16", "block": "test", "trialIndex": 19, "score": 91.6, "costs": -8.4, "simulationMode": [null, null, null, null, null], "rewards": [2, -2, 5, 9, 86], "path": ["0", "0", "23", "24", "25", "30", "31"], "rt": [12805, 16, 12, 1, 12], "actions": ["left", "left", "left", "down", "right"], "actionTimes": [13882, 14395, 14922, 15430, 15957], "queries": {"click": {"state": {"target": ["23", "24", "25", "26", "30", "31"], "time": [2231, 4002, 5745, 7383, 9164, 11738]}, "edge": {"target": [], "time": []}}, "mouseover": {"state": {"target": ["23", "24", "25", "26", "30", "31", "24", "28", "24", "31", "31", "32"], "time": [1332, 2637, 4271, 6003, 7708, 9524, 10041, 10107, 11173, 11208, 11491, 12126]}, "edge": {"target": [], "time": []}}, "mouseout": {"state": {"target": ["33", "30", "31", "0", "23", "24", "25", "26", "25", "30", "31", "24", "28", "24", "31", "31", "32"], "time": [514, 581, 647, 1198, 2469, 4187, 5919, 7625, 7656, 9489, 9540, 10057, 11140, 11190, 11289, 11926, 14329]}, "edge": {"target": [], "time": []}}}, "displayed_time": "16.50", "trialTime": 17031, "trial_type": "mouselab-mdp", "trial_index": 30, "time_elapsed": 848560, "internal_node_id": "0.0-6.0-1.0-15.0"}}, {"uniqueid": "w14925228:a75562611", "current_trial": 31, "dateTime": 1693390894867, "trialdata": {"revealed_states": [], "clicked_states": ["23", "24", "25", "26", "28", "27", "29", "30", "33"], "num_clicks_accrued": [0, 0, 0, 0, 0, 0, 0, 0, 0, 0, 0, 0, 0], "stateRewards": ["", 2, -1, 3, -12, -83, 6, -33, 9, 28, 24, -50, -2, -1, -2, -5, -87, 37, 82, 12, 80, -5, 10, -2, -3, -6, 9, 22, -1, 16, 9, 77, -62, 58], "withholdReward": false, "trial_id": "mdp_trial_17", "block": "test", "trialIndex": 20, "score": 43.4, "costs": -12.600000000000001, "simulationMode": [null, null, null, null, null], "rewards": [-2, -3, -6, 9, 58], "path": ["0", "0", "23", "24", "25", "30", "33"], "rt": [17318, 426, 693, 123, 153], "actions": ["left", "left", "left", "down", "left"], "actionTimes": [18043, 18980, 20165, 20780, 21428], "queries": {"click": {"state": {"target": ["23", "24", "25", "26", "28", "27", "29", "30", "33"], "time": [1237, 2882, 4408, 5956, 8117, 10098, 12063, 14027, 15566]}, "edge": {"target": [], "time": []}}, "mouseover": {"state": {"target": ["23", "24", "25", "26", "30", "28", "27", "29", "33", "30", "33", "32"], "time": [987, 1509, 3391, 4908, 6411, 8044, 8713, 10431, 12868, 13385, 14233, 16070]}, "edge": {"target": [], "time": []}}, "mouseout": {"state": {"target": ["0", "23", "24", "25", "26", "25", "30", "25", "28", "27", "29", "33", "30", "33", "32"], "time": [821, 1425, 3175, 4808, 6294, 6344, 7960, 7993, 8379, 10315, 12300, 13319, 14199, 15953, 18002]}, "edge": {"target": [], "time": []}}}, "displayed_time": "21.93", "trialTime": 22100, "trial_type": "mouselab-mdp", "trial_index": 31, "time_elapsed": 870821, "internal_node_id": "0.0-6.0-1.0-16.0"}}, {"uniqueid": "w14925228:a75562611", "current_trial": 32, "dateTime": 1693390922346, "trialdata": {"revealed_states": [], "clicked_states": ["23", "24", "25", "26", "30", "29", "27", "28", "31", "32", "33"], "num_clicks_accrued": [0, 0, 0, 0, 0, 0, 0, 0, 0, 0, 0, 0, 0], "stateRewards": ["", 2, -4, 4, 9, 69, 9, -75, 12, -86, 66, 25, -1, 3, 2, -13, -88, -3, 1, 4, -69, 49, -84, 2, -1, 4, 2, -18, -81, -52, -15, -69, -54, 25], "withholdReward": false, "trial_id": "mdp_trial_18", "block": "test", "trialIndex": 21, "score": -0.40000000000000213, "costs": -15.400000000000002, "simulationMode": [null, null, null, null, null], "rewards": [2, -1, 4, -15, 25], "path": ["0", "0", "23", "24", "25", "30", "33"], "rt": [22174, 37, 80, 5, 104], "actions": ["left", "left", "left", "down", "left"], "actionTimes": [23520, 24062, 24654, 25165, 25781], "queries": {"click": {"state": {"target": ["23", "24", "25", "26", "30", "29", "27", "28", "31", "32", "33"], "time": [1760, 3584, 5486, 7318, 9171, 11315, 13131, 14952, 16910, 18803, 20679]}, "edge": {"target": [], "time": []}}, "mouseover": {"state": {"target": ["23", "24", "25", "26", "30", "29", "27", "28", "23", "23", "31", "32", "33", "0", "12", "22"], "time": [1593, 2122, 3976, 6058, 7594, 9811, 11563, 13400, 15250, 15317, 15567, 17233, 19054, 21038, 21471, 22821]}, "edge": {"target": [], "time": []}}, "mouseout": {"state": {"target": ["0", "23", "24", "25", "26", "25", "30", "26", "29", "27", "28", "28", "23", "23", "31", "32", "33", "0", "12", "22"], "time": [1436, 1906, 3892, 5857, 7493, 7560, 9394, 9527, 11463, 13351, 15053, 15167, 15267, 15334, 17135, 18971, 20904, 21304, 22754, 22854]}, "edge": {"target": [], "time": []}}}, "displayed_time": "26.28", "trialTime": 27311, "trial_type": "mouselab-mdp", "trial_index": 32, "time_elapsed": 898300, "internal_node_id": "0.0-6.0-1.0-17.0"}}, {"uniqueid": "w14925228:a75562611", "current_trial": 33, "dateTime": 1693390942130, "trialdata": {"revealed_states": [], "clicked_states": ["23", "24", "25", "26", "30", "31", "32", "33"], "num_clicks_accrued": [0, 0, 0, 0, 0, 0, 0, 0, 0, 0, 0, 0, 0], "stateRewards": ["", 1, -1, 4, -2, -75, -75, 84, -9, -60, -79, 59, 2, -4, 8, 9, -17, -82, 80, 14, -4, 49, 49, -1, 3, 6, -11, -33, 34, 55, 9, -57, 5, 59], "withholdReward": false, "trial_id": "mdp_trial_19", "block": "test", "trialIndex": 22, "score": 64.8, "costs": -11.200000000000001, "simulationMode": [null, null, null, null, null], "rewards": [-1, 3, 6, 9, 59], "path": ["0", "0", "23", "24", "25", "30", "33"], "rt": [15741, 39, 33, 68, 83], "actions": ["left", "left", "left", "down", "left"], "actionTimes": [16425, 16959, 17504, 18089, 18672], "queries": {"click": {"state": {"target": ["23", "24", "25", "26", "30", "31", "32", "33"], "time": [1724, 3526, 5331, 7100, 8981, 10822, 12675, 14487]}, "edge": {"target": [], "time": []}}, "mouseover": {"state": {"target": ["23", "24", "25", "26", "30", "28", "31", "32", "33"], "time": [1239, 2010, 3778, 5895, 7366, 9195, 10282, 11066, 12983]}, "edge": {"target": [], "time": []}}, "mouseout": {"state": {"target": ["0", "23", "24", "25", "26", "25", "30", "28", "31", "32", "33", "32"], "time": [1188, 1960, 3728, 5828, 7263, 7346, 9130, 10182, 10999, 12833, 15018, 19290]}, "edge": {"target": [], "time": []}}}, "displayed_time": "19.17", "trialTime": 19608, "trial_type": "mouselab-mdp", "trial_index": 33, "time_elapsed": 918084, "internal_node_id": "0.0-6.0-1.0-18.0"}}, {"uniqueid": "w14925228:a75562611", "current_trial": 34, "dateTime": 1693390964372, "trialdata": {"revealed_states": [], "clicked_states": ["23", "24", "25", "30", "26", "28"], "num_clicks_accrued": [0, 0, 0, 0, 0, 0, 0, 0, 0, 0, 0, 0, 0], "stateRewards": ["", 1, 1, 7, -11, 80, -20, -53, -14, 3, 31, 27, 2, -1, -8, -10, 33, 41, 86, 9, 78, -37, -13, -1, -2, -6, -8, -80, 75, 4, -16, -49, -74, 24], "withholdReward": false, "trial_id": "mdp_trial_20", "block": "test", "trialIndex": 23, "score": 49.6, "costs": -8.4, "simulationMode": [null, null, null, null, null], "rewards": [-1, -2, -6, -8, 75], "path": ["0", "0", "23", "24", "25", "26", "28"], "rt": [14736, 72, 103, 99, 121], "actions": ["left", "left", "left", "up", "right"], "actionTimes": [17560, 18131, 18730, 19325, 19948], "queries": {"click": {"state": {"target": ["23", "24", "25", "30", "26", "28"], "time": [5089, 6956, 8678, 10859, 12710, 14854]}, "edge": {"target": [], "time": []}}, "mouseover": {"state": {"target": ["23", "24", "25", "30", "26", "28", "1", "1", "28", "27"], "time": [2926, 5316, 7181, 8952, 11152, 13170, 13521, 13921, 14270, 15073]}, "edge": {"target": [], "time": []}}, "mouseout": {"state": {"target": ["0", "23", "24", "25", "30", "25", "26", "28", "1", "1", "28", "27"], "time": [2846, 5283, 7131, 8919, 11053, 11135, 13037, 13438, 13554, 13955, 14937, 20708]}, "edge": {"target": [], "time": []}}}, "displayed_time": "20.44", "trialTime": 22068, "trial_type": "mouselab-mdp", "trial_index": 34, "time_elapsed": 940326, "internal_node_id": "0.0-6.0-1.0-19.0"}}, {"uniqueid": "w14925228:a75562611", "current_trial": 35, "dateTime": 1693390985243, "trialdata": {"revealed_states": [], "clicked_states": ["23", "24", "25", "26", "30", "28", "27", "29"], "num_clicks_accrued": [0, 0, 0, 0, 0, 0, 0, 0, 0, 0, 0, 0, 0], "stateRewards": ["", 2, -1, -4, -13, 74, 77, 3, 2, -43, -2, -11, 2, 3, 7, 11, -26, -29, -33, -3, -3, -13, -3, 1, 3, -7, 14, -59, 33, 9, -5, 34, 79, 68], "withholdReward": false, "trial_id": "mdp_trial_21", "block": "test", "trialIndex": 24, "score": 32.8, "costs": -11.200000000000001, "simulationMode": [null, null, null, null, null], "rewards": [1, 3, -7, 14, 33], "path": ["0", "0", "23", "24", "25", "26", "28"], "rt": [15668, 15, 724, 64, 22], "actions": ["left", "left", "left", "up", "right"], "actionTimes": [16542, 17047, 18288, 18849, 19373], "queries": {"click": {"state": {"target": ["23", "24", "25", "26", "30", "28", "27", "29"], "time": [1330, 3222, 4978, 6710, 8641, 10764, 12914, 14764]}, "edge": {"target": [], "time": []}}, "mouseover": {"state": {"target": ["23", "24", "25", "25", "26", "30", "30", "28", "27", "29", "24"], "time": [1150, 2867, 3470, 4004, 5737, 8007, 8305, 10608, 11060, 13295, 15163]}, "edge": {"target": [], "time": []}}, "mouseout": {"state": {"target": ["0", "23", "24", "25", "25", "26", "30", "30", "28", "27", "29", "24"], "time": [999, 2536, 3437, 3504, 5687, 7790, 8107, 10144, 10943, 13129, 15097, 15197]}, "edge": {"target": [], "time": []}}}, "displayed_time": "19.87", "trialTime": 20679, "trial_type": "mouselab-mdp", "trial_index": 35, "time_elapsed": 961197, "internal_node_id": "0.0-6.0-1.0-20.0"}}, {"uniqueid": "w14925228:a75562611", "current_trial": 36, "dateTime": 1693391006464, "trialdata": {"revealed_states": [], "clicked_states": ["23", "24", "25", "26", "30", "28", "27", "29", "33"], "num_clicks_accrued": [0, 0, 0, 0, 0, 0, 0, 0, 0, 0, 0, 0, 0], "stateRewards": ["", -1, -4, -1, -11, 43, 69, 39, 4, 17, -20, -82, -2, -1, 4, 8, -79, 24, -79, 11, 36, 64, 41, 2, 4, -1, 11, -79, -47, 75, -3, 63, -36, -19], "withholdReward": false, "trial_id": "mdp_trial_22", "block": "test", "trialIndex": 25, "score": 78.4, "costs": -12.600000000000001, "simulationMode": [null, null, null, null, null, null], "rewards": [2, 4, -1, 11, 75], "path": ["0", "0", "23", "24", "25", "26", "29"], "rt": [15874, 139, 141, 100, 28, 1135], "actions": ["left", "left", "left", "left", "up", "left"], "actionTimes": [16674, 16814, 17463, 18056, 18583, 20208], "queries": {"click": {"state": {"target": ["23", "24", "25", "26", "30", "28", "27", "29", "33"], "time": [1117, 2669, 4187, 6078, 7933, 9803, 11711, 13564, 15563]}, "edge": {"target": [], "time": []}}, "mouseover": {"state": {"target": ["23", "24", "25", "26", "30", "28", "27", "29", "33", "25", "31"], "time": [937, 1471, 3125, 4592, 6360, 8663, 10230, 11983, 13901, 15953, 16186]}, "edge": {"target": [], "time": []}}, "mouseout": {"state": {"target": ["0", "23", "24", "25", "26", "30", "25", "26", "28", "27", "29", "33", "25", "31"], "time": [903, 1421, 3008, 4526, 6310, 8146, 8212, 8312, 10013, 11916, 13785, 15887, 16069, 16223]}, "edge": {"target": [], "time": []}}}, "displayed_time": "20.71", "trialTime": 21038, "trial_type": "mouselab-mdp", "trial_index": 36, "time_elapsed": 982419, "internal_node_id": "0.0-6.0-1.0-21.0"}}, {"uniqueid": "w14925228:a75562611", "current_trial": 37, "dateTime": 1693391025880, "trialdata": {"revealed_states": [], "clicked_states": ["23", "24", "25", "26", "28", "27", "29"], "num_clicks_accrued": [0, 0, 0, 0, 0, 0, 0, 0, 0, 0, 0, 0, 0], "stateRewards": ["", 1, 1, -7, -9, -44, 24, -83, -15, 44, -24, 72, -2, -3, 4, -5, 57, 55, 29, -11, 22, 12, -25, -1, 2, 7, 12, 33, -8, 47, -4, 8, 50, -4], "withholdReward": false, "trial_id": "mdp_trial_23", "block": "test", "trialIndex": 26, "score": 57.2, "costs": -9.8, "simulationMode": [null, null, null, null, null], "rewards": [-1, 2, 7, 12, 47], "path": ["0", "0", "23", "24", "25", "26", "29"], "rt": [14841, 4, 12, 64, 95], "actions": ["left", "left", "left", "up", "left"], "actionTimes": [15778, 16277, 16804, 17385, 17985], "queries": {"click": {"state": {"target": ["23", "24", "25", "26", "28", "27", "29"], "time": [1816, 3422, 5012, 6655, 9338, 11178, 12952]}, "edge": {"target": [], "time": []}}, "mouseover": {"state": {"target": ["23", "24", "25", "26", "30", "28", "27", "29", "30"], "time": [1073, 2258, 3928, 5495, 7045, 9231, 9630, 11681, 13520]}, "edge": {"target": [], "time": []}}, "mouseout": {"state": {"target": ["0", "23", "24", "25", "26", "25", "30", "25", "28", "27", "27", "29", "30"], "time": [1040, 2125, 3828, 5362, 6962, 7012, 8896, 8963, 9563, 11253, 11382, 13170, 15937]}, "edge": {"target": [], "time": []}}}, "displayed_time": "18.49", "trialTime": 19239, "trial_type": "mouselab-mdp", "trial_index": 37, "time_elapsed": 1001834, "internal_node_id": "0.0-6.0-1.0-22.0"}}, {"uniqueid": "w14925228:a75562611", "current_trial": 38, "dateTime": 1693391049659, "trialdata": {"revealed_states": [], "clicked_states": ["23", "24", "25", "26", "30", "28", "27", "29", "33", "32"], "num_clicks_accrued": [0, 0, 0, 0, 0, 0, 0, 0, 0, 0, 0, 0, 0], "stateRewards": ["", -1, 1, -1, 2, 19, 85, -18, 2, -3, -26, 36, 2, 4, 7, -9, -18, 70, 72, -5, 35, -20, -28, 1, -2, -4, -3, -59, -11, -63, -2, -72, 59, -69], "withholdReward": false, "trial_id": "mdp_trial_24", "block": "test", "trialIndex": 27, "score": 38, "costs": -14.000000000000002, "simulationMode": [null, null, null, null, null], "rewards": [1, -2, -4, -2, 59], "path": ["0", "0", "23", "24", "25", "30", "32"], "rt": [19208, 37, 84, 40, 203], "actions": ["left", "left", "left", "down", "down"], "actionTimes": [19944, 20471, 21051, 21591, 22288], "queries": {"click": {"state": {"target": ["23", "24", "25", "26", "30", "28", "27", "29", "33", "32"], "time": [1024, 2812, 4325, 5897, 7816, 9714, 11578, 13382, 15206, 17053]}, "edge": {"target": [], "time": []}}, "mouseover": {"state": {"target": ["23", "24", "24", "25", "26", "30", "28", "27", "29", "33", "32", "31"], "time": [914, 1297, 1798, 3353, 4971, 6869, 8788, 10042, 11875, 13793, 15547, 17329]}, "edge": {"target": [], "time": []}}, "mouseout": {"state": {"target": ["23", "0", "23", "24", "24", "25", "26", "25", "30", "26", "28", "27", "29", "33", "32", "31"], "time": [316, 797, 1264, 1331, 3303, 4888, 6718, 6802, 8021, 8172, 9909, 11809, 13626, 15429, 17212, 19346]}, "edge": {"target": [], "time": []}}}, "displayed_time": "22.79", "trialTime": 23592, "trial_type": "mouselab-mdp", "trial_index": 38, "time_elapsed": 1025613, "internal_node_id": "0.0-6.0-1.0-23.0"}}, {"uniqueid": "w14925228:a75562611", "current_trial": 39, "dateTime": 1693391071193, "trialdata": {"revealed_states": [], "clicked_states": ["23", "24", "25", "26", "30", "28", "27", "29", "33", "32"], "num_clicks_accrued": [0, 0, 0, 0, 0, 0, 0, 0, 0, 0, 0, 0, 0], "stateRewards": ["", -1, -3, -3, 1, -38, 2, -53, -2, -1, -81, 70, -1, 1, -5, -9, 46, 15, 35, -1, -22, 38, 59, -2, 4, -8, 13, 1, -83, -43, 4, 76, 13, 48], "withholdReward": false, "trial_id": "mdp_trial_25", "block": "test", "trialIndex": 28, "score": 32, "costs": -14.000000000000002, "simulationMode": [null, null, null, null, null], "rewards": [-2, 4, -8, 4, 48], "path": ["0", "0", "23", "24", "25", "30", "33"], "rt": [17322, 4, 56, 60, 105], "actions": ["left", "left", "left", "down", "left"], "actionTimes": [18152, 18655, 19222, 19790, 20388], "queries": {"click": {"state": {"target": ["23", "24", "25", "26", "30", "28", "27", "29", "33", "32"], "time": [1112, 2670, 4291, 5960, 7714, 9547, 11085, 12628, 14484, 16256]}, "edge": {"target": [], "time": []}}, "mouseover": {"state": {"target": ["23", "24", "25", "26", "30", "28", "27", "29", "33", "32", "31"], "time": [947, 1934, 3118, 5069, 6354, 8354, 9822, 11759, 13307, 14977, 16513]}, "edge": {"target": [], "time": []}}, "mouseout": {"state": {"target": ["0", "23", "24", "25", "26", "25", "30", "25", "28", "27", "27", "29", "33", "32", "31"], "time": [598, 1817, 3068, 5020, 6252, 6302, 8022, 8087, 9722, 11196, 11442, 13025, 14677, 16429, 17647]}, "edge": {"target": [], "time": []}}}, "displayed_time": "20.88", "trialTime": 21357, "trial_type": "mouselab-mdp", "trial_index": 39, "time_elapsed": 1047148, "internal_node_id": "0.0-6.0-1.0-24.0"}}, {"uniqueid": "w14925228:a75562611", "current_trial": 40, "dateTime": 1693391090900, "trialdata": {"revealed_states": [], "clicked_states": ["23", "24", "25", "30", "26", "31", "32"], "num_clicks_accrued": [0, 0, 0, 0, 0, 0, 0, 0, 0, 0, 0, 0, 0], "stateRewards": ["", 1, 1, -3, 7, 49, 78, 26, -5, 26, 48, -43, -1, -3, 2, -5, 4, -1, -60, 10, -35, 51, 81, -2, 1, -7, -5, -39, -86, -54, 4, -3, 74, 77], "withholdReward": false, "trial_id": "mdp_trial_26", "block": "test", "trialIndex": 29, "score": 60.2, "costs": -9.8, "simulationMode": [null, null, null, null, null], "rewards": [-2, 1, -7, 4, 74], "path": ["0", "0", "23", "24", "25", "30", "32"], "rt": [14779, 5, 8, 189, 40], "actions": ["left", "left", "left", "down", "down"], "actionTimes": [15609, 16118, 16637, 17335, 17870], "queries": {"click": {"state": {"target": ["23", "24", "25", "30", "26", "31", "32"], "time": [1935, 3596, 5245, 6877, 8747, 10958, 12800]}, "edge": {"target": [], "time": []}}, "mouseover": {"state": {"target": ["23", "24", "25", "30", "26", "24", "28", "28", "24", "31", "32", "33"], "time": [1013, 2364, 4136, 5684, 7285, 10088, 10138, 10337, 10688, 10805, 11208, 13107]}, "edge": {"target": [], "time": []}}, "mouseout": {"state": {"target": ["0", "23", "24", "25", "30", "25", "26", "24", "28", "28", "26", "26", "24", "31", "32", "33", "32"], "time": [880, 2231, 3679, 5618, 6976, 7235, 8988, 10123, 10155, 10421, 10487, 10638, 10738, 11141, 13024, 15025, 15108]}, "edge": {"target": [], "time": []}}}, "displayed_time": "18.37", "trialTime": 19527, "trial_type": "mouselab-mdp", "trial_index": 40, "time_elapsed": 1066854, "internal_node_id": "0.0-6.0-1.0-25.0"}}, {"uniqueid": "w14925228:a75562611", "current_trial": 41, "dateTime": 1693391113070, "trialdata": {"revealed_states": [], "clicked_states": ["23", "24", "25", "26", "30", "28", "27", "29", "33", "32"], "num_clicks_accrued": [0, 0, 0, 0, 0, 0, 0, 0, 0, 0, 0, 0, 0], "stateRewards": ["", -1, 2, -6, 6, -82, -19, -39, -16, -83, 11, -33, -2, -2, 4, -6, -82, -1, -19, -6, -10, -67, -41, -2, 1, -7, 16, -23, -78, -52, 14, 31, -71, 74], "withholdReward": false, "trial_id": "mdp_trial_27", "block": "test", "trialIndex": 30, "score": 66, "costs": -14.000000000000002, "simulationMode": [null, null, null, null, null, null], "rewards": [-2, 1, -7, 14, 74], "path": ["0", "0", "23", "24", "25", "30", "33"], "rt": [18189, 170, 3, 23, 74, 43], "actions": ["left", "left", "left", "left", "down", "left"], "actionTimes": [18895, 19068, 19579, 20116, 20684, 21220], "queries": {"click": {"state": {"target": ["23", "24", "25", "26", "30", "28", "27", "29", "33", "32"], "time": [1264, 2861, 4437, 6107, 8231, 10190, 12326, 14167, 16006, 17842]}, "edge": {"target": [], "time": []}}, "mouseover": {"state": {"target": ["23", "23", "24", "25", "26", "30", "28", "27", "27", "29", "33", "32"], "time": [890, 1137, 1560, 3246, 5247, 6547, 8800, 11151, 12100, 12735, 14456, 16258]}, "edge": {"target": [], "time": []}}, "mouseout": {"state": {"target": ["23", "0", "23", "23", "24", "25", "26", "25", "30", "25", "28", "27", "28", "27", "29", "33", "32"], "time": [407, 824, 1007, 1510, 3096, 5080, 6413, 6480, 8500, 8534, 11147, 11350, 11833, 12601, 14339, 16206, 18040]}, "edge": {"target": [], "time": []}}}, "displayed_time": "21.71", "trialTime": 21977, "trial_type": "mouselab-mdp", "trial_index": 41, "time_elapsed": 1089025, "internal_node_id": "0.0-6.0-1.0-26.0"}}, {"uniqueid": "w14925228:a75562611", "current_trial": 42, "dateTime": 1693391132691, "trialdata": {"revealed_states": [], "clicked_states": ["23", "24", "25", "26", "30"], "num_clicks_accrued": [0, 0, 0, 0, 0, 0, 0, 0, 0, 0, 0, 0, 0], "stateRewards": ["", 2, -1, -1, -9, -81, -30, 55, -6, 78, 25, 62, 2, 4, -1, 9, -85, 1, -19, 1, -60, 12, -34, 1, 4, -1, -13, -24, -16, -83, -8, 16, 43, 9], "withholdReward": false, "trial_id": "mdp_trial_28", "block": "test", "trialIndex": 31, "score": 32, "costs": -7, "simulationMode": [null, null, null, null, null], "rewards": [1, 4, -1, -8, 43], "path": ["0", "0", "23", "24", "25", "30", "32"], "rt": [14769, 78, 137, 20, 144], "actions": ["left", "left", "left", "down", "down"], "actionTimes": [15700, 16274, 16899, 17418, 18059], "queries": {"click": {"state": {"target": ["23", "24", "25", "26", "30"], "time": [1701, 3284, 4844, 6384, 8612]}, "edge": {"target": [], "time": []}}, "mouseover": {"state": {"target": ["23", "24", "25", "26", "30", "28", "24", "24", "28", "24", "23", "0", "12", "23", "24", "31", "12", "31", "12", "12", "13", "12", "31", "31"], "time": [1080, 2000, 3637, 5401, 6872, 8906, 10305, 10588, 10856, 11106, 11222, 11255, 11289, 11539, 11589, 11690, 12273, 13224, 13441, 13658, 13958, 14393, 14458, 14761]}, "edge": {"target": [], "time": []}}, "mouseout": {"state": {"target": ["0", "23", "24", "25", "26", "25", "30", "28", "24", "24", "28", "24", "23", "0", "12", "23", "24", "31", "12", "31", "12", "12", "13", "12", "31", "31"], "time": [997, 1900, 3610, 5184, 6722, 6805, 8773, 10256, 10371, 10638, 11056, 11190, 11239, 11272, 11489, 11556, 11641, 12039, 12907, 13315, 13457, 13908, 14391, 14409, 14592, 15159]}, "edge": {"target": [], "time": []}}}, "displayed_time": "18.57", "trialTime": 19435, "trial_type": "mouselab-mdp", "trial_index": 42, "time_elapsed": 1108645, "internal_node_id": "0.0-6.0-1.0-27.0"}}, {"uniqueid": "w14925228:a75562611", "current_trial": 43, "dateTime": 1693391153261, "trialdata": {"revealed_states": [], "clicked_states": ["23", "24", "25", "26", "30", "31", "32", "33"], "num_clicks_accrued": [0, 0, 0, 0, 0, 0, 0, 0, 0, 0, 0, 0, 0], "stateRewards": ["", 2, -1, 5, 8, 75, -35, -77, 1, -9, -81, -58, 1, 2, -7, 5, 77, -16, 19, 16, -10, -18, 40, -2, 3, 7, -5, 64, 1, -62, 10, 27, 10, 65], "withholdReward": false, "trial_id": "mdp_trial_29", "block": "test", "trialIndex": 32, "score": 71.8, "costs": -11.200000000000001, "simulationMode": [null, null, null, null, null, null], "rewards": [-2, 3, 7, 10, 65], "path": ["0", "0", "23", "24", "25", "30", "33"], "rt": [13612, 164, 52, 27, 150, 108], "actions": ["left", "left", "left", "left", "down", "left"], "actionTimes": [16382, 16549, 17114, 17661, 18310, 18918], "queries": {"click": {"state": {"target": ["23", "24", "25", "26", "30", "31", "32", "33"], "time": [3637, 5232, 6768, 8352, 9986, 12153, 13977, 15855]}, "edge": {"target": [], "time": []}}, "mouseover": {"state": {"target": ["23", "24", "25", "26", "30", "28", "24", "31", "32", "33"], "time": [3429, 4113, 5650, 7184, 8835, 10553, 11936, 11968, 12489, 14374]}, "edge": {"target": [], "time": []}}, "mouseout": {"state": {"target": ["0", "23", "24", "25", "26", "25", "30", "25", "28", "24", "31", "32", "33", "32"], "time": [3262, 3948, 5583, 7100, 8668, 8785, 10303, 10370, 11903, 11952, 12406, 14172, 16092, 16176]}, "edge": {"target": [], "time": []}}}, "displayed_time": "19.41", "trialTime": 20368, "trial_type": "mouselab-mdp", "trial_index": 43, "time_elapsed": 1129216, "internal_node_id": "0.0-6.0-1.0-28.0"}}, {"uniqueid": "w14925228:a75562611", "current_trial": 44, "dateTime": 1693391169516, "trialdata": {"revealed_states": [], "clicked_states": ["23", "24", "25", "30", "26", "31"], "num_clicks_accrued": [0, 0, 0, 0, 0, 0, 0, 0, 0, 0, 0, 0, 0], "stateRewards": ["", 1, 2, -5, 14, 54, -14, -25, 16, -5, -87, 78, -1, 1, 3, -3, 52, 53, 53, -10, 73, -69, -48, 2, 3, 1, 8, -62, -7, 85, 7, 82, 52, -28], "withholdReward": false, "trial_id": "mdp_trial_30", "block": "test", "trialIndex": 33, "score": 86.6, "costs": -8.4, "simulationMode": [null, null, null, null, null], "rewards": [2, 3, 1, 7, 82], "path": ["0", "0", "23", "24", "25", "30", "31"], "rt": [11717, 4, 32, 674, 20], "actions": ["left", "left", "left", "down", "right"], "actionTimes": [12411, 12915, 13457, 14634, 15147], "queries": {"click": {"state": {"target": ["23", "24", "25", "30", "26", "31"], "time": [1153, 2666, 4286, 5948, 7620, 9682]}, "edge": {"target": [], "time": []}}, "mouseover": {"state": {"target": ["23", "24", "24", "25", "30", "26", "28", "24", "31", "32"], "time": [1013, 1348, 1632, 3250, 4634, 6287, 8138, 8171, 8222, 10054]}, "edge": {"target": [], "time": []}}, "mouseout": {"state": {"target": ["0", "23", "24", "24", "25", "30", "25", "26", "28", "24", "31", "32"], "time": [562, 1315, 1465, 3100, 4584, 6103, 6236, 8039, 8154, 8188, 9953, 11838]}, "edge": {"target": [], "time": []}}}, "displayed_time": "15.66", "trialTime": 16060, "trial_type": "mouselab-mdp", "trial_index": 44, "time_elapsed": 1145471, "internal_node_id": "0.0-6.0-1.0-29.0"}}, {"uniqueid": "w14925228:a75562611", "current_trial": 45, "dateTime": 1693391188370, "trialdata": {"revealed_states": [], "clicked_states": ["23", "24", "25", "30", "26", "31", "32", "33"], "num_clicks_accrued": [0, 0, 0, 0, 0, 0, 0, 0, 0, 0, 0, 0, 0], "stateRewards": ["", -2, -3, -6, -7, 9, 16, 65, 5, -41, 20, -25, -1, -4, 1, -11, -49, -4, 71, 1, 39, -62, 52, -2, -3, 7, -9, -28, -70, 84, 8, 24, -58, 82], "withholdReward": false, "trial_id": "mdp_trial_31", "block": "test", "trialIndex": 34, "score": 80.8, "costs": -11.200000000000001, "simulationMode": [null, null, null, null, null], "rewards": [-2, -3, 7, 8, 82], "path": ["0", "0", "23", "24", "25", "30", "33"], "rt": [14210, 577, 45, 24, 108], "actions": ["left", "left", "left", "down", "left"], "actionTimes": [15250, 16328, 16879, 17406, 18009], "queries": {"click": {"state": {"target": ["23", "24", "25", "30", "26", "31", "32", "33"], "time": [1559, 3143, 4734, 6290, 7919, 9767, 11547, 13348]}, "edge": {"target": [], "time": []}}, "mouseover": {"state": {"target": ["23", "24", "25", "30", "31", "26", "28", "24", "31", "32", "32", "33"], "time": [1184, 1968, 3522, 5208, 6775, 7277, 8341, 8825, 8908, 10027, 10194, 12062]}, "edge": {"target": [], "time": []}}, "mouseout": {"state": {"target": ["0", "23", "24", "25", "30", "31", "24", "26", "28", "24", "31", "32", "32", "33"], "time": [1153, 1918, 3406, 5141, 6676, 7043, 7093, 8258, 8492, 8841, 9977, 10061, 11878, 13780]}, "edge": {"target": [], "time": []}}}, "displayed_time": "18.50", "trialTime": 18656, "trial_type": "mouselab-mdp", "trial_index": 45, "time_elapsed": 1164324, "internal_node_id": "0.0-6.0-1.0-30.0"}}, {"uniqueid": "w14925228:a75562611", "current_trial": 46, "dateTime": 1693391206139, "trialdata": {"revealed_states": [], "clicked_states": ["23", "24", "25", "30", "26", "28", "27"], "num_clicks_accrued": [0, 0, 0, 0, 0, 0, 0, 0, 0, 0, 0, 0, 0], "stateRewards": ["", 2, -1, 5, 6, 10, 86, 55, 10, -45, 63, -71, 1, -2, 5, -8, -50, -72, 36, 15, 61, 12, 33, -1, -4, 6, 5, 79, -56, -21, -16, -87, 60, -81], "withholdReward": false, "trial_id": "mdp_trial_32", "block": "test", "trialIndex": 35, "score": 75.2, "costs": -9.8, "simulationMode": [null, null, null, null, null], "rewards": [-1, -4, 6, 5, 79], "path": ["0", "0", "23", "24", "25", "26", "27"], "rt": [12940, 287, 3, 169, 22], "actions": ["left", "left", "left", "up", "up"], "actionTimes": [14109, 14891, 15391, 16075, 16594], "queries": {"click": {"state": {"target": ["23", "24", "25", "30", "26", "28", "27"], "time": [1583, 3146, 4664, 6309, 8347, 10191, 12041]}, "edge": {"target": [], "time": []}}, "mouseover": {"state": {"target": ["23", "24", "25", "30", "26", "26", "31", "28", "27", "29"], "time": [1324, 2075, 3494, 5062, 6831, 8156, 8682, 9183, 10419, 12417]}, "edge": {"target": [], "time": []}}, "mouseout": {"state": {"target": ["0", "23", "24", "25", "30", "25", "26", "26", "31", "28", "27", "29", "25", "31"], "time": [1290, 2008, 3478, 5029, 6420, 6765, 7799, 8582, 9098, 10380, 12300, 17005, 17137, 17203]}, "edge": {"target": [], "time": []}}}, "displayed_time": "17.09", "trialTime": 17564, "trial_type": "mouselab-mdp", "trial_index": 46, "time_elapsed": 1182093, "internal_node_id": "0.0-6.0-1.0-31.0"}}, {"uniqueid": "w14925228:a75562611", "current_trial": 47, "dateTime": 1693391222478, "trialdata": {"revealed_states": [], "clicked_states": ["23", "24", "25", "26", "30", "28"], "num_clicks_accrued": [0, 0, 0, 0, 0, 0, 0, 0, 0, 0, 0, 0, 0], "stateRewards": ["", -2, 1, 6, -2, -10, -78, -69, 14, -15, 7, -1, 1, -1, -2, 13, 77, 32, 87, 5, -74, 30, -26, 1, 3, 4, 12, 39, 54, -43, 2, 10, 23, 13], "withholdReward": false, "trial_id": "mdp_trial_33", "block": "test", "trialIndex": 36, "score": 65.6, "costs": -8.4, "simulationMode": [null, null, null, null, null], "rewards": [1, 3, 4, 12, 54], "path": ["0", "0", "23", "24", "25", "26", "28"], "rt": [11396, 6, 22, 26, 68], "actions": ["left", "left", "left", "up", "right"], "actionTimes": [12500, 13008, 13538, 14073, 14634], "queries": {"click": {"state": {"target": ["23", "24", "25", "26", "30", "28"], "time": [1476, 3148, 4665, 6199, 7860, 9621]}, "edge": {"target": [], "time": []}}, "mouseover": {"state": {"target": ["23", "24", "25", "26", "30", "30", "28", "27"], "time": [1285, 2038, 3475, 5191, 6725, 7360, 8311, 9927]}, "edge": {"target": [], "time": []}}, "mouseout": {"state": {"target": ["0", "23", "24", "25", "26", "25", "30", "25", "30", "25", "28", "27", "31"], "time": [970, 1955, 3424, 5025, 6509, 6659, 7042, 7160, 8146, 8211, 9861, 13123, 13315]}, "edge": {"target": [], "time": []}}}, "displayed_time": "15.13", "trialTime": 16117, "trial_type": "mouselab-mdp", "trial_index": 47, "time_elapsed": 1198433, "internal_node_id": "0.0-6.0-1.0-32.0"}}, {"uniqueid": "w14925228:a75562611", "current_trial": 48, "dateTime": 1693391240066, "trialdata": {"revealed_states": [], "clicked_states": ["23", "24", "25", "26", "30", "28"], "num_clicks_accrued": [0, 0, 0, 0, 0, 0, 0, 0, 0, 0, 0, 0, 0], "stateRewards": ["", -2, 4, -3, -13, 63, -36, 62, 11, 78, 34, -51, 2, -2, 8, -6, -40, -18, 31, 9, 64, 39, 79, 1, 4, -4, 15, -12, 76, 73, -10, -77, 86, -4], "withholdReward": false, "trial_id": "mdp_trial_34", "block": "test", "trialIndex": 37, "score": 83.6, "costs": -8.4, "simulationMode": [null, null, null, null, null], "rewards": [1, 4, -4, 15, 76], "path": ["0", "0", "23", "24", "25", "26", "28"], "rt": [11308, 332, 42, 518, 987], "actions": ["left", "left", "left", "up", "right"], "actionTimes": [12005, 12838, 13381, 14406, 15893], "queries": {"click": {"state": {"target": ["23", "24", "25", "26", "30", "28"], "time": [1337, 2958, 4472, 6019, 7630, 9237]}, "edge": {"target": [], "time": []}}, "mouseover": {"state": {"target": ["23", "24", "25", "26", "30", "28", "27"], "time": [927, 1577, 3398, 4916, 6566, 8201, 9854]}, "edge": {"target": [], "time": []}}, "mouseout": {"state": {"target": ["0", "23", "24", "25", "26", "25", "30", "25", "28", "27", "24"], "time": [809, 1544, 3298, 4866, 6400, 6483, 7934, 8002, 9618, 11334, 12355]}, "edge": {"target": [], "time": []}}}, "displayed_time": "16.39", "trialTime": 17365, "trial_type": "mouselab-mdp", "trial_index": 48, "time_elapsed": 1216021, "internal_node_id": "0.0-6.0-1.0-33.0"}}, {"uniqueid": "w14925228:a75562611", "current_trial": 49, "dateTime": 1693391256189, "trialdata": {"revealed_states": [], "clicked_states": ["23", "24", "25", "26", "30", "28"], "num_clicks_accrued": [0, 0, 0, 0, 0, 0, 0, 0, 0, 0, 0, 0, 0], "stateRewards": ["", 1, -1, 1, -14, -10, 67, -28, -11, 72, 40, -65, -1, 1, 1, -2, 8, -55, 34, -10, 61, 33, -15, 2, -4, 7, 4, -75, 63, -21, -16, 61, 19, 21], "withholdReward": false, "trial_id": "mdp_trial_35", "block": "test", "trialIndex": 38, "score": 63.6, "costs": -8.4, "simulationMode": [null, null, null, null, null], "rewards": [2, -4, 7, 4, 63], "path": ["0", "0", "23", "24", "25", "26", "28"], "rt": [11790, 384, 78, 67, 23], "actions": ["left", "left", "left", "up", "right"], "actionTimes": [12687, 13588, 14170, 14740, 15263], "queries": {"click": {"state": {"target": ["23", "24", "25", "26", "30", "28"], "time": [1244, 2798, 4384, 6120, 8035, 10054]}, "edge": {"target": [], "time": []}}, "mouseover": {"state": {"target": ["23", "24", "25", "26", "28", "24", "30", "28", "27"], "time": [1008, 1578, 3363, 5030, 6498, 7366, 7633, 8300, 10318]}, "edge": {"target": [], "time": []}}, "mouseout": {"state": {"target": ["0", "23", "24", "25", "26", "28", "24", "30", "28", "27"], "time": [958, 1511, 3313, 4763, 6415, 7318, 7399, 8233, 10251, 12718]}, "edge": {"target": [], "time": []}}}, "displayed_time": "15.76", "trialTime": 15907, "trial_type": "mouselab-mdp", "trial_index": 49, "time_elapsed": 1232144, "internal_node_id": "0.0-6.0-1.0-34.0"}}, {"uniqueid": "w14925228:a75562611", "current_trial": 50, "dateTime": 1693391291161, "trialdata": {"revealed_states": [], "clicked_states": ["23", "24", "25", "26", "30", "12", "13", "14", "15", "18", "16", "17", "19", "21", "22", "20"], "num_clicks_accrued": [0, 0, 0, 0, 0, 0, 0, 0, 0, 0, 0, 0, 0], "stateRewards": ["", 1, -2, 4, 7, -43, -83, -60, -5, -86, -80, 83, -1, -2, 6, 11, -15, 21, 13, 9, 29, -49, 11, -1, 4, -6, -11, 87, 40, 63, -8, -39, -11, 62], "withholdReward": false, "trial_id": "mdp_trial_36", "block": "test", "trialIndex": 39, "score": 18.600000000000005, "costs": -22.399999999999995, "simulationMode": [null, null, null, null, null], "rewards": [-1, -2, 6, 9, 29], "path": ["0", "0", "12", "13", "14", "19", "20"], "rt": [30422, 36, 135, 78, 102], "actions": ["right", "right", "right", "down", "right"], "actionTimes": [31253, 31786, 32419, 32995, 33603], "queries": {"click": {"state": {"target": ["23", "24", "25", "26", "30", "12", "13", "14", "15", "18", "16", "17", "19", "21", "22", "20"], "time": [1257, 2804, 4460, 6242, 8054, 10923, 12604, 14284, 16047, 18277, 20164, 22028, 23902, 25707, 27538, 29382]}, "edge": {"target": [], "time": []}}, "mouseover": {"state": {"target": ["23", "24", "25", "26", "30", "24", "31", "0", "12", "13", "12", "13", "14", "15", "19", "18", "16", "16", "17", "19", "21", "22", "20"], "time": [1140, 1757, 3260, 4977, 6529, 8561, 9662, 10362, 10396, 10696, 10779, 11113, 13093, 14802, 16537, 18102, 18505, 18721, 20438, 22492, 24191, 26063, 27945]}, "edge": {"target": [], "time": []}}, "mouseout": {"state": {"target": ["0", "23", "24", "25", "26", "25", "30", "24", "31", "0", "12", "13", "12", "13", "14", "15", "14", "19", "18", "16", "16", "17", "19", "21", "22", "19", "20"], "time": [1071, 1724, 3160, 4810, 6463, 6512, 8279, 8578, 10312, 10379, 10413, 10712, 11080, 12950, 14653, 16272, 16337, 18020, 18455, 18538, 20389, 22291, 24125, 25862, 27711, 27845, 29631]}, "edge": {"target": [], "time": []}}}, "displayed_time": "34.10", "trialTime": 34763, "trial_type": "mouselab-mdp", "trial_index": 50, "time_elapsed": 1267116, "internal_node_id": "0.0-6.0-1.0-35.0"}}, {"uniqueid": "w14925228:a75562611", "current_trial": 51, "dateTime": 1693391314805, "trialdata": {"revealed_states": [], "clicked_states": ["23", "24", "25", "26", "28", "27", "29", "30", "33", "32", "31"], "num_clicks_accrued": [0, 0, 0, 0, 0, 0, 0, 0, 0, 0, 0, 0, 0], "stateRewards": ["", 2, -2, 7, -11, -76, -65, -23, 16, -58, 30, 81, 1, 2, 7, 14, 9, 55, -2, 6, 11, -15, 31, -1, -1, -3, 2, 15, 2, 46, 15, 18, 45, -34], "withholdReward": false, "trial_id": "mdp_trial_37", "block": "test", "trialIndex": 40, "score": 39.599999999999994, "costs": -15.400000000000002, "simulationMode": [null, null, null, null, null, null], "rewards": [-1, -1, -3, 15, 45], "path": ["0", "0", "23", "24", "25", "30", "32"], "rt": [19397, 201, 25, 95, 108, 35], "actions": ["left", "left", "left", "left", "down", "down"], "actionTimes": [20256, 20458, 20994, 21596, 22194, 22722], "queries": {"click": {"state": {"target": ["23", "24", "25", "26", "28", "27", "29", "30", "33", "32", "31"], "time": [1197, 3020, 4800, 6752, 8491, 10143, 11732, 13270, 15519, 17336, 19224]}, "edge": {"target": [], "time": []}}, "mouseover": {"state": {"target": ["23", "24", "25", "26", "28", "27", "29", "33", "30", "32", "33", "32", "31"], "time": [1017, 1669, 3270, 5139, 7691, 8776, 10643, 12344, 12901, 15295, 15396, 15764, 17599]}, "edge": {"target": [], "time": []}}, "mouseout": {"state": {"target": ["0", "23", "24", "25", "26", "26", "26", "28", "27", "29", "33", "30", "30", "32", "33", "32", "31"], "time": [682, 1553, 3220, 4989, 7274, 7344, 7592, 8710, 10544, 12161, 12856, 13696, 14163, 15312, 15714, 17499, 19834]}, "edge": {"target": [], "time": []}}}, "displayed_time": "23.22", "trialTime": 23421, "trial_type": "mouselab-mdp", "trial_index": 51, "time_elapsed": 1290759, "internal_node_id": "0.0-6.0-1.0-36.0"}}, {"uniqueid": "w14925228:a75562611", "current_trial": 52, "dateTime": 1693391342052, "trialdata": {"revealed_states": [], "clicked_states": ["23", "24", "25", "30", "26", "12", "13", "14", "15", "19", "17"], "num_clicks_accrued": [0, 0, 0, 0, 0, 0, 0, 0, 0, 0, 0, 0, 0], "stateRewards": ["", -1, 3, 8, 9, -53, 20, -84, 2, -28, -62, -31, -1, -2, -7, 2, 51, 58, 45, -4, -17, -41, 36, 2, -2, -7, -15, 29, -54, -37, -16, -43, 65, -17], "withholdReward": false, "trial_id": "mdp_trial_38", "block": "test", "trialIndex": 41, "score": 34.599999999999994, "costs": -15.400000000000002, "simulationMode": [null, null, null, null, null], "rewards": [-1, -2, -7, 2, 58], "path": ["0", "0", "12", "13", "14", "15", "17"], "rt": [22341, 71, 105, 88, 104], "actions": ["right", "right", "right", "up", "right"], "actionTimes": [23767, 24339, 24940, 25524, 26124], "queries": {"click": {"state": {"target": ["23", "24", "25", "30", "26", "12", "13", "14", "15", "19", "17"], "time": [2085, 3735, 5398, 6951, 9591, 11531, 13237, 14920, 16746, 18670, 20795]}, "edge": {"target": [], "time": []}}, "mouseover": {"state": {"target": ["23", "24", "25", "30", "31", "26", "28", "1", "13", "13", "12", "13", "14", "15", "19", "17", "16"], "time": [1796, 2366, 4078, 5769, 7570, 9487, 9822, 9872, 9956, 10106, 10206, 11824, 13710, 15311, 17128, 20696, 21031]}, "edge": {"target": [], "time": []}}, "mouseout": {"state": {"target": ["0", "23", "24", "25", "30", "31", "26", "28", "1", "13", "13", "12", "13", "14", "15", "14", "19", "17", "16"], "time": [1780, 2299, 4054, 5703, 7320, 9286, 9805, 9839, 9889, 9989, 10156, 11759, 13609, 15211, 17011, 17078, 19212, 20965, 23182]}, "edge": {"target": [], "time": []}}}, "displayed_time": "26.62", "trialTime": 27029, "trial_type": "mouselab-mdp", "trial_index": 52, "time_elapsed": 1318006, "internal_node_id": "0.0-6.0-1.0-37.0"}}, {"uniqueid": "w14925228:a75562611", "current_trial": 53, "dateTime": 1693391372853, "trialdata": {"revealed_states": [], "clicked_states": ["1", "2", "3", "8", "4", "12", "13", "14", "15", "19", "18", "16", "17"], "num_clicks_accrued": [0, 0, 0, 0, 0, 0, 0, 0, 0, 0, 0, 0, 0], "stateRewards": ["", -2, 2, 2, -6, 9, 37, 50, -13, -7, -18, -75, -2, -4, 4, 7, 23, -57, -66, -7, -81, -48, -76, 1, 1, -8, 1, 51, -2, 70, 14, 59, 71, -37], "withholdReward": false, "trial_id": "mdp_trial_39", "block": "test", "trialIndex": 42, "score": 9.8, "costs": -18.2, "simulationMode": [null, null, null, null, null, null], "rewards": [-2, -4, 4, 7, 23], "path": ["0", "0", "12", "13", "14", "15", "16"], "rt": [24742, 195, 60, 768, 250, 114], "actions": ["right", "right", "right", "right", "up", "up"], "actionTimes": [25775, 25971, 26530, 27788, 28539, 29170], "queries": {"click": {"state": {"target": ["1", "2", "3", "8", "4", "12", "13", "14", "15", "19", "18", "16", "17"], "time": [2035, 3758, 5299, 6859, 9144, 11588, 13158, 14860, 16542, 18415, 20293, 22155, 24279]}, "edge": {"target": [], "time": []}}, "mouseover": {"state": {"target": ["1", "2", "3", "8", "4", "9", "4", "9", "5", "7", "12", "13", "14", "15", "19", "17", "18", "16", "17"], "time": [1946, 2750, 4050, 5568, 7387, 8037, 9020, 9521, 10770, 11254, 11405, 11757, 13459, 15177, 17113, 18696, 19365, 20515, 22416]}, "edge": {"target": [], "time": []}}, "mouseout": {"state": {"target": ["0", "1", "2", "3", "8", "3", "4", "9", "4", "9", "5", "4", "7", "12", "13", "14", "15", "14", "19", "17", "18", "16", "17"], "time": [1717, 2398, 3932, 5552, 7218, 7303, 7604, 8836, 9352, 10623, 11021, 11237, 11304, 11723, 13358, 15077, 16845, 16980, 18489, 18951, 20450, 22333, 24751]}, "edge": {"target": [], "time": []}}}, "displayed_time": "29.69", "trialTime": 30574, "trial_type": "mouselab-mdp", "trial_index": 53, "time_elapsed": 1348807, "internal_node_id": "0.0-6.0-1.0-38.0"}}, {"uniqueid": "w14925228:a75562611", "current_trial": 54, "dateTime": 1693391415226, "trialdata": {"revealed_states": [], "clicked_states": ["23", "24", "25", "26", "30", "31", "32", "33", "12", "13", "14", "19", "22", "21", "20", "15", "16", "18", "17", "28"], "num_clicks_accrued": [0, 0, 0, 0, 0, 0, 0, 0, 0, 0, 0, 0, 0], "stateRewards": ["", -1, -3, -6, -2, -7, 80, -45, -3, -38, -72, 76, 2, 1, 7, 4, -62, 14, -74, 14, -87, -21, -88, -2, 1, -7, -10, 66, 56, -76, 10, -29, -72, -70], "withholdReward": false, "trial_id": "mdp_trial_40", "block": "test", "trialIndex": 43, "score": 10.000000000000014, "costs": -27.99999999999999, "simulationMode": [null, null, null, null, null], "rewards": [-2, 1, -7, -10, 56], "path": ["0", "0", "23", "24", "25", "26", "28"], "rt": [37493, 22, 170, 96, 64], "actions": ["left", "left", "left", "up", "right"], "actionTimes": [38447, 38966, 39645, 40239, 40807], "queries": {"click": {"state": {"target": ["23", "24", "25", "26", "30", "31", "32", "33", "12", "13", "14", "19", "22", "21", "20", "15", "16", "18", "17", "28"], "time": [1666, 3300, 4885, 6408, 7979, 10513, 12159, 13979, 16332, 17958, 19585, 21108, 22967, 24773, 26637, 28458, 30225, 32046, 33853, 36240]}, "edge": {"target": [], "time": []}}, "mouseover": {"state": {"target": ["23", "24", "24", "25", "26", "26", "30", "31", "12", "23", "24", "25", "25", "31", "32", "33", "24", "12", "13", "12", "13", "14", "19", "22", "21", "20", "15", "16", "18", "17", "15", "1", "28", "27"], "time": [1574, 1894, 2111, 3712, 5247, 5565, 7083, 8450, 9034, 10032, 10050, 10083, 10198, 10333, 10751, 12668, 15287, 15937, 15987, 16287, 16640, 18274, 20013, 21561, 23245, 25165, 27081, 28781, 30604, 32370, 34171, 34289, 34955, 36559]}, "edge": {"target": [], "time": []}}, "mouseout": {"state": {"target": ["0", "23", "24", "24", "25", "26", "26", "30", "31", "12", "23", "24", "25", "25", "30", "31", "32", "33", "24", "12", "13", "12", "13", "14", "19", "22", "21", "20", "15", "16", "18", "15", "17", "15", "18", "1", "28", "27", "28", "23"], "time": [1161, 1861, 1927, 3612, 4984, 5282, 6783, 8400, 8467, 9999, 10049, 10065, 10115, 10215, 10282, 10684, 12503, 15187, 15320, 15954, 16187, 16540, 18225, 19976, 21494, 23195, 24840, 26831, 28664, 30434, 32237, 32321, 34155, 34189, 34222, 34322, 36474, 38806, 38907, 38956]}, "edge": {"target": [], "time": []}}}, "displayed_time": "41.31", "trialTime": 42151, "trial_type": "mouselab-mdp", "trial_index": 54, "time_elapsed": 1391181, "internal_node_id": "0.0-6.0-1.0-39.0"}}, {"uniqueid": "w14925228:a75562611", "current_trial": 55, "dateTime": 1693391466334, "trialdata": {"rt": 51104, "response": {"Q0": "$-2 to $2", "Q1": "$-16 to $16", "Q2": "$-88 to $88", "Q3": "The cost was always $1.4.", "Q4": "Very motivated"}, "question_order": [0, 1, 2, 3, 4], "trial_id": "final_quiz_control", "trial_type": "survey-multi-choice", "trial_index": 55, "time_elapsed": 1442289, "internal_node_id": "0.0-6.0-2.0"}}, {"uniqueid": "w14925228:a75562611", "current_trial": 56, "dateTime": 1693391619616, "trialdata": {"rt": 153275, "response": {"Q0": "Go all the way left, check numbers on both paths. if both numbers were around -10 i'd go on another path. If a number was above 0 i check the 3 connecting tiles for a high value (preferably 50+)", "Q1": "Yes, above was my best strategie, the first few times i tried other paths first but i didnt like it", "Q2": "Not super difficult, most difficult thing was remembering all the values if i decided to reveal a lot of tiles so i just went with the simpler (and cheaper) methode"}, "trial_id": "self_report_control", "trial_type": "survey-text", "trial_index": 56, "time_elapsed": 1595570, "internal_node_id": "0.0-6.0-3.0"}}, {"uniqueid": "w14925228:a75562611", "current_trial": 57, "dateTime": 1693391638904, "trialdata": {"rt": 19284, "response": {"gender": "male", "age": "36", "colorblind": "0", "effort": "0"}, "trial_type": "survey-html-form", "trial_index": 57, "time_elapsed": 1614859, "internal_node_id": "0.0-6.0-4.0"}}, {"uniqueid": "w14925228:a75562611", "current_trial": 58, "dateTime": 1693391667802, "trialdata": {"rt": 28894, "response": {"Q0": "No, very fun game", "Q1": "No, i did not", "Q2": "Again, fun game, would play again"}, "trial_type": "survey-text", "trial_index": 58, "time_elapsed": 1643757, "internal_node_id": "0.0-6.0-5.0"}}, {"uniqueid": "w14925228:a75562611", "current_trial": 59, "dateTime": 1693391674518, "trialdata": {"rt": 6713, "stimulus": "<h1>Completion Code Instructions (1/2)</h1>\n<br><br><br><br>\nYou have reached the end of the experiment! The completion code consists of two parts: (1) a code with 2 characters (2) a code with 6 characters. On this page, you will receive the second part of the code. The first part of the completion code will be on the next page.\n<br><br>\nThe second part of your completion code is: <b>EWEK22</b>\n<br><br>\nPlease note this down. Then, press 'Finish HIT' in order to find the first part of your completion code. Once the data has been saved, you will receive this code either in this window or in the original browser window where you started the experiment.\n", "response": 0, "trial_type": "html-button-response", "trial_index": 59, "time_elapsed": 1650473, "internal_node_id": "0.0-6.0-6.0"}}, {"uniqueid": "w14925228:a75562611", "current_trial": 60, "dateTime": 1693391675526, "trialdata": {"success": true, "trial_type": "fullscreen", "trial_index": 60, "time_elapsed": 1651481, "internal_node_id": "0.0-7.0"}}], "questiondata": {"params": {"CODE": "C6DMOQA6", "MIN_TIME": 14, "inspectCost": 1, "startTime": "Wed Aug 30 2023 12:07:03 GMT+0200 (Midden-Europese zomertijd)", "bonusRate": 0.002, "variance": "1_2_4_8_44", "branching": "31123"}, "final_score": 1998.6}, "eventdata": [{"eventtype": "initialized", "value": null, "timestamp": 1693390022997, "interval": 0}, {"eventtype": "window_resize", "value": [1024, 768], "timestamp": 1693390022997, "interval": 0}, {"eventtype": "window_resize", "value": [1024, 768], "timestamp": 1693390023343, "interval": 346}, {"eventtype": "focus", "value": "off", "timestamp": 1693390025368, "interval": 2025}, {"eventtype": "focus", "value": "on", "timestamp": 1693390028517, "interval": 3149}, {"eventtype": "window_resize", "value": [2560, 1338], "timestamp": 1693390030061, "interval": 1544}, {"eventtype": "window_resize", "value": [2560, 1440], "timestamp": 1693390031409, "interval": 1348}, {"eventtype": "focus", "value": "off", "timestamp": 1693390047602, "interval": 16193}, {"eventtype": "focus", "value": "on", "timestamp": 1693390135276, "interval": 87674}, {"eventtype": "focus", "value": "off", "timestamp": 1693390462961, "interval": 327685}, {"eventtype": "focus", "value": "on", "timestamp": 1693390462962, "interval": 1}, {"eventtype": "window_resize", "value": [2560, 1338], "timestamp": 1693390463170, "interval": 208}, {"eventtype": "window_resize", "value": [2560, 1440], "timestamp": 1693390464628, "interval": 1458}, {"eventtype": "focus", "value": "off", "timestamp": 1693391535217, "interval": 1070589}, {"eventtype": "focus", "value": "on", "timestamp": 1693391538769, "interval": 3552}, {"eventtype": "window_resize", "value": [2560, 1338], "timestamp": 1693391674765, "interval": 135996}], "useragent": "Mozilla/5.0 (Windows NT 10.0; Win64; x64) AppleWebKit/537.36 (KHTML, like Gecko) Chrome/116.0.0.0 Safari/537.36 Edg/116.0.1938.62", "mode": "live", "id": "w14925228:a75562611", "status": "user data saved", "Beginhit": "2023-08-30 10:07:01.865911", "Beginexp": "2023-08-30 10:07:12.235012", "Endhit": "2023-08-30 10:34:36.03658", "psiturkStatus": 3, "browser": "<redacted>", "platform": "windows", "language": "nl"}