{"condition": 0, "counterbalance": 0, "assignmentId": "a52679487", "workerId": "w14115695", "hitId": "h92219570", "currenttrial": 67, "bonus": 0, "data": [{"uniqueid": "w14115695:a52679487", "current_trial": 0, "dateTime": 1691070813934, "trialdata": {"success": true, "trial_type": "fullscreen", "trial_index": 0, "time_elapsed": 4893, "internal_node_id": "0.0-0.0"}}, {"uniqueid": "w14115695:a52679487", "current_trial": 1, "dateTime": 1691070821093, "trialdata": {"view_history": [{"page_index": 0, "viewing_time": 7153}], "rt": 7153, "trial_id": "exp_instructions_control", "trial_type": "instructions", "trial_index": 1, "time_elapsed": 12053, "internal_node_id": "0.0-1.0"}}, {"uniqueid": "w14115695:a52679487", "current_trial": 2, "dateTime": 1691070823721, "trialdata": {"success": true, "trial_type": "fullscreen", "trial_index": 2, "time_elapsed": 14681, "internal_node_id": "0.0-2.0-0.0"}}, {"uniqueid": "w14115695:a52679487", "current_trial": 3, "dateTime": 1691070893935, "trialdata": {"view_history": [{"page_index": 0, "viewing_time": 35322}, {"page_index": 1, "viewing_time": 23420}, {"page_index": 2, "viewing_time": 5171}, {"page_index": 3, "viewing_time": 6300}], "rt": 70213, "trial_id": "mouselab_instructions_1_control", "trial_type": "instructions", "trial_index": 3, "time_elapsed": 84895, "internal_node_id": "0.0-2.0-1.0"}}, {"uniqueid": "w14115695:a52679487", "current_trial": 4, "dateTime": 1691070914451, "trialdata": {"revealed_states": [], "clicked_states": ["14", "15", "19", "24", "26", "2"], "num_clicks_accrued": [0, 0, 0, 0, 0, 0, 0, 0, 0, 0, 0, 0, 0], "stateRewards": ["", 10, -10, 10, -10, 10, 10, 10, 10, -10, 10, -10, -10, 10, -10, -10, -10, 10, 10, -10, 10, 10, 10, -10, 10, -10, 10, 10, 10, -10, 10, -10, -10, 10], "withholdReward": false, "trial_id": "practice_1", "block": "test", "trialIndex": 0, "score": -9.5, "costs": -3, "simulationMode": [null, null, null, null, null], "rewards": [-10, 10, -10, 10, -10], "path": ["0", "0", "23", "24", "25", "26", "29"], "rt": [12684, 197, 220, 41, 6], "actions": ["left", "left", "left", "up", "left"], "actionTimes": [14324, 15039, 15778, 16349, 16881], "queries": {"click": {"state": {"target": ["14", "15", "19", "24", "26", "2"], "time": [5101, 6358, 7997, 9453, 11745, 12995]}, "edge": {"target": [], "time": []}}, "mouseover": {"state": {"target": ["12", "13", "14", "14", "13", "12", "13", "13", "14", "14", "14", "13", "12", "0", "23", "24", "18", "15", "17", "16", "19", "21", "24", "25", "25", "26", "10", "2", "28", "26", "23", "1", "2", "13", "22"], "time": [2256, 3640, 3676, 3925, 3957, 4206, 4307, 4340, 4573, 4790, 4939, 5540, 5573, 5609, 5656, 5690, 5940, 5973, 6640, 7157, 7789, 8540, 9324, 9723, 9973, 10507, 10723, 10923, 11289, 11573, 12240, 12507, 12640, 13775, 13990]}, "edge": {"target": [], "time": []}}, "mouseout": {"state": {"target": ["12", "0", "0", "12", "13", "14", "14", "13", "12", "13", "13", "14", "14", "14", "13", "12", "0", "23", "24", "18", "15", "17", "16", "15", "14", "19", "21", "24", "25", "25", "26", "10", "2", "28", "26", "23", "1", "2", "13", "22"], "time": [157, 1023, 2173, 2490, 3674, 3690, 3940, 3990, 4290, 4324, 4360, 4606, 4873, 5523, 5556, 5606, 5640, 5674, 5840, 5956, 6606, 7041, 7556, 7623, 7740, 8374, 8975, 9706, 9756, 10458, 10606, 10790, 11173, 11324, 12156, 12373, 12573, 13659, 13809, 14024]}, "edge": {"target": [], "time": []}}}, "displayed_time": "17.41", "trialTime": 20058, "trial_type": "mouselab-mdp", "trial_index": 4, "time_elapsed": 105410, "internal_node_id": "0.0-2.0-2.0-0.0"}}, {"uniqueid": "w14115695:a52679487", "current_trial": 5, "dateTime": 1691070950970, "trialdata": {"revealed_states": [], "clicked_states": ["29", "33", "26", "25", "24", "23", "12", "13", "14", "1", "2", "3", "4", "5", "8", "9", "11", "10"], "num_clicks_accrued": [0, 0, 0, 0, 0, 0, 0, 0, 0, 0, 0, 0, 0], "stateRewards": ["", -10, 10, 10, -10, -10, 10, 10, -10, 10, 10, -10, 10, -10, -10, -10, -10, 10, -10, 10, 10, 10, 10, -10, -10, -10, 10, 10, -10, 10, -10, -10, -10, 10], "withholdReward": false, "trial_id": "practice_2", "block": "test", "trialIndex": 1, "score": 4.5, "costs": -9, "simulationMode": [null, null, null, null, null], "rewards": [-10, 10, 10, -10, 10], "path": ["0", "0", "1", "2", "3", "8", "10"], "rt": [28327, 1047, 290, 99, 163], "actions": ["up", "up", "up", "left", "down"], "actionTimes": [30115, 31681, 32508, 33099, 33763], "queries": {"click": {"state": {"target": ["29", "33", "26", "25", "24", "23", "12", "13", "14", "1", "2", "3", "4", "5", "8", "9", "11", "10"], "time": [2642, 4321, 5713, 7094, 8573, 9938, 11544, 12872, 14140, 16349, 17658, 19010, 20347, 21680, 23053, 24414, 25820, 27168]}, "edge": {"target": [], "time": []}}, "mouseover": {"state": {"target": ["29", "33", "30", "25", "26", "25", "25", "24", "23", "12", "13", "14", "19", "22", "12", "1", "2", "3", "4", "5", "8", "9", "9", "11", "10", "2", "1"], "time": [2399, 3066, 4833, 5016, 5182, 6217, 6504, 7417, 8982, 10968, 12149, 13300, 14716, 15515, 16033, 16166, 16983, 18750, 19533, 21183, 22182, 23416, 23832, 25150, 26282, 27849, 28765]}, "edge": {"target": [], "time": []}}, "mouseout": {"state": {"target": ["12", "12", "0", "29", "33", "30", "25", "26", "25", "25", "24", "23", "12", "13", "14", "19", "22", "12", "1", "2", "3", "4", "5", "5", "3", "8", "9", "9", "9", "8", "11", "10", "2", "1"], "time": [532, 632, 2036, 2899, 4600, 4965, 5083, 6166, 6282, 7366, 8933, 10282, 12032, 13233, 14632, 14833, 15918, 16066, 16800, 18382, 19433, 21116, 21786, 22049, 22149, 23316, 23549, 24485, 24716, 24800, 26199, 27549, 27932, 29152]}, "edge": {"target": [], "time": []}}}, "displayed_time": "34.28", "trialTime": 36169, "trial_type": "mouselab-mdp", "trial_index": 5, "time_elapsed": 141929, "internal_node_id": "0.0-2.0-2.0-1.0"}}, {"uniqueid": "w14115695:a52679487", "current_trial": 6, "dateTime": 1691070966273, "trialdata": {"view_history": [{"page_index": 0, "viewing_time": 10066}, {"page_index": 1, "viewing_time": 5234}], "rt": 15300, "trial_id": "mouselab_instructions_2_control", "trial_type": "instructions", "trial_index": 6, "time_elapsed": 157233, "internal_node_id": "0.0-2.0-3.0"}}, {"uniqueid": "w14115695:a52679487", "current_trial": 7, "dateTime": 1691071006032, "trialdata": {"rt": 39755, "response": {"Q0": "The cost for clicking on nodes may vary between nodes.", "Q1": "The better I perform the higher my bonus will be.", "Q2": "No, the structure of the web will be different each time.", "Q3": "To get the highest total score.", "Q4": "Only before moving the spider.", "Q5": "3 seconds"}, "question_order": [0, 1, 2, 3, 4, 5], "correct": {"Q0": "The cost for clicking on nodes may vary between nodes.", "Q1": "The better I perform the higher my bonus will be.", "Q2": "No, the amount of cash at each node of the web may be different each time.", "Q3": "To get the highest total score.", "Q4": "Only before moving the spider.", "Q5": "3 seconds"}, "trial_id": "mouselab_quiz_control", "trial_type": "survey-multi-choice", "trial_index": 7, "time_elapsed": 196992, "internal_node_id": "0.0-2.0-4.0"}}, {"uniqueid": "w14115695:a52679487", "current_trial": 8, "dateTime": 1691071017619, "trialdata": {"success": true, "trial_type": "fullscreen", "trial_index": 8, "time_elapsed": 208579, "internal_node_id": "0.0-2.1-0.1"}}, {"uniqueid": "w14115695:a52679487", "current_trial": 9, "dateTime": 1691071053137, "trialdata": {"view_history": [{"page_index": 0, "viewing_time": 6850}, {"page_index": 1, "viewing_time": 9456}, {"page_index": 2, "viewing_time": 3899}, {"page_index": 3, "viewing_time": 15311}], "rt": 35516, "trial_id": "mouselab_instructions_1_control", "trial_type": "instructions", "trial_index": 9, "time_elapsed": 244097, "internal_node_id": "0.0-2.1-1.1"}}, {"uniqueid": "w14115695:a52679487", "current_trial": 10, "dateTime": 1691071060253, "trialdata": {"revealed_states": [], "clicked_states": [], "num_clicks_accrued": [0, 0, 0, 0, 0, 0, 0, 0, 0, 0, 0, 0, 0], "stateRewards": ["", 10, -10, 10, -10, 10, 10, 10, 10, -10, 10, -10, -10, 10, -10, -10, -10, 10, 10, -10, 10, 10, 10, -10, 10, -10, 10, 10, 10, -10, 10, -10, -10, 10], "withholdReward": false, "trial_id": "practice_1", "block": "test", "trialIndex": 2, "score": -6.5, "costs": 0, "simulationMode": [null, null, null, null, null], "rewards": [-10, 10, -10, -10, 10], "path": ["0", "0", "12", "13", "14", "15", "17"], "rt": [290, 61, 49, 250, 100], "actions": ["right", "right", "right", "up", "right"], "actionTimes": [2201, 2764, 3336, 4102, 4701], "queries": {"click": {"state": {"target": [], "time": []}, "edge": {"target": [], "time": []}}, "mouseover": {"state": {"target": ["22", "19"], "time": [2151, 2199]}, "edge": {"target": [], "time": []}}, "mouseout": {"state": {"target": ["19", "20", "14", "13", "12", "0", "22", "19", "19", "20", "21"], "time": [1066, 1116, 1332, 1433, 1516, 2084, 2184, 2206, 4834, 4983, 5267]}, "edge": {"target": [], "time": []}}}, "displayed_time": "5.22", "trialTime": 6806, "trial_type": "mouselab-mdp", "trial_index": 10, "time_elapsed": 251213, "internal_node_id": "0.0-2.1-2.1-0.1"}}, {"uniqueid": "w14115695:a52679487", "current_trial": 11, "dateTime": 1691071073052, "trialdata": {"revealed_states": [], "clicked_states": ["14", "17", "15", "13", "12"], "num_clicks_accrued": [0, 0, 0, 0, 0, 0, 0, 0, 0, 0, 0, 0, 0], "stateRewards": ["", -10, 10, 10, -10, -10, 10, 10, -10, 10, 10, -10, 10, -10, -10, -10, -10, 10, -10, 10, 10, 10, 10, -10, -10, -10, 10, 10, -10, 10, -10, -10, -10, 10], "withholdReward": false, "trial_id": "practice_2", "block": "test", "trialIndex": 3, "score": -29, "costs": -2.5, "simulationMode": [null, null, null, null, null], "rewards": [10, -10, -10, -10, -10], "path": ["0", "0", "12", "13", "14", "15", "16"], "rt": [6612, 101, 74, 88, 73], "actions": ["right", "right", "right", "up", "up"], "actionTimes": [8210, 8813, 9385, 9967, 10534], "queries": {"click": {"state": {"target": ["14", "17", "15", "13", "12"], "time": [2001, 3166, 4229, 5644, 6861]}, "edge": {"target": [], "time": []}}, "mouseover": {"state": {"target": ["12", "13", "14", "15", "17", "15", "13", "12", "19"], "time": [1693, 1727, 1776, 2293, 2660, 3525, 4659, 5959, 7143]}, "edge": {"target": [], "time": []}}, "mouseout": {"state": {"target": ["21", "13", "12", "0", "0", "12", "13", "14", "15", "17", "15", "13", "12", "19"], "time": [159, 375, 709, 977, 1342, 1710, 1743, 2226, 2610, 3460, 4460, 5910, 7093, 7160]}, "edge": {"target": [], "time": []}}}, "displayed_time": "11.03", "trialTime": 12476, "trial_type": "mouselab-mdp", "trial_index": 11, "time_elapsed": 264010, "internal_node_id": "0.0-2.1-2.1-1.1"}}, {"uniqueid": "w14115695:a52679487", "current_trial": 12, "dateTime": 1691071077101, "trialdata": {"view_history": [{"page_index": 0, "viewing_time": 2656}, {"page_index": 1, "viewing_time": 1386}], "rt": 4042, "trial_id": "mouselab_instructions_2_control", "trial_type": "instructions", "trial_index": 12, "time_elapsed": 268061, "internal_node_id": "0.0-2.1-3.1"}}, {"uniqueid": "w14115695:a52679487", "current_trial": 13, "dateTime": 1691071095671, "trialdata": {"rt": 18569, "response": {"Q0": "The cost for clicking on nodes may vary between nodes.", "Q1": "The better I perform the higher my bonus will be.", "Q2": "No, the structure of the web will be different each time.", "Q3": "To get the highest total score.", "Q4": "Only before moving the spider.", "Q5": "3 seconds"}, "question_order": [0, 1, 2, 3, 4, 5], "correct": {"Q0": "The cost for clicking on nodes may vary between nodes.", "Q1": "The better I perform the higher my bonus will be.", "Q2": "No, the amount of cash at each node of the web may be different each time.", "Q3": "To get the highest total score.", "Q4": "Only before moving the spider.", "Q5": "3 seconds"}, "trial_id": "mouselab_quiz_control", "trial_type": "survey-multi-choice", "trial_index": 13, "time_elapsed": 286631, "internal_node_id": "0.0-2.1-4.1"}}, {"uniqueid": "w14115695:a52679487", "current_trial": 14, "dateTime": 1691071100176, "trialdata": {"success": true, "trial_type": "fullscreen", "trial_index": 14, "time_elapsed": 291136, "internal_node_id": "0.0-2.2-0.2"}}, {"uniqueid": "w14115695:a52679487", "current_trial": 15, "dateTime": 1691071116543, "trialdata": {"view_history": [{"page_index": 0, "viewing_time": 4579}, {"page_index": 1, "viewing_time": 3761}, {"page_index": 2, "viewing_time": 3042}, {"page_index": 3, "viewing_time": 4975}], "rt": 16357, "trial_id": "mouselab_instructions_1_control", "trial_type": "instructions", "trial_index": 15, "time_elapsed": 307503, "internal_node_id": "0.0-2.2-1.2"}}, {"uniqueid": "w14115695:a52679487", "current_trial": 16, "dateTime": 1691071123451, "trialdata": {"revealed_states": [], "clicked_states": [], "num_clicks_accrued": [0, 0, 0, 0, 0, 0, 0, 0, 0, 0, 0, 0, 0], "stateRewards": ["", 10, -10, 10, -10, 10, 10, 10, 10, -10, 10, -10, -10, 10, -10, -10, -10, 10, 10, -10, 10, 10, 10, -10, 10, -10, 10, 10, 10, -10, 10, -10, -10, 10], "withholdReward": false, "trial_id": "practice_1", "block": "test", "trialIndex": 4, "score": -6.5, "costs": 0, "simulationMode": [null, null, null, null, null], "rewards": [-10, 10, -10, -10, 10], "path": ["0", "0", "12", "13", "14", "19", "22"], "rt": [462, 43, 182, 154, 84], "actions": ["right", "right", "right", "down", "left"], "actionTimes": [2122, 2655, 3344, 4000, 4580], "queries": {"click": {"state": {"target": [], "time": []}, "edge": {"target": [], "time": []}}, "mouseover": {"state": {"target": [], "time": []}, "edge": {"target": [], "time": []}}, "mouseout": {"state": {"target": ["0", "0"], "time": [910, 1668]}, "edge": {"target": [], "time": []}}}, "displayed_time": "5.08", "trialTime": 6633, "trial_type": "mouselab-mdp", "trial_index": 16, "time_elapsed": 314411, "internal_node_id": "0.0-2.2-2.2-0.2"}}, {"uniqueid": "w14115695:a52679487", "current_trial": 17, "dateTime": 1691071131937, "trialdata": {"revealed_states": [], "clicked_states": [], "num_clicks_accrued": [0, 0, 0, 0, 0, 0, 0, 0, 0, 0, 0, 0, 0], "stateRewards": ["", -10, 10, 10, -10, -10, 10, 10, -10, 10, 10, -10, 10, -10, -10, -10, -10, 10, -10, 10, 10, 10, 10, -10, -10, -10, 10, 10, -10, 10, -10, -10, -10, 10], "withholdReward": false, "trial_id": "practice_2", "block": "test", "trialIndex": 5, "score": 13.5, "costs": 0, "simulationMode": [null, null, null, null, null], "rewards": [-10, 10, 10, -10, 10], "path": ["0", "0", "1", "2", "3", "8", "10"], "rt": [328, 531, 75, 107, 64], "actions": ["up", "up", "up", "left", "down"], "actionTimes": [1458, 2528, 3121, 3719, 4276], "queries": {"click": {"state": {"target": [], "time": []}, "edge": {"target": [], "time": []}}, "mouseover": {"state": {"target": [], "time": []}, "edge": {"target": [], "time": []}}, "mouseout": {"state": {"target": ["0", "0", "0", "1"], "time": [1312, 5345, 6762, 6861]}, "edge": {"target": [], "time": []}}}, "displayed_time": "4.78", "trialTime": 8151, "trial_type": "mouselab-mdp", "trial_index": 17, "time_elapsed": 322896, "internal_node_id": "0.0-2.2-2.2-1.2"}}, {"uniqueid": "w14115695:a52679487", "current_trial": 18, "dateTime": 1691071141283, "trialdata": {"view_history": [{"page_index": 0, "viewing_time": 8192}, {"page_index": 1, "viewing_time": 1148}], "rt": 9341, "trial_id": "mouselab_instructions_2_control", "trial_type": "instructions", "trial_index": 18, "time_elapsed": 332243, "internal_node_id": "0.0-2.2-3.2"}}, {"uniqueid": "w14115695:a52679487", "current_trial": 19, "dateTime": 1691071163539, "trialdata": {"rt": 22253, "response": {"Q0": "The cost for clicking on nodes may vary between nodes.", "Q1": "The better I perform the higher my bonus will be.", "Q2": "No, the amount of cash at each node of the web may be different each time.", "Q3": "To get the highest total score.", "Q4": "Only before moving the spider.", "Q5": "3 seconds"}, "question_order": [0, 1, 2, 3, 4, 5], "correct": {"Q0": "The cost for clicking on nodes may vary between nodes.", "Q1": "The better I perform the higher my bonus will be.", "Q2": "No, the amount of cash at each node of the web may be different each time.", "Q3": "To get the highest total score.", "Q4": "Only before moving the spider.", "Q5": "3 seconds"}, "trial_id": "mouselab_quiz_control", "trial_type": "survey-multi-choice", "trial_index": 19, "time_elapsed": 354499, "internal_node_id": "0.0-2.2-4.2"}}, {"uniqueid": "w14115695:a52679487", "current_trial": 20, "dateTime": 1691071167922, "trialdata": {"rt": 4375, "stimulus": "\n<h1> Get ready to start the game! </h1>\n\nThank you for reading the instructions. Get ready start with the 40 rounds of this game.\n<br><br>\nIf you need to take a break, feel free to take one after the end of a round, before continuing to the next one.\n<br><br>\nRemember, the more money the spider gets, the bigger your bonus will be!\n<br><br>\n<div style='text-align: center;'>Press <code>space</code> to begin.</div>\n\n<br><br>\n(If, at any point, the <code>space</code> key does not take you to the next page, click once on the text and try again.)", "response": " ", "trial_id": "mdp_ready", "trial_type": "html-keyboard-response", "trial_index": 20, "time_elapsed": 358882, "internal_node_id": "0.0-4.0-0.0"}}, {"uniqueid": "w14115695:a52679487", "current_trial": 21, "dateTime": 1691071185114, "trialdata": {"revealed_states": [], "clicked_states": ["13", "15"], "num_clicks_accrued": [0, 0, 0, 0, 0, 0, 0, 0, 0, 0, 0, 0, 0], "stateRewards": ["", -2, -3, 8, -4, -30, 31, 69, 9, 66, 87, 64, -2, 2, 8, 5, 47, 16, -39, -8, -54, 51, -19, 1, -2, -2, -11, -25, -26, 43, -9, 19, -84, 86], "withholdReward": false, "trial_id": "mdp_trial_1", "block": "test", "trialIndex": 6, "score": 26.2, "costs": -2.8, "simulationMode": [null, null, null, null, null, null], "rewards": [-2, 2, 8, 5, 16], "path": ["0", "0", "12", "13", "14", "15", "17"], "rt": [3915, 669, 115, 216, 114, 131], "actions": ["right", "right", "right", "right", "up", "right"], "actionTimes": [4960, 5631, 6251, 6969, 7585, 8234], "queries": {"click": {"state": {"target": ["13", "15"], "time": [2612, 4135]}, "edge": {"target": [], "time": []}}, "mouseover": {"state": {"target": ["0", "12", "13", "14", "15", "17", "15"], "time": [1135, 1318, 2469, 2853, 3285, 3835, 4068]}, "edge": {"target": [], "time": []}}, "mouseout": {"state": {"target": ["1", "0", "12", "13", "14", "15", "17", "15", "15", "13", "13"], "time": [402, 1168, 2407, 2768, 3218, 3735, 4018, 4469, 14571, 14735, 16203]}, "edge": {"target": [], "time": []}}}, "displayed_time": "15.04", "trialTime": 16886, "trial_type": "mouselab-mdp", "trial_index": 21, "time_elapsed": 376073, "internal_node_id": "0.0-4.0-1.0-0.0"}}, {"uniqueid": "w14115695:a52679487", "current_trial": 22, "dateTime": 1691071204989, "trialdata": {"revealed_states": [], "clicked_states": ["14", "13", "15", "16", "17", "12"], "num_clicks_accrued": [0, 0, 0, 0, 0, 0, 0, 0, 0, 0, 0, 0, 0], "stateRewards": ["", -2, 2, -2, -7, -50, -62, -45, 7, 36, -24, -72, -1, -1, 8, -1, -67, 20, -52, 2, 35, -50, 80, -1, 1, 6, -6, -70, 6, 88, 8, -47, 74, -19], "withholdReward": false, "trial_id": "mdp_trial_2", "block": "test", "trialIndex": 7, "score": 16.6, "costs": -8.4, "simulationMode": [null, null, null, null, null], "rewards": [-1, -1, 8, -1, 20], "path": ["0", "0", "12", "13", "14", "15", "17"], "rt": [13364, 169, 170, 58, 51], "actions": ["right", "right", "right", "up", "right"], "actionTimes": [15006, 15672, 16338, 16910, 17469], "queries": {"click": {"state": {"target": ["14", "13", "15", "16", "17", "12"], "time": [2013, 3586, 5133, 6989, 8835, 13017]}, "edge": {"target": [], "time": []}}, "mouseover": {"state": {"target": ["12", "13", "14", "13", "13", "15", "16", "18", "17", "14", "13", "18", "12", "12", "13", "13", "12", "18"], "time": [1717, 1767, 1833, 2350, 3450, 3933, 5517, 7484, 7717, 9301, 9417, 9667, 11035, 11384, 11450, 12419, 12901, 13383]}, "edge": {"target": [], "time": []}}, "mouseout": {"state": {"target": ["13", "12", "12", "13", "14", "13", "13", "15", "16", "18", "15", "17", "14", "13", "18", "12", "12", "13", "13", "12", "18"], "time": [1150, 1200, 1750, 1800, 2300, 3200, 3800, 5417, 7350, 7566, 7683, 9218, 9368, 9523, 11000, 11050, 11433, 11683, 12667, 13200, 14384]}, "edge": {"target": [], "time": []}}}, "displayed_time": "17.97", "trialTime": 19542, "trial_type": "mouselab-mdp", "trial_index": 22, "time_elapsed": 395948, "internal_node_id": "0.0-4.0-1.0-1.0"}}, {"uniqueid": "w14115695:a52679487", "current_trial": 23, "dateTime": 1691071222792, "trialdata": {"revealed_states": [], "clicked_states": [], "num_clicks_accrued": [0, 0, 0, 0, 0, 0, 0, 0, 0, 0, 0, 0, 0], "stateRewards": ["", -1, 1, 3, -8, -23, -15, -14, -11, -23, 58, 68, 1, 3, 5, 12, -17, -41, -7, -10, -4, 82, 10, 1, 4, -4, 11, 73, 55, -55, -1, -86, -86, 54], "withholdReward": false, "trial_id": "mdp_trial_3", "block": "test", "trialIndex": 8, "score": -43, "costs": 0, "simulationMode": [null, null, null, null, null], "rewards": [1, 4, -4, 11, -55], "path": ["0", "0", "23", "24", "25", "26", "29"], "rt": [5755, 72, 78, 31, 10], "actions": ["left", "left", "left", "up", "left"], "actionTimes": [8100, 8680, 9270, 9839, 10384], "queries": {"click": {"state": {"target": [], "time": []}, "edge": {"target": [], "time": []}}, "mouseover": {"state": {"target": ["12", "13", "14", "14", "15", "17", "13", "12", "23", "23", "0", "0", "23", "23"], "time": [2624, 2656, 2689, 3023, 3325, 3806, 4273, 4307, 4440, 4691, 5557, 5724, 5840, 7242]}, "edge": {"target": [], "time": []}}, "mouseout": {"state": {"target": ["20", "13", "12", "0", "0", "12", "13", "14", "14", "15", "17", "13", "12", "23", "23", "0", "0", "23", "23"], "time": [1240, 1423, 1490, 1523, 2612, 2640, 2673, 2723, 3291, 3758, 4207, 4290, 4340, 4491, 5509, 5590, 5772, 6875, 7390]}, "edge": {"target": [], "time": []}}}, "displayed_time": "16.34", "trialTime": 17501, "trial_type": "mouselab-mdp", "trial_index": 23, "time_elapsed": 413751, "internal_node_id": "0.0-4.0-1.0-2.0"}}, {"uniqueid": "w14115695:a52679487", "current_trial": 24, "dateTime": 1691071251298, "trialdata": {"revealed_states": [], "clicked_states": ["23", "24", "25", "26", "29", "27", "28", "30", "33", "32", "31"], "num_clicks_accrued": [0, 0, 0, 0, 0, 0, 0, 0, 0, 0, 0, 0, 0], "stateRewards": ["", -1, 1, -1, 2, 19, 85, -18, 2, -3, -26, 36, 2, 4, 7, -9, -18, 70, 72, -5, 35, -20, -28, 1, -2, -4, -3, -59, -11, -63, -2, -72, 59, -69], "withholdReward": false, "trial_id": "mdp_trial_4", "block": "test", "trialIndex": 9, "score": 36.599999999999994, "costs": -15.400000000000002, "simulationMode": [null, null, null, null, null], "rewards": [1, -2, -4, -2, 59], "path": ["0", "0", "23", "24", "25", "30", "32"], "rt": [22218, 2, 65, 11, 56], "actions": ["left", "left", "left", "down", "down"], "actionTimes": [23980, 24489, 25068, 25580, 26142], "queries": {"click": {"state": {"target": ["23", "24", "25", "26", "29", "27", "28", "30", "33", "32", "31"], "time": [2536, 4200, 5753, 7373, 11071, 12725, 14386, 16496, 18279, 20059, 21805]}, "edge": {"target": [], "time": []}}, "mouseover": {"state": {"target": ["12", "23", "24", "24", "24", "25", "26", "29", "27", "29", "29", "27", "28", "24", "31", "30", "32", "33", "32", "31"], "time": [1918, 2186, 2768, 3553, 4069, 4602, 6185, 7769, 9352, 10636, 10806, 11402, 13368, 14818, 15052, 16370, 17285, 17668, 18768, 20535]}, "edge": {"target": [], "time": []}}, "mouseout": {"state": {"target": ["22", "0", "12", "23", "24", "24", "24", "25", "26", "29", "27", "29", "29", "27", "28", "24", "31", "30", "30", "30", "32", "33", "32", "31", "31"], "time": [418, 1835, 2102, 2685, 3336, 3868, 4535, 6102, 7736, 9254, 10619, 10685, 11318, 13219, 14768, 14868, 16339, 16581, 17086, 17201, 17502, 18635, 20385, 23068, 23703]}, "edge": {"target": [], "time": []}}}, "displayed_time": "26.66", "trialTime": 28203, "trial_type": "mouselab-mdp", "trial_index": 24, "time_elapsed": 442257, "internal_node_id": "0.0-4.0-1.0-3.0"}}, {"uniqueid": "w14115695:a52679487", "current_trial": 25, "dateTime": 1691071269291, "trialdata": {"revealed_states": [], "clicked_states": ["1", "2", "3", "8", "10"], "num_clicks_accrued": [0, 0, 0, 0, 0, 0, 0, 0, 0, 0, 0, 0, 0], "stateRewards": ["", -1, 1, 8, -3, -24, 11, -65, -6, -77, 48, 44, -2, 1, -2, -7, -55, -35, 33, 8, -28, 19, -53, -1, -1, -5, -5, -70, 10, 44, 8, -58, -70, 51], "withholdReward": false, "trial_id": "mdp_trial_5", "block": "test", "trialIndex": 10, "score": 43, "costs": -7, "simulationMode": [null, null, null, null, null], "rewards": [-1, 1, 8, -6, 48], "path": ["0", "0", "1", "2", "3", "8", "10"], "rt": [11053, 468, 210, 51, 96], "actions": ["up", "up", "up", "left", "down"], "actionTimes": [13411, 14409, 15134, 15693, 16286], "queries": {"click": {"state": {"target": ["1", "2", "3", "8", "10"], "time": [3500, 5112, 6827, 8564, 10221]}, "edge": {"target": [], "time": []}}, "mouseover": {"state": {"target": ["1", "2", "3", "8", "11", "10", "11", "2", "1"], "time": [3107, 3773, 5556, 7239, 9289, 9539, 10723, 12689, 12756]}, "edge": {"target": [], "time": []}}, "mouseout": {"state": {"target": ["12", "0", "0", "1", "2", "3", "8", "11", "10", "11", "8", "2", "1"], "time": [790, 1040, 2793, 3690, 5389, 7172, 8956, 9474, 10623, 12339, 12639, 12706, 12856]}, "edge": {"target": [], "time": []}}}, "displayed_time": "16.77", "trialTime": 17687, "trial_type": "mouselab-mdp", "trial_index": 25, "time_elapsed": 460251, "internal_node_id": "0.0-4.0-1.0-4.0"}}, {"uniqueid": "w14115695:a52679487", "current_trial": 26, "dateTime": 1691071288914, "trialdata": {"revealed_states": [], "clicked_states": ["1", "2", "3", "4", "6", "7"], "num_clicks_accrued": [0, 0, 0, 0, 0, 0, 0, 0, 0, 0, 0, 0, 0], "stateRewards": ["", -1, 3, 1, -7, 56, 76, 57, 3, 11, -9, 14, 1, -2, 2, 8, -77, -3, 79, -5, 88, 24, -66, -2, -1, 7, -7, -30, 14, -76, 11, -36, 28, -6], "withholdReward": false, "trial_id": "mdp_trial_6", "block": "test", "trialIndex": 11, "score": 63.6, "costs": -8.4, "simulationMode": [null, null, null, null, null], "rewards": [-1, 3, 1, -7, 76], "path": ["0", "0", "1", "2", "3", "4", "6"], "rt": [12444, 4, 33, 31, 43], "actions": ["up", "up", "up", "right", "right"], "actionTimes": [14773, 15298, 15843, 16391, 16953], "queries": {"click": {"state": {"target": ["1", "2", "3", "4", "6", "7"], "time": [2891, 4819, 6584, 8455, 10253, 12038]}, "edge": {"target": [], "time": []}}, "mouseover": {"state": {"target": ["1", "2", "3", "4", "6", "7", "5", "4", "1", "1"], "time": [2643, 3242, 5242, 6992, 9009, 10776, 12575, 13742, 13992, 14242]}, "edge": {"target": [], "time": []}}, "mouseout": {"state": {"target": ["0", "1", "2", "3", "4", "6", "7", "4", "5", "4", "1", "1", "0"], "time": [708, 3109, 5109, 6909, 8926, 10642, 12295, 12459, 13659, 13792, 14209, 14275, 17909]}, "edge": {"target": [], "time": []}}}, "displayed_time": "17.46", "trialTime": 19362, "trial_type": "mouselab-mdp", "trial_index": 26, "time_elapsed": 479873, "internal_node_id": "0.0-4.0-1.0-5.0"}}, {"uniqueid": "w14115695:a52679487", "current_trial": 27, "dateTime": 1691071310205, "trialdata": {"revealed_states": [], "clicked_states": ["12", "13", "14", "19", "21", "22", "20"], "num_clicks_accrued": [0, 0, 0, 0, 0, 0, 0, 0, 0, 0, 0, 0, 0], "stateRewards": ["", -2, 1, -8, 12, -65, -79, 16, 7, -80, -17, -45, -2, 2, -5, -2, -85, 23, -4, -7, 48, 27, -76, 2, 3, 5, 2, 43, 71, -13, 7, -49, 59, -31], "withholdReward": false, "trial_id": "mdp_trial_7", "block": "test", "trialIndex": 12, "score": 26.2, "costs": -9.8, "simulationMode": [null, null, null, null, null], "rewards": [-2, 2, -5, -7, 48], "path": ["0", "0", "12", "13", "14", "19", "20"], "rt": [14990, 21, 88, 65, 65], "actions": ["right", "right", "right", "down", "right"], "actionTimes": [16040, 16571, 17189, 17765, 18348], "queries": {"click": {"state": {"target": ["12", "13", "14", "19", "21", "22", "20"], "time": [2476, 4267, 6040, 8649, 10411, 12168, 13987]}, "edge": {"target": [], "time": []}}, "mouseover": {"state": {"target": ["1", "12", "13", "13", "14", "19", "21", "22", "20", "19", "13", "14"], "time": [1482, 1882, 2699, 2882, 4649, 6482, 9150, 11048, 12832, 14382, 14915, 14966]}, "edge": {"target": [], "time": []}}, "mouseout": {"state": {"target": ["1", "12", "12", "13", "13", "14", "19", "21", "22", "19", "20", "19", "22", "13", "14", "22", "21"], "time": [1832, 2559, 2682, 2748, 4548, 6432, 9032, 10865, 12482, 12748, 14348, 14465, 14515, 14949, 14999, 19216, 20851]}, "edge": {"target": [], "time": []}}}, "displayed_time": "18.85", "trialTime": 21027, "trial_type": "mouselab-mdp", "trial_index": 27, "time_elapsed": 501165, "internal_node_id": "0.0-4.0-1.0-6.0"}}, {"uniqueid": "w14115695:a52679487", "current_trial": 28, "dateTime": 1691071327622, "trialdata": {"revealed_states": [], "clicked_states": ["23", "24", "25", "30", "33", "32"], "num_clicks_accrued": [0, 0, 0, 0, 0, 0, 0, 0, 0, 0, 0, 0, 0], "stateRewards": ["", -1, 2, 6, 11, 21, -21, -21, -6, 48, -71, 88, -1, -3, 3, 7, 64, 2, 9, -4, 37, -67, 72, 2, 2, -8, -8, -10, 71, -40, -3, 73, 80, 47], "withholdReward": false, "trial_id": "mdp_trial_8", "block": "test", "trialIndex": 13, "score": 64.6, "costs": -8.4, "simulationMode": [null, null, null, null, null], "rewards": [2, 2, -8, -3, 80], "path": ["0", "0", "23", "24", "25", "30", "32"], "rt": [11586, 63, 29, 2, 103], "actions": ["left", "left", "left", "down", "down"], "actionTimes": [13517, 14082, 14647, 15153, 15772], "queries": {"click": {"state": {"target": ["23", "24", "25", "30", "33", "32"], "time": [2941, 4494, 6004, 7752, 9539, 11296]}, "edge": {"target": [], "time": []}}, "mouseover": {"state": {"target": ["23", "24", "25", "30", "33", "32", "31"], "time": [2502, 3251, 5000, 6534, 8617, 10050, 11783]}, "edge": {"target": [], "time": []}}, "mouseout": {"state": {"target": ["14", "13", "12", "23", "24", "25", "30", "33", "32", "31"], "time": [233, 250, 300, 3200, 4917, 6434, 8367, 9902, 11583, 16052]}, "edge": {"target": [], "time": []}}}, "displayed_time": "16.29", "trialTime": 17160, "trial_type": "mouselab-mdp", "trial_index": 28, "time_elapsed": 518581, "internal_node_id": "0.0-4.0-1.0-7.0"}}, {"uniqueid": "w14115695:a52679487", "current_trial": 29, "dateTime": 1691071348915, "trialdata": {"revealed_states": [], "clicked_states": ["1", "2", "3", "8", "10", "11", "9"], "num_clicks_accrued": [0, 0, 0, 0, 0, 0, 0, 0, 0, 0, 0, 0, 0], "stateRewards": ["", 1, 4, -8, -13, -13, -87, -77, -10, -44, 54, 42, 2, -3, -4, 12, -9, -80, 52, 9, 84, -2, -65, 1, -4, -5, -6, 8, 80, 32, 13, -59, -5, -13], "withholdReward": false, "trial_id": "mdp_trial_9", "block": "test", "trialIndex": 14, "score": 31.2, "costs": -9.8, "simulationMode": [null, null, null, null, null], "rewards": [1, 4, -8, -10, 54], "path": ["0", "0", "1", "2", "3", "8", "10"], "rt": [14275, 684, 201, 111, 103], "actions": ["up", "up", "up", "left", "down"], "actionTimes": [15697, 16891, 17609, 18218, 18826], "queries": {"click": {"state": {"target": ["1", "2", "3", "8", "10", "11", "9"], "time": [2168, 3857, 5587, 7612, 9679, 11754, 13699]}, "edge": {"target": [], "time": []}}, "mouseover": {"state": {"target": ["1", "2", "3", "8", "10", "11", "28", "9", "8", "0"], "time": [1945, 2605, 4405, 6255, 8139, 10439, 12371, 13157, 14055, 15171]}, "edge": {"target": [], "time": []}}, "mouseout": {"state": {"target": ["0", "1", "2", "3", "8", "10", "11", "11", "28", "10", "9", "8", "10", "0"], "time": [605, 2455, 4288, 5971, 8022, 10306, 11806, 12271, 12505, 12788, 13988, 14105, 14190, 15221]}, "edge": {"target": [], "time": []}}}, "displayed_time": "19.32", "trialTime": 20993, "trial_type": "mouselab-mdp", "trial_index": 29, "time_elapsed": 539875, "internal_node_id": "0.0-4.0-1.0-8.0"}}, {"uniqueid": "w14115695:a52679487", "current_trial": 30, "dateTime": 1691071378348, "trialdata": {"revealed_states": [], "clicked_states": ["10", "11", "9", "5", "6", "7", "16", "17", "18", "20", "21", "22"], "num_clicks_accrued": [0, 0, 0, 0, 0, 0, 0, 0, 0, 0, 0, 0, 0], "stateRewards": ["", 2, -1, -2, -5, -47, -57, -33, -11, 31, -18, -72, -2, 1, -4, -8, -46, -53, -50, 15, -85, -9, 39, -2, -2, 1, 14, -1, -8, 53, -12, -41, -74, 62], "withholdReward": false, "trial_id": "mdp_trial_10", "block": "test", "trialIndex": 15, "score": 2.1999999999999993, "costs": -16.8, "simulationMode": [null, null, null, null, null], "rewards": [2, -1, -2, -11, 31], "path": ["0", "0", "1", "2", "3", "8", "9"], "rt": [23193, 614, 192, 40, 91], "actions": ["up", "up", "up", "left", "up"], "actionTimes": [24700, 25839, 26533, 27098, 27699], "queries": {"click": {"state": {"target": ["10", "11", "9", "5", "6", "7", "16", "17", "18", "20", "21", "22"], "time": [2163, 3727, 5500, 7355, 9159, 10982, 12824, 14599, 16510, 18379, 20542, 22378]}, "edge": {"target": [], "time": []}}, "mouseover": {"state": {"target": ["10", "8", "11", "9", "5", "6", "7", "16", "17", "15", "18", "15", "20", "20", "21", "22", "0", "23", "23"], "time": [1574, 2457, 2590, 4190, 6107, 7791, 9557, 11590, 13241, 14941, 15090, 16840, 17273, 17623, 19024, 21041, 22824, 22878, 23241]}, "edge": {"target": [], "time": []}}, "mouseout": {"state": {"target": ["1", "0", "0", "10", "8", "11", "9", "5", "6", "7", "16", "17", "15", "18", "15", "20", "20", "21", "22", "0", "23", "23", "0", "0"], "time": [509, 842, 1516, 2208, 2507, 4023, 5907, 7658, 9457, 11307, 13108, 14907, 14990, 16807, 16857, 17457, 18690, 20874, 22740, 22857, 22894, 23440, 26223, 28544]}, "edge": {"target": [], "time": []}}}, "displayed_time": "28.19", "trialTime": 29113, "trial_type": "mouselab-mdp", "trial_index": 30, "time_elapsed": 569308, "internal_node_id": "0.0-4.0-1.0-9.0"}}, {"uniqueid": "w14115695:a52679487", "current_trial": 31, "dateTime": 1691071395299, "trialdata": {"revealed_states": [], "clicked_states": ["32", "31", "33"], "num_clicks_accrued": [0, 0, 0, 0, 0, 0, 0, 0, 0, 0, 0, 0, 0], "stateRewards": ["", -1, 3, 8, 10, -86, 61, -36, 10, 17, -60, 24, -1, -3, 3, 11, 50, 60, 33, -3, -20, 58, -6, 1, -4, -4, 13, -70, -71, 43, 14, 52, 82, -11], "withholdReward": false, "trial_id": "mdp_trial_11", "block": "test", "trialIndex": 16, "score": 84.8, "costs": -4.199999999999999, "simulationMode": [null, null, null, null, null], "rewards": [1, -4, -4, 14, 82], "path": ["0", "0", "23", "24", "25", "30", "32"], "rt": [6123, 517, 168, 56, 83], "actions": ["left", "left", "left", "down", "down"], "actionTimes": [7419, 8436, 9102, 9672, 10267], "queries": {"click": {"state": {"target": ["32", "31", "33"], "time": [2127, 3755, 5578]}, "edge": {"target": [], "time": []}}, "mouseover": {"state": {"target": ["31", "32", "31", "30", "33", "30"], "time": [1684, 1936, 2599, 4166, 4266, 5915]}, "edge": {"target": [], "time": []}}, "mouseout": {"state": {"target": ["0", "31", "32", "31", "30", "33", "30", "31"], "time": [1574, 1702, 2449, 4116, 4233, 5898, 5948, 5999]}, "edge": {"target": [], "time": []}}}, "displayed_time": "15.30", "trialTime": 16620, "trial_type": "mouselab-mdp", "trial_index": 31, "time_elapsed": 586258, "internal_node_id": "0.0-4.0-1.0-10.0"}}, {"uniqueid": "w14115695:a52679487", "current_trial": 32, "dateTime": 1691071414048, "trialdata": {"revealed_states": [], "clicked_states": ["21", "32", "33", "31"], "num_clicks_accrued": [0, 0, 0, 0, 0, 0, 0, 0, 0, 0, 0, 0, 0], "stateRewards": ["", 1, 1, -6, -2, 7, 77, 3, 16, -16, 66, 31, -1, 3, -8, -6, 33, -50, -48, 7, -60, -66, 36, 2, -3, 3, -7, -12, -61, -79, -4, 8, 74, -70], "withholdReward": false, "trial_id": "mdp_trial_12", "block": "test", "trialIndex": 17, "score": 66.4, "costs": -5.6, "simulationMode": [null, null, null, null, null], "rewards": [2, -3, 3, -4, 74], "path": ["0", "0", "23", "24", "25", "30", "32"], "rt": [8316, 2, 9, 140, 148], "actions": ["left", "left", "left", "down", "down"], "actionTimes": [10646, 11186, 11704, 12352, 12994], "queries": {"click": {"state": {"target": ["21", "32", "33", "31"], "time": [2922, 4637, 6430, 8295]}, "edge": {"target": [], "time": []}}, "mouseover": {"state": {"target": ["12", "22", "21", "32", "32", "32", "33", "30", "31", "0", "23", "24", "25", "30"], "time": [2394, 2477, 2698, 3460, 3610, 3860, 5210, 6761, 6877, 8911, 9244, 9297, 9377, 9694]}, "edge": {"target": [], "time": []}}, "mouseout": {"state": {"target": ["12", "1", "1", "1", "0", "12", "22", "21", "32", "32", "32", "33", "30", "31", "0", "23", "24", "25", "30", "31", "23"], "time": [860, 894, 1564, 1695, 2360, 2410, 2527, 3111, 3494, 3677, 5043, 6728, 6811, 8577, 8977, 9278, 9331, 9577, 10580, 11044, 17081]}, "edge": {"target": [], "time": []}}}, "displayed_time": "16.33", "trialTime": 18398, "trial_type": "mouselab-mdp", "trial_index": 32, "time_elapsed": 605007, "internal_node_id": "0.0-4.0-1.0-11.0"}}, {"uniqueid": "w14115695:a52679487", "current_trial": 33, "dateTime": 1691071430916, "trialdata": {"revealed_states": [], "clicked_states": ["32", "33", "29", "27"], "num_clicks_accrued": [0, 0, 0, 0, 0, 0, 0, 0, 0, 0, 0, 0, 0], "stateRewards": ["", 2, -4, 1, -12, -59, -53, -74, 16, -88, -66, 66, 1, -2, 8, -9, -14, 22, 25, -1, -39, 47, -14, -1, -1, -2, 1, -4, 52, -26, 15, -7, 46, 43], "withholdReward": false, "trial_id": "mdp_trial_13", "block": "test", "trialIndex": 18, "score": 51.4, "costs": -5.6, "simulationMode": [null, null, null, null, null], "rewards": [-1, -1, -2, 15, 46], "path": ["0", "0", "23", "24", "25", "30", "32"], "rt": [8634, 35, 78, 75, 82], "actions": ["left", "left", "left", "down", "down"], "actionTimes": [9626, 10154, 10731, 11310, 11902], "queries": {"click": {"state": {"target": ["32", "33", "29", "27"], "time": [2130, 4029, 5675, 7535]}, "edge": {"target": [], "time": []}}, "mouseover": {"state": {"target": ["0", "24", "30", "32", "21", "21", "33", "33", "30", "25", "29", "27", "28", "23", "0"], "time": [1425, 1567, 1634, 1886, 2767, 3034, 3317, 3638, 4384, 4551, 4618, 6117, 7901, 8033, 9085]}, "edge": {"target": [], "time": []}}, "mouseout": {"state": {"target": ["0", "0", "24", "30", "32", "21", "21", "33", "33", "30", "25", "29", "27", "28", "23", "0", "0"], "time": [1184, 1452, 1601, 1667, 2384, 2835, 3135, 3534, 4250, 4517, 4568, 5933, 7818, 7934, 8800, 10601, 15373]}, "edge": {"target": [], "time": []}}}, "displayed_time": "14.99", "trialTime": 16555, "trial_type": "mouselab-mdp", "trial_index": 33, "time_elapsed": 621874, "internal_node_id": "0.0-4.0-1.0-12.0"}}, {"uniqueid": "w14115695:a52679487", "current_trial": 34, "dateTime": 1691071450146, "trialdata": {"revealed_states": [], "clicked_states": ["9", "11", "10", "27", "28", "29"], "num_clicks_accrued": [0, 0, 0, 0, 0, 0, 0, 0, 0, 0, 0, 0, 0], "stateRewards": ["", 1, 2, -3, 6, -88, 74, -45, 7, -46, 40, -77, 1, -4, 4, 3, 22, -25, -59, 8, -83, 19, -60, -1, -1, -1, -8, 26, -29, 64, -7, -88, -51, -55], "withholdReward": false, "trial_id": "mdp_trial_14", "block": "test", "trialIndex": 19, "score": 44.6, "costs": -8.4, "simulationMode": [null, null, null, null, null], "rewards": [-1, -1, -1, -8, 64], "path": ["0", "0", "23", "24", "25", "26", "29"], "rt": [12024, 43, 159, 125, 102], "actions": ["left", "left", "left", "up", "left"], "actionTimes": [13220, 13781, 14448, 15064, 15659], "queries": {"click": {"state": {"target": ["9", "11", "10", "27", "28", "29"], "time": [2057, 3711, 5481, 7317, 9168, 11104]}, "edge": {"target": [], "time": []}}, "mouseover": {"state": {"target": ["1", "8", "9", "11", "10", "27", "28", "26", "29", "30", "33", "33"], "time": [1588, 1721, 1871, 2419, 4054, 5986, 7736, 9503, 9587, 12169, 12336, 12603]}, "edge": {"target": [], "time": []}}, "mouseout": {"state": {"target": ["0", "0", "1", "8", "9", "11", "10", "27", "28", "26", "29", "30", "33", "33", "33", "30"], "time": [119, 1510, 1638, 1771, 2320, 4020, 5820, 7670, 9488, 9537, 11836, 12186, 12369, 13470, 16419, 17121]}, "edge": {"target": [], "time": []}}}, "displayed_time": "16.19", "trialTime": 18891, "trial_type": "mouselab-mdp", "trial_index": 34, "time_elapsed": 641105, "internal_node_id": "0.0-4.0-1.0-13.0"}}, {"uniqueid": "w14115695:a52679487", "current_trial": 35, "dateTime": 1691071480421, "trialdata": {"revealed_states": [], "clicked_states": ["29", "33", "31", "32"], "num_clicks_accrued": [0, 0, 0, 0, 0, 0, 0, 0, 0, 0, 0, 0, 0], "stateRewards": ["", 1, 3, -2, 15, 51, 15, -19, 11, 67, -45, -73, 2, 4, -2, -13, 36, 9, -28, 10, -30, 31, 16, 1, 2, -1, -16, 14, -22, 36, -1, 88, -5, 45], "withholdReward": false, "trial_id": "mdp_trial_15", "block": "test", "trialIndex": 20, "score": 83.4, "costs": -5.6, "simulationMode": [null, null, null, null, null], "rewards": [1, 2, -1, -1, 88], "path": ["0", "0", "23", "24", "25", "30", "31"], "rt": [9294, 65, 70, 67, 121], "actions": ["left", "left", "left", "down", "right"], "actionTimes": [12191, 12780, 13383, 13949, 14569], "queries": {"click": {"state": {"target": ["29", "33", "31", "32"], "time": [3652, 6410, 8339, 10293]}, "edge": {"target": [], "time": []}}, "mouseover": {"state": {"target": ["23", "24", "29", "33", "30", "31", "30", "33", "30", "31", "32"], "time": [3197, 3246, 3462, 4045, 5701, 5812, 6098, 6179, 6762, 6862, 8762]}, "edge": {"target": [], "time": []}}, "mouseout": {"state": {"target": ["0", "23", "24", "29", "29", "33", "30", "31", "30", "33", "30", "31", "32", "31", "23"], "time": [3170, 3229, 3262, 3738, 3912, 5687, 5745, 6070, 6146, 6712, 6814, 8646, 10612, 18119, 27723]}, "edge": {"target": [], "time": []}}}, "displayed_time": "16.90", "trialTime": 29956, "trial_type": "mouselab-mdp", "trial_index": 35, "time_elapsed": 671380, "internal_node_id": "0.0-4.0-1.0-14.0"}}, {"uniqueid": "w14115695:a52679487", "current_trial": 36, "dateTime": 1691071503498, "trialdata": {"revealed_states": [], "clicked_states": ["32", "33", "31", "29"], "num_clicks_accrued": [0, 0, 0, 0, 0, 0, 0, 0, 0, 0, 0, 0, 0], "stateRewards": ["", 1, 2, -5, 14, 54, -14, -25, 16, -5, -87, 78, -1, 1, 3, -3, 52, 53, 53, -10, 73, -69, -48, 2, 3, 1, 8, -62, -7, 85, 7, 82, 52, -28], "withholdReward": false, "trial_id": "mdp_trial_16", "block": "test", "trialIndex": 21, "score": 93.4, "costs": -5.6, "simulationMode": [null, null, null, null, null], "rewards": [2, 3, 1, 8, 85], "path": ["0", "0", "23", "24", "25", "26", "29"], "rt": [8038, 34, 84, 518, 118], "actions": ["left", "left", "left", "up", "left"], "actionTimes": [9750, 10314, 10898, 11950, 12581], "queries": {"click": {"state": {"target": ["32", "33", "31", "29"], "time": [2690, 4365, 6338, 8093]}, "edge": {"target": [], "time": []}}, "mouseover": {"state": {"target": ["32", "33", "30", "31", "25", "29", "26", "24", "23"], "time": [2344, 2994, 4695, 4844, 6778, 6911, 8528, 8678, 8828]}, "edge": {"target": [], "time": []}}, "mouseout": {"state": {"target": ["0", "0", "32", "33", "30", "31", "25", "29", "26", "24", "23", "23"], "time": [595, 1778, 2928, 4661, 4765, 6728, 6830, 8478, 8599, 8778, 8961, 13367]}, "edge": {"target": [], "time": []}}}, "displayed_time": "15.71", "trialTime": 22699, "trial_type": "mouselab-mdp", "trial_index": 36, "time_elapsed": 694457, "internal_node_id": "0.0-4.0-1.0-15.0"}}, {"uniqueid": "w14115695:a52679487", "current_trial": 37, "dateTime": 1691071520771, "trialdata": {"revealed_states": [], "clicked_states": ["27", "29", "33"], "num_clicks_accrued": [0, 0, 0, 0, 0, 0, 0, 0, 0, 0, 0, 0, 0], "stateRewards": ["", 2, -1, 4, -9, -43, 7, 54, -13, 38, -40, -83, -1, 2, -8, -10, 34, -33, 11, -14, -79, 65, 26, 1, 2, 4, 10, 21, 1, 86, 4, -53, 28, -29], "withholdReward": false, "trial_id": "mdp_trial_17", "block": "test", "trialIndex": 22, "score": 98.8, "costs": -4.199999999999999, "simulationMode": [null, null, null, null, null], "rewards": [1, 2, 4, 10, 86], "path": ["0", "0", "23", "24", "25", "26", "29"], "rt": [8410, 153, 92, 25, 72], "actions": ["left", "left", "left", "up", "left"], "actionTimes": [9589, 10255, 10863, 11393, 11972], "queries": {"click": {"state": {"target": ["27", "29", "33"], "time": [2074, 3803, 5925]}, "edge": {"target": [], "time": []}}, "mouseover": {"state": {"target": ["23", "24", "26", "27", "29", "26", "25", "33", "25", "26", "25", "30", "32", "30", "31", "0"], "time": [1535, 1583, 1806, 1884, 2354, 4299, 4500, 4684, 6433, 6716, 7216, 7483, 7702, 7900, 8019, 8903]}, "edge": {"target": [], "time": []}}, "mouseout": {"state": {"target": ["0", "23", "24", "26", "27", "29", "26", "25", "33", "25", "26", "25", "30", "32", "30", "31", "0", "0"], "time": [1518, 1566, 1616, 1835, 2316, 4216, 4450, 4567, 6300, 6587, 7083, 7416, 7583, 7841, 7917, 8053, 8982, 12691]}, "edge": {"target": [], "time": []}}}, "displayed_time": "15.18", "trialTime": 16960, "trial_type": "mouselab-mdp", "trial_index": 37, "time_elapsed": 711729, "internal_node_id": "0.0-4.0-1.0-16.0"}}, {"uniqueid": "w14115695:a52679487", "current_trial": 38, "dateTime": 1691071549932, "trialdata": {"revealed_states": [], "clicked_states": ["17", "16", "20", "21", "22", "18", "6", "5", "7", "10", "11", "9"], "num_clicks_accrued": [0, 0, 0, 0, 0, 0, 0, 0, 0, 0, 0, 0, 0], "stateRewards": ["", -1, -3, -7, -7, -76, 30, -49, 11, -70, 56, 2, 1, 4, -3, -14, -59, -83, -25, -9, -21, -67, -73, -2, 4, 4, -9, -11, -32, 60, 9, -87, 22, -64], "withholdReward": false, "trial_id": "mdp_trial_18", "block": "test", "trialIndex": 23, "score": 39.2, "costs": -16.8, "simulationMode": [null, null, null, null, null], "rewards": [-1, -3, -7, 11, 56], "path": ["0", "0", "1", "2", "3", "8", "10"], "rt": [23383, 279, 42, 76, 17], "actions": ["up", "up", "up", "left", "down"], "actionTimes": [24495, 25282, 25847, 26428, 26952], "queries": {"click": {"state": {"target": ["17", "16", "20", "21", "22", "18", "6", "5", "7", "10", "11", "9"], "time": [2161, 3822, 5585, 7391, 9171, 11048, 12941, 14881, 16773, 18655, 20691, 22562]}, "edge": {"target": [], "time": []}}, "mouseover": {"state": {"target": ["1", "18", "17", "16", "20", "21", "22", "22", "13", "18", "18", "16", "6", "5", "4", "7", "7", "7", "2", "10", "11", "9", "8", "27"], "time": [1487, 1567, 1756, 2634, 4267, 6267, 7850, 7951, 9551, 9634, 10169, 11669, 12317, 13351, 15317, 15417, 15534, 16051, 17334, 17500, 19417, 21152, 22934, 23534]}, "edge": {"target": [], "time": []}}, "mouseout": {"state": {"target": ["23", "0", "1", "18", "17", "16", "20", "21", "22", "22", "13", "18", "18", "16", "6", "5", "4", "7", "7", "7", "2", "10", "11", "9", "9", "8", "27", "26", "24"], "time": [50, 1277, 1506, 1584, 2469, 4135, 5917, 7751, 7867, 9484, 9601, 9701, 11126, 11717, 13284, 15267, 15384, 15451, 15900, 17168, 17351, 19000, 21017, 22614, 22901, 22984, 27587, 27668, 27751]}, "edge": {"target": [], "time": []}}}, "displayed_time": "27.48", "trialTime": 28792, "trial_type": "mouselab-mdp", "trial_index": 38, "time_elapsed": 740892, "internal_node_id": "0.0-4.0-1.0-17.0"}}, {"uniqueid": "w14115695:a52679487", "current_trial": 39, "dateTime": 1691071577502, "trialdata": {"revealed_states": [], "clicked_states": ["27", "29", "33", "32", "31", "28", "21", "22", "20", "17", "16"], "num_clicks_accrued": [0, 0, 0, 0, 0, 0, 0, 0, 0, 0, 0, 0, 0], "stateRewards": ["", 2, 2, 3, -15, 23, -14, 73, -7, -32, -20, -6, 1, 1, -5, -12, 73, 6, -84, 11, -81, -57, 13, -2, -1, -4, -8, -52, -58, 49, 13, 5, -41, -41], "withholdReward": false, "trial_id": "mdp_trial_19", "block": "test", "trialIndex": 24, "score": 42.599999999999994, "costs": -15.400000000000002, "simulationMode": [null, null, null, null, null], "rewards": [1, 1, -5, -12, 73], "path": ["0", "0", "12", "13", "14", "15", "16"], "rt": [21535, 21, 68, 84, 52], "actions": ["right", "right", "right", "up", "up"], "actionTimes": [22720, 23260, 23857, 24453, 25005], "queries": {"click": {"state": {"target": ["27", "29", "33", "32", "31", "28", "21", "22", "20", "17", "16"], "time": [1875, 3634, 5429, 7252, 8885, 10776, 12647, 14845, 16747, 18728, 20564]}, "edge": {"target": [], "time": []}}, "mouseover": {"state": {"target": ["23", "28", "27", "29", "33", "32", "31", "24", "28", "1", "13", "14", "19", "21", "22", "19", "20", "17", "16", "15", "18"], "time": [1319, 1435, 1706, 2168, 4385, 5919, 7752, 9352, 9502, 11303, 11419, 11519, 11619, 11735, 13018, 15152, 15835, 17302, 19302, 20935, 21219]}, "edge": {"target": [], "time": []}}, "mouseout": {"state": {"target": ["23", "24", "23", "23", "28", "27", "29", "33", "32", "31", "24", "28", "1", "13", "14", "19", "21", "22", "19", "20", "17", "16", "15", "18"], "time": [318, 504, 570, 1335, 1469, 2085, 3919, 5802, 7518, 9269, 9419, 11204, 11319, 11469, 11568, 11685, 12902, 15102, 15318, 17102, 19085, 20852, 20952, 26121]}, "edge": {"target": [], "time": []}}}, "displayed_time": "25.54", "trialTime": 27245, "trial_type": "mouselab-mdp", "trial_index": 39, "time_elapsed": 768461, "internal_node_id": "0.0-4.0-1.0-18.0"}}, {"uniqueid": "w14115695:a52679487", "current_trial": 40, "dateTime": 1691071597377, "trialdata": {"revealed_states": [], "clicked_states": ["6", "5", "7", "10", "11", "9"], "num_clicks_accrued": [0, 0, 0, 0, 0, 0, 0, 0, 0, 0, 0, 0, 0], "stateRewards": ["", 2, -1, -1, 7, 11, -40, -22, -2, 69, 37, 8, -2, 4, -8, -12, -2, -72, -3, -12, 17, 63, 12, 1, 3, -7, 6, 25, 61, 61, -9, 28, -17, 27], "withholdReward": false, "trial_id": "mdp_trial_20", "block": "test", "trialIndex": 25, "score": 58.6, "costs": -8.4, "simulationMode": [null, null, null, null, null], "rewards": [2, -1, -1, -2, 69], "path": ["0", "0", "1", "2", "3", "8", "9"], "rt": [13150, 278, 281, 216, 363], "actions": ["up", "up", "up", "left", "up"], "actionTimes": [14347, 15130, 15901, 16637, 17516], "queries": {"click": {"state": {"target": ["6", "5", "7", "10", "11", "9"], "time": [2586, 4282, 6453, 8239, 10014, 11756]}, "edge": {"target": [], "time": []}}, "mouseover": {"state": {"target": ["12", "18", "16", "6", "6", "5", "4", "7", "2", "10", "11", "9", "9", "8", "28", "26", "27"], "time": [1257, 1384, 1551, 2118, 2408, 2885, 4601, 4701, 6785, 7137, 8718, 10484, 10803, 12169, 12668, 12735, 12834]}, "edge": {"target": [], "time": []}}, "mouseout": {"state": {"target": ["0", "12", "18", "16", "6", "6", "5", "4", "7", "2", "10", "11", "9", "9", "8", "10", "28", "26", "27", "28", "24"], "time": [717, 1284, 1467, 2076, 2151, 2818, 4568, 4652, 6751, 6802, 8552, 10335, 10535, 12138, 12234, 12401, 12684, 12751, 18474, 18535, 18551]}, "edge": {"target": [], "time": []}}}, "displayed_time": "18.04", "trialTime": 19552, "trial_type": "mouselab-mdp", "trial_index": 40, "time_elapsed": 788335, "internal_node_id": "0.0-4.0-1.0-19.0"}}, {"uniqueid": "w14115695:a52679487", "current_trial": 41, "dateTime": 1691071617769, "trialdata": {"revealed_states": [], "clicked_states": ["9", "11", "10", "5", "7", "6"], "num_clicks_accrued": [0, 0, 0, 0, 0, 0, 0, 0, 0, 0, 0, 0, 0], "stateRewards": ["", 1, -3, -1, 9, -34, -40, 22, -7, 45, 53, -11, 2, 4, 5, 15, 21, 37, -49, -3, 80, -28, -34, 1, -3, 1, 1, -40, -6, -5, -16, -85, -86, 59], "withholdReward": false, "trial_id": "mdp_trial_21", "block": "test", "trialIndex": 26, "score": 34.6, "costs": -8.4, "simulationMode": [null, null, null, null, null], "rewards": [1, -3, -1, -7, 53], "path": ["0", "0", "1", "2", "3", "8", "10"], "rt": [12819, 117, 129, 171, 142], "actions": ["up", "up", "up", "left", "down"], "actionTimes": [14632, 15265, 15895, 16585, 17240], "queries": {"click": {"state": {"target": ["9", "11", "10", "5", "7", "6"], "time": [3003, 4811, 6634, 8924, 10693, 12710]}, "edge": {"target": [], "time": []}}, "mouseover": {"state": {"target": ["23", "28", "9", "11", "10", "2", "7", "4", "5", "4", "7", "6"], "time": [2232, 2280, 2836, 3313, 5413, 7547, 7647, 7880, 8080, 9330, 9430, 11163]}, "edge": {"target": [], "time": []}}, "mouseout": {"state": {"target": ["0", "23", "28", "9", "11", "10", "2", "7", "4", "5", "4", "7", "6", "7"], "time": [2198, 2247, 2314, 3246, 5180, 7163, 7597, 7799, 7996, 9296, 9380, 10963, 13179, 13430]}, "edge": {"target": [], "time": []}}}, "displayed_time": "17.76", "trialTime": 20056, "trial_type": "mouselab-mdp", "trial_index": 41, "time_elapsed": 808727, "internal_node_id": "0.0-4.0-1.0-20.0"}}, {"uniqueid": "w14115695:a52679487", "current_trial": 42, "dateTime": 1691071634003, "trialdata": {"revealed_states": [], "clicked_states": ["29", "27", "28", "31"], "num_clicks_accrued": [0, 0, 0, 0, 0, 0, 0, 0, 0, 0, 0, 0, 0], "stateRewards": ["", 1, -2, -2, 10, -31, -77, 35, 9, -47, 8, 48, -2, 1, -4, -3, -26, -50, 43, -11, 76, -38, 17, 1, -1, 6, 10, 15, -9, 12, -8, 85, 11, -55], "withholdReward": false, "trial_id": "mdp_trial_22", "block": "test", "trialIndex": 27, "score": 77.4, "costs": -5.6, "simulationMode": [null, null, null, null, null], "rewards": [1, -1, 6, -8, 85], "path": ["0", "0", "23", "24", "25", "30", "31"], "rt": [9274, 130, 133, 59, 136], "actions": ["left", "left", "left", "down", "right"], "actionTimes": [10524, 11172, 11809, 12368, 13028], "queries": {"click": {"state": {"target": ["29", "27", "28", "31"], "time": [2140, 3920, 5730, 7530]}, "edge": {"target": [], "time": []}}, "mouseover": {"state": {"target": ["28", "25", "29", "27", "28", "24", "31", "32"], "time": [1541, 1641, 1924, 2441, 4307, 6091, 6174, 8010]}, "edge": {"target": [], "time": []}}, "mouseout": {"state": {"target": ["24", "24", "23", "0", "28", "25", "29", "27", "28", "24", "31", "32"], "time": [323, 457, 540, 1334, 1592, 1741, 2341, 4224, 6057, 6124, 7908, 14079]}, "edge": {"target": [], "time": []}}}, "displayed_time": "15.25", "trialTime": 15868, "trial_type": "mouselab-mdp", "trial_index": 42, "time_elapsed": 824961, "internal_node_id": "0.0-4.0-1.0-21.0"}}, {"uniqueid": "w14115695:a52679487", "current_trial": 43, "dateTime": 1691071652218, "trialdata": {"revealed_states": [], "clicked_states": ["31", "32", "33", "29", "27", "28"], "num_clicks_accrued": [0, 0, 0, 0, 0, 0, 0, 0, 0, 0, 0, 0, 0], "stateRewards": ["", 2, -3, -2, 14, -4, 85, 46, 15, -28, 41, 31, -1, -1, -1, 5, 62, 79, 57, 12, -73, -64, 86, -1, 1, -3, -5, 68, 11, -32, 8, -80, -21, -56], "withholdReward": false, "trial_id": "mdp_trial_23", "block": "test", "trialIndex": 28, "score": 51.6, "costs": -8.4, "simulationMode": [null, null, null, null, null], "rewards": [-1, 1, -3, -5, 68], "path": ["0", "0", "23", "24", "25", "26", "27"], "rt": [12504, 70, 157, 82, 93], "actions": ["left", "left", "left", "up", "up"], "actionTimes": [13740, 14325, 14995, 15571, 16198], "queries": {"click": {"state": {"target": ["31", "32", "33", "29", "27", "28"], "time": [2113, 3743, 5455, 7271, 9085, 11006]}, "edge": {"target": [], "time": []}}, "mouseover": {"state": {"target": ["0", "31", "31", "32", "33", "29", "27", "28", "10", "10"], "time": [1344, 1470, 1689, 2503, 4336, 5970, 7870, 9520, 11619, 11953]}, "edge": {"target": [], "time": []}}, "mouseout": {"state": {"target": ["0", "0", "31", "31", "32", "33", "29", "27", "28", "10", "10", "23"], "time": [737, 1374, 1503, 2403, 4136, 5736, 7619, 9370, 11487, 11703, 17105, 17170]}, "edge": {"target": [], "time": []}}}, "displayed_time": "16.69", "trialTime": 17862, "trial_type": "mouselab-mdp", "trial_index": 43, "time_elapsed": 843176, "internal_node_id": "0.0-4.0-1.0-22.0"}}, {"uniqueid": "w14115695:a52679487", "current_trial": 44, "dateTime": 1691071677654, "trialdata": {"revealed_states": [], "clicked_states": ["16", "17", "18", "22", "21", "20", "31", "32"], "num_clicks_accrued": [0, 0, 0, 0, 0, 0, 0, 0, 0, 0, 0, 0, 0], "stateRewards": ["", 1, -4, -6, -1, -21, 17, -72, 10, 77, 67, -46, -1, 4, -2, 14, -66, -49, -45, -15, -52, 23, -67, 2, -2, -2, 15, -3, 45, -64, 5, -44, 83, 61], "withholdReward": false, "trial_id": "mdp_trial_24", "block": "test", "trialIndex": 29, "score": 74.8, "costs": -11.200000000000001, "simulationMode": [null, null, null, null, null], "rewards": [2, -2, -2, 5, 83], "path": ["0", "0", "23", "24", "25", "30", "32"], "rt": [16710, 60, 58, 79, 114], "actions": ["left", "left", "left", "down", "down"], "actionTimes": [20854, 21425, 21987, 22592, 23227], "queries": {"click": {"state": {"target": ["16", "17", "18", "22", "21", "20", "31", "32"], "time": [5606, 7367, 9151, 10953, 12723, 14510, 16366, 18175]}, "edge": {"target": [], "time": []}}, "mouseover": {"state": {"target": ["0", "1", "18", "16", "17", "15", "18", "13", "22", "21", "20", "19", "31", "32", "33"], "time": [4155, 4428, 5079, 5245, 6044, 7694, 7761, 9461, 9644, 11311, 13211, 14945, 15711, 16694, 19028]}, "edge": {"target": [], "time": []}}, "mouseout": {"state": {"target": ["23", "0", "4", "2", "2", "1", "0", "1", "18", "16", "16", "17", "15", "18", "13", "22", "21", "20", "19", "31", "32", "33"], "time": [562, 832, 2861, 2894, 3496, 3612, 4343, 4445, 5179, 5661, 5961, 7661, 7728, 9428, 9561, 11228, 12927, 14928, 14978, 16611, 18462, 21578]}, "edge": {"target": [], "time": []}}}, "displayed_time": "23.75", "trialTime": 25073, "trial_type": "mouselab-mdp", "trial_index": 44, "time_elapsed": 868612, "internal_node_id": "0.0-4.0-1.0-23.0"}}, {"uniqueid": "w14115695:a52679487", "current_trial": 45, "dateTime": 1691071694491, "trialdata": {"revealed_states": [], "clicked_states": ["29", "27", "33", "32", "31"], "num_clicks_accrued": [0, 0, 0, 0, 0, 0, 0, 0, 0, 0, 0, 0, 0], "stateRewards": ["", -1, 2, 5, -6, 13, -64, -47, 8, -79, -80, -33, 1, 2, -2, -16, 56, -71, -10, 3, 29, 44, 85, -1, 4, 5, 4, -36, -56, 19, 8, 52, -13, -2], "withholdReward": false, "trial_id": "mdp_trial_25", "block": "test", "trialIndex": 30, "score": 61, "costs": -7, "simulationMode": [null, null, null, null, null], "rewards": [-1, 4, 5, 8, 52], "path": ["0", "0", "23", "24", "25", "30", "31"], "rt": [11620, 118, 164, 72, 83], "actions": ["left", "left", "left", "down", "right"], "actionTimes": [12752, 13375, 14056, 14645, 15257], "queries": {"click": {"state": {"target": ["29", "27", "33", "32", "31"], "time": [2039, 3978, 5883, 7733, 9644]}, "edge": {"target": [], "time": []}}, "mouseover": {"state": {"target": ["23", "24", "29", "27", "33", "32", "32", "31", "31", "24", "11", "11"], "time": [1239, 1356, 1828, 2406, 4673, 6423, 7022, 8189, 8889, 10072, 10406, 11275]}, "edge": {"target": [], "time": []}}, "mouseout": {"state": {"target": ["25", "24", "23", "0", "23", "23", "24", "29", "27", "29", "33", "32", "32", "31", "31", "24", "11"], "time": [55, 89, 105, 155, 490, 1290, 1372, 2289, 4306, 4406, 6240, 6473, 8040, 8672, 10039, 10089, 10772]}, "edge": {"target": [], "time": []}}}, "displayed_time": "15.77", "trialTime": 16472, "trial_type": "mouselab-mdp", "trial_index": 45, "time_elapsed": 885449, "internal_node_id": "0.0-4.0-1.0-24.0"}}, {"uniqueid": "w14115695:a52679487", "current_trial": 46, "dateTime": 1691071712464, "trialdata": {"revealed_states": [], "clicked_states": ["9", "11", "10", "7", "6", "5"], "num_clicks_accrued": [0, 0, 0, 0, 0, 0, 0, 0, 0, 0, 0, 0, 0], "stateRewards": ["", -2, -3, -5, 8, 27, 11, 43, -6, -24, -87, 69, -2, 1, 1, 9, 19, 48, -37, 9, -14, 45, 62, 1, 2, 1, 16, -81, -41, 22, 4, -6, -63, 47], "withholdReward": false, "trial_id": "mdp_trial_26", "block": "test", "trialIndex": 31, "score": 44.6, "costs": -8.4, "simulationMode": [null, null, null, null, null], "rewards": [-2, -3, -5, -6, 69], "path": ["0", "0", "1", "2", "3", "8", "11"], "rt": [12136, 92, 119, 92, 163], "actions": ["up", "up", "up", "left", "left"], "actionTimes": [13168, 13760, 14369, 14959, 15614], "queries": {"click": {"state": {"target": ["9", "11", "10", "7", "6", "5"], "time": [1957, 3835, 5664, 7485, 9291, 11170]}, "edge": {"target": [], "time": []}}, "mouseover": {"state": {"target": ["10", "8", "9", "11", "10", "2", "7", "6", "5", "3"], "time": [1466, 1533, 1751, 2449, 4149, 6232, 6432, 7999, 9616, 11749]}, "edge": {"target": [], "time": []}}, "mouseout": {"state": {"target": ["11", "10", "1", "0", "10", "8", "9", "9", "11", "10", "2", "7", "6", "5", "3"], "time": [135, 217, 349, 1319, 1499, 1688, 2039, 2299, 4083, 6116, 6349, 7699, 9549, 11665, 11816]}, "edge": {"target": [], "time": []}}}, "displayed_time": "16.12", "trialTime": 17623, "trial_type": "mouselab-mdp", "trial_index": 46, "time_elapsed": 903423, "internal_node_id": "0.0-4.0-1.0-25.0"}}, {"uniqueid": "w14115695:a52679487", "current_trial": 47, "dateTime": 1691071729990, "trialdata": {"revealed_states": [], "clicked_states": ["11", "10", "7", "6", "5"], "num_clicks_accrued": [0, 0, 0, 0, 0, 0, 0, 0, 0, 0, 0, 0, 0], "stateRewards": ["", 1, 3, 3, -10, 52, 68, 59, 12, 7, 49, 21, -2, -3, -4, -2, -2, 63, 63, -4, 44, 43, -76, -2, -3, -6, 13, 48, 36, 12, -5, -36, -33, -11], "withholdReward": false, "trial_id": "mdp_trial_27", "block": "test", "trialIndex": 32, "score": 58, "costs": -7, "simulationMode": [null, null, null, null, null], "rewards": [1, 3, 3, -10, 68], "path": ["0", "0", "1", "2", "3", "4", "6"], "rt": [10811, 182, 163, 168, 214], "actions": ["up", "up", "up", "right", "right"], "actionTimes": [12293, 12973, 13639, 14328, 15042], "queries": {"click": {"state": {"target": ["11", "10", "7", "6", "5"], "time": [2618, 4408, 6180, 8017, 10131]}, "edge": {"target": [], "time": []}}, "mouseover": {"state": {"target": ["1", "28", "11", "8", "10", "10", "2", "7", "6", "5", "4"], "time": [1742, 1873, 2457, 2956, 3056, 3256, 4740, 4940, 6639, 8690, 10723]}, "edge": {"target": [], "time": []}}, "mouseout": {"state": {"target": ["1", "1", "0", "1", "28", "11", "11", "8", "10", "10", "2", "7", "6", "5", "4", "2", "1"], "time": [9, 790, 1108, 1792, 1923, 2715, 2906, 2973, 3089, 4690, 4823, 6456, 8623, 10673, 10773, 16075, 16108]}, "edge": {"target": [], "time": []}}}, "displayed_time": "15.56", "trialTime": 17122, "trial_type": "mouselab-mdp", "trial_index": 47, "time_elapsed": 920948, "internal_node_id": "0.0-4.0-1.0-26.0"}}, {"uniqueid": "w14115695:a52679487", "current_trial": 48, "dateTime": 1691071762641, "trialdata": {"revealed_states": [], "clicked_states": ["6", "11", "9", "5", "10", "7", "16", "18", "17", "20", "21", "22"], "num_clicks_accrued": [0, 0, 0, 0, 0, 0, 0, 0, 0, 0, 0, 0, 0], "stateRewards": ["", 2, -2, -3, 10, -4, -1, -11, -8, -9, -36, -78, 2, 1, 7, -7, 44, -1, -31, -1, 26, 47, 83, 2, -4, -4, -6, -52, -76, -81, -1, -59, 45, 67], "withholdReward": false, "trial_id": "mdp_trial_28", "block": "test", "trialIndex": 33, "score": 75.2, "costs": -16.8, "simulationMode": [null, null, null, null, null], "rewards": [2, 1, 7, -1, 83], "path": ["0", "0", "12", "13", "14", "19", "22"], "rt": [25590, 78, 93, 25, 212], "actions": ["right", "right", "right", "down", "left"], "actionTimes": [28325, 28912, 29511, 30043, 30762], "queries": {"click": {"state": {"target": ["6", "11", "9", "5", "10", "7", "16", "18", "17", "20", "21", "22"], "time": [4123, 6002, 7839, 9615, 11539, 13469, 15822, 17797, 19701, 21515, 23371, 25378]}, "edge": {"target": [], "time": []}}, "mouseover": {"state": {"target": ["1", "2", "4", "6", "4", "3", "8", "11", "8", "9", "5", "3", "10", "2", "7", "16", "18", "15", "17", "20", "21", "22", "19", "19", "13", "12"], "time": [3154, 3188, 3332, 3935, 4549, 4683, 4849, 5349, 6282, 6599, 8249, 9882, 9982, 11799, 11899, 14132, 16249, 18132, 18366, 20233, 22032, 23726, 26266, 27250, 27499, 27568]}, "edge": {"target": [], "time": []}}, "mouseout": {"state": {"target": ["23", "0", "0", "1", "2", "4", "6", "4", "3", "8", "11", "8", "9", "5", "3", "10", "2", "7", "16", "18", "18", "15", "17", "17", "20", "21", "22", "19", "19", "13"], "time": [215, 1817, 2300, 3177, 3216, 3382, 4204, 4633, 4799, 4899, 6249, 6299, 8049, 9833, 9916, 11766, 11866, 13916, 16051, 17982, 18099, 18266, 19787, 20032, 21866, 23583, 26199, 26315, 27332, 27537]}, "edge": {"target": [], "time": []}}}, "displayed_time": "31.25", "trialTime": 32284, "trial_type": "mouselab-mdp", "trial_index": 48, "time_elapsed": 953600, "internal_node_id": "0.0-4.0-1.0-27.0"}}, {"uniqueid": "w14115695:a52679487", "current_trial": 49, "dateTime": 1691071803085, "trialdata": {"revealed_states": [], "clicked_states": ["21", "22", "20", "17", "16", "18", "7", "6", "5", "9", "11", "10"], "num_clicks_accrued": [0, 0, 0, 0, 0, 0, 0, 0, 0, 0, 0, 0, 0], "stateRewards": ["", 2, 3, -6, -5, -3, 55, 40, 11, 61, 11, 51, 2, -4, -6, 9, -25, 29, -15, -6, 7, -77, -2, -2, -4, 1, 14, -43, -1, 56, -12, -54, 41, -74], "withholdReward": false, "trial_id": "mdp_trial_29", "block": "test", "trialIndex": 34, "score": 54.2, "costs": -16.8, "simulationMode": [null, null, null, null, null], "rewards": [2, 3, -6, 11, 61], "path": ["0", "0", "1", "2", "3", "8", "9"], "rt": [23540, 158, 155, 113, 183], "actions": ["up", "up", "up", "left", "up"], "actionTimes": [36020, 36683, 37366, 37990, 38675], "queries": {"click": {"state": {"target": ["21", "22", "20", "17", "16", "18", "7", "6", "5", "9", "11", "10"], "time": [13317, 15118, 16931, 18835, 20628, 22428, 24363, 26165, 27970, 29836, 31905, 33776]}, "edge": {"target": [], "time": []}}, "mouseover": {"state": {"target": ["22", "21", "21", "22", "19", "20", "20", "20", "20", "17", "17", "16", "15", "18", "18", "7", "6", "5", "9", "11", "10", "1", "1", "1"], "time": [12574, 12625, 12925, 13625, 15408, 15443, 15841, 16008, 16458, 17191, 17459, 19225, 20941, 21108, 21775, 23291, 24674, 26658, 28558, 30275, 32441, 34291, 35158, 35504]}, "edge": {"target": [], "time": []}}, "mouseout": {"state": {"target": ["12", "1", "0", "22", "21", "21", "22", "19", "20", "20", "20", "20", "17", "17", "16", "15", "18", "18", "7", "6", "5", "9", "11", "10", "1", "1", "1", "2", "2", "2", "2", "3", "3", "3"], "time": [11852, 12008, 12541, 12591, 12658, 13558, 15341, 15441, 15491, 15941, 16158, 16950, 17241, 19141, 20908, 20974, 21541, 22742, 24574, 26474, 28297, 30125, 32191, 34208, 34591, 35274, 35998, 36274, 36491, 36991, 37174, 37657, 37858, 39341]}, "edge": {"target": [], "time": []}}}, "displayed_time": "39.19", "trialTime": 40106, "trial_type": "mouselab-mdp", "trial_index": 49, "time_elapsed": 994045, "internal_node_id": "0.0-4.0-1.0-28.0"}}, {"uniqueid": "w14115695:a52679487", "current_trial": 50, "dateTime": 1691071825910, "trialdata": {"revealed_states": [], "clicked_states": ["9", "5", "6", "7", "11", "10", "27", "29"], "num_clicks_accrued": [0, 0, 0, 0, 0, 0, 0, 0, 0, 0, 0, 0, 0], "stateRewards": ["", -1, -4, 8, 8, -68, 47, 24, -7, -61, 49, -69, -1, -1, 8, -7, 42, 1, -45, -11, 10, -63, -6, 1, 4, 6, -16, 79, -37, -58, -12, 81, 18, -53], "withholdReward": false, "trial_id": "mdp_trial_30", "block": "test", "trialIndex": 35, "score": 62.8, "costs": -11.200000000000001, "simulationMode": [null, null, null, null, null], "rewards": [1, 4, 6, -16, 79], "path": ["0", "0", "23", "24", "25", "26", "27"], "rt": [15518, 196, 126, 71, 87], "actions": ["left", "left", "left", "up", "up"], "actionTimes": [18726, 19432, 20077, 20637, 21253], "queries": {"click": {"state": {"target": ["9", "5", "6", "7", "11", "10", "27", "29"], "time": [4017, 5770, 7566, 9483, 11381, 13207, 15121, 16935]}, "edge": {"target": [], "time": []}}, "mouseover": {"state": {"target": ["1", "9", "3", "5", "6", "7", "8", "11", "11", "10", "2", "27", "27", "29", "26", "28", "1"], "time": [3283, 3850, 4948, 5348, 6031, 7947, 10364, 10431, 10681, 11714, 13481, 14097, 14348, 15581, 17664, 17999, 18081]}, "edge": {"target": [], "time": []}}, "mouseout": {"state": {"target": ["8", "1", "0", "0", "1", "9", "3", "5", "6", "7", "8", "11", "11", "10", "2", "27", "27", "29", "26", "28", "1"], "time": [532, 1714, 1781, 3220, 3381, 4281, 5148, 5981, 7848, 9748, 10381, 10514, 11631, 13465, 13747, 14114, 15381, 17514, 17981, 18020, 18703]}, "edge": {"target": [], "time": []}}}, "displayed_time": "21.77", "trialTime": 22471, "trial_type": "mouselab-mdp", "trial_index": 50, "time_elapsed": 1016869, "internal_node_id": "0.0-4.0-1.0-29.0"}}, {"uniqueid": "w14115695:a52679487", "current_trial": 51, "dateTime": 1691071851972, "trialdata": {"revealed_states": [], "clicked_states": ["27", "29"], "num_clicks_accrued": [0, 0, 0, 0, 0, 0, 0, 0, 0, 0, 0, 0, 0], "stateRewards": ["", 2, -3, -4, -1, 25, -16, 16, 10, -71, -20, -55, 1, 3, -4, -9, 1, 32, 11, -6, 32, -50, -41, -1, 4, 4, -8, 7, -81, 70, 2, -52, 45, -10], "withholdReward": false, "trial_id": "mdp_trial_31", "block": "test", "trialIndex": 36, "score": 66.2, "costs": -2.8, "simulationMode": [null, null, null, null, null], "rewards": [-1, 4, 4, -8, 70], "path": ["0", "0", "23", "24", "25", "26", "29"], "rt": [6378, 345, 218, 91, 141], "actions": ["left", "left", "left", "up", "left"], "actionTimes": [7603, 8472, 9179, 9785, 10438], "queries": {"click": {"state": {"target": ["27", "29"], "time": [2093, 4093]}, "edge": {"target": [], "time": []}}, "mouseover": {"state": {"target": ["28", "27", "27", "29", "25", "33", "33"], "time": [1608, 1659, 1928, 3575, 4858, 4976, 6007]}, "edge": {"target": [], "time": []}}, "mouseout": {"state": {"target": ["10", "0", "0", "28", "27", "27", "29", "25", "33"], "time": [178, 375, 1453, 1625, 1692, 2975, 4475, 4942, 5008]}, "edge": {"target": [], "time": []}}}, "displayed_time": "15.23", "trialTime": 25692, "trial_type": "mouselab-mdp", "trial_index": 51, "time_elapsed": 1042931, "internal_node_id": "0.0-4.0-1.0-30.0"}}, {"uniqueid": "w14115695:a52679487", "current_trial": 52, "dateTime": 1691071869417, "trialdata": {"revealed_states": [], "clicked_states": ["29", "27", "28", "11", "9"], "num_clicks_accrued": [0, 0, 0, 0, 0, 0, 0, 0, 0, 0, 0, 0, 0], "stateRewards": ["", -2, 3, 8, -9, 59, 41, -50, -1, 82, 66, 33, 2, -2, 7, 8, 1, -38, 12, -16, 24, -37, 67, 1, 4, -2, 5, 35, -83, 28, 8, -27, 69, -64], "withholdReward": false, "trial_id": "mdp_trial_32", "block": "test", "trialIndex": 37, "score": 83, "costs": -7, "simulationMode": [null, null, null, null, null], "rewards": [-2, 3, 8, -1, 82], "path": ["0", "0", "1", "2", "3", "8", "9"], "rt": [11229, 223, 86, 107, 19], "actions": ["up", "up", "up", "left", "up"], "actionTimes": [12615, 13355, 13968, 14588, 15121], "queries": {"click": {"state": {"target": ["29", "27", "28", "11", "9"], "time": [2035, 3774, 5549, 7344, 9434]}, "edge": {"target": [], "time": []}}, "mouseover": {"state": {"target": ["23", "29", "27", "27", "11", "28", "11", "9", "8", "10"], "time": [1579, 1712, 2364, 2613, 4330, 4646, 5946, 7763, 9762, 9862]}, "edge": {"target": [], "time": []}}, "mouseout": {"state": {"target": ["33", "30", "31", "23", "0", "23", "29", "27", "27", "11", "28", "11", "9", "8", "10", "1", "0"], "time": [601, 630, 814, 945, 1079, 1629, 2215, 2396, 4180, 4512, 5796, 7630, 9712, 9812, 12014, 15898, 15914]}, "edge": {"target": [], "time": []}}}, "displayed_time": "15.63", "trialTime": 17059, "trial_type": "mouselab-mdp", "trial_index": 52, "time_elapsed": 1060376, "internal_node_id": "0.0-4.0-1.0-31.0"}}, {"uniqueid": "w14115695:a52679487", "current_trial": 53, "dateTime": 1691071888176, "trialdata": {"revealed_states": [], "clicked_states": ["29", "27", "11", "9", "10"], "num_clicks_accrued": [0, 0, 0, 0, 0, 0, 0, 0, 0, 0, 0, 0, 0], "stateRewards": ["", -1, -4, -6, -15, 21, -67, -63, 9, 51, 69, -14, -1, 3, 8, -8, 39, 72, 63, 15, 19, 47, 15, 1, 4, 5, 16, -18, 34, 35, -14, -80, 40, 1], "withholdReward": false, "trial_id": "mdp_trial_33", "block": "test", "trialIndex": 38, "score": 60, "costs": -7, "simulationMode": [null, null, null, null, null], "rewards": [-1, -4, -6, 9, 69], "path": ["0", "0", "1", "2", "3", "8", "10"], "rt": [11545, 197, 125, 151, 139], "actions": ["up", "up", "up", "left", "down"], "actionTimes": [13808, 14499, 15148, 15803, 16461], "queries": {"click": {"state": {"target": ["29", "27", "11", "9", "10"], "time": [3149, 4963, 6888, 8825, 10698]}, "edge": {"target": [], "time": []}}, "mouseover": {"state": {"target": ["0", "23", "24", "25", "29", "27", "11", "9", "9", "8", "10", "2", "7", "1"], "time": [2272, 2567, 2634, 2733, 2917, 3468, 5868, 7200, 7683, 9067, 9117, 11117, 11184, 13101]}, "edge": {"target": [], "time": []}}, "mouseout": {"state": {"target": ["0", "23", "24", "25", "29", "27", "11", "9", "9", "8", "10", "2", "7", "1"], "time": [2536, 2600, 2684, 2850, 3368, 5250, 7117, 7251, 9050, 9100, 11084, 11150, 12906, 13236]}, "edge": {"target": [], "time": []}}}, "displayed_time": "16.95", "trialTime": 18389, "trial_type": "mouselab-mdp", "trial_index": 53, "time_elapsed": 1079135, "internal_node_id": "0.0-4.0-1.0-32.0"}}, {"uniqueid": "w14115695:a52679487", "current_trial": 54, "dateTime": 1691071911719, "trialdata": {"revealed_states": [], "clicked_states": ["29", "27", "11", "28"], "num_clicks_accrued": [0, 0, 0, 0, 0, 0, 0, 0, 0, 0, 0, 0, 0], "stateRewards": ["", -2, 2, 3, -7, -31, -33, 29, -8, -57, 50, -83, -1, -1, 5, 13, -23, -62, 25, 5, -66, -85, 14, 1, -2, -1, 16, 71, 33, -19, -14, 5, -43, 79], "withholdReward": false, "trial_id": "mdp_trial_34", "block": "test", "trialIndex": 39, "score": 79.4, "costs": -5.6, "simulationMode": [null, null, null, null, null], "rewards": [1, -2, -1, 16, 71], "path": ["0", "0", "23", "24", "25", "26", "27"], "rt": [8852, 290, 158, 95, 291], "actions": ["left", "left", "left", "up", "up"], "actionTimes": [16176, 16973, 17657, 18278, 19058], "queries": {"click": {"state": {"target": ["29", "27", "11", "28"], "time": [8988, 10646, 12407, 14340]}, "edge": {"target": [], "time": []}}, "mouseover": {"state": {"target": ["23", "24", "25", "29", "29", "29", "27", "27", "11", "10", "10", "28", "28", "26", "26", "25"], "time": [7750, 7798, 7865, 8050, 8331, 8816, 9282, 9565, 11232, 12681, 12981, 13632, 14050, 15215, 15565, 15799]}, "edge": {"target": [], "time": []}}, "mouseout": {"state": {"target": ["6", "7", "1", "0", "23", "24", "25", "29", "29", "29", "27", "27", "11", "10", "10", "28", "28", "28", "26", "26", "25", "26", "28", "24", "33"], "time": [6198, 6231, 6418, 7734, 7781, 7832, 7966, 8127, 8552, 9015, 9315, 10998, 12615, 12748, 13501, 13881, 14410, 14914, 15448, 15748, 16020, 17702, 19966, 19998, 22081]}, "edge": {"target": [], "time": []}}}, "displayed_time": "21.32", "trialTime": 23178, "trial_type": "mouselab-mdp", "trial_index": 54, "time_elapsed": 1102678, "internal_node_id": "0.0-4.0-1.0-33.0"}}, {"uniqueid": "w14115695:a52679487", "current_trial": 55, "dateTime": 1691071929062, "trialdata": {"revealed_states": [], "clicked_states": ["27", "32", "31", "33", "29", "28"], "num_clicks_accrued": [0, 0, 0, 0, 0, 0, 0, 0, 0, 0, 0, 0, 0], "stateRewards": ["", 2, -4, -4, 13, -80, 62, 13, -11, 57, -13, -44, 1, 4, 3, -4, -29, -88, 15, 16, -58, 68, -45, -1, -3, -1, -9, -44, -86, -19, -7, -36, 59, 66], "withholdReward": false, "trial_id": "mdp_trial_35", "block": "test", "trialIndex": 40, "score": 45.6, "costs": -8.4, "simulationMode": [null, null, null, null, null], "rewards": [-1, -3, -1, -7, 66], "path": ["0", "0", "23", "24", "25", "30", "33"], "rt": [11705, 246, 134, 52, 136], "actions": ["left", "left", "left", "down", "left"], "actionTimes": [12956, 13712, 14366, 14950, 15601], "queries": {"click": {"state": {"target": ["27", "32", "31", "33", "29", "28"], "time": [1776, 3579, 5338, 7217, 9033, 10875]}, "edge": {"target": [], "time": []}}, "mouseover": {"state": {"target": ["23", "28", "27", "29", "30", "32", "31", "33", "29", "26", "28", "24"], "time": [1414, 1498, 1614, 2147, 2347, 2414, 4030, 5947, 7781, 9348, 9547, 11281]}, "edge": {"target": [], "time": []}}, "mouseout": {"state": {"target": ["24", "26", "28", "0", "23", "28", "27", "29", "30", "32", "31", "33", "29", "26", "28", "24"], "time": [180, 371, 431, 1364, 1431, 1547, 2081, 2181, 2364, 3881, 5764, 7623, 9314, 9397, 11231, 11381]}, "edge": {"target": [], "time": []}}}, "displayed_time": "16.12", "trialTime": 16957, "trial_type": "mouselab-mdp", "trial_index": 55, "time_elapsed": 1120021, "internal_node_id": "0.0-4.0-1.0-34.0"}}, {"uniqueid": "w14115695:a52679487", "current_trial": 56, "dateTime": 1691071945701, "trialdata": {"revealed_states": [], "clicked_states": ["29", "33", "32", "31"], "num_clicks_accrued": [0, 0, 0, 0, 0, 0, 0, 0, 0, 0, 0, 0, 0], "stateRewards": ["", -2, 2, 5, -14, -56, 64, 84, -5, 52, 39, 85, -2, 1, 7, 8, 21, 29, -78, -9, -10, -69, 10, -2, -1, -7, 15, 72, 20, 41, -2, 52, 80, 22], "withholdReward": false, "trial_id": "mdp_trial_36", "block": "test", "trialIndex": 41, "score": 62.4, "costs": -5.6, "simulationMode": [null, null, null, null, null], "rewards": [-2, -1, -7, -2, 80], "path": ["0", "0", "23", "24", "25", "30", "32"], "rt": [8279, 273, 100, 175, 160], "actions": ["left", "left", "left", "down", "down"], "actionTimes": [9215, 9977, 10607, 11296, 11948], "queries": {"click": {"state": {"target": ["29", "33", "32", "31"], "time": [1852, 3654, 5450, 7355]}, "edge": {"target": [], "time": []}}, "mouseover": {"state": {"target": ["0", "28", "26", "29", "33", "32", "31", "23"], "time": [1103, 1236, 1270, 1554, 2303, 4070, 5953, 8620]}, "edge": {"target": [], "time": []}}, "mouseout": {"state": {"target": ["0", "0", "28", "26", "29", "29", "33", "32", "31", "31", "23", "23", "23", "23"], "time": [538, 1136, 1253, 1424, 2069, 2169, 4020, 5720, 8070, 8336, 9831, 11069, 11169, 12824]}, "edge": {"target": [], "time": []}}}, "displayed_time": "14.94", "trialTime": 16251, "trial_type": "mouselab-mdp", "trial_index": 56, "time_elapsed": 1136660, "internal_node_id": "0.0-4.0-1.0-35.0"}}, {"uniqueid": "w14115695:a52679487", "current_trial": 57, "dateTime": 1691071964084, "trialdata": {"revealed_states": [], "clicked_states": ["32", "33", "31", "29", "27", "28"], "num_clicks_accrued": [0, 0, 0, 0, 0, 0, 0, 0, 0, 0, 0, 0, 0], "stateRewards": ["", 1, 2, -8, 9, 18, -83, -11, 6, -64, -48, 17, -2, -2, -5, -3, -24, -3, -86, -2, 48, -41, -22, -2, 4, 7, 8, 81, 13, -48, 10, 61, 19, 57], "withholdReward": false, "trial_id": "mdp_trial_37", "block": "test", "trialIndex": 42, "score": 89.6, "costs": -8.4, "simulationMode": [null, null, null, null, null], "rewards": [-2, 4, 7, 8, 81], "path": ["0", "0", "23", "24", "25", "26", "27"], "rt": [11965, 300, 71, 77, 203], "actions": ["left", "left", "left", "up", "up"], "actionTimes": [13457, 14268, 14839, 15445, 16137], "queries": {"click": {"state": {"target": ["32", "33", "31", "29", "27", "28"], "time": [2226, 4270, 6153, 7989, 9817, 11626]}, "edge": {"target": [], "time": []}}, "mouseover": {"state": {"target": ["32", "33", "30", "31", "24", "26", "29", "27", "28"], "time": [2056, 2617, 4550, 4617, 6518, 6650, 6817, 8533, 10217]}, "edge": {"target": [], "time": []}}, "mouseout": {"state": {"target": ["0", "32", "33", "30", "31", "24", "26", "29", "27", "28", "24"], "time": [1735, 2500, 4517, 4600, 6434, 6551, 6751, 8333, 10118, 12200, 17019]}, "edge": {"target": [], "time": []}}}, "displayed_time": "16.65", "trialTime": 18047, "trial_type": "mouselab-mdp", "trial_index": 57, "time_elapsed": 1155043, "internal_node_id": "0.0-4.0-1.0-36.0"}}, {"uniqueid": "w14115695:a52679487", "current_trial": 58, "dateTime": 1691071984364, "trialdata": {"revealed_states": [], "clicked_states": ["29", "27", "32", "33", "31", "28"], "num_clicks_accrued": [0, 0, 0, 0, 0, 0, 0, 0, 0, 0, 0, 0, 0], "stateRewards": ["", 1, 4, 5, 8, -55, -11, 8, 16, -37, 77, -22, -2, 3, -8, -10, 45, 87, -67, 4, 17, -33, -22, -1, -3, 7, 6, -39, -85, 75, -1, 7, -48, 45], "withholdReward": false, "trial_id": "mdp_trial_38", "block": "test", "trialIndex": 43, "score": 75.6, "costs": -8.4, "simulationMode": [null, null, null, null, null], "rewards": [-1, -3, 7, 6, 75], "path": ["0", "0", "23", "24", "25", "26", "29"], "rt": [13099, 138, 82, 128, 68], "actions": ["left", "left", "left", "up", "left"], "actionTimes": [15718, 16366, 16947, 17573, 18146], "queries": {"click": {"state": {"target": ["29", "27", "32", "33", "31", "28"], "time": [3471, 5198, 8198, 10056, 12021, 13875]}, "edge": {"target": [], "time": []}}, "mouseover": {"state": {"target": ["23", "24", "25", "29", "27", "28", "26", "25", "30", "32", "33", "30", "31", "24", "28", "23"], "time": [2931, 2977, 3010, 3260, 3693, 5644, 6813, 7577, 7643, 7944, 8627, 10393, 10544, 12377, 12444, 14227]}, "edge": {"target": [], "time": []}}, "mouseout": {"state": {"target": ["0", "0", "23", "24", "25", "29", "27", "27", "28", "26", "25", "30", "32", "33", "30", "31", "24", "28", "23"], "time": [544, 2913, 2960, 2993, 3127, 3627, 5269, 5594, 6493, 7548, 7593, 7847, 8494, 10344, 10494, 12276, 12410, 14194, 14360]}, "edge": {"target": [], "time": []}}}, "displayed_time": "18.68", "trialTime": 19904, "trial_type": "mouselab-mdp", "trial_index": 58, "time_elapsed": 1175323, "internal_node_id": "0.0-4.0-1.0-37.0"}}, {"uniqueid": "w14115695:a52679487", "current_trial": 59, "dateTime": 1691072004376, "trialdata": {"revealed_states": [], "clicked_states": ["29", "27", "28", "10", "11", "9"], "num_clicks_accrued": [0, 0, 0, 0, 0, 0, 0, 0, 0, 0, 0, 0, 0], "stateRewards": ["", 2, 4, -6, -13, -75, -81, 30, 7, 5, 59, -65, -1, -1, 7, 14, -38, 36, -41, 1, -54, -5, 64, 2, -1, 5, 6, -19, 79, 11, 16, -33, -50, 58], "withholdReward": false, "trial_id": "mdp_trial_39", "block": "test", "trialIndex": 44, "score": 82.6, "costs": -8.4, "simulationMode": [null, null, null, null, null], "rewards": [2, -1, 5, 6, 79], "path": ["0", "0", "23", "24", "25", "26", "28"], "rt": [11920, 171, 92, 89, 194], "actions": ["left", "left", "left", "up", "right"], "actionTimes": [13022, 13710, 14314, 14897, 15582], "queries": {"click": {"state": {"target": ["29", "27", "28", "10", "11", "9"], "time": [1864, 3614, 5415, 7200, 9097, 10976]}, "edge": {"target": [], "time": []}}, "mouseover": {"state": {"target": ["23", "24", "29", "27", "28", "10", "11", "8", "9", "8", "23"], "time": [1356, 1391, 1577, 2203, 4353, 6203, 8237, 10072, 10303, 11288, 11570]}, "edge": {"target": [], "time": []}}, "mouseout": {"state": {"target": ["0", "23", "24", "29", "27", "28", "10", "11", "8", "9", "8", "23"], "time": [871, 1388, 1422, 1934, 4020, 5970, 7620, 9503, 10137, 11238, 11321, 19323]}, "edge": {"target": [], "time": []}}}, "displayed_time": "16.09", "trialTime": 19646, "trial_type": "mouselab-mdp", "trial_index": 59, "time_elapsed": 1195336, "internal_node_id": "0.0-4.0-1.0-38.0"}}, {"uniqueid": "w14115695:a52679487", "current_trial": 60, "dateTime": 1691072020785, "trialdata": {"revealed_states": [], "clicked_states": ["29", "33", "32"], "num_clicks_accrued": [0, 0, 0, 0, 0, 0, 0, 0, 0, 0, 0, 0, 0], "stateRewards": ["", 2, 3, -2, -8, -8, -41, 74, 15, -23, -80, 1, 1, 3, 3, -15, -63, -78, 67, 13, 75, -41, 86, 2, -2, 6, -3, -8, -49, 50, -6, 83, 74, 80], "withholdReward": false, "trial_id": "mdp_trial_40", "block": "test", "trialIndex": 45, "score": 75.8, "costs": -4.199999999999999, "simulationMode": [null, null, null, null, null], "rewards": [2, -2, 6, -6, 80], "path": ["0", "0", "23", "24", "25", "30", "33"], "rt": [6787, 145, 129, 117, 134], "actions": ["left", "left", "left", "down", "left"], "actionTimes": [7725, 8384, 9034, 9672, 10323], "queries": {"click": {"state": {"target": ["29", "33", "32"], "time": [1949, 3719, 5617]}, "edge": {"target": [], "time": []}}, "mouseover": {"state": {"target": ["28", "26", "29", "33", "33", "32", "30"], "time": [1188, 1224, 1766, 2336, 2620, 4187, 6470]}, "edge": {"target": [], "time": []}}, "mouseout": {"state": {"target": ["0", "28", "26", "29", "33", "33", "32", "30", "30", "30", "31"], "time": [586, 1222, 1254, 2237, 2503, 4053, 6136, 9754, 10345, 11124, 11171]}, "edge": {"target": [], "time": []}}}, "displayed_time": "14.94", "trialTime": 16051, "trial_type": "mouselab-mdp", "trial_index": 60, "time_elapsed": 1211743, "internal_node_id": "0.0-4.0-1.0-39.0"}}, {"uniqueid": "w14115695:a52679487", "current_trial": 61, "dateTime": 1691072055182, "trialdata": {"rt": 34386, "response": {"Q0": "$-2 to $2", "Q1": "$-16 to $16", "Q2": "$-88 to $88", "Q3": "The cost was always $1.4.", "Q4": "Slightly motivated"}, "question_order": [0, 1, 2, 3, 4], "trial_id": "final_quiz_control", "trial_type": "survey-multi-choice", "trial_index": 61, "time_elapsed": 1246142, "internal_node_id": "0.0-4.0-2.0"}}, {"uniqueid": "w14115695:a52679487", "current_trial": 62, "dateTime": 1691072124550, "trialdata": {"rt": 69361, "response": {"Q0": "Big numbers on the outside first and go for the biggest one", "Q1": "Yes initially clicked a full route. switched to outside numbers", "Q2": "Input lag"}, "trial_id": "self_report_control", "trial_type": "survey-text", "trial_index": 62, "time_elapsed": 1315510, "internal_node_id": "0.0-4.0-3.0"}}, {"uniqueid": "w14115695:a52679487", "current_trial": 63, "dateTime": 1691072136121, "trialdata": {"rt": 11568, "response": {"gender": "male", "age": "31", "colorblind": "0", "effort": "1"}, "trial_type": "survey-html-form", "trial_index": 63, "time_elapsed": 1327081, "internal_node_id": "0.0-4.0-4.0"}}, {"uniqueid": "w14115695:a52679487", "current_trial": 64, "dateTime": 1691072151919, "trialdata": {"rt": 15794, "response": {"Q0": "", "Q1": "No, brand new to me", "Q2": ""}, "trial_type": "survey-text", "trial_index": 64, "time_elapsed": 1342879, "internal_node_id": "0.0-4.0-5.0"}}, {"uniqueid": "w14115695:a52679487", "current_trial": 65, "dateTime": 1691072155013, "trialdata": {"rt": 3090, "stimulus": "Press 'Finish HIT' in order to reach the completion code. Once the data has been saved, you will receive the code either in this window or in the original browser window where you started the experiment.\n", "response": 0, "trial_type": "html-button-response", "trial_index": 65, "time_elapsed": 1345973, "internal_node_id": "0.0-5.0"}}, {"uniqueid": "w14115695:a52679487", "current_trial": 66, "dateTime": 1691072156016, "trialdata": {"success": true, "trial_type": "fullscreen", "trial_index": 66, "time_elapsed": 1346976, "internal_node_id": "0.0-6.0"}}], "questiondata": {"params": {"CODE": "C6DMOQA6", "MIN_TIME": 14, "inspectCost": 1, "startTime": "Thu Aug 03 2023 14:53:28 GMT+0100 (British Summer Time)", "bonusRate": 0.002, "variance": "1_2_4_8_44", "branching": "31123"}, "final_score": 2244.8}, "eventdata": [{"eventtype": "initialized", "value": null, "timestamp": 1691070807886, "interval": 0}, {"eventtype": "window_resize", "value": [1024, 824], "timestamp": 1691070807886, "interval": 0}, {"eventtype": "window_resize", "value": [1024, 824], "timestamp": 1691070808198, "interval": 312}, {"eventtype": "window_resize", "value": [1920, 1080], "timestamp": 1691070813821, "interval": 5623}, {"eventtype": "focus", "value": "off", "timestamp": 1691071015161, "interval": 201340}, {"eventtype": "focus", "value": "on", "timestamp": 1691071015162, "interval": 1}, {"eventtype": "window_resize", "value": [1920, 988], "timestamp": 1691071015395, "interval": 233}, {"eventtype": "window_resize", "value": [1920, 1080], "timestamp": 1691071016834, "interval": 1439}, {"eventtype": "focus", "value": "off", "timestamp": 1691071097466, "interval": 80632}, {"eventtype": "focus", "value": "on", "timestamp": 1691071097466, "interval": 0}, {"eventtype": "window_resize", "value": [1920, 988], "timestamp": 1691071097671, "interval": 205}, {"eventtype": "window_resize", "value": [1920, 1080], "timestamp": 1691071099393, "interval": 1722}, {"eventtype": "window_resize", "value": [1920, 988], "timestamp": 1691072155234, "interval": 1055841}], "useragent": "Mozilla/5.0 (Windows NT 10.0; Win64; x64) AppleWebKit/537.36 (KHTML, like Gecko) Chrome/114.0.0.0 Safari/537.36", "mode": "live", "id": "w14115695:a52679487", "status": "user data saved", "Beginhit": "2023-08-03 13:53:09.019203", "Beginexp": "2023-08-03 13:53:23.09784", "Endhit": "2023-08-03 14:15:45.562659", "psiturkStatus": 3, "browser": "<redacted>", "platform": "windows", "language": "en-GB"}