{"condition": 0, "counterbalance": 0, "assignmentId": "a57247005", "workerId": "w56093570", "hitId": "h61448841", "currenttrial": 61, "bonus": 0, "data": [{"uniqueid": "w56093570:a57247005", "current_trial": 0, "dateTime": 1693565722182, "trialdata": {"success": true, "trial_type": "fullscreen", "trial_index": 0, "time_elapsed": 11693, "internal_node_id": "0.0-0.0"}}, {"uniqueid": "w56093570:a57247005", "current_trial": 1, "dateTime": 1693565744428, "trialdata": {"view_history": [{"page_index": 0, "viewing_time": 22243}], "rt": 22243, "trial_id": "exp_instructions_control", "trial_type": "instructions", "trial_index": 1, "time_elapsed": 33938, "internal_node_id": "0.0-1.0"}}, {"uniqueid": "w56093570:a57247005", "current_trial": 2, "dateTime": 1693565927012, "trialdata": {"view_history": [{"page_index": 0, "viewing_time": 46730}, {"page_index": 1, "viewing_time": 61762}, {"page_index": 2, "viewing_time": 25681}, {"page_index": 3, "viewing_time": 48406}], "rt": 182579, "trial_id": "mouselab_instructions_1_control", "trial_type": "instructions", "trial_index": 2, "time_elapsed": 216523, "internal_node_id": "0.0-2.0-1.0"}}, {"uniqueid": "w56093570:a57247005", "current_trial": 3, "dateTime": 1693566013027, "trialdata": {"revealed_states": [], "clicked_states": ["1", "2", "7", "4", "5", "3", "8", "11", "10"], "num_clicks_accrued": [0, 0, 0, 0, 0, 0, 0, 0, 0, 0, 0, 0, 0], "stateRewards": ["", 10, 10, -10, -10, -10, -10, -10, -10, 10, 10, -10, -10, 10, -10, 10, 10, -10, -10, -10, 10, -10, -10, 10, -10, 10, 10, 10, 10, -10, -10, 10, -10, 10], "withholdReward": false, "trial_id": "practice_1", "block": "test", "trialIndex": 0, "score": -31, "costs": -4.5, "simulationMode": [null, null, null, null, null], "rewards": [-10, 10, -10, -10, -10], "path": ["0", "0", "12", "13", "14", "19", "21"], "rt": [65484, 2450, 2579, 2139, 308], "actions": ["right", "right", "right", "down", "down"], "actionTimes": [69737, 72712, 75809, 78480, 79313], "queries": {"click": {"state": {"target": ["1", "2", "7", "4", "5", "3", "8", "11", "10"], "time": [12824, 17095, 19066, 21080, 22854, 30508, 32305, 33430, 36888]}, "edge": {"target": [], "time": []}}, "mouseover": {"state": {"target": ["20", "10", "8", "5", "12", "0", "1", "10", "2", "2", "7", "4", "5", "18", "18", "3", "8", "8", "11", "27", "10", "21", "22", "23", "13", "18", "12", "21", "19", "22", "0", "0", "13", "22"], "time": [8652, 8804, 8936, 9006, 9763, 9834, 12488, 14789, 16290, 16643, 18758, 19894, 22376, 27249, 28440, 29884, 31475, 31985, 33189, 34310, 36490, 49766, 53048, 53292, 56515, 56586, 56955, 62188, 63782, 63851, 66012, 66657, 67378, 67427]}, "edge": {"target": [], "time": []}}, "mouseout": {"state": {"target": ["22", "12", "0", "20", "10", "8", "5", "12", "0", "1", "10", "2", "2", "7", "4", "5", "18", "18", "3", "8", "8", "11", "27", "8", "10", "21", "22", "23", "13", "18", "12", "21", "19", "22", "0", "0", "13", "22"], "time": [2198, 3482, 6011, 8686, 8832, 8967, 9039, 9802, 12235, 14320, 16201, 16329, 17281, 19249, 22173, 23660, 27964, 28487, 30697, 31515, 32794, 33942, 35042, 35611, 38992, 50044, 53079, 53477, 56554, 56909, 57258, 62222, 63813, 63914, 66151, 66816, 67426, 67471]}, "edge": {"target": [], "time": []}}}, "displayed_time": "79.83", "trialTime": 84519, "trial_type": "mouselab-mdp", "trial_index": 3, "time_elapsed": 302538, "internal_node_id": "0.0-2.0-2.0-0.0"}}, {"uniqueid": "w56093570:a57247005", "current_trial": 4, "dateTime": 1693566035787, "trialdata": {"revealed_states": [], "clicked_states": ["12", "23"], "num_clicks_accrued": [0, 0, 0, 0, 0, 0, 0, 0, 0, 0, 0, 0, 0], "stateRewards": ["", 10, 10, 10, 10, 10, 10, 10, -10, 10, 10, -10, -10, 10, 10, 10, -10, 10, -10, 10, 10, -10, 10, 10, 10, 10, -10, 10, -10, -10, -10, -10, 10, 10], "withholdReward": false, "trial_id": "practice_2", "block": "test", "trialIndex": 1, "score": 12.5, "costs": -1, "simulationMode": [null, null, null, null, null], "rewards": [-10, 10, 10, 10, -10], "path": ["0", "0", "12", "13", "14", "19", "21"], "rt": [8565, 1581, 753, 852, 205], "actions": ["right", "right", "right", "down", "down"], "actionTimes": [12770, 14873, 16146, 17515, 18251], "queries": {"click": {"state": {"target": ["12", "23"], "time": [8011, 10800]}, "edge": {"target": [], "time": []}}, "mouseover": {"state": {"target": ["12", "0", "23", "23"], "time": [6923, 9824, 9872, 10209]}, "edge": {"target": [], "time": []}}, "mouseout": {"state": {"target": ["0", "12", "0", "23"], "time": [6859, 9739, 9871, 9909]}, "edge": {"target": [], "time": []}}}, "displayed_time": "18.78", "trialTime": 22226, "trial_type": "mouselab-mdp", "trial_index": 4, "time_elapsed": 325298, "internal_node_id": "0.0-2.0-2.0-1.0"}}, {"uniqueid": "w56093570:a57247005", "current_trial": 5, "dateTime": 1693566086070, "trialdata": {"view_history": [{"page_index": 0, "viewing_time": 36728}, {"page_index": 1, "viewing_time": 13552}], "rt": 50280, "trial_id": "mouselab_instructions_2_control", "trial_type": "instructions", "trial_index": 5, "time_elapsed": 375580, "internal_node_id": "0.0-2.0-3.0"}}, {"uniqueid": "w56093570:a57247005", "current_trial": 6, "dateTime": 1693566148796, "trialdata": {"rt": 62721, "response": {"Q0": "The cost for clicking on nodes may vary between nodes.", "Q1": "The better I perform the higher my bonus will be.", "Q2": "No, the amount of cash at each node of the web may be different each time.", "Q3": "To get the highest total score.", "Q4": "Any time during the round.", "Q5": "3 seconds"}, "question_order": [0, 1, 2, 3, 4, 5], "correct": {"Q0": "The cost for clicking on nodes may vary between nodes.", "Q1": "The better I perform the higher my bonus will be.", "Q2": "No, the amount of cash at each node of the web may be different each time.", "Q3": "To get the highest total score.", "Q4": "Only before moving the spider.", "Q5": "3 seconds"}, "trial_id": "mouselab_quiz_control", "trial_type": "survey-multi-choice", "trial_index": 6, "time_elapsed": 438307, "internal_node_id": "0.0-2.0-4.0"}}, {"uniqueid": "w56093570:a57247005", "current_trial": 7, "dateTime": 1693566161363, "trialdata": {"success": true, "trial_type": "fullscreen", "trial_index": 7, "time_elapsed": 450873, "internal_node_id": "0.0-2.1-0.1-0.1"}}, {"uniqueid": "w56093570:a57247005", "current_trial": 8, "dateTime": 1693566176532, "trialdata": {"view_history": [{"page_index": 0, "viewing_time": 6807}, {"page_index": 1, "viewing_time": 3961}, {"page_index": 2, "viewing_time": 1584}, {"page_index": 3, "viewing_time": 2813}], "rt": 15166, "trial_id": "mouselab_instructions_1_control", "trial_type": "instructions", "trial_index": 8, "time_elapsed": 466043, "internal_node_id": "0.0-2.1-1.1"}}, {"uniqueid": "w56093570:a57247005", "current_trial": 9, "dateTime": 1693566190502, "trialdata": {"revealed_states": [], "clicked_states": [], "num_clicks_accrued": [0, 0, 0, 0, 0, 0, 0, 0, 0, 0, 0, 0, 0], "stateRewards": ["", 10, 10, -10, -10, -10, -10, -10, -10, 10, 10, -10, -10, 10, -10, 10, 10, -10, -10, -10, 10, -10, -10, 10, -10, 10, 10, 10, 10, -10, -10, 10, -10, 10], "withholdReward": false, "trial_id": "practice_1", "block": "test", "trialIndex": 2, "score": -6.5, "costs": 0, "simulationMode": [null, null, null, null, null], "rewards": [10, -10, 10, -10, -10], "path": ["0", "0", "23", "24", "25", "30", "32"], "rt": [2999, 1134, 729, 690, 549], "actions": ["left", "left", "left", "down", "down"], "actionTimes": [6011, 7666, 8931, 10139, 11219], "queries": {"click": {"state": {"target": [], "time": []}, "edge": {"target": [], "time": []}}, "mouseover": {"state": {"target": ["0"], "time": [4869]}, "edge": {"target": [], "time": []}}, "mouseout": {"state": {"target": ["0"], "time": [4365]}, "edge": {"target": [], "time": []}}}, "displayed_time": "11.74", "trialTime": 13355, "trial_type": "mouselab-mdp", "trial_index": 9, "time_elapsed": 480012, "internal_node_id": "0.0-2.1-2.1-0.1"}}, {"uniqueid": "w56093570:a57247005", "current_trial": 10, "dateTime": 1693566281592, "trialdata": {"revealed_states": [], "clicked_states": ["1"], "num_clicks_accrued": [0, 0, 0, 0, 0, 0, 0, 0, 0, 0, 0, 0, 0], "stateRewards": ["", 10, 10, 10, 10, 10, 10, 10, -10, 10, 10, -10, -10, 10, 10, 10, -10, 10, -10, 10, 10, -10, 10, 10, 10, 10, -10, 10, -10, -10, -10, -10, 10, 10], "withholdReward": false, "trial_id": "practice_2", "block": "test", "trialIndex": 3, "score": 53, "costs": -0.5, "simulationMode": [null, null, null, null, null], "rewards": [10, 10, 10, 10, 10], "path": ["0", "0", "1", "2", "3", "4", "5"], "rt": [6745, 1121, 4009, 741, 769], "actions": ["up", "up", "up", "right", "up"], "actionTimes": [11928, 13568, 18112, 19375, 20672], "queries": {"click": {"state": {"target": ["1"], "time": [8969]}, "edge": {"target": [], "time": []}}, "mouseover": {"state": {"target": ["12", "12", "0", "1", "0"], "time": [6581, 6981, 7691, 8699, 9598]}, "edge": {"target": [], "time": []}}, "mouseout": {"state": {"target": ["0", "4", "0", "12", "12", "0", "1", "0"], "time": [3326, 3374, 6180, 6962, 7182, 8398, 9462, 42428]}, "edge": {"target": [], "time": []}}}, "displayed_time": "21.20", "trialTime": 90545, "trial_type": "mouselab-mdp", "trial_index": 10, "time_elapsed": 571102, "internal_node_id": "0.0-2.1-2.1-1.1"}}, {"uniqueid": "w56093570:a57247005", "current_trial": 11, "dateTime": 1693566415159, "trialdata": {"view_history": [{"page_index": 0, "viewing_time": 131970}, {"page_index": 1, "viewing_time": 1591}], "rt": 133561, "trial_id": "mouselab_instructions_2_control", "trial_type": "instructions", "trial_index": 11, "time_elapsed": 704670, "internal_node_id": "0.0-2.1-3.1"}}, {"uniqueid": "w56093570:a57247005", "current_trial": 12, "dateTime": 1693566471296, "trialdata": {"rt": 56132, "response": {"Q0": "The cost for clicking on nodes may vary between nodes.", "Q1": "The better I perform the higher my bonus will be.", "Q2": "No, the amount of cash at each node of the web may be different each time.", "Q3": "To get the highest total score.", "Q4": "Only before moving the spider.", "Q5": "3 seconds"}, "question_order": [0, 1, 2, 3, 4, 5], "correct": {"Q0": "The cost for clicking on nodes may vary between nodes.", "Q1": "The better I perform the higher my bonus will be.", "Q2": "No, the amount of cash at each node of the web may be different each time.", "Q3": "To get the highest total score.", "Q4": "Only before moving the spider.", "Q5": "3 seconds"}, "trial_id": "mouselab_quiz_control", "trial_type": "survey-multi-choice", "trial_index": 12, "time_elapsed": 760807, "internal_node_id": "0.0-2.1-4.1"}}, {"uniqueid": "w56093570:a57247005", "current_trial": 13, "dateTime": 1693566480220, "trialdata": {"rt": 8920, "response": {"Q0": "No"}, "question_order": [0], "trial_id": "repeat_check", "trial_type": "survey-multi-choice", "trial_index": 13, "time_elapsed": 769731, "internal_node_id": "0.0-4.0-0.0"}}, {"uniqueid": "w56093570:a57247005", "current_trial": 14, "dateTime": 1693566497663, "trialdata": {"rt": 17440, "stimulus": "\n<h1> Get ready to start the game! </h1>\n\nThank you for reading the instructions. Get ready start with the 40 rounds of this game.\n<br><br>\nIf you need to take a break, feel free to take one after the end of a round, before continuing to the next one.\n<br><br>\nRemember, the more money the spider gets, the bigger your bonus will be!\n<br><br>\n<div style='text-align: center;'>Press <code>space</code> to begin.</div>\n\n<br><br>\n(If, at any point, the <code>space</code> key does not take you to the next page, click once on the text and try again.)", "response": " ", "trial_id": "mdp_ready", "trial_type": "html-keyboard-response", "trial_index": 14, "time_elapsed": 787174, "internal_node_id": "0.0-6.0-0.0"}}, {"uniqueid": "w56093570:a57247005", "current_trial": 15, "dateTime": 1693566524472, "trialdata": {"revealed_states": [], "clicked_states": ["12", "1"], "num_clicks_accrued": [0, 0, 0, 0, 0, 0, 0, 0, 0, 0, 0, 0, 0], "stateRewards": ["", 1, 4, 5, 8, -55, -11, 8, 16, -37, 77, -22, -2, 3, -8, -10, 45, 87, -67, 4, 17, -33, -22, -1, -3, 7, 6, -39, -85, 75, -1, 7, -48, 45], "withholdReward": false, "trial_id": "mdp_trial_1", "block": "test", "trialIndex": 4, "score": -32.8, "costs": -2.8, "simulationMode": [null, null, null, null, null], "rewards": [-1, -3, 7, 6, -39], "path": ["0", "0", "23", "24", "25", "26", "27"], "rt": [7900, 835, 753, 352, 219], "actions": ["left", "left", "left", "up", "up"], "actionTimes": [11703, 13078, 14359, 15238, 15974], "queries": {"click": {"state": {"target": ["12", "1"], "time": [4875, 8936]}, "edge": {"target": [], "time": []}}, "mouseover": {"state": {"target": ["12", "0", "1", "1", "12", "13"], "time": [4614, 7678, 8214, 8748, 9533, 9833]}, "edge": {"target": [], "time": []}}, "mouseout": {"state": {"target": ["12", "0", "0", "12", "0", "1", "1", "12", "13"], "time": [2459, 2537, 4580, 6600, 7776, 8536, 9464, 9564, 12369]}, "edge": {"target": [], "time": []}}}, "displayed_time": "17.96", "trialTime": 26270, "trial_type": "mouselab-mdp", "trial_index": 15, "time_elapsed": 813983, "internal_node_id": "0.0-6.0-1.0-0.0"}}, {"uniqueid": "w56093570:a57247005", "current_trial": 16, "dateTime": 1693566545871, "trialdata": {"revealed_states": [], "clicked_states": ["2"], "num_clicks_accrued": [0, 0, 0, 0, 0, 0, 0, 0, 0, 0, 0, 0, 0], "stateRewards": ["", 2, -4, 4, 9, 69, 9, -75, 12, -86, 66, 25, -1, 3, 2, -13, -88, -3, 1, 4, -69, 49, -84, 2, -1, 4, 2, -18, -81, -52, -15, -69, -54, 25], "withholdReward": false, "trial_id": "mdp_trial_2", "block": "test", "trialIndex": 5, "score": 55.6, "costs": -1.4, "simulationMode": [null, null, null, null, null], "rewards": [-1, 3, 2, 4, 49], "path": ["0", "0", "12", "13", "14", "19", "21"], "rt": [5705, 628, 722, 457, 713], "actions": ["right", "right", "right", "down", "down"], "actionTimes": [9067, 10219, 11467, 12437, 13660], "queries": {"click": {"state": {"target": ["2"], "time": [5621]}, "edge": {"target": [], "time": []}}, "mouseover": {"state": {"target": ["7", "1", "1", "2"], "time": [4292, 4585, 4921, 5386]}, "edge": {"target": [], "time": []}}, "mouseout": {"state": {"target": ["14", "14", "12", "0", "7", "1", "1", "2"], "time": [2085, 2165, 2241, 2518, 4335, 4651, 5023, 6100]}, "edge": {"target": [], "time": []}}}, "displayed_time": "17.48", "trialTime": 20867, "trial_type": "mouselab-mdp", "trial_index": 16, "time_elapsed": 835382, "internal_node_id": "0.0-6.0-1.0-1.0"}}, {"uniqueid": "w56093570:a57247005", "current_trial": 17, "dateTime": 1693566568167, "trialdata": {"revealed_states": [], "clicked_states": ["26"], "num_clicks_accrued": [0, 0, 0, 0, 0, 0, 0, 0, 0, 0, 0, 0, 0], "stateRewards": ["", 1, -1, 4, 5, -32, 18, 20, 6, -88, -74, 9, -2, 1, -2, -14, 34, -77, -38, -1, 80, -36, 73, 2, 3, -8, 10, -48, -73, -71, -11, -22, 20, 54], "withholdReward": false, "trial_id": "mdp_trial_3", "block": "test", "trialIndex": 6, "score": -65.4, "costs": -1.4, "simulationMode": [null, null, null, null, null], "rewards": [2, 3, -8, 10, -71], "path": ["0", "0", "23", "24", "25", "26", "29"], "rt": [4801, 352, 242, 561, 924], "actions": ["left", "left", "left", "up", "left"], "actionTimes": [8138, 9017, 9773, 10842, 12290], "queries": {"click": {"state": {"target": ["26"], "time": [5073]}, "edge": {"target": [], "time": []}}, "mouseover": {"state": {"target": ["23", "28", "26", "25", "31"], "time": [4040, 4224, 4774, 5574, 5789]}, "edge": {"target": [], "time": []}}, "mouseout": {"state": {"target": ["12", "0", "23", "28", "26", "25", "31", "12", "14"], "time": [2093, 3973, 4139, 4472, 5542, 5673, 5827, 16487, 19185]}, "edge": {"target": [], "time": []}}}, "displayed_time": "17.49", "trialTime": 21753, "trial_type": "mouselab-mdp", "trial_index": 17, "time_elapsed": 857678, "internal_node_id": "0.0-6.0-1.0-2.0"}}, {"uniqueid": "w56093570:a57247005", "current_trial": 18, "dateTime": 1693566590143, "trialdata": {"revealed_states": [], "clicked_states": [], "num_clicks_accrued": [0, 0, 0, 0, 0, 0, 0, 0, 0, 0, 0, 0, 0], "stateRewards": ["", 1, 1, 6, -14, -40, 37, 16, -13, 33, -68, 49, 2, 4, 3, 6, 55, 27, 32, 10, -65, 20, -87, 2, 1, -6, -5, -42, 12, 29, -8, 16, 76, -33], "withholdReward": false, "trial_id": "mdp_trial_4", "block": "test", "trialIndex": 7, "score": -73, "costs": 0, "simulationMode": [null, null, null, null, null], "rewards": [1, 1, 6, -13, -68], "path": ["0", "0", "1", "2", "3", "8", "10"], "rt": [5933, 727, 431, 235, 576], "actions": ["up", "up", "up", "left", "down"], "actionTimes": [9535, 10782, 11736, 12480, 13569], "queries": {"click": {"state": {"target": [], "time": []}, "edge": {"target": [], "time": []}}, "mouseover": {"state": {"target": ["12", "0", "23", "0", "0"], "time": [6070, 6536, 6613, 7103, 7849]}, "edge": {"target": [], "time": []}}, "mouseout": {"state": {"target": ["12", "12", "0", "23", "0", "0"], "time": [2277, 6506, 6569, 6870, 7133, 19863]}, "edge": {"target": [], "time": []}}}, "displayed_time": "17.88", "trialTime": 21447, "trial_type": "mouselab-mdp", "trial_index": 18, "time_elapsed": 879654, "internal_node_id": "0.0-6.0-1.0-3.0"}}, {"uniqueid": "w56093570:a57247005", "current_trial": 19, "dateTime": 1693566609697, "trialdata": {"revealed_states": [], "clicked_states": ["14"], "num_clicks_accrued": [0, 0, 0, 0, 0, 0, 0, 0, 0, 0, 0, 0, 0], "stateRewards": ["", 2, -3, -4, -1, 25, -16, 16, 10, -71, -20, -55, 1, 3, -4, -9, 1, 32, 11, -6, 32, -50, -41, -1, 4, 4, -8, 7, -81, 70, 2, -52, 45, -10], "withholdReward": false, "trial_id": "mdp_trial_5", "block": "test", "trialIndex": 8, "score": -48.4, "costs": -1.4, "simulationMode": [null, null, null, null, null], "rewards": [1, 3, -4, -6, -41], "path": ["0", "0", "12", "13", "14", "19", "22"], "rt": [4949, 780, 760, 1251, 646], "actions": ["right", "right", "right", "down", "left"], "actionTimes": [7619, 8923, 10187, 11947, 13139], "queries": {"click": {"state": {"target": ["14"], "time": [3889]}, "edge": {"target": [], "time": []}}, "mouseover": {"state": {"target": ["0", "13", "14"], "time": [2702, 3486, 3620]}, "edge": {"target": [], "time": []}}, "mouseout": {"state": {"target": ["0", "0", "13", "14"], "time": [2056, 3355, 3583, 16930]}, "edge": {"target": [], "time": []}}}, "displayed_time": "16.78", "trialTime": 19019, "trial_type": "mouselab-mdp", "trial_index": 19, "time_elapsed": 899207, "internal_node_id": "0.0-6.0-1.0-4.0"}}, {"uniqueid": "w56093570:a57247005", "current_trial": 20, "dateTime": 1693566628969, "trialdata": {"revealed_states": [], "clicked_states": [], "num_clicks_accrued": [0, 0, 0, 0, 0, 0, 0, 0, 0, 0, 0, 0, 0], "stateRewards": ["", -1, -3, 1, 13, -64, -29, 12, -4, -33, 50, 56, 2, -3, 4, 11, -64, -58, -55, 12, 47, 38, -25, -2, 2, 5, -15, 85, 7, 84, 10, 8, 57, 26], "withholdReward": false, "trial_id": "mdp_trial_6", "block": "test", "trialIndex": 9, "score": -41, "costs": 0, "simulationMode": [null, null, null, null, null], "rewards": [2, -3, 4, 11, -55], "path": ["0", "0", "12", "13", "14", "15", "18"], "rt": [2661, 458, 673, 280, 131], "actions": ["right", "right", "right", "up", "left"], "actionTimes": [6033, 7009, 8217, 9008, 9657], "queries": {"click": {"state": {"target": [], "time": []}, "edge": {"target": [], "time": []}}, "mouseover": {"state": {"target": [], "time": []}, "edge": {"target": [], "time": []}}, "mouseout": {"state": {"target": ["14", "13", "12", "0"], "time": [2253, 2435, 2604, 14713]}, "edge": {"target": [], "time": []}}}, "displayed_time": "17.38", "trialTime": 18737, "trial_type": "mouselab-mdp", "trial_index": 20, "time_elapsed": 918480, "internal_node_id": "0.0-6.0-1.0-5.0"}}, {"uniqueid": "w56093570:a57247005", "current_trial": 21, "dateTime": 1693566651674, "trialdata": {"revealed_states": [], "clicked_states": [], "num_clicks_accrued": [0, 0, 0, 0, 0, 0, 0, 0, 0, 0, 0, 0, 0], "stateRewards": ["", -1, 3, -4, -14, 78, 67, 2, 13, -32, 28, 39, -2, 1, -4, -4, -4, -42, -86, 11, 64, -29, -32, -1, -4, 2, -7, 5, 68, -61, 2, -21, 85, 50], "withholdReward": false, "trial_id": "mdp_trial_7", "block": "test", "trialIndex": 10, "score": -22, "costs": 0, "simulationMode": [null, null, null, null, null], "rewards": [-1, -4, 2, 2, -21], "path": ["0", "0", "23", "24", "25", "30", "31"], "rt": [3535, 502, 306, 612, 560], "actions": ["left", "left", "left", "down", "right"], "actionTimes": [6761, 7810, 8650, 9770, 10835], "queries": {"click": {"state": {"target": [], "time": []}, "edge": {"target": [], "time": []}}, "mouseover": {"state": {"target": [], "time": []}, "edge": {"target": [], "time": []}}, "mouseout": {"state": {"target": ["0", "0", "17", "14"], "time": [2017, 12528, 14077, 14813]}, "edge": {"target": [], "time": []}}}, "displayed_time": "17.48", "trialTime": 22154, "trial_type": "mouselab-mdp", "trial_index": 21, "time_elapsed": 941185, "internal_node_id": "0.0-6.0-1.0-6.0"}}, {"uniqueid": "w56093570:a57247005", "current_trial": 22, "dateTime": 1693566674411, "trialdata": {"revealed_states": [], "clicked_states": ["23", "13"], "num_clicks_accrued": [0, 0, 0, 0, 0, 0, 0, 0, 0, 0, 0, 0, 0], "stateRewards": ["", -1, -1, 4, -16, -75, 81, -51, -7, -84, 73, -30, -2, 1, -3, -16, -77, 33, 14, 1, 45, 87, -66, 2, 2, -5, -7, -19, -17, 79, -3, 8, 49, 47], "withholdReward": false, "trial_id": "mdp_trial_8", "block": "test", "trialIndex": 11, "score": -99.8, "costs": -2.8, "simulationMode": [null, null, null, null, null], "rewards": [-2, 1, -3, -16, -77], "path": ["0", "0", "12", "13", "14", "15", "16"], "rt": [9211, 423, 817, 566, 54], "actions": ["right", "right", "right", "up", "up"], "actionTimes": [12665, 13592, 14919, 16032, 16607], "queries": {"click": {"state": {"target": ["23", "13"], "time": [4858, 7899]}, "edge": {"target": [], "time": []}}, "mouseover": {"state": {"target": ["23", "0", "12", "13"], "time": [4615, 6961, 7098, 7661]}, "edge": {"target": [], "time": []}}, "mouseout": {"state": {"target": ["1", "23", "12", "0", "23", "0", "12", "13", "22"], "time": [1730, 1797, 2471, 4216, 6930, 6994, 7517, 19172, 19605]}, "edge": {"target": [], "time": []}}}, "displayed_time": "17.48", "trialTime": 22186, "trial_type": "mouselab-mdp", "trial_index": 22, "time_elapsed": 963921, "internal_node_id": "0.0-6.0-1.0-7.0"}}, {"uniqueid": "w56093570:a57247005", "current_trial": 23, "dateTime": 1693566694840, "trialdata": {"revealed_states": [], "clicked_states": [], "num_clicks_accrued": [0, 0, 0, 0, 0, 0, 0, 0, 0, 0, 0, 0, 0], "stateRewards": ["", -2, -3, 8, 14, -73, 73, 84, -12, -2, -50, -17, 2, 1, -2, -9, -44, -27, -33, 16, -63, -47, -66, -2, 1, 4, -5, -33, -11, 50, 9, 38, -79, 31], "withholdReward": false, "trial_id": "mdp_trial_9", "block": "test", "trialIndex": 12, "score": -11, "costs": 0, "simulationMode": [null, null, null, null, null], "rewards": [-2, -3, 8, -12, -2], "path": ["0", "0", "1", "2", "3", "8", "9"], "rt": [2163, 595, 364, 759, 376], "actions": ["up", "up", "up", "left", "up"], "actionTimes": [5956, 7083, 7956, 9220, 10125], "queries": {"click": {"state": {"target": [], "time": []}, "edge": {"target": [], "time": []}}, "mouseover": {"state": {"target": [], "time": []}, "edge": {"target": [], "time": []}}, "mouseout": {"state": {"target": ["21", "0", "0"], "time": [2721, 3256, 13572]}, "edge": {"target": [], "time": []}}}, "displayed_time": "17.90", "trialTime": 19891, "trial_type": "mouselab-mdp", "trial_index": 23, "time_elapsed": 984351, "internal_node_id": "0.0-6.0-1.0-8.0"}}, {"uniqueid": "w56093570:a57247005", "current_trial": 24, "dateTime": 1693566713353, "trialdata": {"revealed_states": [], "clicked_states": [], "num_clicks_accrued": [0, 0, 0, 0, 0, 0, 0, 0, 0, 0, 0, 0, 0], "stateRewards": ["", 1, 1, -5, 8, -6, 45, 16, -6, -7, -22, -38, -1, -4, 8, -11, -16, 21, -45, -15, -59, -32, 42, -1, 3, 6, 11, -7, 34, -27, -8, 85, 43, -9], "withholdReward": false, "trial_id": "mdp_trial_10", "block": "test", "trialIndex": 13, "score": 53, "costs": 0, "simulationMode": [null, null, null, null, null], "rewards": [-1, 3, 6, 11, 34], "path": ["0", "0", "23", "24", "25", "26", "28"], "rt": [1565, 532, 839, 260, 945], "actions": ["left", "left", "left", "up", "right"], "actionTimes": [3723, 4786, 6146, 6914, 8370], "queries": {"click": {"state": {"target": [], "time": []}, "edge": {"target": [], "time": []}}, "mouseover": {"state": {"target": [], "time": []}, "edge": {"target": [], "time": []}}, "mouseout": {"state": {"target": ["0", "20"], "time": [11078, 16998]}, "edge": {"target": [], "time": []}}}, "displayed_time": "16.21", "trialTime": 17978, "trial_type": "mouselab-mdp", "trial_index": 24, "time_elapsed": 1002864, "internal_node_id": "0.0-6.0-1.0-9.0"}}, {"uniqueid": "w56093570:a57247005", "current_trial": 25, "dateTime": 1693566732202, "trialdata": {"revealed_states": [], "clicked_states": ["7"], "num_clicks_accrued": [0, 0, 0, 0, 0, 0, 0, 0, 0, 0, 0, 0, 0], "stateRewards": ["", 2, -1, 1, 10, -52, 86, -22, -2, -14, -63, 38, 1, 3, 7, -8, 11, -32, -27, 9, -71, 40, -87, -2, -1, 5, -7, 12, 31, -57, 13, 86, -58, 29], "withholdReward": false, "trial_id": "mdp_trial_11", "block": "test", "trialIndex": 14, "score": 96.6, "costs": -1.4, "simulationMode": [null, null, null, null, null], "rewards": [2, -1, 1, 10, 86], "path": ["0", "0", "1", "2", "3", "4", "6"], "rt": [3684, 298, 185, 1218, 464], "actions": ["up", "up", "up", "right", "right"], "actionTimes": [6118, 6982, 7686, 9432, 10399], "queries": {"click": {"state": {"target": ["7"], "time": [3581]}, "edge": {"target": [], "time": []}}, "mouseover": {"state": {"target": ["7"], "time": [3300]}, "edge": {"target": [], "time": []}}, "mouseout": {"state": {"target": ["19", "0", "7", "18", "20", "20", "19", "21", "21"], "time": [1174, 1338, 12822, 12856, 12970, 14674, 15241, 15669, 16894]}, "edge": {"target": [], "time": []}}}, "displayed_time": "16.51", "trialTime": 18303, "trial_type": "mouselab-mdp", "trial_index": 25, "time_elapsed": 1021712, "internal_node_id": "0.0-6.0-1.0-10.0"}}, {"uniqueid": "w56093570:a57247005", "current_trial": 26, "dateTime": 1693566752130, "trialdata": {"revealed_states": [], "clicked_states": ["15"], "num_clicks_accrued": [0, 0, 0, 0, 0, 0, 0, 0, 0, 0, 0, 0, 0], "stateRewards": ["", -1, -4, -1, -11, 43, 69, 39, 4, 17, -20, -82, -2, -1, 4, 8, -79, 24, -79, 11, 36, 64, 41, 2, 4, -1, 11, -79, -47, 75, -3, 63, -36, -19], "withholdReward": false, "trial_id": "mdp_trial_12", "block": "test", "trialIndex": 15, "score": 31.6, "costs": -1.4, "simulationMode": [null, null, null, null, null], "rewards": [-2, -1, 4, 8, 24], "path": ["0", "0", "12", "13", "14", "15", "17"], "rt": [4578, 342, 235, 227, 658], "actions": ["right", "right", "right", "up", "right"], "actionTimes": [6708, 7562, 8332, 9075, 10250], "queries": {"click": {"state": {"target": ["15"], "time": [3301]}, "edge": {"target": [], "time": []}}, "mouseover": {"state": {"target": ["12", "15"], "time": [2773, 3052]}, "edge": {"target": [], "time": []}}, "mouseout": {"state": {"target": ["0", "12", "15", "14", "14", "19"], "time": [2734, 2805, 12294, 13725, 18331, 18417]}, "edge": {"target": [], "time": []}}}, "displayed_time": "16.38", "trialTime": 19388, "trial_type": "mouselab-mdp", "trial_index": 26, "time_elapsed": 1041641, "internal_node_id": "0.0-6.0-1.0-11.0"}}, {"uniqueid": "w56093570:a57247005", "current_trial": 27, "dateTime": 1693566793276, "trialdata": {"revealed_states": [], "clicked_states": [], "num_clicks_accrued": [0, 0, 0, 0, 0, 0, 0, 0, 0, 0, 0, 0, 0], "stateRewards": ["", -2, 1, -7, -8, -37, -76, -87, 11, 30, -63, 80, -1, 4, 2, -1, 42, 17, 52, -3, -75, -80, -68, 2, -3, -5, -15, -48, 82, 24, -7, 5, -22, -71], "withholdReward": false, "trial_id": "mdp_trial_13", "block": "test", "trialIndex": 16, "score": -8, "costs": 0, "simulationMode": [null, null, null, null, null], "rewards": [2, -3, -5, -7, 5], "path": ["0", "0", "23", "24", "25", "30", "31"], "rt": [6416, 238, 120, 525, 232], "actions": ["left", "left", "left", "down", "right"], "actionTimes": [9697, 10458, 11088, 12122, 12865], "queries": {"click": {"state": {"target": [], "time": []}, "edge": {"target": [], "time": []}}, "mouseover": {"state": {"target": ["0", "0", "1", "3", "8", "30", "30"], "time": [4068, 4767, 4881, 5590, 6313, 7113, 7433]}, "edge": {"target": [], "time": []}}, "mouseout": {"state": {"target": ["32", "33", "25", "23", "0", "0", "1", "3", "8", "30", "30", "31"], "time": [2276, 2339, 2507, 2561, 4428, 4844, 5013, 6172, 6747, 7166, 9214, 39238]}, "edge": {"target": [], "time": []}}}, "displayed_time": "17.35", "trialTime": 40611, "trial_type": "mouselab-mdp", "trial_index": 27, "time_elapsed": 1082786, "internal_node_id": "0.0-6.0-1.0-12.0"}}, {"uniqueid": "w56093570:a57247005", "current_trial": 28, "dateTime": 1693566812651, "trialdata": {"revealed_states": [], "clicked_states": ["19"], "num_clicks_accrued": [0, 0, 0, 0, 0, 0, 0, 0, 0, 0, 0, 0, 0], "stateRewards": ["", -1, 2, 7, 8, 75, 67, -11, 6, 52, -17, 38, -1, 4, -8, 14, 74, -37, -17, -12, 52, 55, 71, -2, -1, -5, 2, 21, 6, -88, -14, 64, -61, -47], "withholdReward": false, "trial_id": "mdp_trial_14", "block": "test", "trialIndex": 17, "score": -4.4, "costs": -1.4, "simulationMode": [null, null, null, null, null], "rewards": [-1, 2, 7, 6, -17], "path": ["0", "0", "1", "2", "3", "8", "10"], "rt": [4445, 319, 285, 327, 249], "actions": ["up", "up", "up", "left", "down"], "actionTimes": [6561, 7400, 8201, 9041, 9800], "queries": {"click": {"state": {"target": ["19"], "time": [3483]}, "edge": {"target": [], "time": []}}, "mouseover": {"state": {"target": ["0", "19"], "time": [2662, 3263]}, "edge": {"target": [], "time": []}}, "mouseout": {"state": {"target": ["15", "0", "19"], "time": [991, 2705, 12290]}, "edge": {"target": [], "time": []}}}, "displayed_time": "16.16", "trialTime": 18841, "trial_type": "mouselab-mdp", "trial_index": 28, "time_elapsed": 1102161, "internal_node_id": "0.0-6.0-1.0-13.0"}}, {"uniqueid": "w56093570:a57247005", "current_trial": 29, "dateTime": 1693566831739, "trialdata": {"revealed_states": [], "clicked_states": [], "num_clicks_accrued": [0, 0, 0, 0, 0, 0, 0, 0, 0, 0, 0, 0, 0], "stateRewards": ["", 2, 3, -6, -5, -3, 55, 40, 11, 61, 11, 51, 2, -4, -6, 9, -25, 29, -15, -6, 7, -77, -2, -2, -4, 1, 14, -43, -1, 56, -12, -54, 41, -74], "withholdReward": false, "trial_id": "mdp_trial_15", "block": "test", "trialIndex": 18, "score": -91, "costs": 0, "simulationMode": [null, null, null, null, null], "rewards": [2, -4, -6, -6, -77], "path": ["0", "0", "12", "13", "14", "19", "21"], "rt": [1499, 51, 10, 9, 130], "actions": ["right", "right", "right", "down", "down"], "actionTimes": [4278, 4861, 5406, 5968, 6637], "queries": {"click": {"state": {"target": [], "time": []}, "edge": {"target": [], "time": []}}, "mouseover": {"state": {"target": [], "time": []}, "edge": {"target": [], "time": []}}, "mouseout": {"state": {"target": ["21", "22", "0", "24", "25", "24", "23", "0", "0"], "time": [1126, 1158, 1236, 1273, 1413, 1537, 1811, 8508, 10900]}, "edge": {"target": [], "time": []}}}, "displayed_time": "16.83", "trialTime": 18542, "trial_type": "mouselab-mdp", "trial_index": 29, "time_elapsed": 1121249, "internal_node_id": "0.0-6.0-1.0-14.0"}}, {"uniqueid": "w56093570:a57247005", "current_trial": 30, "dateTime": 1693568526416, "trialdata": {"revealed_states": [], "clicked_states": [], "num_clicks_accrued": [0, 0, 0, 0, 0, 0, 0, 0, 0, 0, 0, 0, 0], "stateRewards": ["", 2, -4, -4, 13, -80, 62, 13, -11, 57, -13, -44, 1, 4, 3, -4, -29, -88, 15, 16, -58, 68, -45, -1, -3, -1, -9, -44, -86, -19, -7, -36, 59, 66], "withholdReward": false, "trial_id": "mdp_trial_16", "block": "test", "trialIndex": 19, "score": 19, "costs": 0, "simulationMode": [null, null, null, null, null], "rewards": [1, 4, 3, -4, 15], "path": ["0", "0", "12", "13", "14", "15", "18"], "rt": [1459, 148, 295, 237, 70], "actions": ["right", "right", "right", "up", "left"], "actionTimes": [3650, 4313, 5129, 5872, 6472], "queries": {"click": {"state": {"target": [], "time": []}, "edge": {"target": [], "time": []}}, "mouseover": {"state": {"target": [], "time": []}, "edge": {"target": [], "time": []}}, "mouseout": {"state": {"target": ["0", "14", "20", "14", "22", "19", "22", "16", "15", "14"], "time": [8405, 8475, 9451, 9668, 11142, 16646, 16988, 620746, 620789, 621593]}, "edge": {"target": [], "time": []}}}, "displayed_time": "16.29", "trialTime": 1694127, "trial_type": "mouselab-mdp", "trial_index": 30, "time_elapsed": 2815927, "internal_node_id": "0.0-6.0-1.0-15.0"}}, {"uniqueid": "w56093570:a57247005", "current_trial": 31, "dateTime": 1693568590617, "trialdata": {"revealed_states": [], "clicked_states": ["14"], "num_clicks_accrued": [0, 0, 0, 0, 0, 0, 0, 0, 0, 0, 0, 0, 0], "stateRewards": ["", -2, 4, -7, -3, -76, 39, -28, 10, 14, 12, 60, 2, -3, 6, -10, 88, -34, -41, -3, 72, -13, -56, 1, 3, 2, 8, -51, 23, -57, 1, 14, -46, -16], "withholdReward": false, "trial_id": "mdp_trial_17", "block": "test", "trialIndex": 20, "score": -40.4, "costs": -1.4, "simulationMode": [null, null, null, null, null], "rewards": [2, -3, 6, -10, -34], "path": ["0", "0", "12", "13", "14", "15", "17"], "rt": [4025, 1396, 96, 477, 53], "actions": ["right", "right", "right", "up", "right"], "actionTimes": [51965, 53877, 54508, 55493, 56068], "queries": {"click": {"state": {"target": ["14"], "time": [49454]}, "edge": {"target": [], "time": []}}, "mouseover": {"state": {"target": ["23", "14", "12"], "time": [48327, 49098, 50308]}, "edge": {"target": [], "time": []}}, "mouseout": {"state": {"target": ["8", "8", "3", "2", "1", "0", "0", "0", "0", "23", "14", "12"], "time": [43174, 43424, 43663, 43691, 43723, 43754, 46777, 47179, 48292, 48438, 49861, 59953]}, "edge": {"target": [], "time": []}}}, "displayed_time": "62.23", "trialTime": 63653, "trial_type": "mouselab-mdp", "trial_index": 31, "time_elapsed": 2880128, "internal_node_id": "0.0-6.0-1.0-16.0"}}, {"uniqueid": "w56093570:a57247005", "current_trial": 32, "dateTime": 1693568614455, "trialdata": {"revealed_states": [], "clicked_states": [], "num_clicks_accrued": [0, 0, 0, 0, 0, 0, 0, 0, 0, 0, 0, 0, 0], "stateRewards": ["", -1, 1, -6, -1, 80, 23, 2, -11, 73, -81, 59, 1, 3, 5, -1, -26, 28, -3, 16, -59, -13, -50, -2, -2, 2, 15, -50, 86, 17, -4, 37, 35, 44], "withholdReward": false, "trial_id": "mdp_trial_18", "block": "test", "trialIndex": 21, "score": 99, "costs": 0, "simulationMode": [null, null, null, null, null], "rewards": [-2, -2, 2, 15, 86], "path": ["0", "0", "23", "24", "25", "26", "28"], "rt": [2241, 332, 1271, 355, 181], "actions": ["left", "left", "left", "up", "right"], "actionTimes": [5299, 6170, 7962, 8827, 9523], "queries": {"click": {"state": {"target": [], "time": []}, "edge": {"target": [], "time": []}}, "mouseover": {"state": {"target": [], "time": []}, "edge": {"target": [], "time": []}}, "mouseout": {"state": {"target": ["1", "12", "0", "17", "17"], "time": [1957, 2288, 12394, 12541, 13120]}, "edge": {"target": [], "time": []}}}, "displayed_time": "17.40", "trialTime": 23306, "trial_type": "mouselab-mdp", "trial_index": 32, "time_elapsed": 2903966, "internal_node_id": "0.0-6.0-1.0-17.0"}}, {"uniqueid": "w56093570:a57247005", "current_trial": 33, "dateTime": 1693568733889, "trialdata": {"revealed_states": [], "clicked_states": ["12"], "num_clicks_accrued": [0, 0, 0, 0, 0, 0, 0, 0, 0, 0, 0, 0, 0], "stateRewards": ["", -1, 4, -3, 3, 57, -61, 5, -11, 23, -1, 34, -2, -4, -1, -13, 27, 38, -36, 4, -45, 21, 88, 1, -2, -1, 1, -69, -5, -78, -12, -9, 38, -54], "withholdReward": false, "trial_id": "mdp_trial_19", "block": "test", "trialIndex": 22, "score": 58.6, "costs": -1.4, "simulationMode": [null, null, null, null, null], "rewards": [-1, 4, -3, 3, 57], "path": ["0", "0", "1", "2", "3", "4", "5"], "rt": [4038, 441, 324, 586, 440], "actions": ["up", "up", "up", "right", "up"], "actionTimes": [106387, 107356, 108188, 109284, 110235], "queries": {"click": {"state": {"target": ["12"], "time": [103417]}, "edge": {"target": [], "time": []}}, "mouseover": {"state": {"target": ["12"], "time": [103089]}, "edge": {"target": [], "time": []}}, "mouseout": {"state": {"target": ["14", "0", "0", "12", "12", "13", "19"], "time": [99159, 101429, 103017, 103542, 113719, 113826, 113862]}, "edge": {"target": [], "time": []}}}, "displayed_time": "116.62", "trialTime": 118900, "trial_type": "mouselab-mdp", "trial_index": 33, "time_elapsed": 3023400, "internal_node_id": "0.0-6.0-1.0-18.0"}}, {"uniqueid": "w56093570:a57247005", "current_trial": 34, "dateTime": 1693568778034, "trialdata": {"revealed_states": [], "clicked_states": [], "num_clicks_accrued": [0, 0, 0, 0, 0, 0, 0, 0, 0, 0, 0, 0, 0], "stateRewards": ["", -1, -3, -3, 1, -38, 2, -53, -2, -1, -81, 70, -1, 1, -5, -9, 46, 15, 35, -1, -22, 38, 59, -2, 4, -8, 13, 1, -83, -43, 4, 76, 13, 48], "withholdReward": false, "trial_id": "mdp_trial_20", "block": "test", "trialIndex": 23, "score": -36, "costs": 0, "simulationMode": [null, null, null, null, null], "rewards": [-2, 4, -8, 13, -43], "path": ["0", "0", "23", "24", "25", "26", "29"], "rt": [1675, 257, 193, 285, 182], "actions": ["left", "left", "left", "up", "left"], "actionTimes": [4400, 5177, 5879, 6672, 7384], "queries": {"click": {"state": {"target": [], "time": []}, "edge": {"target": [], "time": []}}, "mouseover": {"state": {"target": ["23"], "time": [3516]}, "edge": {"target": [], "time": []}}, "mouseout": {"state": {"target": ["0", "23", "0", "1"], "time": [3482, 36957, 37581, 37830]}, "edge": {"target": [], "time": []}}}, "displayed_time": "16.78", "trialTime": 43608, "trial_type": "mouselab-mdp", "trial_index": 34, "time_elapsed": 3067545, "internal_node_id": "0.0-6.0-1.0-19.0"}}, {"uniqueid": "w56093570:a57247005", "current_trial": 35, "dateTime": 1693568871882, "trialdata": {"revealed_states": [], "clicked_states": [], "num_clicks_accrued": [0, 0, 0, 0, 0, 0, 0, 0, 0, 0, 0, 0, 0], "stateRewards": ["", -1, -2, -8, 8, -27, -82, 19, -14, -62, 4, 1, -2, 2, 6, 10, 73, -51, -2, 2, 73, -48, 54, -1, 2, -4, 11, -25, 47, 86, 15, 33, 43, -42], "withholdReward": false, "trial_id": "mdp_trial_21", "block": "test", "trialIndex": 24, "score": 62, "costs": 0, "simulationMode": [null, null, null, null, null], "rewards": [-2, 2, 6, 2, 54], "path": ["0", "0", "12", "13", "14", "19", "22"], "rt": [1524, 263, 115, 1020, 313], "actions": ["right", "right", "right", "down", "left"], "actionTimes": [3535, 4321, 4951, 6496, 7337], "queries": {"click": {"state": {"target": [], "time": []}, "edge": {"target": [], "time": []}}, "mouseover": {"state": {"target": [], "time": []}, "edge": {"target": [], "time": []}}, "mouseout": {"state": {"target": ["0", "13"], "time": [91984, 92258]}, "edge": {"target": [], "time": []}}}, "displayed_time": "16.07", "trialTime": 93288, "trial_type": "mouselab-mdp", "trial_index": 35, "time_elapsed": 3161393, "internal_node_id": "0.0-6.0-1.0-20.0"}}, {"uniqueid": "w56093570:a57247005", "current_trial": 36, "dateTime": 1693568891740, "trialdata": {"revealed_states": [], "clicked_states": [], "num_clicks_accrued": [0, 0, 0, 0, 0, 0, 0, 0, 0, 0, 0, 0, 0], "stateRewards": ["", -2, -1, -4, -15, -14, -67, 32, -3, -59, 63, 31, 2, -1, -7, -15, 71, -66, -27, -3, -54, -39, 72, 2, 1, 1, -13, 77, -40, 35, -9, 35, 75, 57], "withholdReward": false, "trial_id": "mdp_trial_22", "block": "test", "trialIndex": 25, "score": -63, "costs": 0, "simulationMode": [null, null, null, null, null], "rewards": [2, -1, -7, -3, -54], "path": ["0", "0", "12", "13", "14", "19", "20"], "rt": [1588, 59, 234, 360, 260], "actions": ["right", "right", "right", "down", "right"], "actionTimes": [4836, 5444, 6188, 7085, 7893], "queries": {"click": {"state": {"target": [], "time": []}, "edge": {"target": [], "time": []}}, "mouseover": {"state": {"target": [], "time": []}, "edge": {"target": [], "time": []}}, "mouseout": {"state": {"target": ["28", "0", "12"], "time": [1683, 9588, 9626]}, "edge": {"target": [], "time": []}}}, "displayed_time": "17.30", "trialTime": 19309, "trial_type": "mouselab-mdp", "trial_index": 36, "time_elapsed": 3181250, "internal_node_id": "0.0-6.0-1.0-21.0"}}, {"uniqueid": "w56093570:a57247005", "current_trial": 37, "dateTime": 1693568910660, "trialdata": {"revealed_states": [], "clicked_states": [], "num_clicks_accrued": [0, 0, 0, 0, 0, 0, 0, 0, 0, 0, 0, 0, 0], "stateRewards": ["", 2, 3, -1, 16, -78, -11, 46, 2, -20, 79, -67, 2, 3, 2, 11, -83, -42, -58, -11, -67, -22, 55, 2, -1, -1, -16, -83, -82, 23, -11, -29, 13, 13], "withholdReward": false, "trial_id": "mdp_trial_23", "block": "test", "trialIndex": 26, "score": -40, "costs": 0, "simulationMode": [null, null, null, null, null], "rewards": [2, -1, -1, -11, -29], "path": ["0", "0", "23", "24", "25", "30", "31"], "rt": [1389, 194, 137, 410, 252], "actions": ["left", "left", "left", "down", "right"], "actionTimes": [3995, 4716, 5365, 6301, 7061], "queries": {"click": {"state": {"target": [], "time": []}, "edge": {"target": [], "time": []}}, "mouseover": {"state": {"target": [], "time": []}, "edge": {"target": [], "time": []}}, "mouseout": {"state": {"target": ["20", "13", "0", "12"], "time": [1240, 1703, 8595, 8704]}, "edge": {"target": [], "time": []}}}, "displayed_time": "16.68", "trialTime": 18389, "trial_type": "mouselab-mdp", "trial_index": 37, "time_elapsed": 3200171, "internal_node_id": "0.0-6.0-1.0-22.0"}}, {"uniqueid": "w56093570:a57247005", "current_trial": 38, "dateTime": 1693568938532, "trialdata": {"revealed_states": [], "clicked_states": [], "num_clicks_accrued": [0, 0, 0, 0, 0, 0, 0, 0, 0, 0, 0, 0, 0], "stateRewards": ["", 2, -3, -5, 5, 11, -9, -33, 6, 67, 6, -30, -1, -2, -6, 13, 55, 13, 72, -14, 75, 21, -66, -2, -4, 6, 15, -1, -35, 60, 2, 51, -73, 12], "withholdReward": false, "trial_id": "mdp_trial_24", "block": "test", "trialIndex": 27, "score": 6, "costs": 0, "simulationMode": [null, null, null, null, null], "rewards": [2, -3, -5, 6, 6], "path": ["0", "0", "1", "2", "3", "8", "10"], "rt": [1615, 134, 223, 430, 136], "actions": ["up", "up", "up", "left", "down"], "actionTimes": [4673, 5313, 6050, 7011, 7674], "queries": {"click": {"state": {"target": [], "time": []}, "edge": {"target": [], "time": []}}, "mouseover": {"state": {"target": [], "time": []}, "edge": {"target": [], "time": []}}, "mouseout": {"state": {"target": ["14", "14", "23", "12", "16"], "time": [1606, 1862, 2211, 8903, 8938]}, "edge": {"target": [], "time": []}}}, "displayed_time": "17.37", "trialTime": 27315, "trial_type": "mouselab-mdp", "trial_index": 38, "time_elapsed": 3228042, "internal_node_id": "0.0-6.0-1.0-23.0"}}, {"uniqueid": "w56093570:a57247005", "current_trial": 39, "dateTime": 1693568957827, "trialdata": {"revealed_states": [], "clicked_states": [], "num_clicks_accrued": [0, 0, 0, 0, 0, 0, 0, 0, 0, 0, 0, 0, 0], "stateRewards": ["", 2, -1, -1, -9, -81, -30, 55, -6, 78, 25, 62, 2, 4, -1, 9, -85, 1, -19, 1, -60, 12, -34, 1, 4, -1, -13, -24, -16, -83, -8, 16, 43, 9], "withholdReward": false, "trial_id": "mdp_trial_25", "block": "test", "trialIndex": 28, "score": -54, "costs": 0, "simulationMode": [null, null, null, null, null], "rewards": [2, 4, -1, 1, -60], "path": ["0", "0", "12", "13", "14", "19", "20"], "rt": [1552, 15, 556, 168, 418], "actions": ["right", "right", "right", "down", "right"], "actionTimes": [4236, 4767, 5876, 6573, 7500], "queries": {"click": {"state": {"target": [], "time": []}, "edge": {"target": [], "time": []}}, "mouseover": {"state": {"target": [], "time": []}, "edge": {"target": [], "time": []}}, "mouseout": {"state": {"target": ["32", "0"], "time": [1252, 10938]}, "edge": {"target": [], "time": []}}}, "displayed_time": "16.97", "trialTime": 18764, "trial_type": "mouselab-mdp", "trial_index": 39, "time_elapsed": 3247338, "internal_node_id": "0.0-6.0-1.0-24.0"}}, {"uniqueid": "w56093570:a57247005", "current_trial": 40, "dateTime": 1693568976579, "trialdata": {"revealed_states": [], "clicked_states": [], "num_clicks_accrued": [0, 0, 0, 0, 0, 0, 0, 0, 0, 0, 0, 0, 0], "stateRewards": ["", 1, -2, 7, -14, 88, -56, -44, -14, 64, -51, -57, -2, 3, -4, -9, -11, 19, -77, -1, 68, 75, -67, -1, 1, -2, 5, -37, 70, -34, -10, -72, 63, -41], "withholdReward": false, "trial_id": "mdp_trial_26", "block": "test", "trialIndex": 29, "score": -59, "costs": 0, "simulationMode": [null, null, null, null, null], "rewards": [1, -2, 7, -14, -51], "path": ["0", "0", "1", "2", "3", "8", "10"], "rt": [1702, 362, 61, 856, 442], "actions": ["up", "up", "up", "left", "down"], "actionTimes": [4296, 5191, 5767, 7152, 8120], "queries": {"click": {"state": {"target": [], "time": []}, "edge": {"target": [], "time": []}}, "mouseover": {"state": {"target": [], "time": []}, "edge": {"target": [], "time": []}}, "mouseout": {"state": {"target": ["0", "23", "25", "24", "23"], "time": [15306, 15338, 15583, 15638, 15685]}, "edge": {"target": [], "time": []}}}, "displayed_time": "16.64", "trialTime": 18224, "trial_type": "mouselab-mdp", "trial_index": 40, "time_elapsed": 3266090, "internal_node_id": "0.0-6.0-1.0-25.0"}}, {"uniqueid": "w56093570:a57247005", "current_trial": 41, "dateTime": 1693568996666, "trialdata": {"revealed_states": [], "clicked_states": [], "num_clicks_accrued": [0, 0, 0, 0, 0, 0, 0, 0, 0, 0, 0, 0, 0], "stateRewards": ["", 1, -1, 8, -3, 38, 85, -20, -4, 8, 23, 73, 2, -4, 6, -13, 44, 7, -28, -11, -77, 45, -69, 1, -1, -7, -11, 75, -51, -87, 7, 36, -53, -26], "withholdReward": false, "trial_id": "mdp_trial_27", "block": "test", "trialIndex": 30, "score": 57, "costs": 0, "simulationMode": [null, null, null, null, null], "rewards": [1, -1, -7, -11, 75], "path": ["0", "0", "23", "24", "25", "26", "27"], "rt": [1810, 208, 484, 230, 39], "actions": ["left", "left", "left", "up", "up"], "actionTimes": [4450, 5169, 6161, 6914, 7489], "queries": {"click": {"state": {"target": [], "time": []}, "edge": {"target": [], "time": []}}, "mouseover": {"state": {"target": [], "time": []}, "edge": {"target": [], "time": []}}, "mouseout": {"state": {"target": ["0", "0", "19"], "time": [2093, 12228, 18196]}, "edge": {"target": [], "time": []}}}, "displayed_time": "16.81", "trialTime": 19561, "trial_type": "mouselab-mdp", "trial_index": 41, "time_elapsed": 3286177, "internal_node_id": "0.0-6.0-1.0-26.0"}}, {"uniqueid": "w56093570:a57247005", "current_trial": 42, "dateTime": 1693569015820, "trialdata": {"revealed_states": [], "clicked_states": [], "num_clicks_accrued": [0, 0, 0, 0, 0, 0, 0, 0, 0, 0, 0, 0, 0], "stateRewards": ["", 2, 3, 8, 11, 25, -80, 6, -4, -56, 84, -23, -2, -4, -3, 4, -51, -9, -61, -15, -64, 67, -35, 1, -1, -7, -6, 83, 59, -15, 12, -79, 56, 41], "withholdReward": false, "trial_id": "mdp_trial_28", "block": "test", "trialIndex": 31, "score": 49, "costs": 0, "simulationMode": [null, null, null, null, null], "rewards": [2, 3, 8, 11, 25], "path": ["0", "0", "1", "2", "3", "4", "5"], "rt": [1884, 292, 472, 134, 708], "actions": ["up", "up", "up", "right", "up"], "actionTimes": [4571, 5404, 6418, 7082, 8308], "queries": {"click": {"state": {"target": [], "time": []}, "edge": {"target": [], "time": []}}, "mouseover": {"state": {"target": [], "time": []}, "edge": {"target": [], "time": []}}, "mouseout": {"state": {"target": ["0", "28", "24"], "time": [9467, 13173, 15456]}, "edge": {"target": [], "time": []}}}, "displayed_time": "17.05", "trialTime": 18627, "trial_type": "mouselab-mdp", "trial_index": 42, "time_elapsed": 3305330, "internal_node_id": "0.0-6.0-1.0-27.0"}}, {"uniqueid": "w56093570:a57247005", "current_trial": 43, "dateTime": 1693569036572, "trialdata": {"revealed_states": [], "clicked_states": [], "num_clicks_accrued": [0, 0, 0, 0, 0, 0, 0, 0, 0, 0, 0, 0, 0], "stateRewards": ["", 2, 4, 7, 7, -79, -2, -21, -5, -53, 47, -21, 1, -3, -1, 7, 83, 7, 84, -7, 80, -37, 69, 2, -4, 5, 2, 4, -20, -30, 7, 71, 44, -81], "withholdReward": false, "trial_id": "mdp_trial_29", "block": "test", "trialIndex": 32, "score": 70, "costs": 0, "simulationMode": [null, null, null, null, null], "rewards": [1, -3, -1, -7, 80], "path": ["0", "0", "12", "13", "14", "19", "20"], "rt": [1442, 10, 27, 291, 313], "actions": ["right", "right", "right", "down", "right"], "actionTimes": [5433, 5962, 6527, 7345, 8167], "queries": {"click": {"state": {"target": [], "time": []}, "edge": {"target": [], "time": []}}, "mouseover": {"state": {"target": [], "time": []}, "edge": {"target": [], "time": []}}, "mouseout": {"state": {"target": ["23", "23", "0", "0"], "time": [2870, 3252, 4336, 11824]}, "edge": {"target": [], "time": []}}}, "displayed_time": "18.33", "trialTime": 20200, "trial_type": "mouselab-mdp", "trial_index": 43, "time_elapsed": 3326083, "internal_node_id": "0.0-6.0-1.0-28.0"}}, {"uniqueid": "w56093570:a57247005", "current_trial": 44, "dateTime": 1693569055261, "trialdata": {"revealed_states": [], "clicked_states": [], "num_clicks_accrued": [0, 0, 0, 0, 0, 0, 0, 0, 0, 0, 0, 0, 0], "stateRewards": ["", 2, 3, 8, 14, 69, -27, 17, 2, -71, -65, -10, 2, -3, 7, 8, 65, -10, 65, -12, 73, -12, 13, -2, -2, 6, 10, -79, -69, -18, 10, -85, 67, 74], "withholdReward": false, "trial_id": "mdp_trial_30", "block": "test", "trialIndex": 33, "score": 79, "costs": 0, "simulationMode": [null, null, null, null, null], "rewards": [2, -3, 7, 8, 65], "path": ["0", "0", "12", "13", "14", "15", "18"], "rt": [1991, 411, 426, 163, 810], "actions": ["right", "right", "right", "up", "left"], "actionTimes": [4364, 5291, 6227, 6900, 8227], "queries": {"click": {"state": {"target": [], "time": []}, "edge": {"target": [], "time": []}}, "mouseover": {"state": {"target": [], "time": []}, "edge": {"target": [], "time": []}}, "mouseout": {"state": {"target": ["0", "0", "12"], "time": [12610, 13006, 13269]}, "edge": {"target": [], "time": []}}}, "displayed_time": "16.78", "trialTime": 18148, "trial_type": "mouselab-mdp", "trial_index": 44, "time_elapsed": 3344771, "internal_node_id": "0.0-6.0-1.0-29.0"}}, {"uniqueid": "w56093570:a57247005", "current_trial": 45, "dateTime": 1693569073372, "trialdata": {"revealed_states": [], "clicked_states": [], "num_clicks_accrued": [0, 0, 0, 0, 0, 0, 0, 0, 0, 0, 0, 0, 0], "stateRewards": ["", -1, -2, 8, -6, -79, -6, 87, 9, -5, -66, -38, 2, 2, 5, -6, -82, 74, 85, -8, 67, -30, -15, 1, -2, -2, -2, 87, 64, 49, 7, 2, -38, -9], "withholdReward": false, "trial_id": "mdp_trial_31", "block": "test", "trialIndex": 34, "score": 6, "costs": 0, "simulationMode": [null, null, null, null, null], "rewards": [1, -2, -2, 7, 2], "path": ["0", "0", "23", "24", "25", "30", "31"], "rt": [1433, 166, 89, 281, 587], "actions": ["left", "left", "left", "down", "right"], "actionTimes": [3671, 4360, 4983, 5768, 6903], "queries": {"click": {"state": {"target": [], "time": []}, "edge": {"target": [], "time": []}}, "mouseover": {"state": {"target": [], "time": []}, "edge": {"target": [], "time": []}}, "mouseout": {"state": {"target": ["0", "12", "0", "13", "15", "14", "13", "12"], "time": [8717, 8911, 8957, 10351, 10554, 11036, 11100, 11333]}, "edge": {"target": [], "time": []}}}, "displayed_time": "16.43", "trialTime": 17561, "trial_type": "mouselab-mdp", "trial_index": 45, "time_elapsed": 3362883, "internal_node_id": "0.0-6.0-1.0-30.0"}}, {"uniqueid": "w56093570:a57247005", "current_trial": 46, "dateTime": 1693569093387, "trialdata": {"revealed_states": [], "clicked_states": [], "num_clicks_accrued": [0, 0, 0, 0, 0, 0, 0, 0, 0, 0, 0, 0, 0], "stateRewards": ["", 1, 1, -5, 10, -31, 73, 14, -8, -23, 63, -70, -1, 2, 8, 7, 25, -59, 27, -10, -40, -71, -15, -2, 3, -8, -5, -19, 77, -34, 7, 67, 63, 19], "withholdReward": false, "trial_id": "mdp_trial_32", "block": "test", "trialIndex": 35, "score": -24, "costs": 0, "simulationMode": [null, null, null, null, null], "rewards": [1, 1, -5, 10, -31], "path": ["0", "0", "1", "2", "3", "4", "5"], "rt": [1447, 308, 302, 123, 214], "actions": ["up", "up", "up", "right", "up"], "actionTimes": [4141, 4966, 5797, 6462, 7190], "queries": {"click": {"state": {"target": [], "time": []}, "edge": {"target": [], "time": []}}, "mouseover": {"state": {"target": [], "time": []}, "edge": {"target": [], "time": []}}, "mouseout": {"state": {"target": ["23", "0", "23", "0"], "time": [1442, 11617, 11696, 11729]}, "edge": {"target": [], "time": []}}}, "displayed_time": "17.02", "trialTime": 19436, "trial_type": "mouselab-mdp", "trial_index": 46, "time_elapsed": 3382897, "internal_node_id": "0.0-6.0-1.0-31.0"}}, {"uniqueid": "w56093570:a57247005", "current_trial": 47, "dateTime": 1693569111443, "trialdata": {"revealed_states": [], "clicked_states": [], "num_clicks_accrued": [0, 0, 0, 0, 0, 0, 0, 0, 0, 0, 0, 0, 0], "stateRewards": ["", -1, 3, 8, 10, -86, 61, -36, 10, 17, -60, 24, -1, -3, 3, 11, 50, 60, 33, -3, -20, 58, -6, 1, -4, -4, 13, -70, -71, 43, 14, 52, 82, -11], "withholdReward": false, "trial_id": "mdp_trial_33", "block": "test", "trialIndex": 36, "score": 37, "costs": 0, "simulationMode": [null, null, null, null, null], "rewards": [-1, 3, 8, 10, 17], "path": ["0", "0", "1", "2", "3", "8", "9"], "rt": [1228, 15, 9, 33, 382], "actions": ["up", "up", "up", "left", "up"], "actionTimes": [3102, 3647, 4190, 4781, 5694], "queries": {"click": {"state": {"target": [], "time": []}, "edge": {"target": [], "time": []}}, "mouseover": {"state": {"target": [], "time": []}, "edge": {"target": [], "time": []}}, "mouseout": {"state": {"target": ["0", "12"], "time": [8217, 8973]}, "edge": {"target": [], "time": []}}}, "displayed_time": "15.95", "trialTime": 17518, "trial_type": "mouselab-mdp", "trial_index": 47, "time_elapsed": 3400954, "internal_node_id": "0.0-6.0-1.0-32.0"}}, {"uniqueid": "w56093570:a57247005", "current_trial": 48, "dateTime": 1693569129620, "trialdata": {"revealed_states": [], "clicked_states": [], "num_clicks_accrued": [0, 0, 0, 0, 0, 0, 0, 0, 0, 0, 0, 0, 0], "stateRewards": ["", 1, 1, 1, 15, -76, 52, -32, 14, -57, 37, 49, 1, -4, -3, 6, 83, -76, 25, 9, 36, -1, -17, -1, 4, 4, -2, -22, -21, 58, -15, -57, 49, -24], "withholdReward": false, "trial_id": "mdp_trial_34", "block": "test", "trialIndex": 37, "score": -65, "costs": 0, "simulationMode": [null, null, null, null, null], "rewards": [-1, 4, 4, -15, -57], "path": ["0", "0", "23", "24", "25", "30", "31"], "rt": [1370, 204, 456, 223, 520], "actions": ["left", "left", "left", "down", "right"], "actionTimes": [3279, 4015, 4982, 5743, 6799], "queries": {"click": {"state": {"target": [], "time": []}, "edge": {"target": [], "time": []}}, "mouseover": {"state": {"target": [], "time": []}, "edge": {"target": [], "time": []}}, "mouseout": {"state": {"target": ["0", "0"], "time": [1024, 9201]}, "edge": {"target": [], "time": []}}}, "displayed_time": "16.00", "trialTime": 17639, "trial_type": "mouselab-mdp", "trial_index": 48, "time_elapsed": 3419131, "internal_node_id": "0.0-6.0-1.0-33.0"}}, {"uniqueid": "w56093570:a57247005", "current_trial": 49, "dateTime": 1693569149035, "trialdata": {"revealed_states": [], "clicked_states": [], "num_clicks_accrued": [0, 0, 0, 0, 0, 0, 0, 0, 0, 0, 0, 0, 0], "stateRewards": ["", 1, 2, -6, -13, -51, 22, -4, -12, -44, -12, 6, -2, -2, -2, -14, -46, -4, -77, -2, 36, -79, 41, 2, -4, 2, -6, -55, 59, 70, -5, 39, -19, 24], "withholdReward": false, "trial_id": "mdp_trial_35", "block": "test", "trialIndex": 38, "score": -24, "costs": 0, "simulationMode": [null, null, null, null, null], "rewards": [-2, -2, -2, -14, -4], "path": ["0", "0", "12", "13", "14", "15", "17"], "rt": [1575, 147, 135, 426, 367], "actions": ["right", "right", "right", "up", "right"], "actionTimes": [4129, 4802, 5473, 6434, 7305], "queries": {"click": {"state": {"target": [], "time": []}, "edge": {"target": [], "time": []}}, "mouseover": {"state": {"target": [], "time": []}, "edge": {"target": [], "time": []}}, "mouseout": {"state": {"target": ["12", "0", "20", "21"], "time": [1230, 16893, 17079, 17149]}, "edge": {"target": [], "time": []}}}, "displayed_time": "16.76", "trialTime": 18881, "trial_type": "mouselab-mdp", "trial_index": 49, "time_elapsed": 3438546, "internal_node_id": "0.0-6.0-1.0-34.0"}}, {"uniqueid": "w56093570:a57247005", "current_trial": 50, "dateTime": 1693569167333, "trialdata": {"revealed_states": [], "clicked_states": [], "num_clicks_accrued": [0, 0, 0, 0, 0, 0, 0, 0, 0, 0, 0, 0, 0], "stateRewards": ["", 2, 4, 4, 9, -88, -10, 44, 16, -54, 64, 78, 1, 2, 5, 16, 80, 36, 7, -4, 9, -47, -70, -1, -3, 6, -16, 11, 80, 28, 8, -1, 34, -17], "withholdReward": false, "trial_id": "mdp_trial_36", "block": "test", "trialIndex": 39, "score": 63, "costs": 0, "simulationMode": [null, null, null, null, null], "rewards": [2, 4, 4, 9, 44], "path": ["0", "0", "1", "2", "3", "4", "7"], "rt": [1412, 136, 92, 243, 215], "actions": ["up", "up", "up", "right", "down"], "actionTimes": [3052, 3723, 4331, 5082, 5802], "queries": {"click": {"state": {"target": [], "time": []}, "edge": {"target": [], "time": []}}, "mouseover": {"state": {"target": [], "time": []}, "edge": {"target": [], "time": []}}, "mouseout": {"state": {"target": ["12", "0", "18"], "time": [973, 15449, 16832]}, "edge": {"target": [], "time": []}}}, "displayed_time": "15.83", "trialTime": 17764, "trial_type": "mouselab-mdp", "trial_index": 50, "time_elapsed": 3456844, "internal_node_id": "0.0-6.0-1.0-35.0"}}, {"uniqueid": "w56093570:a57247005", "current_trial": 51, "dateTime": 1693569185308, "trialdata": {"revealed_states": [], "clicked_states": [], "num_clicks_accrued": [0, 0, 0, 0, 0, 0, 0, 0, 0, 0, 0, 0, 0], "stateRewards": ["", 2, 4, 4, -8, -36, -33, 38, 16, -51, 57, 57, 1, 3, 4, -6, 45, 68, 87, 1, 63, 24, -55, -2, 2, -6, -13, -63, -50, 8, 2, 80, 6, 60], "withholdReward": false, "trial_id": "mdp_trial_37", "block": "test", "trialIndex": 40, "score": 76, "costs": 0, "simulationMode": [null, null, null, null, null], "rewards": [-2, 2, -6, 2, 80], "path": ["0", "0", "23", "24", "25", "30", "31"], "rt": [1718, 370, 173, 390, 382], "actions": ["left", "left", "left", "down", "right"], "actionTimes": [3672, 4562, 5282, 6202, 7114], "queries": {"click": {"state": {"target": [], "time": []}, "edge": {"target": [], "time": []}}, "mouseover": {"state": {"target": [], "time": []}, "edge": {"target": [], "time": []}}, "mouseout": {"state": {"target": ["10", "28", "0", "18"], "time": [235, 989, 9338, 9426]}, "edge": {"target": [], "time": []}}}, "displayed_time": "16.05", "trialTime": 17441, "trial_type": "mouselab-mdp", "trial_index": 51, "time_elapsed": 3474819, "internal_node_id": "0.0-6.0-1.0-36.0"}}, {"uniqueid": "w56093570:a57247005", "current_trial": 52, "dateTime": 1693569203918, "trialdata": {"revealed_states": [], "clicked_states": [], "num_clicks_accrued": [0, 0, 0, 0, 0, 0, 0, 0, 0, 0, 0, 0, 0], "stateRewards": ["", 1, -4, -4, 8, 1, -79, 68, -10, -79, 8, -74, -1, -3, -6, 14, 43, 23, 9, 5, -51, 63, 61, -2, 4, 6, -10, 69, -32, 57, 15, -80, -80, -77], "withholdReward": false, "trial_id": "mdp_trial_38", "block": "test", "trialIndex": 41, "score": -9, "costs": 0, "simulationMode": [null, null, null, null, null], "rewards": [1, -4, -4, -10, 8], "path": ["0", "0", "1", "2", "3", "8", "10"], "rt": [1494, 147, 164, 229, 348], "actions": ["up", "up", "up", "left", "down"], "actionTimes": [3788, 4453, 5150, 6014, 6887], "queries": {"click": {"state": {"target": [], "time": []}, "edge": {"target": [], "time": []}}, "mouseover": {"state": {"target": [], "time": []}, "edge": {"target": [], "time": []}}, "mouseout": {"state": {"target": ["18", "30", "24", "23", "0", "0", "0", "1"], "time": [638, 919, 1216, 1500, 8188, 8785, 12156, 12554]}, "edge": {"target": [], "time": []}}}, "displayed_time": "16.48", "trialTime": 18078, "trial_type": "mouselab-mdp", "trial_index": 52, "time_elapsed": 3493428, "internal_node_id": "0.0-6.0-1.0-37.0"}}, {"uniqueid": "w56093570:a57247005", "current_trial": 53, "dateTime": 1693569221358, "trialdata": {"revealed_states": [], "clicked_states": [], "num_clicks_accrued": [0, 0, 0, 0, 0, 0, 0, 0, 0, 0, 0, 0, 0], "stateRewards": ["", -1, -1, 7, -15, -43, -21, -84, -9, -45, -66, 2, 1, -2, 2, 8, -27, 44, -52, -5, -84, 11, 53, 1, 4, -4, 16, 83, -82, -15, -16, 68, -43, 81], "withholdReward": false, "trial_id": "mdp_trial_39", "block": "test", "trialIndex": 42, "score": -88, "costs": 0, "simulationMode": [null, null, null, null, null], "rewards": [1, -2, 2, -5, -84], "path": ["0", "0", "12", "13", "14", "19", "20"], "rt": [1597, 198, 396, 229, 363], "actions": ["right", "right", "right", "down", "right"], "actionTimes": [2995, 3725, 4668, 5420, 6316], "queries": {"click": {"state": {"target": [], "time": []}, "edge": {"target": [], "time": []}}, "mouseover": {"state": {"target": [], "time": []}, "edge": {"target": [], "time": []}}, "mouseout": {"state": {"target": ["0", "0"], "time": [2055, 10689]}, "edge": {"target": [], "time": []}}}, "displayed_time": "15.77", "trialTime": 16892, "trial_type": "mouselab-mdp", "trial_index": 53, "time_elapsed": 3510868, "internal_node_id": "0.0-6.0-1.0-38.0"}}, {"uniqueid": "w56093570:a57247005", "current_trial": 54, "dateTime": 1693569245590, "trialdata": {"revealed_states": [], "clicked_states": [], "num_clicks_accrued": [0, 0, 0, 0, 0, 0, 0, 0, 0, 0, 0, 0, 0], "stateRewards": ["", 1, 2, 8, -2, 23, -69, -18, -16, 54, -21, 71, -1, -4, 7, 11, 43, -6, 88, 6, -55, 72, 43, 1, -3, -2, -1, 68, -31, -54, 4, -8, 25, -2], "withholdReward": false, "trial_id": "mdp_trial_40", "block": "test", "trialIndex": 43, "score": -8, "costs": 0, "simulationMode": [null, null, null, null, null], "rewards": [1, -3, -2, 4, -8], "path": ["0", "0", "23", "24", "25", "30", "31"], "rt": [2308, 27, 24, 362, 412], "actions": ["left", "left", "left", "down", "right"], "actionTimes": [5055, 5598, 6150, 7023, 7967], "queries": {"click": {"state": {"target": [], "time": []}, "edge": {"target": [], "time": []}}, "mouseover": {"state": {"target": [], "time": []}, "edge": {"target": [], "time": []}}, "mouseout": {"state": {"target": ["0"], "time": [11709]}, "edge": {"target": [], "time": []}}}, "displayed_time": "16.81", "trialTime": 23687, "trial_type": "mouselab-mdp", "trial_index": 54, "time_elapsed": 3535100, "internal_node_id": "0.0-6.0-1.0-39.0"}}, {"uniqueid": "w56093570:a57247005", "current_trial": 55, "dateTime": 1693569383132, "trialdata": {"rt": 137536, "response": {"Q0": "$-2 to $2", "Q1": "$-16 to $16", "Q2": "$-16 to $16", "Q3": "The cost was always $1.4.", "Q4": "Slightly motivated"}, "question_order": [0, 1, 2, 3, 4], "trial_id": "final_quiz_control", "trial_type": "survey-multi-choice", "trial_index": 55, "time_elapsed": 3672643, "internal_node_id": "0.0-6.0-2.0"}}, {"uniqueid": "w56093570:a57247005", "current_trial": 56, "dateTime": 1693570413480, "trialdata": {"rt": 1030342, "response": {"Q0": "at first I thought I would look at the nodes before the last move but then i realised it wasnt helping so i didnt have one going forward\n", "Q1": "no. eliminated it.", "Q2": "very"}, "trial_id": "self_report_control", "trial_type": "survey-text", "trial_index": 56, "time_elapsed": 4702991, "internal_node_id": "0.0-6.0-3.0"}}, {"uniqueid": "w56093570:a57247005", "current_trial": 57, "dateTime": 1693570447470, "trialdata": {"rt": 33983, "response": {"gender": "female", "age": "25", "colorblind": "0", "effort": "1"}, "trial_type": "survey-html-form", "trial_index": 57, "time_elapsed": 4736980, "internal_node_id": "0.0-6.0-4.0"}}, {"uniqueid": "w56093570:a57247005", "current_trial": 58, "dateTime": 1693570480376, "trialdata": {"rt": 32899, "response": {"Q0": "no", "Q1": "no. I havent participated before.", "Q2": ""}, "trial_type": "survey-text", "trial_index": 58, "time_elapsed": 4769887, "internal_node_id": "0.0-6.0-5.0"}}, {"uniqueid": "w56093570:a57247005", "current_trial": 59, "dateTime": 1693570482376, "trialdata": {"rt": 1998, "stimulus": "<h1>Completion Code Instructions (1/2)</h1>\n<br><br><br><br>\nYou have reached the end of the experiment! The completion code consists of two parts: (1) a code with 2 characters (2) a code with 6 characters. On this page, you will receive the second part of the code. The first part of the completion code will be on the next page.\n<br><br>\nThe second part of your completion code is: <b>EWEK22</b>\n<br><br>\nPlease note this down. Then, press 'Finish HIT' in order to find the first part of your completion code. Once the data has been saved, you will receive this code either in this window or in the original browser window where you started the experiment.\n", "response": 0, "trial_type": "html-button-response", "trial_index": 59, "time_elapsed": 4771887, "internal_node_id": "0.0-6.0-6.0"}}, {"uniqueid": "w56093570:a57247005", "current_trial": 60, "dateTime": 1693570483396, "trialdata": {"success": true, "trial_type": "fullscreen", "trial_index": 60, "time_elapsed": 4772907, "internal_node_id": "0.0-7.0"}}], "questiondata": {"params": {"CODE": "C6DMOQA6", "MIN_TIME": 14, "inspectCost": 1, "startTime": "Fri Sep 01 2023 12:55:05 GMT+0200 (South Africa Standard Time)", "bonusRate": 0.002, "variance": "1_2_4_8_44", "branching": "31123"}, "final_score": -88.8}, "eventdata": [{"eventtype": "initialized", "value": null, "timestamp": 1693565704696, "interval": 0}, {"eventtype": "window_resize", "value": [1024, 648], "timestamp": 1693565704696, "interval": 0}, {"eventtype": "focus", "value": "on", "timestamp": 1693565704961, "interval": 265}, {"eventtype": "window_resize", "value": [1024, 648], "timestamp": 1693565705163, "interval": 202}, {"eventtype": "window_resize", "value": [1366, 664], "timestamp": 1693565715066, "interval": 9903}, {"eventtype": "window_resize", "value": [1366, 768], "timestamp": 1693565721722, "interval": 6656}, {"eventtype": "focus", "value": "off", "timestamp": 1693566157474, "interval": 435752}, {"eventtype": "focus", "value": "on", "timestamp": 1693566157474, "interval": 0}, {"eventtype": "focus", "value": "off", "timestamp": 1693566233413, "interval": 75939}, {"eventtype": "focus", "value": "on", "timestamp": 1693566276977, "interval": 43564}, {"eventtype": "focus", "value": "off", "timestamp": 1693566310004, "interval": 33027}, {"eventtype": "focus", "value": "on", "timestamp": 1693566310436, "interval": 432}, {"eventtype": "window_resize", "value": [1366, 664], "timestamp": 1693569259332, "interval": 2948896}, {"eventtype": "focus", "value": "off", "timestamp": 1693569261121, "interval": 1789}, {"eventtype": "focus", "value": "on", "timestamp": 1693569336309, "interval": 75188}, {"eventtype": "focus", "value": "off", "timestamp": 1693569508356, "interval": 172047}, {"eventtype": "focus", "value": "on", "timestamp": 1693570367125, "interval": 858769}], "useragent": "Mozilla/5.0 (Windows NT 10.0; Win64; x64; rv:109.0) Gecko/20100101 Firefox/117.0", "mode": "live", "id": "w56093570:a57247005", "status": "user data saved", "Beginhit": "2023-09-01 10:53:06.753721", "Beginexp": "2023-09-01 10:53:31.507227", "Endhit": "2023-09-01 12:12:54.831929", "psiturkStatus": 3, "browser": "<redacted>", "platform": "windows", "language": "en-US", "excludeReason": "exceededTime"}