{"condition": 0, "counterbalance": 0, "assignmentId": "a84829169", "workerId": "w84016798", "hitId": "h71411368", "currenttrial": 55, "bonus": 0, "data": [{"uniqueid": "w84016798:a84829169", "current_trial": 0, "dateTime": 1693480894219, "trialdata": {"success": true, "trial_type": "fullscreen", "trial_index": 0, "time_elapsed": 19746, "internal_node_id": "0.0-0.0"}}, {"uniqueid": "w84016798:a84829169", "current_trial": 1, "dateTime": 1693480916783, "trialdata": {"view_history": [{"page_index": 0, "viewing_time": 22543}], "rt": 22543, "trial_id": "exp_instructions_control", "trial_type": "instructions", "trial_index": 1, "time_elapsed": 42311, "internal_node_id": "0.0-1.0"}}, {"uniqueid": "w84016798:a84829169", "current_trial": 2, "dateTime": 1693481105122, "trialdata": {"view_history": [{"page_index": 0, "viewing_time": 66157}, {"page_index": 1, "viewing_time": 70912}, {"page_index": 2, "viewing_time": 19380}, {"page_index": 3, "viewing_time": 31888}], "rt": 188337, "trial_id": "mouselab_instructions_1_control", "trial_type": "instructions", "trial_index": 2, "time_elapsed": 230650, "internal_node_id": "0.0-2.0-1.0"}}, {"uniqueid": "w84016798:a84829169", "current_trial": 3, "dateTime": 1693481133934, "trialdata": {"revealed_states": [], "clicked_states": ["1", "2", "7", "12", "23", "24", "25", "26", "29"], "num_clicks_accrued": [0, 0, 0, 0, 0, 0, 0, 0, 0, 0, 0, 0, 0], "stateRewards": ["", -10, -10, 10, 10, 10, -10, 10, 10, 10, 10, 10, -10, -10, 10, -10, -10, -10, -10, 10, -10, -10, -10, -10, 10, 10, 10, 10, 10, 10, -10, -10, -10, -10], "withholdReward": false, "trial_id": "practice_1", "block": "test", "trialIndex": 0, "score": 29, "costs": -4.5, "simulationMode": [null, null, null, null, null], "rewards": [-10, 10, 10, 10, 10], "path": ["0", "0", "23", "24", "25", "26", "29"], "rt": [17954, 686, 229, 142, 57], "actions": ["left", "left", "left", "up", "left"], "actionTimes": [20826, 22033, 22771, 23431, 23997], "queries": {"click": {"state": {"target": ["1", "2", "7", "12", "23", "24", "25", "26", "29"], "time": [3659, 5411, 6964, 8281, 10187, 12023, 14161, 15784, 17793]}, "edge": {"target": [], "time": []}}, "mouseover": {"state": {"target": ["1", "2", "7", "12", "23", "24", "25", "25", "26", "30", "29", "25", "31"], "time": [3437, 4120, 6008, 7646, 10026, 11809, 13430, 13785, 15473, 16819, 17572, 19278, 19341]}, "edge": {"target": [], "time": []}}, "mouseout": {"state": {"target": ["0", "1", "2", "7", "12", "12", "23", "24", "25", "25", "26", "25", "30", "29", "25", "31"], "time": [2903, 3978, 5886, 7327, 9538, 9760, 11664, 13401, 13545, 15250, 16471, 16700, 17394, 19249, 19309, 19362]}, "edge": {"target": [], "time": []}}}, "displayed_time": "24.51", "trialTime": 27875, "trial_type": "mouselab-mdp", "trial_index": 3, "time_elapsed": 259460, "internal_node_id": "0.0-2.0-2.0-0.0"}}, {"uniqueid": "w84016798:a84829169", "current_trial": 4, "dateTime": 1693481155241, "trialdata": {"revealed_states": [], "clicked_states": ["23", "1", "12", "19", "15"], "num_clicks_accrued": [0, 0, 0, 0, 0, 0, 0, 0, 0, 0, 0, 0, 0], "stateRewards": ["", -10, -10, -10, -10, -10, 10, 10, 10, 10, 10, 10, 10, -10, 10, -10, 10, -10, -10, 10, -10, 10, 10, -10, 10, -10, -10, -10, 10, 10, 10, 10, -10, -10], "withholdReward": false, "trial_id": "practice_2", "block": "test", "trialIndex": 1, "score": 11, "costs": -2.5, "simulationMode": [null, null, null, null, null], "rewards": [10, -10, 10, 10, -10], "path": ["0", "0", "12", "13", "14", "19", "20"], "rt": [12234, 19, 98, 11, 65], "actions": ["right", "right", "right", "down", "right"], "actionTimes": [15417, 15943, 16561, 17082, 17670], "queries": {"click": {"state": {"target": ["23", "1", "12", "19", "15"], "time": [4148, 5773, 7721, 10039, 12069]}, "edge": {"target": [], "time": []}}, "mouseover": {"state": {"target": ["23", "1", "12", "13", "13", "19", "14", "15", "15", "17", "14"], "time": [3715, 5376, 7274, 9161, 9479, 9841, 11445, 11522, 11886, 13383, 13807]}, "edge": {"target": [], "time": []}}, "mouseout": {"state": {"target": ["26", "26", "1", "0", "23", "1", "12", "13", "13", "19", "14", "15", "15", "15", "17"], "time": [1756, 2093, 2169, 3648, 5150, 7041, 9129, 9239, 9714, 11416, 11496, 11646, 12174, 13238, 13606]}, "edge": {"target": [], "time": []}}}, "displayed_time": "18.18", "trialTime": 20665, "trial_type": "mouselab-mdp", "trial_index": 4, "time_elapsed": 280767, "internal_node_id": "0.0-2.0-2.0-1.0"}}, {"uniqueid": "w84016798:a84829169", "current_trial": 5, "dateTime": 1693481185817, "trialdata": {"view_history": [{"page_index": 0, "viewing_time": 25104}, {"page_index": 1, "viewing_time": 5464}], "rt": 30568, "trial_id": "mouselab_instructions_2_control", "trial_type": "instructions", "trial_index": 5, "time_elapsed": 311345, "internal_node_id": "0.0-2.0-3.0"}}, {"uniqueid": "w84016798:a84829169", "current_trial": 6, "dateTime": 1693481215255, "trialdata": {"rt": 29432, "response": {"Q0": "The cost for clicking on nodes may vary between nodes.", "Q1": "The better I perform the higher my bonus will be.", "Q2": "No, the amount of cash at each node of the web may be different each time.", "Q3": "To get the highest total score.", "Q4": "Only before moving the spider.", "Q5": "3 seconds"}, "question_order": [0, 1, 2, 3, 4, 5], "correct": {"Q0": "The cost for clicking on nodes may vary between nodes.", "Q1": "The better I perform the higher my bonus will be.", "Q2": "No, the amount of cash at each node of the web may be different each time.", "Q3": "To get the highest total score.", "Q4": "Only before moving the spider.", "Q5": "3 seconds"}, "trial_id": "mouselab_quiz_control", "trial_type": "survey-multi-choice", "trial_index": 6, "time_elapsed": 340783, "internal_node_id": "0.0-2.0-4.0"}}, {"uniqueid": "w84016798:a84829169", "current_trial": 7, "dateTime": 1693481222464, "trialdata": {"rt": 7199, "response": {"Q0": "No"}, "question_order": [0], "trial_id": "repeat_check", "trial_type": "survey-multi-choice", "trial_index": 7, "time_elapsed": 347991, "internal_node_id": "0.0-4.0-0.0"}}, {"uniqueid": "w84016798:a84829169", "current_trial": 8, "dateTime": 1693481236858, "trialdata": {"rt": 14386, "stimulus": "\n<h1> Get ready to start the game! </h1>\n\nThank you for reading the instructions. Get ready start with the 40 rounds of this game.\n<br><br>\nIf you need to take a break, feel free to take one after the end of a round, before continuing to the next one.\n<br><br>\nRemember, the more money the spider gets, the bigger your bonus will be!\n<br><br>\n<div style='text-align: center;'>Press <code>space</code> to begin.</div>\n\n<br><br>\n(If, at any point, the <code>space</code> key does not take you to the next page, click once on the text and try again.)", "response": " ", "trial_id": "mdp_ready", "trial_type": "html-keyboard-response", "trial_index": 8, "time_elapsed": 362385, "internal_node_id": "0.0-6.0-0.0"}}, {"uniqueid": "w84016798:a84829169", "current_trial": 9, "dateTime": 1693481261178, "trialdata": {"revealed_states": [], "clicked_states": ["1", "12", "15", "19", "20"], "num_clicks_accrued": [0, 0, 0, 0, 0, 0, 0, 0, 0, 0, 0, 0, 0], "stateRewards": ["", -1, 4, 3, 12, -27, 34, -33, 3, -63, 1, 6, 2, 2, -6, -11, -77, -85, 68, -6, 51, 81, -60, -2, -2, 1, 15, 20, 15, 68, -10, -14, 6, -4], "withholdReward": false, "trial_id": "mdp_trial_1", "block": "test", "trialIndex": 2, "score": 36, "costs": -7, "simulationMode": [null, null, null, null, null], "rewards": [2, 2, -6, -6, 51], "path": ["0", "0", "12", "13", "14", "19", "20"], "rt": [13648, 136, 149, 96, 170], "actions": ["right", "right", "right", "down", "right"], "actionTimes": [16759, 17403, 18064, 18662, 19343], "queries": {"click": {"state": {"target": ["1", "12", "15", "19", "20"], "time": [4028, 5978, 9099, 11479, 13676]}, "edge": {"target": [], "time": []}}, "mouseover": {"state": {"target": ["1", "12", "0", "23", "0", "13", "14", "15", "14", "19", "20", "22"], "time": [3541, 4681, 6326, 6536, 8207, 8497, 8667, 8901, 11059, 11243, 13315, 15922]}, "edge": {"target": [], "time": []}}, "mouseout": {"state": {"target": ["23", "1", "12", "0", "23", "0", "13", "14", "15", "14", "19", "20", "19"], "time": [1581, 4514, 6266, 6389, 8194, 8235, 8600, 8834, 10999, 11143, 13232, 15711, 15888]}, "edge": {"target": [], "time": []}}}, "displayed_time": "19.85", "trialTime": 23656, "trial_type": "mouselab-mdp", "trial_index": 9, "time_elapsed": 386704, "internal_node_id": "0.0-6.0-1.0-0.0"}}, {"uniqueid": "w84016798:a84829169", "current_trial": 10, "dateTime": 1693481296334, "trialdata": {"revealed_states": [], "clicked_states": ["25", "14", "2", "19", "22", "21", "20", "17", "27"], "num_clicks_accrued": [0, 0, 0, 0, 0, 0, 0, 0, 0, 0, 0, 0, 0], "stateRewards": ["", -1, -3, -6, -2, -7, 80, -45, -3, -38, -72, 76, 2, 1, 7, 4, -62, 14, -74, 14, -87, -21, -88, -2, 1, -7, -10, 66, 56, -76, 10, -29, -72, -70], "withholdReward": false, "trial_id": "mdp_trial_2", "block": "test", "trialIndex": 3, "score": 35.4, "costs": -12.600000000000001, "simulationMode": [null, null, null, null, null], "rewards": [-2, 1, -7, -10, 66], "path": ["0", "0", "23", "24", "25", "26", "27"], "rt": [26715, 141, 118, 398, 201], "actions": ["left", "left", "left", "up", "up"], "actionTimes": [28854, 29509, 30149, 31045, 31756], "queries": {"click": {"state": {"target": ["25", "14", "2", "19", "22", "21", "20", "17", "27"], "time": [3533, 5975, 8929, 11871, 14832, 17281, 19497, 22075, 25926]}, "edge": {"target": [], "time": []}}, "mouseover": {"state": {"target": ["23", "24", "25", "24", "23", "0", "12", "13", "14", "13", "1", "2", "7", "4", "13", "19", "20", "21", "22", "21", "19", "20", "19", "14", "15", "17", "15", "18", "28", "26", "27", "26"], "time": [2657, 2874, 3302, 5289, 5332, 5368, 5429, 5509, 5732, 8072, 8188, 8372, 10878, 10978, 11364, 11648, 13938, 14354, 14705, 16995, 18680, 19250, 21412, 21558, 21758, 21908, 24118, 24380, 25166, 25522, 25625, 27754]}, "edge": {"target": [], "time": []}}, "mouseout": {"state": {"target": ["22", "12", "12", "0", "23", "24", "25", "24", "23", "0", "12", "13", "14", "13", "1", "2", "7", "4", "13", "19", "19", "20", "21", "22", "21", "19", "20", "19", "14", "15", "17", "15", "18", "28", "26", "27", "26"], "time": [941, 1039, 1307, 2583, 2757, 3168, 5255, 5313, 5352, 5395, 5480, 5582, 8029, 8120, 8288, 8955, 10906, 11254, 11465, 13467, 13859, 14312, 14571, 16801, 17307, 19173, 20659, 21490, 21624, 21824, 24070, 24319, 24972, 25217, 25563, 27593, 27803]}, "edge": {"target": [], "time": []}}}, "displayed_time": "32.25", "trialTime": 34471, "trial_type": "mouselab-mdp", "trial_index": 10, "time_elapsed": 421860, "internal_node_id": "0.0-6.0-1.0-1.0"}}, {"uniqueid": "w84016798:a84829169", "current_trial": 11, "dateTime": 1693481326758, "trialdata": {"revealed_states": [], "clicked_states": ["23", "1", "12", "27", "16", "17", "18", "22", "21", "20"], "num_clicks_accrued": [0, 0, 0, 0, 0, 0, 0, 0, 0, 0, 0, 0, 0], "stateRewards": ["", -2, -1, -1, 5, -54, -87, 35, 2, -8, 20, -22, 1, 3, 6, 13, -75, -32, -55, -3, 56, 62, -22, -1, -4, -1, -7, -51, 84, 70, 7, -15, 5, 55], "withholdReward": false, "trial_id": "mdp_trial_3", "block": "test", "trialIndex": 4, "score": 55, "costs": -14.000000000000002, "simulationMode": [null, null, null, null, null], "rewards": [1, 3, 6, -3, 62], "path": ["0", "0", "12", "13", "14", "19", "21"], "rt": [22639, 18, 22, 11, 102], "actions": ["right", "right", "right", "down", "down"], "actionTimes": [25077, 25622, 26168, 26702, 27339], "queries": {"click": {"state": {"target": ["23", "1", "12", "27", "16", "17", "18", "22", "21", "20"], "time": [4476, 6686, 8629, 10489, 12555, 14420, 16314, 18219, 20029, 22020]}, "edge": {"target": [], "time": []}}, "mouseover": {"state": {"target": ["24", "25", "27", "26", "25", "24", "23", "1", "12", "26", "27", "28", "15", "16", "15", "17", "15", "18", "19", "22", "21", "20"], "time": [2894, 2936, 3313, 3843, 3889, 4132, 4299, 5139, 8273, 9343, 9617, 11343, 11749, 12285, 13222, 13485, 15803, 15976, 17428, 17725, 18796, 20501]}, "edge": {"target": [], "time": []}}, "mouseout": {"state": {"target": ["28", "23", "0", "24", "25", "27", "26", "25", "24", "23", "1", "12", "26", "27", "28", "15", "16", "15", "17", "15", "18", "19", "22", "21"], "time": [1294, 1474, 2853, 2916, 3096, 3805, 3866, 4098, 4182, 4993, 7969, 9210, 9362, 11257, 11366, 12168, 12849, 13408, 15651, 15900, 17257, 17525, 18602, 20355]}, "edge": {"target": [], "time": []}}}, "displayed_time": "27.86", "trialTime": 29676, "trial_type": "mouselab-mdp", "trial_index": 11, "time_elapsed": 452284, "internal_node_id": "0.0-6.0-1.0-2.0"}}, {"uniqueid": "w84016798:a84829169", "current_trial": 12, "dateTime": 1693481357680, "trialdata": {"revealed_states": [], "clicked_states": ["23", "1", "5", "9", "11", "6", "7", "10", "8"], "num_clicks_accrued": [0, 0, 0, 0, 0, 0, 0, 0, 0, 0, 0, 0, 0], "stateRewards": ["", 1, 4, 5, 8, -55, -11, 8, 16, -37, 77, -22, -2, 3, -8, -10, 45, 87, -67, 4, 17, -33, -22, -1, -3, 7, 6, -39, -85, 75, -1, 7, -48, 45], "withholdReward": false, "trial_id": "mdp_trial_4", "block": "test", "trialIndex": 5, "score": 90.4, "costs": -12.600000000000001, "simulationMode": [null, null, null, null, null], "rewards": [1, 4, 5, 16, 77], "path": ["0", "0", "1", "2", "3", "8", "10"], "rt": [23388, 18, 14, 27, 75], "actions": ["up", "up", "up", "left", "down"], "actionTimes": [25529, 26061, 26592, 27140, 27722], "queries": {"click": {"state": {"target": ["23", "1", "5", "9", "11", "6", "7", "10", "8"], "time": [2908, 5213, 7924, 10568, 12756, 15399, 17654, 20410, 22752]}, "edge": {"target": [], "time": []}}, "mouseover": {"state": {"target": ["23", "1", "12", "7", "4", "5", "3", "9", "11", "4", "6", "7", "2", "10", "10", "8"], "time": [2693, 5030, 6714, 7255, 7372, 7601, 9900, 10291, 12465, 15118, 15288, 17426, 19347, 19649, 20221, 22532]}, "edge": {"target": [], "time": []}}, "mouseout": {"state": {"target": ["20", "14", "13", "13", "12", "0", "23", "1", "12", "7", "4", "5", "3", "9", "11", "4", "6", "7", "2", "10", "10"], "time": [489, 573, 636, 924, 1091, 2609, 4787, 6439, 7188, 7322, 7517, 8274, 10195, 12380, 14678, 15187, 17242, 19197, 19515, 20021, 20469]}, "edge": {"target": [], "time": []}}}, "displayed_time": "28.23", "trialTime": 30167, "trial_type": "mouselab-mdp", "trial_index": 12, "time_elapsed": 483206, "internal_node_id": "0.0-6.0-1.0-3.0"}}, {"uniqueid": "w84016798:a84829169", "current_trial": 13, "dateTime": 1693481384953, "trialdata": {"revealed_states": [], "clicked_states": ["1", "23", "26", "30", "31", "32", "33", "29"], "num_clicks_accrued": [0, 0, 0, 0, 0, 0, 0, 0, 0, 0, 0, 0, 0], "stateRewards": ["", -1, 1, 8, -8, -49, 62, -78, 16, 28, -81, 78, -2, -3, -1, -4, 67, 49, -2, -13, -16, -39, 83, 1, -4, 4, -5, -20, 7, 84, 7, -32, -59, 19], "withholdReward": false, "trial_id": "mdp_trial_5", "block": "test", "trialIndex": 6, "score": 68.8, "costs": -11.200000000000001, "simulationMode": [null, null, null, null, null], "rewards": [1, -4, 4, -5, 84], "path": ["0", "0", "23", "24", "25", "26", "29"], "rt": [20301, 219, 113, 54, 51], "actions": ["left", "left", "left", "up", "left"], "actionTimes": [22259, 22998, 23607, 24173, 24741], "queries": {"click": {"state": {"target": ["1", "23", "26", "30", "31", "32", "33", "29"], "time": [3036, 5521, 8241, 10675, 12655, 14805, 16910, 19393]}, "edge": {"target": [], "time": []}}, "mouseover": {"state": {"target": ["1", "23", "28", "26", "27", "25", "30", "31", "32", "33", "29", "27"], "time": [2480, 5264, 7794, 8073, 10156, 10324, 10390, 11689, 14609, 16658, 19031, 21218]}, "edge": {"target": [], "time": []}}, "mouseout": {"state": {"target": ["8", "2", "1", "0", "1", "23", "23", "28", "26", "27", "26", "25", "30", "31", "32", "33", "29"], "time": [722, 790, 1022, 2348, 4987, 5570, 7593, 7902, 10032, 10257, 10306, 10357, 11320, 14417, 16299, 18921, 19421]}, "edge": {"target": [], "time": []}}}, "displayed_time": "25.25", "trialTime": 26592, "trial_type": "mouselab-mdp", "trial_index": 13, "time_elapsed": 510478, "internal_node_id": "0.0-6.0-1.0-4.0"}}, {"uniqueid": "w84016798:a84829169", "current_trial": 14, "dateTime": 1693481413528, "trialdata": {"revealed_states": [], "clicked_states": ["1", "2", "7", "10", "22", "19", "13", "12"], "num_clicks_accrued": [0, 0, 0, 0, 0, 0, 0, 0, 0, 0, 0, 0, 0], "stateRewards": ["", -1, 3, 2, 9, 41, 4, -46, -12, -54, -87, -25, 2, 3, -1, 11, -77, 12, -33, -9, -32, 35, 72, 1, 3, -7, 4, 37, 65, -73, 6, 77, -43, 8], "withholdReward": false, "trial_id": "mdp_trial_6", "block": "test", "trialIndex": 7, "score": 55.8, "costs": -11.200000000000001, "simulationMode": [null, null, null, null, null], "rewards": [2, 3, -1, -9, 72], "path": ["0", "0", "12", "13", "14", "19", "22"], "rt": [20793, 441, 137, 86, 163], "actions": ["right", "right", "right", "down", "left"], "actionTimes": [23411, 24366, 25015, 25624, 26283], "queries": {"click": {"state": {"target": ["1", "2", "7", "10", "22", "19", "13", "12"], "time": [3325, 5773, 8524, 10863, 13636, 16736, 18777, 20696]}, "edge": {"target": [], "time": []}}, "mouseover": {"state": {"target": ["1", "2", "12", "3", "7", "2", "10", "18", "14", "22", "13", "13", "14", "19", "19", "13", "12"], "time": [3014, 5571, 6386, 8033, 8357, 10480, 10711, 12876, 13002, 13420, 15337, 15899, 16166, 16327, 16542, 18606, 20106]}, "edge": {"target": [], "time": []}}, "mouseout": {"state": {"target": ["27", "28", "1", "1", "2", "12", "3", "7", "2", "10", "18", "14", "22", "13", "13", "14", "19", "19", "13", "12"], "time": [438, 856, 1390, 5271, 6247, 7777, 8156, 10452, 10610, 12774, 12912, 13098, 14258, 15387, 16140, 16244, 16449, 18329, 19996, 22631]}, "edge": {"target": [], "time": []}}}, "displayed_time": "26.79", "trialTime": 27800, "trial_type": "mouselab-mdp", "trial_index": 14, "time_elapsed": 539054, "internal_node_id": "0.0-6.0-1.0-5.0"}}, {"uniqueid": "w84016798:a84829169", "current_trial": 15, "dateTime": 1693481432436, "trialdata": {"revealed_states": [], "clicked_states": ["13", "22", "12", "21", "20"], "num_clicks_accrued": [0, 0, 0, 0, 0, 0, 0, 0, 0, 0, 0, 0, 0], "stateRewards": ["", -2, 3, 8, -9, 59, 41, -50, -1, 82, 66, 33, 2, -2, 7, 8, 1, -38, 12, -16, 24, -37, 67, 1, 4, -2, 5, 35, -83, 28, 8, -27, 69, -64], "withholdReward": false, "trial_id": "mdp_trial_7", "block": "test", "trialIndex": 8, "score": 51, "costs": -7, "simulationMode": [null, null, null, null, null], "rewards": [2, -2, 7, -16, 67], "path": ["0", "0", "12", "13", "14", "19", "22"], "rt": [11896, 434, 165, 96, 122], "actions": ["right", "right", "right", "down", "left"], "actionTimes": [13777, 14722, 15391, 15990, 16619], "queries": {"click": {"state": {"target": ["13", "22", "12", "21", "20"], "time": [2634, 4576, 7618, 9577, 11487]}, "edge": {"target": [], "time": []}}, "mouseover": {"state": {"target": ["12", "13", "22", "19", "14", "12", "12", "21", "20", "19"], "time": [2303, 2468, 4424, 6743, 6927, 7218, 7488, 9025, 10473, 12166]}, "edge": {"target": [], "time": []}}, "mouseout": {"state": {"target": ["0", "12", "13", "22", "22", "19", "14", "13", "12", "12", "22", "21", "20", "19"], "time": [2259, 2351, 4180, 5292, 6090, 6843, 7109, 7197, 7264, 8768, 8925, 10065, 12074, 12280]}, "edge": {"target": [], "time": []}}}, "displayed_time": "17.13", "trialTime": 18147, "trial_type": "mouselab-mdp", "trial_index": 15, "time_elapsed": 557962, "internal_node_id": "0.0-6.0-1.0-6.0"}}, {"uniqueid": "w84016798:a84829169", "current_trial": 16, "dateTime": 1693481452517, "trialdata": {"revealed_states": [], "clicked_states": ["31", "25", "29", "33", "32"], "num_clicks_accrued": [0, 0, 0, 0, 0, 0, 0, 0, 0, 0, 0, 0, 0], "stateRewards": ["", 2, -1, -4, -13, 74, 77, 3, 2, -43, -2, -11, 2, 3, 7, 11, -26, -29, -33, -3, -3, -13, -3, 1, 3, -7, 14, -59, 33, 9, -5, 34, 79, 68], "withholdReward": false, "trial_id": "mdp_trial_8", "block": "test", "trialIndex": 9, "score": 64, "costs": -7, "simulationMode": [null, null, null, null, null], "rewards": [1, 3, -7, -5, 79], "path": ["0", "0", "23", "24", "25", "30", "32"], "rt": [13323, 431, 152, 14, 93], "actions": ["left", "left", "left", "down", "down"], "actionTimes": [15167, 16111, 16781, 17315, 17935], "queries": {"click": {"state": {"target": ["31", "25", "29", "33", "32"], "time": [3404, 6110, 8094, 10295, 13003]}, "edge": {"target": [], "time": []}}, "mouseover": {"state": {"target": ["0", "23", "24", "31", "30", "25", "26", "29", "33", "32"], "time": [2123, 2693, 2832, 3249, 5376, 5924, 7151, 7603, 10138, 12884]}, "edge": {"target": [], "time": []}}, "mouseout": {"state": {"target": ["0", "0", "23", "24", "31", "30", "25", "26", "29", "33"], "time": [1251, 2657, 2799, 3133, 5314, 5878, 7051, 7382, 9791, 12115]}, "edge": {"target": [], "time": []}}}, "displayed_time": "18.45", "trialTime": 19345, "trial_type": "mouselab-mdp", "trial_index": 16, "time_elapsed": 578043, "internal_node_id": "0.0-6.0-1.0-7.0"}}, {"uniqueid": "w84016798:a84829169", "current_trial": 17, "dateTime": 1693481479255, "trialdata": {"revealed_states": [], "clicked_states": ["21", "20", "17", "16", "18", "6", "3", "2"], "num_clicks_accrued": [0, 0, 0, 0, 0, 0, 0, 0, 0, 0, 0, 0, 0], "stateRewards": ["", -2, 2, 5, -14, -56, 64, 84, -5, 52, 39, 85, -2, 1, 7, 8, 21, 29, -78, -9, -10, -69, 10, -2, -1, -7, 15, 72, 20, 41, -2, 52, 80, 22], "withholdReward": false, "trial_id": "mdp_trial_9", "block": "test", "trialIndex": 10, "score": 43.8, "costs": -11.200000000000001, "simulationMode": [null, null, null, null, null], "rewards": [-2, 2, 5, -14, 64], "path": ["0", "0", "1", "2", "3", "4", "6"], "rt": [19636, 522, 256, 75, 122], "actions": ["up", "up", "up", "right", "right"], "actionTimes": [21519, 22553, 23321, 23909, 24540], "queries": {"click": {"state": {"target": ["21", "20", "17", "16", "18", "6", "3", "2"], "time": [2797, 4850, 6797, 8809, 10817, 13209, 16838, 18984]}, "edge": {"target": [], "time": []}}, "mouseover": {"state": {"target": ["22", "21", "20", "17", "16", "18", "6", "4", "3", "3", "2"], "time": [2305, 2457, 4374, 5822, 8284, 10456, 12983, 16298, 16347, 16581, 18251]}, "edge": {"target": [], "time": []}}, "mouseout": {"state": {"target": ["32", "0", "22", "21", "20", "17", "16", "18", "6", "4", "3", "3", "3"], "time": [503, 2246, 2330, 2842, 5577, 8000, 10219, 12772, 16264, 16335, 16376, 16904, 17389]}, "edge": {"target": [], "time": []}}}, "displayed_time": "25.06", "trialTime": 25986, "trial_type": "mouselab-mdp", "trial_index": 17, "time_elapsed": 604781, "internal_node_id": "0.0-6.0-1.0-8.0"}}, {"uniqueid": "w84016798:a84829169", "current_trial": 18, "dateTime": 1693481499089, "trialdata": {"revealed_states": [], "clicked_states": ["10", "11", "27", "28", "29"], "num_clicks_accrued": [0, 0, 0, 0, 0, 0, 0, 0, 0, 0, 0, 0, 0], "stateRewards": ["", 1, -4, -4, 8, 1, -79, 68, -10, -79, 8, -74, -1, -3, -6, 14, 43, 23, 9, 5, -51, 63, 61, -2, 4, 6, -10, 69, -32, 57, 15, -80, -80, -77], "withholdReward": false, "trial_id": "mdp_trial_10", "block": "test", "trialIndex": 11, "score": 60, "costs": -7, "simulationMode": [null, null, null, null, null], "rewards": [-2, 4, 6, -10, 69], "path": ["0", "0", "23", "24", "25", "26", "27"], "rt": [12876, 13, 213, 460, 214], "actions": ["left", "left", "left", "up", "up"], "actionTimes": [14698, 15224, 15959, 16945, 17665], "queries": {"click": {"state": {"target": ["10", "11", "27", "28", "29"], "time": [3020, 5189, 7229, 10471, 12779]}, "edge": {"target": [], "time": []}}, "mouseover": {"state": {"target": ["10", "11", "10", "11", "27", "29", "26", "25", "28", "26", "29"], "time": [2260, 2520, 2830, 4958, 6393, 8952, 9270, 9857, 10290, 12350, 12546]}, "edge": {"target": [], "time": []}}, "mouseout": {"state": {"target": ["2", "12", "10", "11", "10", "11", "27", "29", "26", "25", "28", "26"], "time": [419, 1087, 2298, 2671, 4785, 6174, 8714, 9229, 9607, 10214, 12321, 12465]}, "edge": {"target": [], "time": []}}}, "displayed_time": "18.16", "trialTime": 19101, "trial_type": "mouselab-mdp", "trial_index": 18, "time_elapsed": 624614, "internal_node_id": "0.0-6.0-1.0-9.0"}}, {"uniqueid": "w84016798:a84829169", "current_trial": 19, "dateTime": 1693481517597, "trialdata": {"revealed_states": [], "clicked_states": ["32", "27"], "num_clicks_accrued": [0, 0, 0, 0, 0, 0, 0, 0, 0, 0, 0, 0, 0], "stateRewards": ["", -1, 2, -2, 13, -56, -28, 10, 14, 53, -80, -29, 1, -3, -3, -14, 14, 9, -40, -9, 18, 18, 48, 1, 1, 1, -9, 64, -39, -9, 7, -52, -78, 7], "withholdReward": false, "trial_id": "mdp_trial_11", "block": "test", "trialIndex": 12, "score": 55.2, "costs": -2.8, "simulationMode": [null, null, null, null, null], "rewards": [1, 1, 1, -9, 64], "path": ["0", "0", "23", "24", "25", "26", "27"], "rt": [6073, 517, 335, 151, 204], "actions": ["left", "left", "left", "up", "up"], "actionTimes": [8776, 9800, 10649, 11298, 11997], "queries": {"click": {"state": {"target": ["32", "27"], "time": [3570, 6009]}, "edge": {"target": [], "time": []}}, "mouseover": {"state": {"target": ["31", "30", "32", "26", "27"], "time": [3118, 3188, 3323, 5745, 5841]}, "edge": {"target": [], "time": []}}, "mouseout": {"state": {"target": ["29", "27", "28", "0", "0", "31", "30", "32", "26"], "time": [1169, 1298, 1720, 1970, 3072, 3155, 3213, 5211, 5776]}, "edge": {"target": [], "time": []}}}, "displayed_time": "16.70", "trialTime": 17757, "trial_type": "mouselab-mdp", "trial_index": 19, "time_elapsed": 643123, "internal_node_id": "0.0-6.0-1.0-10.0"}}, {"uniqueid": "w84016798:a84829169", "current_trial": 20, "dateTime": 1693481535976, "trialdata": {"revealed_states": [], "clicked_states": ["9", "10"], "num_clicks_accrued": [0, 0, 0, 0, 0, 0, 0, 0, 0, 0, 0, 0, 0], "stateRewards": ["", 2, 3, -1, 16, -78, -11, 46, 2, -20, 79, -67, 2, 3, 2, 11, -83, -42, -58, -11, -67, -22, 55, 2, -1, -1, -16, -83, -82, 23, -11, -29, 13, 13], "withholdReward": false, "trial_id": "mdp_trial_12", "block": "test", "trialIndex": 13, "score": 82.2, "costs": -2.8, "simulationMode": [null, null, null, null, null], "rewards": [2, 3, -1, 2, 79], "path": ["0", "0", "1", "2", "3", "8", "10"], "rt": [6583, 639, 727, 827, 479], "actions": ["up", "up", "up", "left", "down"], "actionTimes": [8594, 9739, 10997, 12335, 13323], "queries": {"click": {"state": {"target": ["9", "10"], "time": [2801, 5098]}, "edge": {"target": [], "time": []}}, "mouseover": {"state": {"target": ["1", "2", "8", "9", "8", "10", "2"], "time": [2123, 2240, 2390, 2624, 4734, 4881, 7071]}, "edge": {"target": [], "time": []}}, "mouseout": {"state": {"target": ["27", "14", "14", "14", "13", "12", "1", "2", "8", "9", "8", "10"], "time": [726, 787, 976, 1022, 1088, 1123, 2190, 2290, 2541, 4673, 4818, 7030]}, "edge": {"target": [], "time": []}}}, "displayed_time": "16.01", "trialTime": 17597, "trial_type": "mouselab-mdp", "trial_index": 20, "time_elapsed": 661503, "internal_node_id": "0.0-6.0-1.0-11.0"}}, {"uniqueid": "w84016798:a84829169", "current_trial": 21, "dateTime": 1693481554965, "trialdata": {"revealed_states": [], "clicked_states": ["7", "9", "11", "10"], "num_clicks_accrued": [0, 0, 0, 0, 0, 0, 0, 0, 0, 0, 0, 0, 0], "stateRewards": ["", 2, 3, 3, 10, 19, -21, 6, 9, 54, 68, 16, 2, 2, -6, -8, 40, -2, -75, -2, -42, 55, 59, -1, 2, 4, -14, 11, -34, -30, -6, 61, -53, 13], "withholdReward": false, "trial_id": "mdp_trial_13", "block": "test", "trialIndex": 14, "score": 79.4, "costs": -5.6, "simulationMode": [null, null, null, null, null], "rewards": [2, 3, 3, 9, 68], "path": ["0", "0", "1", "2", "3", "8", "10"], "rt": [11933, 302, 87, 110, 61], "actions": ["up", "up", "up", "left", "down"], "actionTimes": [13708, 14517, 15124, 15753, 16318], "queries": {"click": {"state": {"target": ["7", "9", "11", "10"], "time": [2582, 5548, 8457, 10923]}, "edge": {"target": [], "time": []}}, "mouseover": {"state": {"target": ["1", "7", "4", "5", "8", "9", "11", "10"], "time": [2161, 2357, 4607, 4682, 5117, 5381, 8160, 10547]}, "edge": {"target": [], "time": []}}, "mouseout": {"state": {"target": ["2", "1", "7", "4", "5", "8", "9", "11"], "time": [776, 2228, 4573, 4633, 5058, 5314, 8010, 10470]}, "edge": {"target": [], "time": []}}}, "displayed_time": "16.82", "trialTime": 18189, "trial_type": "mouselab-mdp", "trial_index": 21, "time_elapsed": 680491, "internal_node_id": "0.0-6.0-1.0-12.0"}}, {"uniqueid": "w84016798:a84829169", "current_trial": 22, "dateTime": 1693481580308, "trialdata": {"revealed_states": [], "clicked_states": ["10", "31", "32", "21", "20", "17", "16"], "num_clicks_accrued": [0, 0, 0, 0, 0, 0, 0, 0, 0, 0, 0, 0, 0], "stateRewards": ["", 2, 2, 3, -15, 23, -14, 73, -7, -32, -20, -6, 1, 1, -5, -12, 73, 6, -84, 11, -81, -57, 13, -2, -1, -4, -8, -52, -58, 49, 13, 5, -41, -41], "withholdReward": false, "trial_id": "mdp_trial_14", "block": "test", "trialIndex": 15, "score": 48.2, "costs": -9.8, "simulationMode": [null, null, null, null, null], "rewards": [1, 1, -5, -12, 73], "path": ["0", "0", "12", "13", "14", "15", "16"], "rt": [17647, 13, 78, 552, 253], "actions": ["right", "right", "right", "up", "up"], "actionTimes": [19789, 20308, 20903, 21963, 22741], "queries": {"click": {"state": {"target": ["10", "31", "32", "21", "20", "17", "16"], "time": [2860, 5661, 8256, 10454, 12494, 15001, 16934]}, "edge": {"target": [], "time": []}}, "mouseover": {"state": {"target": ["10", "28", "24", "31", "32", "21", "20", "17", "16", "6"], "time": [2661, 4878, 5044, 5175, 7768, 10308, 12108, 13155, 16587, 18390]}, "edge": {"target": [], "time": []}}, "mouseout": {"state": {"target": ["10", "1", "10", "28", "24", "31", "32", "21", "20", "17", "16", "6"], "time": [1120, 1355, 4799, 5000, 5112, 7674, 9564, 11899, 13021, 16379, 18190, 18410]}, "edge": {"target": [], "time": []}}}, "displayed_time": "23.25", "trialTime": 24564, "trial_type": "mouselab-mdp", "trial_index": 22, "time_elapsed": 705835, "internal_node_id": "0.0-6.0-1.0-13.0"}}, {"uniqueid": "w84016798:a84829169", "current_trial": 23, "dateTime": 1693481597988, "trialdata": {"revealed_states": [], "clicked_states": ["5", "7"], "num_clicks_accrued": [0, 0, 0, 0, 0, 0, 0, 0, 0, 0, 0, 0, 0], "stateRewards": ["", 2, -4, 4, 9, 69, 9, -75, 12, -86, 66, 25, -1, 3, 2, -13, -88, -3, 1, 4, -69, 49, -84, 2, -1, 4, 2, -18, -81, -52, -15, -69, -54, 25], "withholdReward": false, "trial_id": "mdp_trial_15", "block": "test", "trialIndex": 16, "score": 77.2, "costs": -2.8, "simulationMode": [null, null, null, null, null], "rewards": [2, -4, 4, 9, 69], "path": ["0", "0", "1", "2", "3", "4", "5"], "rt": [5765, 63, 78, 773, 221], "actions": ["up", "up", "up", "right", "up"], "actionTimes": [7413, 7989, 8574, 9865, 10605], "queries": {"click": {"state": {"target": ["5", "7"], "time": [2501, 5528]}, "edge": {"target": [], "time": []}}, "mouseover": {"state": {"target": ["4", "5", "4", "7"], "time": [2155, 2282, 4973, 5086]}, "edge": {"target": [], "time": []}}, "mouseout": {"state": {"target": ["4", "5", "4", "7"], "time": [2216, 4913, 5056, 6837]}, "edge": {"target": [], "time": []}}}, "displayed_time": "15.65", "trialTime": 16905, "trial_type": "mouselab-mdp", "trial_index": 23, "time_elapsed": 723514, "internal_node_id": "0.0-6.0-1.0-14.0"}}, {"uniqueid": "w84016798:a84829169", "current_trial": 24, "dateTime": 1693481623686, "trialdata": {"revealed_states": [], "clicked_states": ["9", "7", "22", "31", "32", "29", "27", "28"], "num_clicks_accrued": [0, 0, 0, 0, 0, 0, 0, 0, 0, 0, 0, 0, 0], "stateRewards": ["", 1, 1, 7, -11, 80, -20, -53, -14, 3, 31, 27, 2, -1, -8, -10, 33, 41, 86, 9, 78, -37, -13, -1, -2, -6, -8, -80, 75, 4, -16, -49, -74, 24], "withholdReward": false, "trial_id": "mdp_trial_16", "block": "test", "trialIndex": 17, "score": 46.8, "costs": -11.200000000000001, "simulationMode": [null, null, null, null, null], "rewards": [-1, -2, -6, -8, 75], "path": ["0", "0", "23", "24", "25", "26", "28"], "rt": [19213, 13, 46, 15, 91], "actions": ["left", "left", "left", "up", "right"], "actionTimes": [20761, 21292, 21862, 22401, 23024], "queries": {"click": {"state": {"target": ["9", "7", "22", "31", "32", "29", "27", "28"], "time": [2317, 5434, 7585, 10118, 12109, 13993, 15907, 18007]}, "edge": {"target": [], "time": []}}, "mouseover": {"state": {"target": ["1", "10", "8", "9", "8", "10", "2", "7", "22", "31", "32", "30", "25", "26", "29", "27", "28", "12"], "time": [1667, 1834, 1930, 2135, 4365, 4543, 4691, 5296, 6880, 9874, 11842, 12741, 12827, 12956, 13111, 14610, 17711, 18615]}, "edge": {"target": [], "time": []}}, "mouseout": {"state": {"target": ["0", "1", "10", "8", "9", "8", "10", "2", "7", "22", "31", "32", "30", "25", "26", "29", "27", "27", "28", "12"], "time": [1574, 1717, 1901, 2051, 4284, 4459, 4581, 5186, 6633, 9663, 11582, 12193, 12788, 12914, 12977, 14289, 15952, 17430, 18556, 19037]}, "edge": {"target": [], "time": []}}}, "displayed_time": "23.54", "trialTime": 24881, "trial_type": "mouselab-mdp", "trial_index": 24, "time_elapsed": 749212, "internal_node_id": "0.0-6.0-1.0-15.0"}}, {"uniqueid": "w84016798:a84829169", "current_trial": 25, "dateTime": 1693481644495, "trialdata": {"revealed_states": [], "clicked_states": ["18", "22", "7", "5", "27", "29"], "num_clicks_accrued": [0, 0, 0, 0, 0, 0, 0, 0, 0, 0, 0, 0, 0], "stateRewards": ["", 1, 2, -3, 6, -88, 74, -45, 7, -46, 40, -77, 1, -4, 4, 3, 22, -25, -59, 8, -83, 19, -60, -1, -1, -1, -8, 26, -29, 64, -7, -88, -51, -55], "withholdReward": false, "trial_id": "mdp_trial_17", "block": "test", "trialIndex": 18, "score": 44.6, "costs": -8.4, "simulationMode": [null, null, null, null, null], "rewards": [-1, -1, -1, -8, 64], "path": ["0", "0", "23", "24", "25", "26", "29"], "rt": [14334, 70, 201, 112, 97], "actions": ["left", "left", "left", "up", "left"], "actionTimes": [15828, 16422, 17134, 17762, 18371], "queries": {"click": {"state": {"target": ["18", "22", "7", "5", "27", "29"], "time": [2186, 5057, 7068, 8963, 10851, 12813]}, "edge": {"target": [], "time": []}}, "mouseover": {"state": {"target": ["12", "18", "15", "17", "14", "22", "13", "13", "7", "4", "7", "4", "5", "9", "11", "27", "29", "26", "10"], "time": [1799, 1969, 4124, 4521, 4632, 4977, 5505, 5770, 6119, 6324, 6587, 7537, 7786, 9435, 9729, 10298, 11636, 13145, 13322]}, "edge": {"target": [], "time": []}}, "mouseout": {"state": {"target": ["18", "12", "0", "12", "18", "15", "17", "14", "22", "13", "13", "18", "7", "4", "7", "4", "5", "9", "11", "27", "29", "26"], "time": [558, 768, 1769, 1864, 4030, 4291, 4574, 4760, 5138, 5527, 5792, 5904, 6223, 6506, 7409, 7662, 9338, 9486, 10167, 11313, 13118, 13171]}, "edge": {"target": [], "time": []}}}, "displayed_time": "18.89", "trialTime": 19988, "trial_type": "mouselab-mdp", "trial_index": 25, "time_elapsed": 770021, "internal_node_id": "0.0-6.0-1.0-16.0"}}, {"uniqueid": "w84016798:a84829169", "current_trial": 26, "dateTime": 1693481662280, "trialdata": {"revealed_states": [], "clicked_states": ["32"], "num_clicks_accrued": [0, 0, 0, 0, 0, 0, 0, 0, 0, 0, 0, 0, 0], "stateRewards": ["", -1, 3, 8, 10, -86, 61, -36, 10, 17, -60, 24, -1, -3, 3, 11, 50, 60, 33, -3, -20, 58, -6, 1, -4, -4, 13, -70, -71, 43, 14, 52, 82, -11], "withholdReward": false, "trial_id": "mdp_trial_18", "block": "test", "trialIndex": 19, "score": 87.6, "costs": -1.4, "simulationMode": [null, null, null, null, null], "rewards": [1, -4, -4, 14, 82], "path": ["0", "0", "23", "24", "25", "30", "32"], "rt": [3514, 52, 55, 84, 115], "actions": ["left", "left", "left", "down", "down"], "actionTimes": [5070, 5632, 6222, 6833, 7463], "queries": {"click": {"state": {"target": ["32"], "time": [2233]}, "edge": {"target": [], "time": []}}, "mouseover": {"state": {"target": ["32", "31"], "time": [2087, 4398]}, "edge": {"target": [], "time": []}}, "mouseout": {"state": {"target": ["10", "1", "32"], "time": [487, 774, 4035]}, "edge": {"target": [], "time": []}}}, "displayed_time": "15.56", "trialTime": 16960, "trial_type": "mouselab-mdp", "trial_index": 26, "time_elapsed": 787807, "internal_node_id": "0.0-6.0-1.0-17.0"}}, {"uniqueid": "w84016798:a84829169", "current_trial": 27, "dateTime": 1693481680323, "trialdata": {"revealed_states": [], "clicked_states": ["32", "21", "16"], "num_clicks_accrued": [0, 0, 0, 0, 0, 0, 0, 0, 0, 0, 0, 0, 0], "stateRewards": ["", 2, -1, 5, 8, 75, -35, -77, 1, -9, -81, -58, 1, 2, -7, 5, 77, -16, 19, 16, -10, -18, 40, -2, 3, 7, -5, 64, 1, -62, 10, 27, 10, 65], "withholdReward": false, "trial_id": "mdp_trial_19", "block": "test", "trialIndex": 20, "score": 73.8, "costs": -4.199999999999999, "simulationMode": [null, null, null, null, null], "rewards": [1, 2, -7, 5, 77], "path": ["0", "0", "12", "13", "14", "15", "16"], "rt": [8639, 533, 232, 345, 177], "actions": ["right", "right", "right", "up", "up"], "actionTimes": [10120, 11164, 11903, 12782, 13489], "queries": {"click": {"state": {"target": ["32", "21", "16"], "time": [2248, 4858, 7327]}, "edge": {"target": [], "time": []}}, "mouseover": {"state": {"target": ["0", "32", "21", "19", "14", "16", "7"], "time": [1590, 2061, 4568, 6803, 6852, 7138, 8757]}, "edge": {"target": [], "time": []}}, "mouseout": {"state": {"target": ["31", "0", "0", "32", "21", "19", "14", "16"], "time": [527, 788, 1711, 4241, 6747, 6822, 6887, 8509]}, "edge": {"target": [], "time": []}}}, "displayed_time": "15.48", "trialTime": 17195, "trial_type": "mouselab-mdp", "trial_index": 27, "time_elapsed": 805850, "internal_node_id": "0.0-6.0-1.0-18.0"}}, {"uniqueid": "w84016798:a84829169", "current_trial": 28, "dateTime": 1693481698298, "trialdata": {"revealed_states": [], "clicked_states": ["21", "22", "7", "6", "5"], "num_clicks_accrued": [0, 0, 0, 0, 0, 0, 0, 0, 0, 0, 0, 0, 0], "stateRewards": ["", 1, 1, -5, 10, -31, 73, 14, -8, -23, 63, -70, -1, 2, 8, 7, 25, -59, 27, -10, -40, -71, -15, -2, 3, -8, -5, -19, 77, -34, 7, 67, 63, 19], "withholdReward": false, "trial_id": "mdp_trial_20", "block": "test", "trialIndex": 21, "score": 73, "costs": -7, "simulationMode": [null, null, null, null, null], "rewards": [1, 1, -5, 10, 73], "path": ["0", "0", "1", "2", "3", "4", "6"], "rt": [10683, 77, 189, 17, 66], "actions": ["up", "up", "up", "right", "right"], "actionTimes": [12327, 12931, 13632, 14167, 14767], "queries": {"click": {"state": {"target": ["21", "22", "7", "6", "5"], "time": [2501, 4424, 6317, 8337, 10513]}, "edge": {"target": [], "time": []}}, "mouseover": {"state": {"target": ["0", "22", "21", "22", "12", "7", "6", "4", "5"], "time": [1702, 2083, 2250, 4003, 5202, 5550, 8151, 10004, 10171]}, "edge": {"target": [], "time": []}}, "mouseout": {"state": {"target": ["7", "0", "0", "22", "21", "22", "12", "7", "6", "4"], "time": [636, 1677, 1849, 2167, 3746, 5092, 5242, 8007, 9887, 10037]}, "edge": {"target": [], "time": []}}}, "displayed_time": "15.64", "trialTime": 17116, "trial_type": "mouselab-mdp", "trial_index": 28, "time_elapsed": 823825, "internal_node_id": "0.0-6.0-1.0-19.0"}}, {"uniqueid": "w84016798:a84829169", "current_trial": 29, "dateTime": 1693481717154, "trialdata": {"revealed_states": [], "clicked_states": ["11", "10", "27", "29", "28"], "num_clicks_accrued": [0, 0, 0, 0, 0, 0, 0, 0, 0, 0, 0, 0, 0], "stateRewards": ["", 2, -1, 8, -2, -16, 69, -39, -7, -13, -27, -86, 2, -2, 2, 13, -34, -16, -20, -5, 19, 81, 32, -2, -1, 2, -14, 20, 80, 58, 4, 70, 12, 73], "withholdReward": false, "trial_id": "mdp_trial_21", "block": "test", "trialIndex": 22, "score": 58, "costs": -7, "simulationMode": [null, null, null, null, null], "rewards": [-2, -1, 2, -14, 80], "path": ["0", "0", "23", "24", "25", "26", "28"], "rt": [10715, 453, 191, 145, 113], "actions": ["left", "left", "left", "up", "right"], "actionTimes": [13185, 14181, 14893, 15550, 16198], "queries": {"click": {"state": {"target": ["11", "10", "27", "29", "28"], "time": [3278, 5316, 7196, 9154, 11504]}, "edge": {"target": [], "time": []}}, "mouseover": {"state": {"target": ["1", "10", "11", "10", "27", "29", "26", "28"], "time": [2818, 2875, 3121, 5026, 6069, 8886, 11034, 11380]}, "edge": {"target": [], "time": []}}, "mouseout": {"state": {"target": ["5", "1", "0", "1", "10", "11", "10", "27", "29", "29", "26"], "time": [1438, 1573, 2782, 2848, 2921, 4808, 5741, 8730, 9197, 10724, 11069]}, "edge": {"target": [], "time": []}}}, "displayed_time": "16.71", "trialTime": 17995, "trial_type": "mouselab-mdp", "trial_index": 29, "time_elapsed": 842680, "internal_node_id": "0.0-6.0-1.0-20.0"}}, {"uniqueid": "w84016798:a84829169", "current_trial": 30, "dateTime": 1693481742593, "trialdata": {"revealed_states": [], "clicked_states": ["7", "10", "31", "9", "11", "16", "18", "22"], "num_clicks_accrued": [0, 0, 0, 0, 0, 0, 0, 0, 0, 0, 0, 0, 0], "stateRewards": ["", -2, -3, -7, 7, -54, -69, -4, -14, -77, 22, 40, -2, -1, 5, 6, -35, 50, -60, 10, -28, 75, 57, 1, -4, -2, 2, 68, 34, -18, 12, 3, -21, -43], "withholdReward": false, "trial_id": "mdp_trial_22", "block": "test", "trialIndex": 23, "score": 57.8, "costs": -11.200000000000001, "simulationMode": [null, null, null, null, null], "rewards": [-2, -1, 5, 10, 57], "path": ["0", "0", "12", "13", "14", "19", "22"], "rt": [18962, 22, 37, 34, 113], "actions": ["right", "right", "right", "down", "left"], "actionTimes": [20571, 21109, 21683, 22252, 22895], "queries": {"click": {"state": {"target": ["7", "10", "31", "9", "11", "16", "18", "22"], "time": [2614, 4945, 6986, 8939, 11142, 13774, 15712, 17691]}, "edge": {"target": [], "time": []}}, "mouseover": {"state": {"target": ["1", "2", "7", "2", "10", "24", "31", "24", "9", "11", "27", "16", "18", "13", "22"], "time": [2022, 2236, 2403, 4316, 4794, 5885, 6106, 7516, 8070, 10907, 11978, 13575, 14548, 16252, 16387]}, "edge": {"target": [], "time": []}}, "mouseout": {"state": {"target": ["28", "0", "1", "2", "7", "2", "10", "24", "31", "24", "9", "9", "11", "27", "16", "18", "13"], "time": [521, 1946, 2169, 2336, 2862, 4568, 5745, 5946, 7420, 7610, 8968, 10690, 11492, 13207, 14297, 16148, 16333]}, "edge": {"target": [], "time": []}}}, "displayed_time": "23.40", "trialTime": 24653, "trial_type": "mouselab-mdp", "trial_index": 30, "time_elapsed": 868119, "internal_node_id": "0.0-6.0-1.0-21.0"}}, {"uniqueid": "w84016798:a84829169", "current_trial": 31, "dateTime": 1693481770701, "trialdata": {"revealed_states": [], "clicked_states": ["21", "22", "20", "17", "16", "10", "9", "5"], "num_clicks_accrued": [0, 0, 0, 0, 0, 0, 0, 0, 0, 0, 0, 0, 0], "stateRewards": ["", 1, 1, 4, 11, 83, -66, 18, -16, -23, 5, 25, 1, -3, 1, -12, 18, 24, -86, -11, -64, 36, 40, 2, 1, -6, 13, 55, 29, 72, -2, 81, -72, -41], "withholdReward": false, "trial_id": "mdp_trial_23", "block": "test", "trialIndex": 24, "score": 88.8, "costs": -11.200000000000001, "simulationMode": [null, null, null, null, null], "rewards": [1, 1, 4, 11, 83], "path": ["0", "0", "1", "2", "3", "4", "5"], "rt": [20110, 16, 573, 415, 176], "actions": ["up", "up", "up", "right", "up"], "actionTimes": [22388, 22935, 24033, 24993, 25691], "queries": {"click": {"state": {"target": ["21", "22", "20", "17", "16", "10", "9", "5"], "time": [3163, 5402, 7631, 9890, 12466, 14488, 16781, 19430]}, "edge": {"target": [], "time": []}}, "mouseover": {"state": {"target": ["12", "13", "19", "21", "22", "20", "17", "15", "18", "16", "7", "2", "10", "8", "9", "11", "8", "5", "3", "10", "28", "25", "33"], "time": [2304, 2704, 2827, 2973, 5198, 7386, 9734, 11773, 11996, 12330, 13282, 13346, 13377, 16426, 16608, 18806, 18992, 19283, 19839, 19902, 19965, 20073, 20391]}, "edge": {"target": [], "time": []}}, "mouseout": {"state": {"target": ["22", "1", "12", "13", "19", "21", "22", "20", "17", "15", "18", "16", "7", "2", "10", "8", "9", "11", "8", "5", "3", "10", "28", "25"], "time": [1258, 1604, 2651, 2738, 2894, 4950, 7278, 9134, 11706, 11899, 12202, 13125, 13309, 13374, 16367, 16508, 18429, 18966, 19039, 19780, 19861, 19923, 20009, 20151]}, "edge": {"target": [], "time": []}}}, "displayed_time": "26.19", "trialTime": 27298, "trial_type": "mouselab-mdp", "trial_index": 31, "time_elapsed": 896227, "internal_node_id": "0.0-6.0-1.0-22.0"}}, {"uniqueid": "w84016798:a84829169", "current_trial": 32, "dateTime": 1693481788803, "trialdata": {"revealed_states": [], "clicked_states": ["9", "27", "29", "28"], "num_clicks_accrued": [0, 0, 0, 0, 0, 0, 0, 0, 0, 0, 0, 0, 0], "stateRewards": ["", 2, 4, -6, -13, -75, -81, 30, 7, 5, 59, -65, -1, -1, 7, 14, -38, 36, -41, 1, -54, -5, 64, 2, -1, 5, 6, -19, 79, 11, 16, -33, -50, 58], "withholdReward": false, "trial_id": "mdp_trial_24", "block": "test", "trialIndex": 25, "score": 85.4, "costs": -5.6, "simulationMode": [null, null, null, null, null], "rewards": [2, -1, 5, 6, 79], "path": ["0", "0", "23", "24", "25", "26", "28"], "rt": [10525, 22, 99, 64, 45], "actions": ["left", "left", "left", "up", "right"], "actionTimes": [12738, 13284, 13912, 14494, 15058], "queries": {"click": {"state": {"target": ["9", "27", "29", "28"], "time": [3172, 5362, 7541, 9633]}, "edge": {"target": [], "time": []}}, "mouseover": {"state": {"target": ["1", "2", "9", "11", "27", "29", "24", "28", "24", "31"], "time": [2609, 2656, 3002, 4737, 4887, 7431, 8410, 8529, 10050, 10190]}, "edge": {"target": [], "time": []}}, "mouseout": {"state": {"target": ["33", "22", "1", "2", "9", "11", "27", "27", "29", "24", "28", "24"], "time": [684, 1267, 2650, 2687, 4586, 4770, 5768, 6407, 7812, 8439, 9964, 10149]}, "edge": {"target": [], "time": []}}}, "displayed_time": "16.21", "trialTime": 17272, "trial_type": "mouselab-mdp", "trial_index": 32, "time_elapsed": 914329, "internal_node_id": "0.0-6.0-1.0-23.0"}}, {"uniqueid": "w84016798:a84829169", "current_trial": 33, "dateTime": 1693481808310, "trialdata": {"revealed_states": [], "clicked_states": ["10", "7", "22"], "num_clicks_accrued": [0, 0, 0, 0, 0, 0, 0, 0, 0, 0, 0, 0, 0], "stateRewards": ["", -2, 2, -2, -7, -50, -62, -45, 7, 36, -24, -72, -1, -1, 8, -1, -67, 20, -52, 2, 35, -50, 80, -1, 1, 6, -6, -70, 6, 88, 8, -47, 74, -19], "withholdReward": false, "trial_id": "mdp_trial_25", "block": "test", "trialIndex": 26, "score": 83.8, "costs": -4.199999999999999, "simulationMode": [null, null, null, null, null], "rewards": [-1, -1, 8, 2, 80], "path": ["0", "0", "12", "13", "14", "19", "22"], "rt": [8001, 497, 192, 170, 165], "actions": ["right", "right", "right", "down", "left"], "actionTimes": [11785, 12791, 13492, 14160, 14829], "queries": {"click": {"state": {"target": ["10", "7", "22"], "time": [4468, 6440, 9119]}, "edge": {"target": [], "time": []}}, "mouseover": {"state": {"target": ["10", "2", "7", "18", "13", "22", "22", "19", "20"], "time": [4403, 6030, 6281, 8258, 8374, 8608, 8956, 9771, 10325]}, "edge": {"target": [], "time": []}}, "mouseout": {"state": {"target": ["31", "24", "9", "8", "2", "7", "7", "1", "0", "10", "2", "7", "7", "18", "13", "22", "22", "19"], "time": [47, 64, 752, 833, 900, 1000, 1575, 2913, 4053, 6010, 6130, 7218, 7576, 8290, 8470, 8737, 9416, 10198]}, "edge": {"target": [], "time": []}}}, "displayed_time": "17.79", "trialTime": 18655, "trial_type": "mouselab-mdp", "trial_index": 33, "time_elapsed": 933836, "internal_node_id": "0.0-6.0-1.0-24.0"}}, {"uniqueid": "w84016798:a84829169", "current_trial": 34, "dateTime": 1693481827430, "trialdata": {"revealed_states": [], "clicked_states": ["20", "16", "18", "17"], "num_clicks_accrued": [0, 0, 0, 0, 0, 0, 0, 0, 0, 0, 0, 0, 0], "stateRewards": ["", -1, 4, -8, 12, 14, 69, -8, 5, -72, -14, 56, -1, -1, -1, 9, 67, 19, 11, -9, -88, -58, 3, 2, -4, -8, 4, 62, 77, -74, 5, -31, 65, 88], "withholdReward": false, "trial_id": "mdp_trial_26", "block": "test", "trialIndex": 27, "score": 67.4, "costs": -5.6, "simulationMode": [null, null, null, null, null], "rewards": [-1, -1, -1, 9, 67], "path": ["0", "0", "12", "13", "14", "15", "16"], "rt": [10942, 118, 222, 89, 142], "actions": ["right", "right", "right", "up", "up"], "actionTimes": [12910, 13547, 14276, 14874, 15520], "queries": {"click": {"state": {"target": ["20", "16", "18", "17"], "time": [3392, 5942, 8649, 10948]}, "edge": {"target": [], "time": []}}, "mouseover": {"state": {"target": ["12", "0", "12", "13", "14", "19", "20", "21", "14", "15", "16", "18", "15", "17"], "time": [1994, 2243, 2447, 2527, 2560, 3043, 3222, 4960, 5529, 5613, 5713, 8407, 10533, 10728]}, "edge": {"target": [], "time": []}}, "mouseout": {"state": {"target": ["20", "23", "24", "25", "23", "12", "0", "12", "13", "14", "19", "20", "21", "14", "15", "16", "18", "15"], "time": [722, 768, 790, 952, 1118, 2198, 2412, 2488, 2556, 2993, 3105, 4693, 5484, 5563, 5663, 8113, 10512, 10590]}, "edge": {"target": [], "time": []}}}, "displayed_time": "16.06", "trialTime": 18292, "trial_type": "mouselab-mdp", "trial_index": 34, "time_elapsed": 952956, "internal_node_id": "0.0-6.0-1.0-25.0"}}, {"uniqueid": "w84016798:a84829169", "current_trial": 35, "dateTime": 1693481844985, "trialdata": {"revealed_states": [], "clicked_states": ["31", "32", "25"], "num_clicks_accrued": [0, 0, 0, 0, 0, 0, 0, 0, 0, 0, 0, 0, 0], "stateRewards": ["", -1, 3, -7, 16, -32, -74, -48, 2, 10, 15, -30, 1, 1, -2, 10, 12, -83, 67, 13, -66, 47, 65, -2, 4, 2, -14, -8, -57, 24, 9, 65, 12, 46], "withholdReward": false, "trial_id": "mdp_trial_27", "block": "test", "trialIndex": 28, "score": 73.8, "costs": -4.199999999999999, "simulationMode": [null, null, null, null, null], "rewards": [-2, 4, 2, 9, 65], "path": ["0", "0", "23", "24", "25", "30", "31"], "rt": [8989, 21, 14, 720, 176], "actions": ["left", "left", "left", "down", "right"], "actionTimes": [10491, 11034, 11568, 12826, 13526], "queries": {"click": {"state": {"target": ["31", "32", "25"], "time": [2792, 5015, 8613]}, "edge": {"target": [], "time": []}}, "mouseover": {"state": {"target": ["1", "10", "24", "31", "32", "33", "25", "26", "25"], "time": [1923, 2179, 2483, 2534, 3995, 7230, 7596, 8013, 8448]}, "edge": {"target": [], "time": []}}, "mouseout": {"state": {"target": ["17", "15", "18", "12", "1", "10", "24", "31", "32", "33", "25", "26"], "time": [431, 525, 559, 643, 1999, 2423, 2531, 3190, 6920, 7502, 7937, 8373]}, "edge": {"target": [], "time": []}}}, "displayed_time": "15.50", "trialTime": 16679, "trial_type": "mouselab-mdp", "trial_index": 35, "time_elapsed": 970513, "internal_node_id": "0.0-6.0-1.0-26.0"}}, {"uniqueid": "w84016798:a84829169", "current_trial": 36, "dateTime": 1693481893050, "trialdata": {"revealed_states": [], "clicked_states": ["27", "33", "17", "16", "18", "22", "21", "7", "5", "6", "10", "9", "11", "28", "29", "31", "32", "20"], "num_clicks_accrued": [0, 0, 0, 0, 0, 0, 0, 0, 0, 0, 0, 0, 0], "stateRewards": ["", 1, 4, -8, -5, -15, -7, 21, 13, -30, 40, -65, 1, 1, 5, -14, 35, 27, -38, -11, 36, -58, -47, -2, 4, -3, 13, -16, -49, 22, 15, -56, -44, -10], "withholdReward": false, "trial_id": "mdp_trial_28", "block": "test", "trialIndex": 29, "score": -40.19999999999999, "costs": -25.199999999999992, "simulationMode": [null, null, null, null, null], "rewards": [1, 4, -8, -5, -7], "path": ["0", "0", "1", "2", "3", "4", "6"], "rt": [41208, 44, 39, 546, 95], "actions": ["up", "up", "up", "right", "right"], "actionTimes": [42792, 43355, 43925, 44978, 45587], "queries": {"click": {"state": {"target": ["27", "33", "17", "16", "18", "22", "21", "7", "5", "6", "10", "9", "11", "28", "29", "31", "32", "20"], "time": [2504, 5160, 7113, 9269, 11498, 14153, 16812, 18749, 20981, 23413, 25306, 27313, 29226, 31329, 33580, 35533, 38162, 40109]}, "edge": {"target": [], "time": []}}, "mouseover": {"state": {"target": ["28", "26", "27", "29", "25", "33", "30", "0", "13", "15", "17", "16", "16", "18", "13", "22", "19", "21", "13", "18", "7", "4", "5", "6", "4", "2", "10", "8", "9", "11", "28", "26", "29", "25", "31", "32", "22", "19", "20"], "time": [2015, 2098, 2367, 4562, 4736, 4987, 5691, 5816, 5891, 5980, 6485, 7795, 8996, 11274, 13494, 13959, 16101, 16475, 17224, 17270, 17783, 20595, 20762, 22901, 23783, 23876, 23961, 26758, 27026, 28734, 31177, 33175, 33358, 34563, 34807, 38025, 38780, 38938, 39264]}, "edge": {"target": [], "time": []}}, "mouseout": {"state": {"target": ["23", "0", "28", "26", "27", "29", "25", "33", "30", "0", "13", "15", "17", "16", "16", "18", "13", "22", "19", "21", "13", "18", "7", "4", "5", "6", "6", "4", "2", "10", "8", "9", "11", "11", "28", "26", "29", "25", "31", "32", "22", "19", "20"], "time": [614, 1959, 2044, 2273, 4313, 4669, 4886, 5667, 5735, 5839, 5914, 6104, 7700, 7901, 10935, 13419, 13913, 16040, 16218, 16894, 17247, 17293, 20515, 20721, 22843, 23466, 23747, 23811, 23919, 26703, 26838, 28523, 29259, 30735, 31403, 33242, 34521, 34625, 35589, 38537, 38856, 38999, 40474]}, "edge": {"target": [], "time": []}}}, "displayed_time": "46.11", "trialTime": 47195, "trial_type": "mouselab-mdp", "trial_index": 36, "time_elapsed": 1018576, "internal_node_id": "0.0-6.0-1.0-27.0"}}, {"uniqueid": "w84016798:a84829169", "current_trial": 37, "dateTime": 1693481924757, "trialdata": {"revealed_states": [], "clicked_states": ["22", "20", "16", "6", "7", "5", "11", "9", "10"], "num_clicks_accrued": [0, 0, 0, 0, 0, 0, 0, 0, 0, 0, 0, 0, 0], "stateRewards": ["", -1, 1, 8, -3, -24, 11, -65, -6, -77, 48, 44, -2, 1, -2, -7, -55, -35, 33, 8, -28, 19, -53, -1, -1, -5, -5, -70, 10, 44, 8, -58, -70, 51], "withholdReward": false, "trial_id": "mdp_trial_29", "block": "test", "trialIndex": 30, "score": 37.4, "costs": -12.600000000000001, "simulationMode": [null, null, null, null, null], "rewards": [-1, 1, 8, -6, 48], "path": ["0", "0", "1", "2", "3", "8", "10"], "rt": [22718, 356, 109, 35, 27], "actions": ["up", "up", "up", "left", "down"], "actionTimes": [26458, 27314, 27943, 28479, 29019], "queries": {"click": {"state": {"target": ["22", "20", "16", "6", "7", "5", "11", "9", "10"], "time": [5146, 7443, 9698, 12255, 14468, 16836, 18807, 21165, 23562]}, "edge": {"target": [], "time": []}}, "mouseover": {"state": {"target": ["12", "13", "14", "22", "19", "20", "16", "18", "6", "7", "4", "5", "11", "9", "8", "10"], "time": [4270, 4361, 4576, 4931, 7085, 7185, 9490, 11664, 12138, 14251, 16423, 16645, 17953, 20936, 23090, 23291]}, "edge": {"target": [], "time": []}}, "mouseout": {"state": {"target": ["19", "13", "12", "12", "13", "14", "22", "19", "20", "16", "18", "6", "6", "7", "4", "5", "5", "11", "9", "8"], "time": [2373, 2422, 2443, 4321, 4385, 4831, 7042, 7136, 9127, 11537, 11837, 12339, 14151, 16369, 16517, 17039, 17439, 20777, 23028, 23166]}, "edge": {"target": [], "time": []}}}, "displayed_time": "29.54", "trialTime": 30873, "trial_type": "mouselab-mdp", "trial_index": 37, "time_elapsed": 1050283, "internal_node_id": "0.0-6.0-1.0-28.0"}}, {"uniqueid": "w84016798:a84829169", "current_trial": 38, "dateTime": 1693481946219, "trialdata": {"revealed_states": [], "clicked_states": ["7", "5", "6", "9", "20"], "num_clicks_accrued": [0, 0, 0, 0, 0, 0, 0, 0, 0, 0, 0, 0, 0], "stateRewards": ["", 1, -4, -6, 11, -20, 8, -30, 1, -38, 88, 42, 2, 3, 5, -12, -8, -74, 30, -8, 67, -19, 42, 2, -1, 4, 13, 50, -68, 2, -8, -15, 87, -46], "withholdReward": false, "trial_id": "mdp_trial_30", "block": "test", "trialIndex": 31, "score": 62, "costs": -7, "simulationMode": [null, null, null, null, null], "rewards": [2, 3, 5, -8, 67], "path": ["0", "0", "12", "13", "14", "19", "20"], "rt": [14461, 397, 138, 78, 125], "actions": ["right", "right", "right", "down", "right"], "actionTimes": [16088, 17003, 17664, 18253, 18903], "queries": {"click": {"state": {"target": ["7", "5", "6", "9", "20"], "time": [2364, 4708, 6944, 9715, 13161]}, "edge": {"target": [], "time": []}}, "mouseover": {"state": {"target": ["7", "4", "5", "6", "3", "8", "9", "28", "24", "24", "28", "24", "8", "11", "12", "22", "19", "20", "19", "22", "31"], "time": [2070, 4300, 4522, 6654, 9043, 9263, 9568, 10414, 10536, 11258, 11489, 11750, 12197, 12275, 12672, 12702, 12931, 12989, 14412, 14499, 14919]}, "edge": {"target": [], "time": []}}, "mouseout": {"state": {"target": ["10", "12", "12", "0", "7", "4", "5", "6", "6", "3", "8", "9", "28", "24", "24", "28", "24", "8", "11", "12", "22", "19", "20", "19", "22", "31"], "time": [292, 346, 768, 1654, 4265, 4356, 6570, 6971, 8100, 9126, 9484, 10214, 10511, 10621, 11422, 11556, 11912, 12235, 12635, 12697, 12725, 12968, 14388, 14456, 14582, 15509]}, "edge": {"target": [], "time": []}}}, "displayed_time": "19.41", "trialTime": 20581, "trial_type": "mouselab-mdp", "trial_index": 38, "time_elapsed": 1071746, "internal_node_id": "0.0-6.0-1.0-29.0"}}, {"uniqueid": "w84016798:a84829169", "current_trial": 39, "dateTime": 1693481963679, "trialdata": {"revealed_states": [], "clicked_states": ["31"], "num_clicks_accrued": [0, 0, 0, 0, 0, 0, 0, 0, 0, 0, 0, 0, 0], "stateRewards": ["", 2, 4, 7, 7, -79, -2, -21, -5, -53, 47, -21, 1, -3, -1, 7, 83, 7, 84, -7, 80, -37, 69, 2, -4, 5, 2, 4, -20, -30, 7, 71, 44, -81], "withholdReward": false, "trial_id": "mdp_trial_31", "block": "test", "trialIndex": 32, "score": 79.6, "costs": -1.4, "simulationMode": [null, null, null, null, null], "rewards": [2, -4, 5, 7, 71], "path": ["0", "0", "23", "24", "25", "30", "31"], "rt": [3542, 412, 209, 171, 170], "actions": ["left", "left", "left", "down", "right"], "actionTimes": [4868, 5793, 6524, 7203, 7894], "queries": {"click": {"state": {"target": ["31"], "time": [2225]}, "edge": {"target": [], "time": []}}, "mouseover": {"state": {"target": ["0", "31", "31"], "time": [1705, 1855, 2095]}, "edge": {"target": [], "time": []}}, "mouseout": {"state": {"target": ["0", "0", "31", "31"], "time": [587, 1739, 1896, 3856]}, "edge": {"target": [], "time": []}}}, "displayed_time": "15.33", "trialTime": 16588, "trial_type": "mouselab-mdp", "trial_index": 39, "time_elapsed": 1089205, "internal_node_id": "0.0-6.0-1.0-30.0"}}, {"uniqueid": "w84016798:a84829169", "current_trial": 40, "dateTime": 1693481981195, "trialdata": {"revealed_states": [], "clicked_states": ["11", "9", "10"], "num_clicks_accrued": [0, 0, 0, 0, 0, 0, 0, 0, 0, 0, 0, 0, 0], "stateRewards": ["", 2, 3, 6, -5, -74, -53, 17, -12, 46, 44, 18, -2, 4, 1, -8, 22, -23, -49, 9, -45, 55, 81, 1, -1, -7, -16, -83, -71, -45, 2, 51, 82, 61], "withholdReward": false, "trial_id": "mdp_trial_32", "block": "test", "trialIndex": 33, "score": 40.8, "costs": -4.199999999999999, "simulationMode": [null, null, null, null, null], "rewards": [2, 3, 6, -12, 46], "path": ["0", "0", "1", "2", "3", "8", "9"], "rt": [7726, 92, 116, 47, 73], "actions": ["up", "up", "up", "left", "up"], "actionTimes": [9302, 9908, 10536, 11096, 11678], "queries": {"click": {"state": {"target": ["11", "9", "10"], "time": [2628, 5039, 7438]}, "edge": {"target": [], "time": []}}, "mouseover": {"state": {"target": ["23", "11", "11", "8", "9", "8", "10"], "time": [1966, 2232, 2472, 4611, 4851, 7010, 7178]}, "edge": {"target": [], "time": []}}, "mouseout": {"state": {"target": ["0", "23", "11", "11", "8", "9", "8"], "time": [1904, 2004, 2363, 4375, 4773, 6967, 7083]}, "edge": {"target": [], "time": []}}}, "displayed_time": "15.58", "trialTime": 16554, "trial_type": "mouselab-mdp", "trial_index": 40, "time_elapsed": 1106721, "internal_node_id": "0.0-6.0-1.0-31.0"}}, {"uniqueid": "w84016798:a84829169", "current_trial": 41, "dateTime": 1693482001954, "trialdata": {"revealed_states": [], "clicked_states": ["17", "22", "20", "21", "33"], "num_clicks_accrued": [0, 0, 0, 0, 0, 0, 0, 0, 0, 0, 0, 0, 0], "stateRewards": ["", -2, 2, 3, -7, -31, -33, 29, -8, -57, 50, -83, -1, -1, 5, 13, -23, -62, 25, 5, -66, -85, 14, 1, -2, -1, 16, 71, 33, -19, -14, 5, -43, 79], "withholdReward": false, "trial_id": "mdp_trial_33", "block": "test", "trialIndex": 34, "score": 56, "costs": -7, "simulationMode": [null, null, null, null, null], "rewards": [1, -2, -1, -14, 79], "path": ["0", "0", "23", "24", "25", "30", "33"], "rt": [13570, 27, 517, 84, 81], "actions": ["left", "left", "left", "down", "left"], "actionTimes": [15125, 15668, 16710, 17320, 17910], "queries": {"click": {"state": {"target": ["17", "22", "20", "21", "33"], "time": [2290, 5180, 7884, 10101, 12044]}, "edge": {"target": [], "time": []}}, "mouseover": {"state": {"target": ["12", "13", "14", "17", "15", "22", "21", "20", "21", "24", "25", "33", "33"], "time": [1726, 1804, 1881, 2144, 4487, 4983, 7239, 7740, 8830, 10922, 11089, 11315, 11855]}, "edge": {"target": [], "time": []}}, "mouseout": {"state": {"target": ["10", "12", "12", "0", "12", "13", "14", "17", "15", "22", "21", "20", "21", "24", "25", "33", "33"], "time": [239, 335, 741, 1670, 1763, 1854, 1954, 4170, 4540, 7111, 7662, 8631, 10554, 10947, 11250, 11695, 13945]}, "edge": {"target": [], "time": []}}}, "displayed_time": "18.43", "trialTime": 19815, "trial_type": "mouselab-mdp", "trial_index": 41, "time_elapsed": 1127481, "internal_node_id": "0.0-6.0-1.0-32.0"}}, {"uniqueid": "w84016798:a84829169", "current_trial": 42, "dateTime": 1693482021549, "trialdata": {"revealed_states": [], "clicked_states": ["6", "7", "18", "16", "9"], "num_clicks_accrued": [0, 0, 0, 0, 0, 0, 0, 0, 0, 0, 0, 0, 0], "stateRewards": ["", 2, 1, -3, 7, 46, 11, -36, 16, 71, 5, 1, 2, -2, -8, -3, -4, 6, 55, 7, 68, -54, 2, 1, 1, 6, -6, 42, -4, -84, -11, -65, 63, 25], "withholdReward": false, "trial_id": "mdp_trial_34", "block": "test", "trialIndex": 35, "score": 80, "costs": -7, "simulationMode": [null, null, null, null, null], "rewards": [2, 1, -3, 16, 71], "path": ["0", "0", "1", "2", "3", "8", "9"], "rt": [12579, 362, 145, 58, 140], "actions": ["up", "up", "up", "left", "up"], "actionTimes": [14288, 15154, 15814, 16390, 17053], "queries": {"click": {"state": {"target": ["6", "7", "18", "16", "9"], "time": [2330, 4574, 6820, 8856, 11449]}, "edge": {"target": [], "time": []}}, "mouseover": {"state": {"target": ["6", "7", "18", "16", "4", "5", "9"], "time": [2132, 4371, 6595, 8666, 11010, 11122, 11310]}, "edge": {"target": [], "time": []}}, "mouseout": {"state": {"target": ["24", "0", "6", "7", "18", "16", "4", "5"], "time": [451, 1739, 4158, 6465, 6853, 9403, 11040, 11161]}, "edge": {"target": [], "time": []}}}, "displayed_time": "17.57", "trialTime": 18682, "trial_type": "mouselab-mdp", "trial_index": 42, "time_elapsed": 1147075, "internal_node_id": "0.0-6.0-1.0-33.0"}}, {"uniqueid": "w84016798:a84829169", "current_trial": 43, "dateTime": 1693482043445, "trialdata": {"revealed_states": [], "clicked_states": ["27", "33", "31", "32", "30"], "num_clicks_accrued": [0, 0, 0, 0, 0, 0, 0, 0, 0, 0, 0, 0, 0], "stateRewards": ["", -1, -3, 1, -4, -48, -63, -49, -2, -84, -19, 65, 2, -2, -2, -12, -4, 59, 9, 6, 75, 69, -13, -1, -3, -3, -2, -37, -68, -36, 13, 32, 18, -14], "withholdReward": false, "trial_id": "mdp_trial_35", "block": "test", "trialIndex": 36, "score": 31, "costs": -7, "simulationMode": [null, null, null, null, null], "rewards": [-1, -3, -3, 13, 32], "path": ["0", "0", "23", "24", "25", "30", "31"], "rt": [14368, 421, 181, 114, 85], "actions": ["left", "left", "left", "down", "right"], "actionTimes": [16503, 17438, 18126, 18747, 19337], "queries": {"click": {"state": {"target": ["27", "33", "31", "32", "30"], "time": [3131, 5962, 8594, 10996, 13285]}, "edge": {"target": [], "time": []}}, "mouseover": {"state": {"target": ["28", "26", "27", "28", "23", "24", "25", "33", "30", "31", "31", "32", "30"], "time": [2563, 2612, 2845, 5055, 5112, 5440, 5568, 5810, 7876, 7991, 8497, 10715, 13072]}, "edge": {"target": [], "time": []}}, "mouseout": {"state": {"target": ["9", "10", "0", "28", "26", "27", "28", "23", "24", "25", "33", "33", "30", "31", "31", "32", "30"], "time": [976, 1039, 2471, 2587, 2795, 5011, 5085, 5307, 5476, 5652, 6050, 7817, 7908, 8097, 10364, 12947, 14227]}, "edge": {"target": [], "time": []}}}, "displayed_time": "19.86", "trialTime": 21006, "trial_type": "mouselab-mdp", "trial_index": 43, "time_elapsed": 1168972, "internal_node_id": "0.0-6.0-1.0-34.0"}}, {"uniqueid": "w84016798:a84829169", "current_trial": 44, "dateTime": 1693482061836, "trialdata": {"revealed_states": [], "clicked_states": ["19", "15", "17", "18", "16"], "num_clicks_accrued": [0, 0, 0, 0, 0, 0, 0, 0, 0, 0, 0, 0, 0], "stateRewards": ["", 2, 3, 8, 14, 69, -27, 17, 2, -71, -65, -10, 2, -3, 7, 8, 65, -10, 65, -12, 73, -12, 13, -2, -2, 6, 10, -79, -69, -18, 10, -85, 67, 74], "withholdReward": false, "trial_id": "mdp_trial_36", "block": "test", "trialIndex": 37, "score": 72, "costs": -7, "simulationMode": [null, null, null, null, null], "rewards": [2, -3, 7, 8, 65], "path": ["0", "0", "12", "13", "14", "15", "16"], "rt": [11290, 370, 126, 46, 129], "actions": ["right", "right", "right", "up", "up"], "actionTimes": [13125, 14011, 14661, 15229, 15911], "queries": {"click": {"state": {"target": ["19", "15", "17", "18", "16"], "time": [2437, 4598, 7256, 9237, 11181]}, "edge": {"target": [], "time": []}}, "mouseover": {"state": {"target": ["19", "14", "16", "15", "16", "17", "18", "16"], "time": [1887, 3262, 3482, 3805, 6578, 7116, 8714, 9970]}, "edge": {"target": [], "time": []}}, "mouseout": {"state": {"target": ["0", "19", "14", "16", "15", "16", "17", "17", "15", "18"], "time": [1199, 3237, 3290, 3637, 6536, 6612, 7312, 8391, 8644, 9615]}, "edge": {"target": [], "time": []}}}, "displayed_time": "16.43", "trialTime": 17480, "trial_type": "mouselab-mdp", "trial_index": 44, "time_elapsed": 1187362, "internal_node_id": "0.0-6.0-1.0-35.0"}}, {"uniqueid": "w84016798:a84829169", "current_trial": 45, "dateTime": 1693482084411, "trialdata": {"revealed_states": [], "clicked_states": ["3", "4", "8", "26", "27", "28", "29"], "num_clicks_accrued": [0, 0, 0, 0, 0, 0, 0, 0, 0, 0, 0, 0, 0], "stateRewards": ["", 2, -1, -2, -5, -47, -57, -33, -11, 31, -18, -72, -2, 1, -4, -8, -46, -53, -50, 15, -85, -9, 39, -2, -2, 1, 14, -1, -8, 53, -12, -41, -74, 62], "withholdReward": false, "trial_id": "mdp_trial_37", "block": "test", "trialIndex": 38, "score": 54.2, "costs": -9.8, "simulationMode": [null, null, null, null, null], "rewards": [-2, -2, 1, 14, 53], "path": ["0", "0", "23", "24", "25", "26", "29"], "rt": [16777, 18, 59, 33, 27], "actions": ["left", "left", "left", "up", "left"], "actionTimes": [18174, 18649, 19246, 19795, 20335], "queries": {"click": {"state": {"target": ["3", "4", "8", "26", "27", "28", "29"], "time": [2001, 4310, 6699, 9260, 11644, 13606, 15500]}, "edge": {"target": [], "time": []}}, "mouseover": {"state": {"target": ["3", "4", "4", "5", "8", "28", "25", "26", "25", "27", "28", "29", "30"], "time": [1825, 3734, 4126, 5953, 6541, 8795, 8895, 9081, 11116, 11450, 13255, 14380, 16212]}, "edge": {"target": [], "time": []}}, "mouseout": {"state": {"target": ["16", "18", "3", "4", "4", "5", "8", "28", "25", "26", "25", "26", "27", "28", "29"], "time": [344, 472, 3691, 3814, 5784, 6204, 8598, 8834, 9032, 10966, 11250, 11337, 13116, 13636, 15976]}, "edge": {"target": [], "time": []}}}, "displayed_time": "20.87", "trialTime": 21637, "trial_type": "mouselab-mdp", "trial_index": 45, "time_elapsed": 1209937, "internal_node_id": "0.0-6.0-1.0-36.0"}}, {"uniqueid": "w84016798:a84829169", "current_trial": 46, "dateTime": 1693482102652, "trialdata": {"revealed_states": [], "clicked_states": ["30", "19", "4", "6"], "num_clicks_accrued": [0, 0, 0, 0, 0, 0, 0, 0, 0, 0, 0, 0, 0], "stateRewards": ["", -1, 2, 7, 8, 75, 67, -11, 6, 52, -17, 38, -1, 4, -8, 14, 74, -37, -17, -12, 52, 55, 71, -2, -1, -5, 2, 21, 6, -88, -14, 64, -61, -47], "withholdReward": false, "trial_id": "mdp_trial_38", "block": "test", "trialIndex": 39, "score": 77.4, "costs": -5.6, "simulationMode": [null, null, null, null, null], "rewards": [-1, 2, 7, 8, 67], "path": ["0", "0", "1", "2", "3", "4", "6"], "rt": [11324, 34, 65, 16, 58], "actions": ["up", "up", "up", "right", "right"], "actionTimes": [13370, 13934, 14513, 15044, 15633], "queries": {"click": {"state": {"target": ["30", "19", "4", "6"], "time": [2891, 5436, 8495, 10677]}, "edge": {"target": [], "time": []}}, "mouseover": {"state": {"target": ["31", "30", "31", "19", "14", "15", "3", "4", "6", "7"], "time": [2517, 2839, 4823, 5219, 7342, 7410, 8052, 8225, 10430, 12555]}, "edge": {"target": [], "time": []}}, "mouseout": {"state": {"target": ["30", "31", "0", "31", "30", "31", "19", "14", "15", "3", "4", "6"], "time": [1011, 1075, 2390, 2690, 4657, 4870, 7279, 7376, 7537, 8186, 10393, 12304]}, "edge": {"target": [], "time": []}}}, "displayed_time": "16.15", "trialTime": 17305, "trial_type": "mouselab-mdp", "trial_index": 46, "time_elapsed": 1228178, "internal_node_id": "0.0-6.0-1.0-37.0"}}, {"uniqueid": "w84016798:a84829169", "current_trial": 47, "dateTime": 1693482149758, "trialdata": {"revealed_states": [], "clicked_states": ["4", "8", "19", "22", "15", "16", "26", "28", "27", "29", "30", "31", "32", "33", "11", "10", "9"], "num_clicks_accrued": [0, 0, 0, 0, 0, 0, 0, 0, 0, 0, 0, 0, 0], "stateRewards": ["", -1, -2, -1, -10, -57, 73, -72, -16, 75, -14, -46, -2, -3, -7, -1, -61, -60, 76, -4, 50, 4, 14, 2, 2, -7, 12, -65, -32, 15, -8, -76, -25, -61], "withholdReward": false, "trial_id": "mdp_trial_39", "block": "test", "trialIndex": 40, "score": 31.200000000000003, "costs": -23.799999999999994, "simulationMode": [null, null, null, null, null], "rewards": [-1, -2, -1, -16, 75], "path": ["0", "0", "1", "2", "3", "8", "9"], "rt": [39900, 119, 115, 546, 190], "actions": ["up", "up", "up", "left", "up"], "actionTimes": [41592, 42208, 42829, 43877, 44578], "queries": {"click": {"state": {"target": ["4", "8", "19", "22", "15", "16", "26", "28", "27", "29", "30", "31", "32", "33", "11", "10", "9"], "time": [2466, 4858, 7596, 9794, 12747, 14731, 16618, 18900, 20838, 23393, 25977, 27924, 29852, 31711, 34539, 36689, 38918]}, "edge": {"target": [], "time": []}}, "mouseover": {"state": {"target": ["10", "4", "8", "8", "2", "13", "14", "19", "19", "22", "14", "15", "16", "18", "24", "26", "28", "27", "29", "25", "30", "31", "32", "33", "25", "10", "8", "11", "10", "8", "9", "5"], "time": [1998, 2198, 4404, 4699, 6660, 6955, 7081, 7195, 7368, 9266, 10278, 10377, 14513, 15652, 15795, 16053, 18744, 20140, 23086, 25442, 25813, 27501, 29227, 31283, 33616, 33717, 33862, 34248, 36310, 38323, 38491, 40579]}, "edge": {"target": [], "time": []}}, "mouseout": {"state": {"target": ["7", "10", "4", "8", "8", "2", "13", "14", "19", "19", "22", "14", "15", "16", "18", "24", "26", "28", "27", "29", "29", "25", "30", "31", "32", "33", "25", "10", "8", "11", "10", "8", "9"], "time": [668, 2098, 4359, 4438, 6543, 6710, 7011, 7113, 7278, 9167, 10232, 10329, 12779, 15602, 15699, 15969, 18684, 19925, 22199, 23446, 24671, 25485, 27367, 28978, 30976, 33281, 33662, 33767, 33946, 36068, 38215, 38374, 40111]}, "edge": {"target": [], "time": []}}}, "displayed_time": "45.08", "trialTime": 46168, "trial_type": "mouselab-mdp", "trial_index": 47, "time_elapsed": 1275284, "internal_node_id": "0.0-6.0-1.0-38.0"}}, {"uniqueid": "w84016798:a84829169", "current_trial": 48, "dateTime": 1693482167668, "trialdata": {"revealed_states": [], "clicked_states": ["22"], "num_clicks_accrued": [0, 0, 0, 0, 0, 0, 0, 0, 0, 0, 0, 0, 0], "stateRewards": ["", 2, -3, 5, -14, -63, -9, -24, -11, -54, -43, 68, 2, -2, -4, 7, -64, 30, 47, 12, -74, 11, 86, 1, -3, 3, 10, -71, -42, -52, -1, -29, -16, 69], "withholdReward": false, "trial_id": "mdp_trial_40", "block": "test", "trialIndex": 41, "score": 92.6, "costs": -1.4, "simulationMode": [null, null, null, null, null], "rewards": [2, -2, -4, 12, 86], "path": ["0", "0", "12", "13", "14", "19", "22"], "rt": [3825, 16, 38, 453, 146], "actions": ["right", "right", "right", "down", "left"], "actionTimes": [5430, 5969, 6552, 7536, 8193], "queries": {"click": {"state": {"target": ["22"], "time": [2863]}, "edge": {"target": [], "time": []}}, "mouseover": {"state": {"target": ["1", "23", "22"], "time": [1973, 2123, 2673]}, "edge": {"target": [], "time": []}}, "mouseout": {"state": {"target": ["5", "4", "2", "1", "0", "1", "23", "22"], "time": [502, 552, 635, 769, 1931, 2073, 2172, 4444]}, "edge": {"target": [], "time": []}}}, "displayed_time": "15.61", "trialTime": 16930, "trial_type": "mouselab-mdp", "trial_index": 48, "time_elapsed": 1293194, "internal_node_id": "0.0-6.0-1.0-39.0"}}, {"uniqueid": "w84016798:a84829169", "current_trial": 49, "dateTime": 1693482215818, "trialdata": {"rt": 48135, "response": {"Q0": "$-2 to $2", "Q1": "$-32 to $32", "Q2": "$-88 to $88", "Q3": "The cost was always $1.4.", "Q4": "Very motivated"}, "question_order": [0, 1, 2, 3, 4], "trial_id": "final_quiz_control", "trial_type": "survey-multi-choice", "trial_index": 49, "time_elapsed": 1341345, "internal_node_id": "0.0-6.0-2.0"}}, {"uniqueid": "w84016798:a84829169", "current_trial": 50, "dateTime": 1693482343211, "trialdata": {"rt": 127381, "response": {"Q0": "I mostly only inspected the outside nodes and find the one with the biggest value.", "Q1": "I started to inspect the 4th and 5th step nodes to identify both positive nodes.", "Q2": "It was hard, the fact that each node can only be inspected once."}, "trial_id": "self_report_control", "trial_type": "survey-text", "trial_index": 50, "time_elapsed": 1468739, "internal_node_id": "0.0-6.0-3.0"}}, {"uniqueid": "w84016798:a84829169", "current_trial": 51, "dateTime": 1693482365163, "trialdata": {"rt": 21947, "response": {"gender": "male", "age": "21", "colorblind": "0", "effort": "0"}, "trial_type": "survey-html-form", "trial_index": 51, "time_elapsed": 1490691, "internal_node_id": "0.0-6.0-4.0"}}, {"uniqueid": "w84016798:a84829169", "current_trial": 52, "dateTime": 1693482383977, "trialdata": {"rt": 18806, "response": {"Q0": "No", "Q1": "No", "Q2": ""}, "trial_type": "survey-text", "trial_index": 52, "time_elapsed": 1509504, "internal_node_id": "0.0-6.0-5.0"}}, {"uniqueid": "w84016798:a84829169", "current_trial": 53, "dateTime": 1693482417080, "trialdata": {"rt": 33098, "stimulus": "<h1>Completion Code Instructions (1/2)</h1>\n<br><br><br><br>\nYou have reached the end of the experiment! The completion code consists of two parts: (1) a code with 2 characters (2) a code with 6 characters. On this page, you will receive the second part of the code. The first part of the completion code will be on the next page.\n<br><br>\nThe second part of your completion code is: <b>EWEK22</b>\n<br><br>\nPlease note this down. Then, press 'Finish HIT' in order to find the first part of your completion code. Once the data has been saved, you will receive this code either in this window or in the original browser window where you started the experiment.\n", "response": 0, "trial_type": "html-button-response", "trial_index": 53, "time_elapsed": 1542608, "internal_node_id": "0.0-6.0-6.0"}}, {"uniqueid": "w84016798:a84829169", "current_trial": 54, "dateTime": 1693482418086, "trialdata": {"success": true, "trial_type": "fullscreen", "trial_index": 54, "time_elapsed": 1543614, "internal_node_id": "0.0-7.0"}}], "questiondata": {"params": {"CODE": "C6DMOQA6", "MIN_TIME": 14, "inspectCost": 1, "startTime": "Thu Aug 31 2023 13:21:13 GMT+0200 (South Africa Standard Time)", "bonusRate": 0.002, "variance": "1_2_4_8_44", "branching": "31123"}, "final_score": 2417.2}, "eventdata": [{"eventtype": "initialized", "value": null, "timestamp": 1693480872545, "interval": 0}, {"eventtype": "window_resize", "value": [1600, 802], "timestamp": 1693480872545, "interval": 0}, {"eventtype": "window_resize", "value": [1600, 802], "timestamp": 1693480873014, "interval": 469}, {"eventtype": "window_resize", "value": [1600, 900], "timestamp": 1693480893421, "interval": 20407}, {"eventtype": "window_resize", "value": [1600, 802], "timestamp": 1693482417331, "interval": 1523910}], "useragent": "Mozilla/5.0 (Windows NT 10.0; Win64; x64) AppleWebKit/537.36 (KHTML, like Gecko) Chrome/116.0.0.0 Safari/537.36", "mode": "live", "id": "w84016798:a84829169", "status": "user data saved", "Beginhit": "2023-08-31 11:21:08.04895", "Beginexp": "2023-08-31 11:21:32.399682", "Endhit": "2023-08-31 11:46:57.101987", "psiturkStatus": 3, "browser": "<redacted>", "platform": "windows", "language": "en-ZA"}