{"condition": 0, "counterbalance": 0, "assignmentId": "a27395938", "workerId": "w83126098", "hitId": "h46130546", "currenttrial": 55, "bonus": 0, "data": [{"uniqueid": "w83126098:a27395938", "current_trial": 0, "dateTime": 1691159964689, "trialdata": {"success": true, "trial_type": "fullscreen", "trial_index": 0, "time_elapsed": 80037, "internal_node_id": "0.0-0.0"}}, {"uniqueid": "w83126098:a27395938", "current_trial": 1, "dateTime": 1691160013966, "trialdata": {"view_history": [{"page_index": 0, "viewing_time": 49248}], "rt": 49251, "trial_id": "exp_instructions_control", "trial_type": "instructions", "trial_index": 1, "time_elapsed": 129316, "internal_node_id": "0.0-1.0"}}, {"uniqueid": "w83126098:a27395938", "current_trial": 2, "dateTime": 1691160027363, "trialdata": {"success": true, "trial_type": "fullscreen", "trial_index": 2, "time_elapsed": 142712, "internal_node_id": "0.0-2.0-0.0"}}, {"uniqueid": "w83126098:a27395938", "current_trial": 3, "dateTime": 1691160830925, "trialdata": {"view_history": [{"page_index": 0, "viewing_time": 211882}, {"page_index": 1, "viewing_time": 427692}, {"page_index": 2, "viewing_time": 82151}, {"page_index": 3, "viewing_time": 81821}], "rt": 803548, "trial_id": "mouselab_instructions_1_control", "trial_type": "instructions", "trial_index": 3, "time_elapsed": 946275, "internal_node_id": "0.0-2.0-1.0"}}, {"uniqueid": "w83126098:a27395938", "current_trial": 4, "dateTime": 1691160935484, "trialdata": {"revealed_states": [], "clicked_states": ["1", "2", "3", "4", "5", "23", "24", "25", "30", "32", "12", "13", "14", "19", "20"], "num_clicks_accrued": [0, 0, 0, 0, 0, 0, 0, 0, 0, 0, 0, 0, 0], "stateRewards": ["", 10, 10, 10, -10, 10, -10, 10, 10, -10, 10, 10, -10, 10, 10, -10, 10, 10, 10, -10, -10, -10, 10, 10, -10, 10, 10, -10, -10, -10, -10, 10, 10, 10], "withholdReward": false, "trial_id": "practice_1", "block": "test", "trialIndex": 0, "score": -14, "costs": -7.5, "simulationMode": [null, null, null, null, null], "rewards": [-10, 10, 10, -10, -10], "path": ["0", "0", "12", "13", "14", "19", "20"], "rt": [62730, 616, 452, 1545, 1512], "actions": ["right", "right", "right", "down", "right"], "actionTimes": [77903, 79024, 79980, 82026, 84034], "queries": {"click": {"state": {"target": ["1", "2", "3", "4", "5", "23", "24", "25", "30", "32", "12", "13", "14", "19", "20"], "time": [21361, 24179, 26185, 27934, 29542, 36129, 37189, 40859, 43864, 45185, 53114, 54471, 56075, 57551, 59437]}, "edge": {"target": [], "time": []}}, "mouseover": {"state": {"target": ["1", "2", "3", "4", "5", "5", "4", "7", "23", "24", "25", "23", "25", "30", "32", "31", "23", "0", "12", "13", "14", "19", "20", "21", "19", "14", "23", "23", "0", "0", "1", "1"], "time": [20850, 23485, 25618, 27475, 28911, 34766, 34868, 34951, 35786, 36777, 38296, 40188, 40438, 43428, 44721, 47412, 49402, 49453, 51727, 54005, 55574, 57030, 59050, 61923, 63016, 63183, 67899, 69473, 70741, 71763, 71911, 72383]}, "edge": {"target": [], "time": []}}, "mouseout": {"state": {"target": ["22", "19", "20", "7", "0", "1", "2", "3", "3", "4", "5", "5", "5", "4", "7", "23", "24", "25", "24", "23", "24", "25", "30", "32", "31", "23", "0", "12", "12", "13", "14", "19", "20", "19", "21", "19", "14", "23", "23", "0", "0", "1", "1", "0", "15", "17"], "time": [5077, 5129, 5163, 13139, 14224, 23359, 25434, 26377, 27374, 28817, 29733, 33444, 34804, 34901, 34984, 36324, 37400, 39968, 40069, 40317, 40400, 41676, 44669, 47227, 47641, 49437, 49519, 53305, 53854, 55507, 56996, 58944, 61411, 61754, 62932, 63116, 65592, 69180, 69508, 70768, 71791, 71965, 94325, 98522, 98557, 98592]}, "edge": {"target": [], "time": []}}}, "displayed_time": "84.55", "trialTime": 102638, "trial_type": "mouselab-mdp", "trial_index": 4, "time_elapsed": 1050832, "internal_node_id": "0.0-2.0-2.0-0.0"}}, {"uniqueid": "w83126098:a27395938", "current_trial": 5, "dateTime": 1691161016969, "trialdata": {"revealed_states": [], "clicked_states": ["23", "24", "25", "30", "32", "1", "2", "3", "8", "11", "4", "6", "15", "14", "16", "13", "12"], "num_clicks_accrued": [0, 0, 0, 0, 0, 0, 0, 0, 0, 0, 0, 0, 0], "stateRewards": ["", 10, -10, -10, -10, 10, 10, 10, 10, -10, -10, -10, 10, 10, 10, 10, -10, 10, 10, 10, 10, 10, 10, 10, -10, -10, 10, -10, 10, -10, -10, 10, -10, -10], "withholdReward": false, "trial_id": "practice_2", "block": "test", "trialIndex": 1, "score": 45, "costs": -8.5, "simulationMode": [null, null, null, null, null], "rewards": [10, 10, 10, 10, 10], "path": ["0", "0", "12", "13", "14", "15", "17"], "rt": [60844, 397, 409, 995, 1944], "actions": ["right", "right", "right", "up", "right"], "actionTimes": [64643, 65542, 66456, 67962, 70417], "queries": {"click": {"state": {"target": ["23", "24", "25", "30", "32", "1", "2", "3", "8", "11", "4", "6", "15", "14", "16", "13", "12"], "time": [6339, 9734, 12742, 15856, 18743, 21762, 24307, 27604, 29680, 32245, 34747, 36745, 42582, 44726, 52013, 54826, 56908]}, "edge": {"target": [], "time": []}}, "mouseover": {"state": {"target": ["23", "24", "25", "30", "32", "1", "2", "3", "8", "11", "3", "4", "6", "15", "18", "15", "14", "19", "13", "15", "16", "15", "14", "13", "12", "13", "14", "15", "17", "15", "12", "0"], "time": [5964, 9329, 12004, 15131, 18373, 21379, 23912, 26203, 29191, 31689, 34009, 34215, 36303, 40855, 41121, 42057, 43533, 46557, 48262, 51325, 51575, 53818, 53984, 54352, 56356, 59086, 59171, 59536, 60180, 61314, 61761, 62266]}, "edge": {"target": [], "time": []}}, "mouseout": {"state": {"target": ["12", "23", "24", "25", "30", "32", "1", "2", "3", "8", "11", "3", "4", "6", "15", "18", "15", "14", "14", "19", "13", "15", "16", "15", "14", "13", "12", "12", "13", "14", "15", "17", "15", "12", "0", "0", "17"], "time": [2663, 9211, 11968, 15047, 18072, 20465, 23594, 26097, 29162, 31588, 33899, 34131, 36270, 37709, 41084, 41758, 43317, 44911, 46439, 47736, 51265, 51375, 53764, 53867, 54185, 56141, 58683, 59048, 59135, 59216, 60052, 61277, 61410, 61811, 62528, 77772, 77811]}, "edge": {"target": [], "time": []}}}, "displayed_time": "70.91", "trialTime": 80678, "trial_type": "mouselab-mdp", "trial_index": 5, "time_elapsed": 1132317, "internal_node_id": "0.0-2.0-2.0-1.0"}}, {"uniqueid": "w83126098:a27395938", "current_trial": 6, "dateTime": 1691161127805, "trialdata": {"view_history": [{"page_index": 0, "viewing_time": 81151}, {"page_index": 1, "viewing_time": 29670}], "rt": 110822, "trial_id": "mouselab_instructions_2_control", "trial_type": "instructions", "trial_index": 6, "time_elapsed": 1243155, "internal_node_id": "0.0-2.0-3.0"}}, {"uniqueid": "w83126098:a27395938", "current_trial": 7, "dateTime": 1691161217486, "trialdata": {"rt": 89642, "response": {"Q0": "The cost for clicking on nodes may vary between nodes.", "Q1": "The better I perform the higher my bonus will be.", "Q2": "No, the amount of cash at each node of the web may be different each time.", "Q3": "To get the highest total score.", "Q4": "Only before moving the spider.", "Q5": "3 seconds"}, "question_order": [0, 1, 2, 3, 4, 5], "correct": {"Q0": "The cost for clicking on nodes may vary between nodes.", "Q1": "The better I perform the higher my bonus will be.", "Q2": "No, the amount of cash at each node of the web may be different each time.", "Q3": "To get the highest total score.", "Q4": "Only before moving the spider.", "Q5": "3 seconds"}, "trial_id": "mouselab_quiz_control", "trial_type": "survey-multi-choice", "trial_index": 7, "time_elapsed": 1332836, "internal_node_id": "0.0-2.0-4.0"}}, {"uniqueid": "w83126098:a27395938", "current_trial": 8, "dateTime": 1691161262755, "trialdata": {"rt": 45245, "stimulus": "\n<h1> Get ready to start the game! </h1>\n\nThank you for reading the instructions. Get ready start with the 40 rounds of this game.\n<br><br>\nIf you need to take a break, feel free to take one after the end of a round, before continuing to the next one.\n<br><br>\nRemember, the more money the spider gets, the bigger your bonus will be!\n<br><br>\n<div style='text-align: center;'>Press <code>space</code> to begin.</div>\n\n<br><br>\n(If, at any point, the <code>space</code> key does not take you to the next page, click once on the text and try again.)", "response": " ", "trial_id": "mdp_ready", "trial_type": "html-keyboard-response", "trial_index": 8, "time_elapsed": 1378105, "internal_node_id": "0.0-4.0-0.0"}}, {"uniqueid": "w83126098:a27395938", "current_trial": 9, "dateTime": 1691161304004, "trialdata": {"revealed_states": [], "clicked_states": ["23", "24", "25", "30", "32"], "num_clicks_accrued": [0, 0, 0, 0, 0, 0, 0, 0, 0, 0, 0, 0, 0], "stateRewards": ["", -2, 1, -5, 2, -68, 80, 33, 10, 67, -59, 20, -1, -3, 3, 14, 74, -2, 24, -16, 63, 80, 46, -1, 4, 6, 12, 83, -38, -43, -4, 43, 14, -79], "withholdReward": false, "trial_id": "mdp_trial_1", "block": "test", "trialIndex": 2, "score": 12, "costs": -7, "simulationMode": [null, null, null, null, null], "rewards": [-1, 4, 6, -4, 14], "path": ["0", "0", "23", "24", "25", "30", "32"], "rt": [17730, 566, 492, 538, 405], "actions": ["left", "left", "left", "down", "down"], "actionTimes": [24676, 25743, 26737, 27787, 28690], "queries": {"click": {"state": {"target": ["23", "24", "25", "30", "32"], "time": [9409, 11769, 13924, 16445, 19258]}, "edge": {"target": [], "time": []}}, "mouseover": {"state": {"target": ["23", "24", "25", "30", "32", "0"], "time": [8998, 9987, 12310, 14601, 17294, 23380]}, "edge": {"target": [], "time": []}}, "mouseout": {"state": {"target": ["0", "23", "24", "25", "30", "32", "0", "0", "18", "15", "18", "0", "1", "0", "0", "12"], "time": [8946, 9920, 12226, 14535, 17176, 19456, 23519, 31056, 31107, 31401, 31470, 34232, 36426, 36595, 37832, 37859]}, "edge": {"target": [], "time": []}}}, "displayed_time": "29.19", "trialTime": 40565, "trial_type": "mouselab-mdp", "trial_index": 9, "time_elapsed": 1419352, "internal_node_id": "0.0-4.0-1.0-0.0"}}, {"uniqueid": "w83126098:a27395938", "current_trial": 10, "dateTime": 1691161340935, "trialdata": {"revealed_states": [], "clicked_states": ["1", "2", "3", "8", "11"], "num_clicks_accrued": [0, 0, 0, 0, 0, 0, 0, 0, 0, 0, 0, 0, 0], "stateRewards": ["", 2, -1, 5, 8, 75, -35, -77, 1, -9, -81, -58, 1, 2, -7, 5, 77, -16, 19, 16, -10, -18, 40, -2, 3, 7, -5, 64, 1, -62, 10, 27, 10, 65], "withholdReward": false, "trial_id": "mdp_trial_2", "block": "test", "trialIndex": 3, "score": -9, "costs": -7, "simulationMode": [null, null, null, null, null], "rewards": [2, -1, 5, 1, -9], "path": ["0", "0", "1", "2", "3", "8", "9"], "rt": [22859, 141, 6, 1283, 449], "actions": ["up", "up", "up", "left", "up"], "actionTimes": [25352, 25991, 26506, 28303, 29258], "queries": {"click": {"state": {"target": ["1", "2", "3", "8", "11"], "time": [4056, 5619, 7921, 10436, 13140]}, "edge": {"target": [], "time": []}}, "mouseover": {"state": {"target": ["1", "2", "3", "3", "8", "11", "10", "2", "1", "0", "1", "8", "9", "8", "2", "1", "1"], "time": [3548, 4722, 6980, 7291, 10038, 12616, 14388, 14485, 17662, 17833, 18424, 18526, 18765, 20130, 20192, 20246, 21078]}, "edge": {"target": [], "time": []}}, "mouseout": {"state": {"target": ["21", "0", "1", "2", "3", "3", "8", "8", "11", "10", "2", "1", "0", "1", "8", "9", "8", "2", "1", "1"], "time": [1290, 3488, 4252, 5830, 7079, 9955, 10633, 11629, 14305, 14407, 14506, 17715, 18383, 18436, 18561, 20090, 20143, 20211, 20275, 21129]}, "edge": {"target": [], "time": []}}}, "displayed_time": "29.76", "trialTime": 36223, "trial_type": "mouselab-mdp", "trial_index": 10, "time_elapsed": 1456282, "internal_node_id": "0.0-4.0-1.0-1.0"}}, {"uniqueid": "w83126098:a27395938", "current_trial": 11, "dateTime": 1691161369366, "trialdata": {"revealed_states": [], "clicked_states": [], "num_clicks_accrued": [0, 0, 0, 0, 0, 0, 0, 0, 0, 0, 0, 0, 0], "stateRewards": ["", -2, 2, -5, 1, 42, -63, -58, -6, 2, 16, 81, -2, 4, 7, -10, 33, 3, -33, -2, -52, -84, -27, 2, -3, -3, 15, -74, -14, -5, -5, -84, 79, -31], "withholdReward": false, "trial_id": "mdp_trial_3", "block": "test", "trialIndex": 4, "score": -77, "costs": 0, "simulationMode": [null, null, null, null, null], "rewards": [-2, 4, 7, -2, -84], "path": ["0", "0", "12", "13", "14", "19", "21"], "rt": [14346, 1439, 473, 2029, 205], "actions": ["right", "right", "right", "down", "down"], "actionTimes": [16693, 18644, 19619, 22144, 22847], "queries": {"click": {"state": {"target": [], "time": []}, "edge": {"target": [], "time": []}}, "mouseover": {"state": {"target": ["12", "12", "0", "12"], "time": [4794, 5108, 7199, 8269]}, "edge": {"target": [], "time": []}}, "mouseout": {"state": {"target": ["1", "12", "12", "0", "12"], "time": [1138, 4846, 7031, 7249, 9473]}, "edge": {"target": [], "time": []}}}, "displayed_time": "23.34", "trialTime": 27662, "trial_type": "mouselab-mdp", "trial_index": 11, "time_elapsed": 1484714, "internal_node_id": "0.0-4.0-1.0-2.0"}}, {"uniqueid": "w83126098:a27395938", "current_trial": 12, "dateTime": 1691161399876, "trialdata": {"revealed_states": [], "clicked_states": ["1", "3", "2", "4", "6"], "num_clicks_accrued": [0, 0, 0, 0, 0, 0, 0, 0, 0, 0, 0, 0, 0], "stateRewards": ["", -1, -2, -1, -10, -57, 73, -72, -16, 75, -14, -46, -2, -3, -7, -1, -61, -60, 76, -4, 50, 4, 14, 2, 2, -7, 12, -65, -32, 15, -8, -76, -25, -61], "withholdReward": false, "trial_id": "mdp_trial_4", "block": "test", "trialIndex": 5, "score": 52, "costs": -7, "simulationMode": [null, null, null, null, null], "rewards": [-1, -2, -1, -10, 73], "path": ["0", "0", "1", "2", "3", "4", "6"], "rt": [15599, 300, 415, 1961, 54], "actions": ["up", "up", "up", "right", "right"], "actionTimes": [19066, 19888, 20805, 23277, 23839], "queries": {"click": {"state": {"target": ["1", "3", "2", "4", "6"], "time": [5775, 8601, 10391, 12112, 15538]}, "edge": {"target": [], "time": []}}, "mouseover": {"state": {"target": ["1", "2", "3", "2", "4", "6", "7", "6", "4"], "time": [5282, 6284, 8072, 9733, 11560, 13568, 14782, 15101, 17575]}, "edge": {"target": [], "time": []}}, "mouseout": {"state": {"target": ["17", "13", "0", "1", "2", "3", "3", "2", "3", "4", "6", "4", "7", "6", "4", "18", "15", "20"], "time": [2148, 2188, 2633, 6186, 7795, 8787, 9533, 10575, 10954, 13312, 14481, 14522, 14966, 17524, 17612, 25704, 25744, 26188]}, "edge": {"target": [], "time": []}}}, "displayed_time": "24.35", "trialTime": 29730, "trial_type": "mouselab-mdp", "trial_index": 12, "time_elapsed": 1515225, "internal_node_id": "0.0-4.0-1.0-3.0"}}, {"uniqueid": "w83126098:a27395938", "current_trial": 13, "dateTime": 1691161431429, "trialdata": {"revealed_states": [], "clicked_states": ["23", "24", "25", "26", "28"], "num_clicks_accrued": [0, 0, 0, 0, 0, 0, 0, 0, 0, 0, 0, 0, 0], "stateRewards": ["", -2, -3, 7, -13, 60, 9, 37, -6, 37, 20, 1, 2, -2, -8, 6, -80, -31, -10, -7, 70, -65, -44, -1, 1, 7, 6, -11, 73, -85, 16, -21, 47, 34], "withholdReward": false, "trial_id": "mdp_trial_5", "block": "test", "trialIndex": 6, "score": 79, "costs": -7, "simulationMode": [null, null, null, null, null], "rewards": [-1, 1, 7, 6, 73], "path": ["0", "0", "23", "24", "25", "26", "28"], "rt": [17574, 96, 66, 1037, 1556], "actions": ["left", "left", "left", "up", "right"], "actionTimes": [21588, 22190, 22760, 24316, 26375], "queries": {"click": {"state": {"target": ["23", "24", "25", "26", "28"], "time": [6077, 8054, 10442, 12961, 16535]}, "edge": {"target": [], "time": []}}, "mouseover": {"state": {"target": ["23", "24", "25", "26", "28", "7", "16"], "time": [5596, 7124, 10029, 12504, 16050, 19454, 19521]}, "edge": {"target": [], "time": []}}, "mouseout": {"state": {"target": ["0", "23", "24", "25", "26", "28", "7", "16"], "time": [3260, 7003, 9893, 12462, 15897, 19412, 19479, 19549]}, "edge": {"target": [], "time": []}}}, "displayed_time": "26.88", "trialTime": 30754, "trial_type": "mouselab-mdp", "trial_index": 13, "time_elapsed": 1546777, "internal_node_id": "0.0-4.0-1.0-4.0"}}, {"uniqueid": "w83126098:a27395938", "current_trial": 14, "dateTime": 1691161458503, "trialdata": {"revealed_states": [], "clicked_states": [], "num_clicks_accrued": [0, 0, 0, 0, 0, 0, 0, 0, 0, 0, 0, 0, 0], "stateRewards": ["", -2, 3, -5, -7, 66, 43, -60, -4, -70, -75, 4, -1, 2, 2, -13, 54, 11, -40, -1, 77, 32, 15, -2, 3, -8, -9, -35, 83, -27, 6, -74, -34, 44], "withholdReward": false, "trial_id": "mdp_trial_6", "block": "test", "trialIndex": 7, "score": 34, "costs": 0, "simulationMode": [null, null, null, null, null], "rewards": [-1, 2, 2, -1, 32], "path": ["0", "0", "12", "13", "14", "19", "21"], "rt": [9956, 54, 138, 2370, 1288], "actions": ["right", "right", "right", "down", "down"], "actionTimes": [15205, 15763, 16415, 19283, 21084], "queries": {"click": {"state": {"target": [], "time": []}, "edge": {"target": [], "time": []}}, "mouseover": {"state": {"target": ["12", "13", "12", "13", "13", "14", "14"], "time": [7704, 7910, 8111, 9098, 10904, 12039, 12510]}, "edge": {"target": [], "time": []}}, "mouseout": {"state": {"target": ["14", "13", "1", "12", "13", "12", "13", "13", "14", "14"], "time": [3622, 3955, 4196, 7777, 8094, 9039, 10334, 12007, 12126, 13246]}, "edge": {"target": [], "time": []}}}, "displayed_time": "21.59", "trialTime": 26290, "trial_type": "mouselab-mdp", "trial_index": 14, "time_elapsed": 1573851, "internal_node_id": "0.0-4.0-1.0-5.0"}}, {"uniqueid": "w83126098:a27395938", "current_trial": 15, "dateTime": 1691161479944, "trialdata": {"revealed_states": [], "clicked_states": [], "num_clicks_accrued": [0, 0, 0, 0, 0, 0, 0, 0, 0, 0, 0, 0, 0], "stateRewards": ["", -2, 2, 5, -14, -56, 64, 84, -5, 52, 39, 85, -2, 1, 7, 8, 21, 29, -78, -9, -10, -69, 10, -2, -1, -7, 15, 72, 20, 41, -2, 52, 80, 22], "withholdReward": false, "trial_id": "mdp_trial_7", "block": "test", "trialIndex": 8, "score": 35, "costs": 0, "simulationMode": [null, null, null, null, null], "rewards": [-2, 1, 7, 8, 21], "path": ["0", "0", "12", "13", "14", "15", "16"], "rt": [6382, 225, 162, 488, 408], "actions": ["right", "right", "right", "up", "up"], "actionTimes": [10579, 11302, 11974, 12969, 13876], "queries": {"click": {"state": {"target": [], "time": []}, "edge": {"target": [], "time": []}}, "mouseover": {"state": {"target": [], "time": []}, "edge": {"target": [], "time": []}}, "mouseout": {"state": {"target": ["23", "23", "0"], "time": [2819, 2970, 17697]}, "edge": {"target": [], "time": []}}}, "displayed_time": "18.20", "trialTime": 20622, "trial_type": "mouselab-mdp", "trial_index": 15, "time_elapsed": 1595292, "internal_node_id": "0.0-4.0-1.0-6.0"}}, {"uniqueid": "w83126098:a27395938", "current_trial": 16, "dateTime": 1691161520055, "trialdata": {"revealed_states": [], "clicked_states": ["1", "3", "10", "8", "11", "6", "4"], "num_clicks_accrued": [0, 0, 0, 0, 0, 0, 0, 0, 0, 0, 0, 0, 0], "stateRewards": ["", 1, -3, 4, 13, -72, 52, 5, 5, -58, 5, 14, 2, 1, 3, -14, -86, -4, 73, 6, -58, -50, 49, 2, -3, -4, 2, 33, -41, 42, -11, 81, 45, 53], "withholdReward": false, "trial_id": "mdp_trial_8", "block": "test", "trialIndex": 9, "score": 57.2, "costs": -9.8, "simulationMode": [null, null, null, null, null], "rewards": [1, -3, 4, 13, 52], "path": ["0", "0", "1", "2", "3", "4", "6"], "rt": [24320, 288, 860, 1543, 141], "actions": ["up", "up", "up", "right", "right"], "actionTimes": [28980, 29768, 31127, 33184, 33856], "queries": {"click": {"state": {"target": ["1", "3", "10", "8", "11", "6", "4"], "time": [6593, 10092, 13671, 15887, 19888, 22888, 25718]}, "edge": {"target": [], "time": []}}, "mouseover": {"state": {"target": ["1", "2", "3", "8", "10", "8", "11", "8", "3", "6", "4", "2", "1", "1", "18", "12"], "time": [6225, 7183, 9586, 10696, 13219, 14960, 19474, 20799, 20859, 22365, 24018, 26567, 26734, 27485, 27703, 27887]}, "edge": {"target": [], "time": []}}, "mouseout": {"state": {"target": ["20", "22", "1", "2", "3", "8", "10", "8", "11", "8", "3", "6", "4", "2", "1", "1", "18", "12"], "time": [3327, 3660, 7129, 8803, 10669, 13151, 13862, 19424, 20781, 20831, 20917, 23891, 26484, 26586, 26819, 27531, 27820, 27937]}, "edge": {"target": [], "time": []}}}, "displayed_time": "34.36", "trialTime": 39297, "trial_type": "mouselab-mdp", "trial_index": 16, "time_elapsed": 1635403, "internal_node_id": "0.0-4.0-1.0-7.0"}}, {"uniqueid": "w83126098:a27395938", "current_trial": 17, "dateTime": 1691161546814, "trialdata": {"revealed_states": [], "clicked_states": [], "num_clicks_accrued": [0, 0, 0, 0, 0, 0, 0, 0, 0, 0, 0, 0, 0], "stateRewards": ["", -2, 2, 8, -6, -25, 3, 87, 2, -62, -2, 74, -2, -1, 2, -1, 79, 49, -37, -14, 5, 67, -9, -1, 2, -2, 5, 15, 38, 32, -14, -38, -38, 30], "withholdReward": false, "trial_id": "mdp_trial_9", "block": "test", "trialIndex": 10, "score": 15, "costs": 0, "simulationMode": [null, null, null, null, null], "rewards": [-1, 2, -2, -14, 30], "path": ["0", "0", "23", "24", "25", "30", "33"], "rt": [9960, 165, 966, 1132, 1783], "actions": ["left", "left", "left", "down", "left"], "actionTimes": [15472, 16144, 17613, 19252, 21542], "queries": {"click": {"state": {"target": [], "time": []}, "edge": {"target": [], "time": []}}, "mouseover": {"state": {"target": ["23", "24", "23"], "time": [12603, 13616, 14212]}, "edge": {"target": [], "time": []}}, "mouseout": {"state": {"target": ["23", "24", "23"], "time": [13412, 14170, 14253]}, "edge": {"target": [], "time": []}}}, "displayed_time": "22.05", "trialTime": 25995, "trial_type": "mouselab-mdp", "trial_index": 17, "time_elapsed": 1662162, "internal_node_id": "0.0-4.0-1.0-8.0"}}, {"uniqueid": "w83126098:a27395938", "current_trial": 18, "dateTime": 1691161570451, "trialdata": {"revealed_states": [], "clicked_states": [], "num_clicks_accrued": [0, 0, 0, 0, 0, 0, 0, 0, 0, 0, 0, 0, 0], "stateRewards": ["", -2, 3, 3, -14, 62, 36, 49, 16, 11, 17, -84, 2, -1, 6, 2, -82, -73, 49, -6, -87, 48, 50, -1, -2, -1, -16, -11, 37, -44, 4, 55, 73, -10], "withholdReward": false, "trial_id": "mdp_trial_10", "block": "test", "trialIndex": 11, "score": 58, "costs": 0, "simulationMode": [null, null, null, null, null], "rewards": [2, -1, 6, 2, 49], "path": ["0", "0", "12", "13", "14", "15", "18"], "rt": [6815, 31, 111, 1773, 1558], "actions": ["right", "right", "right", "up", "left"], "actionTimes": [10059, 10617, 11227, 13512, 15567], "queries": {"click": {"state": {"target": [], "time": []}, "edge": {"target": [], "time": []}}, "mouseover": {"state": {"target": ["12", "13", "13", "12", "13", "19", "21", "0"], "time": [4136, 4354, 4605, 4951, 5609, 5709, 6043, 7866]}, "edge": {"target": [], "time": []}}, "mouseout": {"state": {"target": ["12", "13", "13", "12", "13", "19", "21", "0"], "time": [4174, 4371, 4919, 5563, 5642, 5960, 7582, 8000]}, "edge": {"target": [], "time": []}}}, "displayed_time": "17.25", "trialTime": 22825, "trial_type": "mouselab-mdp", "trial_index": 18, "time_elapsed": 1685799, "internal_node_id": "0.0-4.0-1.0-9.0"}}, {"uniqueid": "w83126098:a27395938", "current_trial": 19, "dateTime": 1691161604476, "trialdata": {"revealed_states": [], "clicked_states": ["8", "6", "25"], "num_clicks_accrued": [0, 0, 0, 0, 0, 0, 0, 0, 0, 0, 0, 0, 0], "stateRewards": ["", 2, -3, 5, -14, -63, -9, -24, -11, -54, -43, 68, 2, -2, -4, 7, -64, 30, 47, 12, -74, 11, 86, 1, -3, 3, 10, -71, -42, -52, -1, -29, -16, 69], "withholdReward": false, "trial_id": "mdp_trial_11", "block": "test", "trialIndex": 12, "score": -64.2, "costs": -4.199999999999999, "simulationMode": [null, null, null, null, null], "rewards": [1, -3, 3, 10, -71], "path": ["0", "0", "23", "24", "25", "26", "27"], "rt": [18076, 33, 115, 1776, 755], "actions": ["left", "left", "left", "up", "up"], "actionTimes": [22265, 22796, 23413, 25698, 26963], "queries": {"click": {"state": {"target": ["8", "6", "25"], "time": [6446, 9674, 13232]}, "edge": {"target": [], "time": []}}, "mouseover": {"state": {"target": ["1", "2", "8", "3", "4", "6", "4", "2", "23", "24", "25", "24", "23", "23"], "time": [5083, 5327, 5967, 8765, 8863, 9197, 11823, 11923, 12225, 12607, 12891, 16778, 16938, 17975]}, "edge": {"target": [], "time": []}}, "mouseout": {"state": {"target": ["1", "2", "8", "3", "4", "6", "4", "2", "23", "24", "25", "24", "23", "23"], "time": [5225, 5479, 8713, 8797, 9080, 11789, 11841, 12075, 12275, 12740, 16736, 16854, 17105, 19729]}, "edge": {"target": [], "time": []}}}, "displayed_time": "27.46", "trialTime": 33244, "trial_type": "mouselab-mdp", "trial_index": 19, "time_elapsed": 1719824, "internal_node_id": "0.0-4.0-1.0-10.0"}}, {"uniqueid": "w83126098:a27395938", "current_trial": 20, "dateTime": 1691161625268, "trialdata": {"revealed_states": [], "clicked_states": [], "num_clicks_accrued": [0, 0, 0, 0, 0, 0, 0, 0, 0, 0, 0, 0, 0], "stateRewards": ["", -2, 2, -1, -6, 22, 6, 6, -5, 70, -42, 65, 1, 3, 5, -6, -67, -9, 3, 14, 7, -62, -13, -2, 4, 1, 16, 42, -21, -52, -8, 32, 53, 81], "withholdReward": false, "trial_id": "mdp_trial_12", "block": "test", "trialIndex": 13, "score": 48, "costs": 0, "simulationMode": [null, null, null, null, null], "rewards": [-2, 4, 1, -8, 53], "path": ["0", "0", "23", "24", "25", "30", "32"], "rt": [6836, 648, 123, 991, 71], "actions": ["left", "left", "left", "down", "down"], "actionTimes": [9627, 10781, 11410, 12914, 13482], "queries": {"click": {"state": {"target": [], "time": []}, "edge": {"target": [], "time": []}}, "mouseover": {"state": {"target": ["0", "31", "32", "32"], "time": [5713, 5797, 5863, 6257]}, "edge": {"target": [], "time": []}}, "mouseout": {"state": {"target": ["12", "0", "0", "31", "32", "32"], "time": [1791, 2026, 5764, 5815, 6014, 7886]}, "edge": {"target": [], "time": []}}}, "displayed_time": "16.80", "trialTime": 19880, "trial_type": "mouselab-mdp", "trial_index": 20, "time_elapsed": 1740616, "internal_node_id": "0.0-4.0-1.0-11.0"}}, {"uniqueid": "w83126098:a27395938", "current_trial": 21, "dateTime": 1691161650120, "trialdata": {"revealed_states": [], "clicked_states": [], "num_clicks_accrued": [0, 0, 0, 0, 0, 0, 0, 0, 0, 0, 0, 0, 0], "stateRewards": ["", -2, -4, 6, 14, -34, 49, 36, -8, -3, 32, -4, 1, -2, 1, -8, -20, -71, -57, -7, -86, -62, -16, -2, -3, -5, 11, 23, -21, 53, 5, -5, 85, 73], "withholdReward": false, "trial_id": "mdp_trial_13", "block": "test", "trialIndex": 14, "score": -93, "costs": 0, "simulationMode": [null, null, null, null, null], "rewards": [1, -2, 1, -7, -86], "path": ["0", "0", "12", "13", "14", "19", "20"], "rt": [7121, 653, 35, 754, 380], "actions": ["right", "right", "right", "down", "right"], "actionTimes": [9160, 10321, 10856, 12115, 13024], "queries": {"click": {"state": {"target": [], "time": []}, "edge": {"target": [], "time": []}}, "mouseover": {"state": {"target": ["12", "14", "20", "20", "12"], "time": [3875, 4946, 5046, 5514, 7404]}, "edge": {"target": [], "time": []}}, "mouseout": {"state": {"target": ["12", "14", "20", "20"], "time": [4878, 4979, 5347, 7219]}, "edge": {"target": [], "time": []}}}, "displayed_time": "16.05", "trialTime": 23945, "trial_type": "mouselab-mdp", "trial_index": 21, "time_elapsed": 1765468, "internal_node_id": "0.0-4.0-1.0-12.0"}}, {"uniqueid": "w83126098:a27395938", "current_trial": 22, "dateTime": 1691161672917, "trialdata": {"revealed_states": [], "clicked_states": ["2", "5"], "num_clicks_accrued": [0, 0, 0, 0, 0, 0, 0, 0, 0, 0, 0, 0, 0], "stateRewards": ["", -2, -3, -3, 9, 79, 67, 22, -15, -56, 27, -85, -2, 4, -4, -15, -20, -32, 60, 15, 71, 57, 17, 1, 2, -8, 15, -37, -81, 82, 15, 21, -3, 2], "withholdReward": false, "trial_id": "mdp_trial_14", "block": "test", "trialIndex": 15, "score": 77.2, "costs": -2.8, "simulationMode": [null, null, null, null, null], "rewards": [-2, -3, -3, 9, 79], "path": ["0", "0", "1", "2", "3", "4", "5"], "rt": [10328, 505, 154, 1542, 1013], "actions": ["up", "up", "up", "right", "up"], "actionTimes": [12572, 13584, 14236, 16307, 17821], "queries": {"click": {"state": {"target": ["2", "5"], "time": [4012, 8546]}, "edge": {"target": [], "time": []}}, "mouseover": {"state": {"target": ["1", "2", "0", "0", "3", "5", "5"], "time": [3274, 3457, 6366, 6618, 7035, 7805, 8136]}, "edge": {"target": [], "time": []}}, "mouseout": {"state": {"target": ["12", "1", "2", "0", "0", "2", "3", "5"], "time": [1278, 3374, 6267, 6434, 6672, 6936, 7720, 7855]}, "edge": {"target": [], "time": []}}}, "displayed_time": "18.33", "trialTime": 21948, "trial_type": "mouselab-mdp", "trial_index": 22, "time_elapsed": 1788265, "internal_node_id": "0.0-4.0-1.0-13.0"}}, {"uniqueid": "w83126098:a27395938", "current_trial": 23, "dateTime": 1691161700569, "trialdata": {"revealed_states": [], "clicked_states": ["28"], "num_clicks_accrued": [0, 0, 0, 0, 0, 0, 0, 0, 0, 0, 0, 0, 0], "stateRewards": ["", 1, 2, 8, -2, 23, -69, -18, -16, 54, -21, 71, -1, -4, 7, 11, 43, -6, 88, 6, -55, 72, 43, 1, -3, -2, -1, 68, -31, -54, 4, -8, 25, -2], "withholdReward": false, "trial_id": "mdp_trial_15", "block": "test", "trialIndex": 16, "score": 78.6, "costs": -1.4, "simulationMode": [null, null, null, null, null], "rewards": [-1, -4, 7, 6, 72], "path": ["0", "0", "12", "13", "14", "19", "21"], "rt": [12411, 350, 364, 3207, 121], "actions": ["right", "right", "right", "down", "down"], "actionTimes": [14949, 15805, 16708, 20414, 21042], "queries": {"click": {"state": {"target": ["28"], "time": [4964]}, "edge": {"target": [], "time": []}}, "mouseover": {"state": {"target": ["23", "28", "31", "32", "0"], "time": [4141, 4509, 8044, 9492, 11083]}, "edge": {"target": [], "time": []}}, "mouseout": {"state": {"target": ["5", "3", "2", "0", "23", "28", "31", "32"], "time": [1291, 1346, 1463, 4057, 4308, 7981, 8088, 10598]}, "edge": {"target": [], "time": []}}}, "displayed_time": "21.54", "trialTime": 26718, "trial_type": "mouselab-mdp", "trial_index": 23, "time_elapsed": 1815917, "internal_node_id": "0.0-4.0-1.0-14.0"}}, {"uniqueid": "w83126098:a27395938", "current_trial": 24, "dateTime": 1691161728834, "trialdata": {"revealed_states": [], "clicked_states": [], "num_clicks_accrued": [0, 0, 0, 0, 0, 0, 0, 0, 0, 0, 0, 0, 0], "stateRewards": ["", -2, -3, 8, -4, -30, 31, 69, 9, 66, 87, 64, -2, 2, 8, 5, 47, 16, -39, -8, -54, 51, -19, 1, -2, -2, -11, -25, -26, 43, -9, 19, -84, 86], "withholdReward": false, "trial_id": "mdp_trial_16", "block": "test", "trialIndex": 17, "score": 7, "costs": 0, "simulationMode": [null, null, null, null, null], "rewards": [1, -2, -2, -9, 19], "path": ["0", "0", "23", "24", "25", "30", "31"], "rt": [13941, 330, 75, 538, 392], "actions": ["left", "left", "left", "down", "right"], "actionTimes": [18129, 18962, 19545, 20596, 21501], "queries": {"click": {"state": {"target": [], "time": []}, "edge": {"target": [], "time": []}}, "mouseover": {"state": {"target": ["23"], "time": [8608]}, "edge": {"target": [], "time": []}}, "mouseout": {"state": {"target": ["0", "23"], "time": [8509, 9996]}, "edge": {"target": [], "time": []}}}, "displayed_time": "22.01", "trialTime": 27357, "trial_type": "mouselab-mdp", "trial_index": 24, "time_elapsed": 1844183, "internal_node_id": "0.0-4.0-1.0-15.0"}}, {"uniqueid": "w83126098:a27395938", "current_trial": 25, "dateTime": 1691161755211, "trialdata": {"revealed_states": [], "clicked_states": ["3", "27", "20"], "num_clicks_accrued": [0, 0, 0, 0, 0, 0, 0, 0, 0, 0, 0, 0, 0], "stateRewards": ["", 1, -2, -3, 14, -42, -87, -37, -11, -50, 33, -44, -2, 4, -7, 13, 48, -75, -66, 12, 23, -2, 82, 1, -4, 3, 12, 51, -15, -26, -11, -52, -29, 82], "withholdReward": false, "trial_id": "mdp_trial_17", "block": "test", "trialIndex": 18, "score": 58.8, "costs": -4.199999999999999, "simulationMode": [null, null, null, null, null], "rewards": [1, -4, 3, 12, 51], "path": ["0", "0", "23", "24", "25", "26", "27"], "rt": [15095, 243, 51, 861, 4], "actions": ["left", "left", "left", "up", "up"], "actionTimes": [17383, 18123, 18683, 20062, 20577], "queries": {"click": {"state": {"target": ["3", "27", "20"], "time": [4678, 8747, 12638]}, "edge": {"target": [], "time": []}}, "mouseover": {"state": {"target": ["1", "2", "3", "24", "24", "26", "27", "1", "19", "20", "19", "0", "23", "26", "27", "28", "23", "0", "12"], "time": [3699, 3960, 4294, 7656, 7774, 8176, 8325, 10717, 11954, 12222, 15221, 15316, 15383, 15534, 15995, 16075, 16107, 16171, 16605]}, "edge": {"target": [], "time": []}}, "mouseout": {"state": {"target": ["0", "1", "2", "3", "24", "24", "26", "27", "1", "19", "20", "19", "0", "23", "26", "27", "28", "23", "0"], "time": [1204, 3876, 4177, 7390, 7690, 7892, 8196, 10654, 10766, 12001, 15201, 15269, 15350, 15433, 15584, 16041, 16092, 16153, 16188]}, "edge": {"target": [], "time": []}}}, "displayed_time": "21.09", "trialTime": 25485, "trial_type": "mouselab-mdp", "trial_index": 25, "time_elapsed": 1870559, "internal_node_id": "0.0-4.0-1.0-16.0"}}, {"uniqueid": "w83126098:a27395938", "current_trial": 26, "dateTime": 1691161801743, "trialdata": {"revealed_states": [], "clicked_states": ["20", "17", "5", "29", "33", "32", "9"], "num_clicks_accrued": [0, 0, 0, 0, 0, 0, 0, 0, 0, 0, 0, 0, 0], "stateRewards": ["", -1, 3, 8, 10, -86, 61, -36, 10, 17, -60, 24, -1, -3, 3, 11, 50, 60, 33, -3, -20, 58, -6, 1, -4, -4, 13, -70, -71, 43, 14, 52, 82, -11], "withholdReward": false, "trial_id": "mdp_trial_18", "block": "test", "trialIndex": 19, "score": 79.2, "costs": -9.8, "simulationMode": [null, null, null, null, null], "rewards": [1, -4, -4, 14, 82], "path": ["0", "0", "23", "24", "25", "30", "32"], "rt": [24661, 600, 81, 558, 322], "actions": ["left", "left", "left", "down", "down"], "actionTimes": [30669, 31779, 32364, 33442, 34261], "queries": {"click": {"state": {"target": ["20", "17", "5", "29", "33", "32", "9"], "time": [7608, 10042, 12116, 15279, 18637, 21331, 23728]}, "edge": {"target": [], "time": []}}, "mouseover": {"state": {"target": ["12", "19", "20", "21", "19", "14", "17", "16", "6", "5", "9", "27", "29", "33", "32", "33", "32", "30", "28", "10", "8", "9", "28", "24", "30", "12"], "time": [6722, 6789, 7007, 8251, 9334, 9386, 9633, 10590, 11462, 11741, 12981, 14583, 14817, 16292, 17911, 18246, 19269, 22234, 22366, 22476, 22574, 22998, 24443, 24505, 24661, 27962]}, "edge": {"target": [], "time": []}}, "mouseout": {"state": {"target": ["12", "0", "12", "19", "20", "21", "19", "14", "17", "16", "6", "5", "9", "27", "29", "33", "32", "33", "32", "30", "28", "10", "8", "9", "28", "24", "30", "12"], "time": [4759, 5141, 6762, 6840, 8081, 9280, 9370, 9432, 10487, 11425, 11568, 12308, 14249, 14751, 15925, 17829, 18113, 19102, 22201, 22266, 22422, 22539, 22930, 24364, 24497, 24541, 24762, 28011]}, "edge": {"target": [], "time": []}}}, "displayed_time": "34.76", "trialTime": 45593, "trial_type": "mouselab-mdp", "trial_index": 26, "time_elapsed": 1917090, "internal_node_id": "0.0-4.0-1.0-17.0"}}, {"uniqueid": "w83126098:a27395938", "current_trial": 27, "dateTime": 1691161831337, "trialdata": {"revealed_states": [], "clicked_states": ["28", "7", "20"], "num_clicks_accrued": [0, 0, 0, 0, 0, 0, 0, 0, 0, 0, 0, 0, 0], "stateRewards": ["", 2, 4, 7, -6, -76, -81, 2, 5, -66, -3, 36, -2, -4, 6, -2, -69, 4, -49, -6, 67, 38, -67, 2, 1, 1, 6, -68, -21, 52, -16, -16, 6, -70], "withholdReward": false, "trial_id": "mdp_trial_19", "block": "test", "trialIndex": 20, "score": 27.8, "costs": -4.199999999999999, "simulationMode": [null, null, null, null, null], "rewards": [-2, -4, 6, -6, 38], "path": ["0", "0", "12", "13", "14", "19", "21"], "rt": [17247, 579, 124, 678, 305], "actions": ["right", "right", "right", "down", "down"], "actionTimes": [19344, 20429, 21061, 22249, 23065], "queries": {"click": {"state": {"target": ["28", "7", "20"], "time": [3482, 6055, 9885]}, "edge": {"target": [], "time": []}}, "mouseover": {"state": {"target": ["23", "28", "10", "2", "7", "16", "17", "20", "21"], "time": [2601, 2801, 4292, 5516, 5581, 6685, 9213, 9525, 10983]}, "edge": {"target": [], "time": []}}, "mouseout": {"state": {"target": ["0", "23", "28", "10", "2", "7", "16", "17", "20", "20", "21"], "time": [2569, 2669, 4160, 5464, 5557, 6240, 9162, 9258, 10087, 10632, 15680]}, "edge": {"target": [], "time": []}}}, "displayed_time": "23.56", "trialTime": 28534, "trial_type": "mouselab-mdp", "trial_index": 27, "time_elapsed": 1946685, "internal_node_id": "0.0-4.0-1.0-18.0"}}, {"uniqueid": "w83126098:a27395938", "current_trial": 28, "dateTime": 1691161868737, "trialdata": {"revealed_states": [], "clicked_states": ["5", "29", "33", "20", "18", "16"], "num_clicks_accrued": [0, 0, 0, 0, 0, 0, 0, 0, 0, 0, 0, 0, 0], "stateRewards": ["", -2, 4, -3, -13, 63, -36, 62, 11, 78, 34, -51, 2, -2, 8, -6, -40, -18, 31, 9, 64, 39, 79, 1, 4, -4, 15, -12, 76, 73, -10, -77, 86, -4], "withholdReward": false, "trial_id": "mdp_trial_20", "block": "test", "trialIndex": 21, "score": 80.6, "costs": -8.4, "simulationMode": [null, null, null, null, null], "rewards": [1, 4, -4, 15, 73], "path": ["0", "0", "23", "24", "25", "26", "29"], "rt": [20903, 75, 123, 698, 333], "actions": ["left", "left", "left", "up", "left"], "actionTimes": [25074, 25661, 26311, 27538, 28377], "queries": {"click": {"state": {"target": ["5", "29", "33", "20", "18", "16"], "time": [5692, 7694, 9276, 12684, 15627, 18268]}, "edge": {"target": [], "time": []}}, "mouseover": {"state": {"target": ["1", "2", "5", "9", "11", "27", "29", "33", "32", "20", "17", "15", "18", "16"], "time": [4925, 4967, 5259, 6299, 7073, 7153, 7235, 8891, 10446, 12284, 13585, 14559, 14793, 16587]}, "edge": {"target": [], "time": []}}, "mouseout": {"state": {"target": ["21", "1", "1", "2", "5", "9", "11", "27", "29", "33", "33", "32", "20", "17", "15", "18"], "time": [2878, 3218, 4962, 4984, 5888, 7030, 7096, 7212, 8487, 9500, 9996, 11598, 13476, 14524, 14693, 16500]}, "edge": {"target": [], "time": []}}}, "displayed_time": "28.88", "trialTime": 36366, "trial_type": "mouselab-mdp", "trial_index": 28, "time_elapsed": 1984086, "internal_node_id": "0.0-4.0-1.0-19.0"}}, {"uniqueid": "w83126098:a27395938", "current_trial": 29, "dateTime": 1691161911115, "trialdata": {"revealed_states": [], "clicked_states": ["9", "16", "21", "32", "33", "29", "11", "17"], "num_clicks_accrued": [0, 0, 0, 0, 0, 0, 0, 0, 0, 0, 0, 0, 0], "stateRewards": ["", 2, 4, -3, 16, -58, 30, -35, 11, -60, 47, 27, -2, -1, -7, -16, 23, -70, 68, -10, -65, -43, -34, -2, 1, 7, 9, -63, 34, -31, -8, -12, -86, 59], "withholdReward": false, "trial_id": "mdp_trial_21", "block": "test", "trialIndex": 22, "score": -27.200000000000003, "costs": -11.200000000000001, "simulationMode": [null, null, null, null, null], "rewards": [-2, 1, 7, 9, -31], "path": ["0", "0", "23", "24", "25", "26", "29"], "rt": [28707, 425, 95, 877, 89], "actions": ["left", "left", "left", "up", "left"], "actionTimes": [31040, 31971, 32578, 33962, 34562], "queries": {"click": {"state": {"target": ["9", "16", "21", "32", "33", "29", "11", "17"], "time": [4034, 7728, 10337, 12388, 14701, 17376, 19120, 22345]}, "edge": {"target": [], "time": []}}, "mouseover": {"state": {"target": ["1", "2", "3", "8", "9", "4", "16", "16", "15", "14", "19", "21", "21", "32", "33", "29", "10", "2", "8", "11", "8", "2", "7", "18", "15", "17", "14", "13", "7", "2", "3", "9", "11", "8", "6", "6", "12"], "time": [3004, 3122, 3323, 3473, 3640, 4703, 4814, 7200, 8167, 8224, 8324, 8472, 9895, 10963, 12926, 15431, 18065, 18109, 18375, 18441, 20097, 20176, 20300, 20407, 21693, 21925, 25485, 26390, 26474, 26558, 26625, 26775, 27110, 27200, 27261, 27776, 28799]}, "edge": {"target": [], "time": []}}, "mouseout": {"state": {"target": ["16", "16", "1", "23", "1", "2", "3", "8", "9", "4", "16", "16", "16", "15", "14", "19", "21", "21", "32", "33", "29", "10", "2", "8", "11", "8", "2", "7", "18", "15", "17", "14", "13", "7", "2", "3", "9", "11", "8", "6", "6", "12", "19"], "time": [151, 569, 968, 1163, 3058, 3256, 3406, 3490, 4633, 4726, 7040, 7920, 8144, 8192, 8249, 8386, 9559, 10541, 12572, 15219, 17941, 18100, 18142, 18409, 20089, 20126, 20272, 20355, 21638, 21714, 25301, 25541, 26442, 26507, 26576, 26675, 26792, 27160, 27226, 27278, 28648, 39011, 39085]}, "edge": {"target": [], "time": []}}}, "displayed_time": "35.06", "trialTime": 41182, "trial_type": "mouselab-mdp", "trial_index": 29, "time_elapsed": 2026464, "internal_node_id": "0.0-4.0-1.0-20.0"}}, {"uniqueid": "w83126098:a27395938", "current_trial": 30, "dateTime": 1691161943465, "trialdata": {"revealed_states": [], "clicked_states": ["5", "11", "9", "6", "16", "17", "20", "21"], "num_clicks_accrued": [0, 0, 0, 0, 0, 0, 0, 0, 0, 0, 0, 0, 0], "stateRewards": ["", 2, -1, 5, 6, 10, 86, 55, 10, -45, 63, -71, 1, -2, 5, -8, -50, -72, 36, 15, 61, 12, 33, -1, -4, 6, 5, 79, -56, -21, -16, -87, 60, -81], "withholdReward": false, "trial_id": "mdp_trial_22", "block": "test", "trialIndex": 23, "score": 86.8, "costs": -11.200000000000001, "simulationMode": [null, null, null, null, null], "rewards": [2, -1, 5, 6, 86], "path": ["0", "0", "1", "2", "3", "4", "6"], "rt": [20093, 638, 180, 1578, 150], "actions": ["up", "up", "up", "right", "right"], "actionTimes": [22415, 23583, 24259, 26343, 27037], "queries": {"click": {"state": {"target": ["5", "11", "9", "6", "16", "17", "20", "21"], "time": [3829, 6053, 8164, 11172, 13152, 15254, 17134, 18854]}, "edge": {"target": [], "time": []}}, "mouseover": {"state": {"target": ["1", "3", "5", "9", "11", "9", "9", "6", "6", "16", "17", "20", "21", "13", "18", "6", "7"], "time": [2984, 3049, 3488, 4479, 5409, 6539, 7816, 8857, 10423, 11672, 13852, 15928, 17937, 20226, 20266, 20483, 21369]}, "edge": {"target": [], "time": []}}, "mouseout": {"state": {"target": ["20", "19", "12", "1", "3", "5", "9", "11", "9", "9", "6", "6", "6", "16", "17", "20", "21", "13", "18", "6", "7"], "time": [727, 786, 996, 3044, 3070, 4225, 5296, 6498, 7520, 8362, 10278, 11373, 11585, 13760, 15834, 17881, 19059, 20258, 20296, 21316, 21408]}, "edge": {"target": [], "time": []}}}, "displayed_time": "27.54", "trialTime": 31293, "trial_type": "mouselab-mdp", "trial_index": 30, "time_elapsed": 2058813, "internal_node_id": "0.0-4.0-1.0-21.0"}}, {"uniqueid": "w83126098:a27395938", "current_trial": 31, "dateTime": 1691162004342, "trialdata": {"revealed_states": [], "clicked_states": ["31", "32", "33", "29", "27", "11", "9", "10", "17", "20", "21", "22", "16", "6", "5"], "num_clicks_accrued": [0, 0, 0, 0, 0, 0, 0, 0, 0, 0, 0, 0, 0], "stateRewards": ["", -2, 4, -7, -3, -76, 39, -28, 10, 14, 12, 60, 2, -3, 6, -10, 88, -34, -41, -3, 72, -13, -56, 1, 3, 2, 8, -51, 23, -57, 1, 14, -46, -16], "withholdReward": false, "trial_id": "mdp_trial_23", "block": "test", "trialIndex": 24, "score": 62, "costs": -20.999999999999996, "simulationMode": [null, null, null, null, null], "rewards": [2, -3, 6, -10, 88], "path": ["0", "0", "12", "13", "14", "15", "16"], "rt": [43671, 160, 281, 1782, 207], "actions": ["right", "right", "right", "up", "up"], "actionTimes": [48426, 49087, 49876, 52162, 52879], "queries": {"click": {"state": {"target": ["31", "32", "33", "29", "27", "11", "9", "10", "17", "20", "21", "22", "16", "6", "5"], "time": [6545, 8573, 10677, 12349, 13957, 15802, 17524, 19154, 22111, 25335, 27140, 29321, 32280, 35479, 39179]}, "edge": {"target": [], "time": []}}, "mouseover": {"state": {"target": ["31", "32", "33", "33", "29", "27", "11", "9", "9", "8", "10", "1", "23", "12", "13", "14", "17", "17", "20", "21", "22", "14", "15", "16", "6", "5", "2", "10", "26", "25", "30"], "time": [5603, 7167, 9157, 9367, 11245, 12938, 14759, 16419, 16964, 18373, 18438, 20209, 20626, 20973, 21057, 21141, 21391, 21617, 24753, 26444, 28054, 31025, 31142, 31603, 34368, 38500, 42431, 42549, 43207, 43284, 43451]}, "edge": {"target": [], "time": []}}, "mouseout": {"state": {"target": ["0", "31", "31", "32", "33", "33", "29", "27", "11", "9", "9", "8", "10", "1", "23", "12", "13", "14", "17", "17", "17", "20", "21", "22", "14", "15", "16", "6", "5", "5", "2", "10", "26", "25", "30"], "time": [3892, 6739, 7014, 8773, 9261, 11123, 12717, 14568, 15982, 16449, 18337, 18407, 19942, 20452, 20820, 21023, 21093, 21291, 21458, 22301, 23489, 26338, 27904, 30973, 31043, 31343, 32480, 38166, 39380, 42183, 42515, 42632, 43258, 43318, 43585]}, "edge": {"target": [], "time": []}}}, "displayed_time": "53.39", "trialTime": 59849, "trial_type": "mouselab-mdp", "trial_index": 31, "time_elapsed": 2119690, "internal_node_id": "0.0-4.0-1.0-22.0"}}, {"uniqueid": "w83126098:a27395938", "current_trial": 32, "dateTime": 1691162062893, "trialdata": {"revealed_states": [], "clicked_states": ["22", "21", "20", "17", "16", "6", "5", "9", "11", "27", "29", "33", "32", "31", "25"], "num_clicks_accrued": [0, 0, 0, 0, 0, 0, 0, 0, 0, 0, 0, 0, 0], "stateRewards": ["", 2, -1, 4, -9, -43, 7, 54, -13, 38, -40, -83, -1, 2, -8, -10, 34, -33, 11, -14, -79, 65, 26, 1, 2, 4, 10, 21, 1, 86, 4, -53, 28, -29], "withholdReward": false, "trial_id": "mdp_trial_24", "block": "test", "trialIndex": 25, "score": 82, "costs": -20.999999999999996, "simulationMode": [null, null, null, null, null], "rewards": [1, 2, 4, 10, 86], "path": ["0", "0", "23", "24", "25", "26", "29"], "rt": [44292, 137, 255, 950, 232], "actions": ["left", "left", "left", "up", "left"], "actionTimes": [49364, 50007, 50781, 52241, 52978], "queries": {"click": {"state": {"target": ["22", "21", "20", "17", "16", "6", "5", "9", "11", "27", "29", "33", "32", "31", "25"], "time": [6811, 8851, 10811, 13420, 15208, 17176, 21302, 24003, 26055, 28267, 29802, 33152, 36063, 38585, 41819]}, "edge": {"target": [], "time": []}}, "mouseover": {"state": {"target": ["22", "21", "20", "17", "16", "6", "4", "5", "9", "11", "27", "29", "33", "32", "32", "31", "23", "24", "25", "24", "23"], "time": [6125, 7318, 9359, 11467, 14110, 16586, 20495, 20796, 23623, 24662, 26979, 28982, 31775, 35281, 35514, 36964, 41135, 41285, 41402, 44548, 44597]}, "edge": {"target": [], "time": []}}, "mouseout": {"state": {"target": ["0", "22", "21", "20", "17", "16", "6", "4", "5", "9", "9", "11", "27", "27", "29", "33", "32", "32", "31", "23", "24", "25", "24", "23"], "time": [5792, 7239, 9053, 11004, 13944, 15982, 17377, 20696, 23473, 24201, 24513, 26649, 28455, 28821, 31375, 35078, 35382, 36874, 39425, 41190, 41351, 44497, 44566, 44647]}, "edge": {"target": [], "time": []}}}, "displayed_time": "53.48", "trialTime": 57532, "trial_type": "mouselab-mdp", "trial_index": 32, "time_elapsed": 2178241, "internal_node_id": "0.0-4.0-1.0-23.0"}}, {"uniqueid": "w83126098:a27395938", "current_trial": 33, "dateTime": 1691162105576, "trialdata": {"revealed_states": [], "clicked_states": ["31", "32", "33", "29", "27", "9", "11", "5", "6"], "num_clicks_accrued": [0, 0, 0, 0, 0, 0, 0, 0, 0, 0, 0, 0, 0], "stateRewards": ["", 1, -1, 8, -3, 38, 85, -20, -4, 8, 23, 73, 2, -4, 6, -13, 44, 7, -28, -11, -77, 45, -69, 1, -1, -7, -11, 75, -51, -87, 7, 36, -53, -26], "withholdReward": false, "trial_id": "mdp_trial_25", "block": "test", "trialIndex": 26, "score": 77.4, "costs": -12.600000000000001, "simulationMode": [null, null, null, null, null], "rewards": [1, -1, 8, -3, 85], "path": ["0", "0", "1", "2", "3", "4", "6"], "rt": [29627, 120, 303, 1242, 313], "actions": ["up", "up", "up", "right", "right"], "actionTimes": [32563, 33180, 33981, 35723, 36534], "queries": {"click": {"state": {"target": ["31", "32", "33", "29", "27", "9", "11", "5", "6"], "time": [4773, 8836, 10460, 12324, 14476, 18284, 20201, 22183, 24230]}, "edge": {"target": [], "time": []}}, "mouseover": {"state": {"target": ["31", "30", "30", "32", "33", "33", "29", "27", "11", "9", "11", "5", "6", "16", "15"], "time": [4389, 5479, 5818, 7782, 9430, 9778, 11836, 13229, 14985, 17567, 19179, 21456, 23108, 24858, 30578]}, "edge": {"target": [], "time": []}}, "mouseout": {"state": {"target": ["0", "31", "30", "30", "32", "33", "33", "29", "27", "11", "9", "11", "5", "5", "6", "16"], "time": [2040, 4991, 5667, 7755, 9020, 9470, 11463, 12525, 14950, 16894, 18891, 20801, 22367, 22881, 24747, 30461]}, "edge": {"target": [], "time": []}}}, "displayed_time": "37.04", "trialTime": 41591, "trial_type": "mouselab-mdp", "trial_index": 33, "time_elapsed": 2220924, "internal_node_id": "0.0-4.0-1.0-24.0"}}, {"uniqueid": "w83126098:a27395938", "current_trial": 34, "dateTime": 1691162138910, "trialdata": {"revealed_states": [], "clicked_states": ["17", "16", "18", "20", "32", "33"], "num_clicks_accrued": [0, 0, 0, 0, 0, 0, 0, 0, 0, 0, 0, 0, 0], "stateRewards": ["", 2, -1, -2, -5, -47, -57, -33, -11, 31, -18, -72, -2, 1, -4, -8, -46, -53, -50, 15, -85, -9, 39, -2, -2, 1, 14, -1, -8, 53, -12, -41, -74, 62], "withholdReward": false, "trial_id": "mdp_trial_26", "block": "test", "trialIndex": 27, "score": 38.6, "costs": -8.4, "simulationMode": [null, null, null, null, null], "rewards": [-2, -2, 1, -12, 62], "path": ["0", "0", "23", "24", "25", "30", "33"], "rt": [21015, 26, 311, 966, 256], "actions": ["left", "left", "left", "down", "left"], "actionTimes": [24097, 24629, 25454, 26929, 27691], "queries": {"click": {"state": {"target": ["17", "16", "18", "20", "32", "33"], "time": [4798, 6999, 9778, 12414, 14736, 16803]}, "edge": {"target": [], "time": []}}, "mouseover": {"state": {"target": ["12", "14", "17", "16", "18", "14", "20", "21", "32", "33", "29", "25", "21"], "time": [3841, 3927, 4328, 5492, 7639, 10443, 10614, 12872, 14287, 15374, 17683, 19231, 21187]}, "edge": {"target": [], "time": []}}, "mouseout": {"state": {"target": ["15", "12", "14", "17", "16", "18", "14", "20", "20", "21", "32", "33", "29", "25"], "time": [1635, 3898, 3960, 5238, 7476, 10403, 10467, 12617, 12796, 13890, 14928, 17005, 19197, 19281]}, "edge": {"target": [], "time": []}}}, "displayed_time": "28.19", "trialTime": 32267, "trial_type": "mouselab-mdp", "trial_index": 34, "time_elapsed": 2254259, "internal_node_id": "0.0-4.0-1.0-25.0"}}, {"uniqueid": "w83126098:a27395938", "current_trial": 35, "dateTime": 1691162200888, "trialdata": {"revealed_states": [], "clicked_states": ["5", "9", "11", "6", "7", "16", "17", "18", "20", "21", "32", "33", "29", "27", "28"], "num_clicks_accrued": [0, 0, 0, 0, 0, 0, 0, 0, 0, 0, 0, 0, 0], "stateRewards": ["", -2, -3, 8, 14, -73, 73, 84, -12, -2, -50, -17, 2, 1, -2, -9, -44, -27, -33, 16, -63, -47, -66, -2, 1, 4, -5, -33, -11, 50, 9, 38, -79, 31], "withholdReward": false, "trial_id": "mdp_trial_27", "block": "test", "trialIndex": 28, "score": 80, "costs": -20.999999999999996, "simulationMode": [null, null, null, null, null], "rewards": [-2, -3, 8, 14, 84], "path": ["0", "0", "1", "2", "3", "4", "7"], "rt": [44167, 228, 616, 1986, 886], "actions": ["up", "up", "up", "right", "down"], "actionTimes": [47425, 48159, 49275, 51766, 53156], "queries": {"click": {"state": {"target": ["5", "9", "11", "6", "7", "16", "17", "18", "20", "21", "32", "33", "29", "27", "28"], "time": [4851, 7470, 9660, 12157, 14299, 17715, 20187, 21748, 24742, 28649, 30634, 32498, 35962, 38362, 42251]}, "edge": {"target": [], "time": []}}, "mouseover": {"state": {"target": ["1", "7", "4", "5", "9", "11", "8", "3", "4", "6", "7", "7", "16", "15", "17", "15", "18", "14", "20", "21", "21", "31", "30", "32", "32", "33", "29", "27", "11", "27", "28", "24"], "time": [4198, 4251, 4317, 4400, 5829, 8069, 10180, 10221, 10263, 10609, 12776, 13104, 17008, 18218, 18284, 20837, 20910, 22986, 23468, 25522, 28249, 29446, 29530, 29865, 30081, 31791, 33494, 36536, 36582, 36843, 41692, 44413]}, "edge": {"target": [], "time": []}}, "mouseout": {"state": {"target": ["21", "21", "0", "0", "1", "7", "4", "5", "9", "11", "8", "3", "4", "6", "7", "7", "16", "16", "15", "17", "15", "18", "14", "20", "21", "21", "31", "30", "32", "32", "32", "33", "29", "27", "11", "27", "27", "28", "28"], "time": [609, 787, 1660, 1841, 4217, 4269, 4366, 5440, 7683, 9891, 10213, 10255, 10296, 12659, 12809, 15776, 17915, 18196, 18243, 20386, 20874, 22926, 23053, 25459, 27299, 29238, 29488, 29571, 29927, 30835, 31632, 33202, 36532, 36559, 36766, 38563, 41325, 42443, 44356]}, "edge": {"target": [], "time": []}}}, "displayed_time": "53.66", "trialTime": 60995, "trial_type": "mouselab-mdp", "trial_index": 35, "time_elapsed": 2316236, "internal_node_id": "0.0-4.0-1.0-26.0"}}, {"uniqueid": "w83126098:a27395938", "current_trial": 36, "dateTime": 1691162264883, "trialdata": {"revealed_states": [], "clicked_states": ["31", "32", "27", "29", "9", "5", "7", "16", "17", "18", "20", "21", "22", "11", "28"], "num_clicks_accrued": [0, 0, 0, 0, 0, 0, 0, 0, 0, 0, 0, 0, 0], "stateRewards": ["", 1, 2, 2, -15, -84, 28, -26, 13, 31, 86, 30, -2, 1, -1, -8, 66, -40, -1, -10, -32, 57, -17, 1, 2, -2, 9, -23, 77, 85, 12, -32, -62, -35], "withholdReward": false, "trial_id": "mdp_trial_28", "block": "test", "trialIndex": 29, "score": 74, "costs": -20.999999999999996, "simulationMode": [null, null, null, null, null], "rewards": [1, 2, -2, 9, 85], "path": ["0", "0", "23", "24", "25", "26", "29"], "rt": [42533, 239, 390, 909, 1125], "actions": ["left", "left", "left", "up", "left"], "actionTimes": [54806, 55610, 56501, 57906, 59527], "queries": {"click": {"state": {"target": ["31", "32", "27", "29", "9", "5", "7", "16", "17", "18", "20", "21", "22", "11", "28"], "time": [13818, 16408, 18856, 20586, 23322, 25240, 27899, 30844, 34152, 36035, 38364, 40339, 42934, 45537, 47439]}, "edge": {"target": [], "time": []}}, "mouseover": {"state": {"target": ["23", "31", "30", "32", "33", "26", "27", "29", "26", "8", "9", "5", "4", "7", "1", "16", "17", "15", "18", "14", "20", "21", "22", "12", "0", "11", "28", "25", "33", "30"], "time": [13222, 13306, 14430, 14561, 16946, 18123, 18206, 19496, 21750, 22043, 22721, 24657, 25845, 26180, 28407, 28982, 31597, 34623, 34724, 36697, 36824, 39017, 41088, 44234, 44401, 45051, 46633, 50814, 50922, 53274]}, "edge": {"target": [], "time": []}}, "mouseout": {"state": {"target": ["24", "23", "23", "31", "30", "32", "33", "26", "27", "29", "26", "8", "9", "9", "5", "4", "7", "1", "7", "16", "17", "15", "18", "18", "14", "20", "20", "21", "22", "12", "0", "11", "11", "28", "25", "33", "30"], "time": [1244, 1382, 13278, 14331, 14454, 16602, 18043, 18176, 19432, 21576, 21775, 22139, 23517, 24249, 25804, 26068, 28329, 28668, 28761, 31481, 34599, 34664, 36239, 36661, 36762, 38557, 38929, 40855, 43998, 44369, 44749, 45732, 46167, 50755, 50855, 53254, 53330]}, "edge": {"target": [], "time": []}}}, "displayed_time": "60.02", "trialTime": 62949, "trial_type": "mouselab-mdp", "trial_index": 36, "time_elapsed": 2380232, "internal_node_id": "0.0-4.0-1.0-27.0"}}, {"uniqueid": "w83126098:a27395938", "current_trial": 37, "dateTime": 1691162289722, "trialdata": {"revealed_states": [], "clicked_states": [], "num_clicks_accrued": [0, 0, 0, 0, 0, 0, 0, 0, 0, 0, 0, 0, 0], "stateRewards": ["", -2, -4, 2, 10, -17, 18, 73, 11, -32, 23, -13, -2, -4, 7, 12, -25, 66, -23, 15, 40, -76, -9, 1, 2, -7, -5, -20, 24, 3, -5, 16, -73, 70], "withholdReward": false, "trial_id": "mdp_trial_29", "block": "test", "trialIndex": 30, "score": -11, "costs": 0, "simulationMode": [null, null, null, null, null], "rewards": [-2, -4, 2, 10, -17], "path": ["0", "0", "1", "2", "3", "4", "5"], "rt": [10252, 171, 176, 1137, 982], "actions": ["up", "up", "up", "right", "up"], "actionTimes": [15135, 15805, 16479, 18126, 19657], "queries": {"click": {"state": {"target": [], "time": []}, "edge": {"target": [], "time": []}}, "mouseover": {"state": {"target": ["7", "4", "6", "6", "5"], "time": [10394, 10536, 10663, 10754, 11867]}, "edge": {"target": [], "time": []}}, "mouseout": {"state": {"target": ["0", "7", "4", "6", "6"], "time": [4037, 10512, 10562, 10696, 11716]}, "edge": {"target": [], "time": []}}}, "displayed_time": "20.17", "trialTime": 23695, "trial_type": "mouselab-mdp", "trial_index": 37, "time_elapsed": 2405070, "internal_node_id": "0.0-4.0-1.0-28.0"}}, {"uniqueid": "w83126098:a27395938", "current_trial": 38, "dateTime": 1691162340473, "trialdata": {"revealed_states": [], "clicked_states": ["20", "21", "22", "17", "16", "5", "9", "11", "29", "28", "33", "32", "31", "27", "6"], "num_clicks_accrued": [0, 0, 0, 0, 0, 0, 0, 0, 0, 0, 0, 0, 0], "stateRewards": ["", 2, 3, 8, 11, 25, -80, 6, -4, -56, 84, -23, -2, -4, -3, 4, -51, -9, -61, -15, -64, 67, -35, 1, -1, -7, -6, 83, 59, -15, 12, -79, 56, 41], "withholdReward": false, "trial_id": "mdp_trial_30", "block": "test", "trialIndex": 31, "score": 49, "costs": -20.999999999999996, "simulationMode": [null, null, null, null, null], "rewards": [1, -1, -7, -6, 83], "path": ["0", "0", "23", "24", "25", "26", "27"], "rt": [39546, 255, 232, 873, 220], "actions": ["left", "left", "left", "up", "up"], "actionTimes": [41898, 42658, 43405, 44780, 45499], "queries": {"click": {"state": {"target": ["20", "21", "22", "17", "16", "5", "9", "11", "29", "28", "33", "32", "31", "27", "6"], "time": [3743, 5908, 7538, 11366, 13949, 15631, 17318, 19266, 21821, 23441, 25826, 27551, 30001, 32132, 33856]}, "edge": {"target": [], "time": []}}, "mouseover": {"state": {"target": ["12", "19", "20", "21", "22", "15", "16", "17", "16", "16", "6", "5", "9", "11", "27", "29", "26", "28", "25", "33", "32", "31", "25", "26", "27", "6", "1", "2", "10", "2", "7", "15", "18"], "time": [3019, 3128, 3203, 4289, 6437, 8129, 8360, 10781, 11984, 13490, 14414, 14687, 16355, 18048, 19928, 21221, 22619, 22766, 24321, 24636, 26694, 28503, 31187, 31280, 31429, 33332, 37732, 37813, 37999, 38261, 38366, 38616, 38800]}, "edge": {"target": [], "time": []}}, "mouseout": {"state": {"target": ["5", "0", "12", "19", "20", "21", "22", "15", "16", "17", "16", "16", "6", "5", "9", "11", "11", "27", "29", "26", "28", "25", "33", "33", "32", "31", "25", "26", "27", "6", "6", "1", "2", "10", "2", "7", "15"], "time": [912, 1459, 3079, 3158, 4177, 6083, 7763, 8288, 10532, 11595, 13323, 14152, 14438, 16125, 17995, 19454, 19811, 20871, 22582, 22708, 24292, 24444, 26021, 26481, 27744, 31147, 31246, 31394, 32857, 34049, 36879, 37782, 37834, 38202, 38315, 38416, 38766]}, "edge": {"target": [], "time": []}}}, "displayed_time": "46.00", "trialTime": 49694, "trial_type": "mouselab-mdp", "trial_index": 38, "time_elapsed": 2455821, "internal_node_id": "0.0-4.0-1.0-29.0"}}, {"uniqueid": "w83126098:a27395938", "current_trial": 39, "dateTime": 1691162398187, "trialdata": {"revealed_states": [], "clicked_states": ["31", "32", "33", "27", "11", "9", "5", "6", "7", "10", "16", "18", "17", "20", "21", "22"], "num_clicks_accrued": [0, 0, 0, 0, 0, 0, 0, 0, 0, 0, 0, 0, 0], "stateRewards": ["", 1, -1, 8, 4, 76, -33, -17, -3, -1, -54, -74, -2, 2, -5, 13, -51, 63, 83, 1, 84, 29, -36, 2, -1, 7, -12, -10, -44, -43, -14, 8, -69, 19], "withholdReward": false, "trial_id": "mdp_trial_31", "block": "test", "trialIndex": 32, "score": 57.60000000000001, "costs": -22.399999999999995, "simulationMode": [null, null, null, null, null], "rewards": [-2, 2, -5, 1, 84], "path": ["0", "0", "12", "13", "14", "19", "20"], "rt": [43842, 140, 202, 710, 428], "actions": ["right", "right", "right", "down", "right"], "actionTimes": [48822, 49474, 50204, 51415, 52354], "queries": {"click": {"state": {"target": ["31", "32", "33", "27", "11", "9", "5", "6", "7", "10", "16", "18", "17", "20", "21", "22"], "time": [6762, 8991, 10663, 12511, 14294, 16869, 18732, 20593, 22659, 24961, 27240, 29949, 31640, 34803, 38557, 40984]}, "edge": {"target": [], "time": []}}, "mouseover": {"state": {"target": ["0", "31", "30", "32", "33", "26", "27", "27", "11", "11", "9", "5", "6", "7", "2", "10", "2", "16", "16", "18", "18", "15", "17", "20", "21", "22", "24", "25", "29", "29"], "time": [5978, 6297, 7314, 7557, 9575, 11484, 11594, 11922, 13314, 13827, 14993, 17605, 19351, 22110, 23337, 23581, 25587, 25686, 25948, 27861, 29542, 30483, 30606, 34111, 35596, 39468, 44614, 44655, 45107, 46030]}, "edge": {"target": [], "time": []}}, "mouseout": {"state": {"target": ["18", "0", "31", "31", "30", "32", "33", "26", "27", "27", "11", "11", "9", "5", "6", "7", "2", "10", "2", "16", "16", "18", "18", "15", "17", "20", "20", "21", "22", "24", "25", "29"], "time": [3439, 6041, 6949, 7255, 7337, 9446, 11400, 11531, 11750, 13221, 13360, 14877, 17305, 19279, 20784, 23283, 23472, 25573, 25625, 25811, 27692, 29378, 30453, 30518, 33714, 34997, 35449, 39234, 43392, 44649, 44718, 45769]}, "edge": {"target": [], "time": []}}}, "displayed_time": "52.86", "trialTime": 56507, "trial_type": "mouselab-mdp", "trial_index": 39, "time_elapsed": 2513535, "internal_node_id": "0.0-4.0-1.0-30.0"}}, {"uniqueid": "w83126098:a27395938", "current_trial": 40, "dateTime": 1691162457343, "trialdata": {"revealed_states": [], "clicked_states": ["31", "32", "33", "27", "29", "11", "9", "5", "6", "7", "10", "16", "17", "18", "22", "21", "20", "28"], "num_clicks_accrued": [0, 0, 0, 0, 0, 0, 0, 0, 0, 0, 0, 0, 0], "stateRewards": ["", -2, 2, 3, -7, -31, -33, 29, -8, -57, 50, -83, -1, -1, 5, 13, -23, -62, 25, 5, -66, -85, 14, 1, -2, -1, 16, 71, 33, -19, -14, 5, -43, 79], "withholdReward": false, "trial_id": "mdp_trial_32", "block": "test", "trialIndex": 33, "score": 37.80000000000001, "costs": -25.199999999999992, "simulationMode": [null, null, null, null, null], "rewards": [1, -2, -1, -14, 79], "path": ["0", "0", "23", "24", "25", "30", "33"], "rt": [45104, 101, 118, 985, 461], "actions": ["left", "left", "left", "down", "left"], "actionTimes": [49158, 49766, 50385, 51876, 52835], "queries": {"click": {"state": {"target": ["31", "32", "33", "27", "29", "11", "9", "5", "6", "7", "10", "16", "17", "18", "22", "21", "20", "28"], "time": [5464, 7620, 9430, 11911, 14409, 15994, 17531, 19129, 20755, 22331, 24585, 26461, 28016, 29768, 32557, 34505, 36300, 39456]}, "edge": {"target": [], "time": []}}, "mouseover": {"state": {"target": ["23", "31", "32", "33", "29", "27", "29", "11", "9", "5", "6", "7", "2", "10", "16", "17", "14", "18", "13", "22", "21", "20", "19", "0", "23", "28", "2", "2", "24", "25", "24", "23", "12", "13", "13", "15", "16", "7", "12", "13", "22", "19"], "time": [4775, 4954, 6098, 8233, 10056, 10268, 12678, 15406, 16921, 18541, 20212, 21619, 23007, 23211, 25477, 27599, 29079, 29312, 30436, 30533, 33041, 35008, 37295, 38085, 38127, 38438, 42754, 43087, 43798, 44309, 45280, 45328, 45415, 45468, 45949, 46149, 46465, 46901, 47168, 47319, 47770, 47954]}, "edge": {"target": [], "time": []}}, "mouseout": {"state": {"target": ["29", "26", "28", "23", "23", "31", "32", "33", "29", "27", "27", "29", "11", "9", "5", "6", "7", "2", "10", "16", "17", "17", "14", "18", "13", "22", "21", "20", "19", "0", "23", "28", "2", "2", "28", "24", "25", "24", "23", "12", "13", "13", "15", "16", "7", "12", "13", "22"], "time": [2144, 2477, 2532, 2678, 4837, 5946, 7840, 9635, 10120, 12106, 12530, 14603, 16742, 17749, 19878, 21520, 22533, 23122, 25072, 27306, 28228, 28797, 29114, 30400, 30502, 32960, 34949, 36498, 37407, 38122, 38237, 42686, 42822, 43221, 43706, 43884, 45245, 45304, 45357, 45441, 45565, 46082, 46233, 46516, 46920, 47252, 47453, 47804]}, "edge": {"target": [], "time": []}}}, "displayed_time": "53.34", "trialTime": 58058, "trial_type": "mouselab-mdp", "trial_index": 40, "time_elapsed": 2572691, "internal_node_id": "0.0-4.0-1.0-31.0"}}, {"uniqueid": "w83126098:a27395938", "current_trial": 41, "dateTime": 1691162518000, "trialdata": {"revealed_states": [], "clicked_states": ["31", "33", "29", "27", "11", "9", "6", "17", "20", "21", "22", "18", "16", "7", "10", "28", "5"], "num_clicks_accrued": [0, 0, 0, 0, 0, 0, 0, 0, 0, 0, 0, 0, 0], "stateRewards": ["", -2, -4, -2, 10, -8, -15, -47, 7, -84, 53, 5, -1, 2, -7, 3, 83, 31, 47, -1, 30, -8, 69, 2, -4, -1, 8, -7, 12, -8, -8, -13, 30, -84], "withholdReward": false, "trial_id": "mdp_trial_33", "block": "test", "trialIndex": 34, "score": 56.2, "costs": -23.799999999999994, "simulationMode": [null, null, null, null, null], "rewards": [-1, 2, -7, 3, 83], "path": ["0", "0", "12", "13", "14", "15", "16"], "rt": [48189, 240, 328, 700, 611], "actions": ["right", "right", "right", "up", "up"], "actionTimes": [52058, 52808, 53631, 54842, 55994], "queries": {"click": {"state": {"target": ["31", "33", "29", "27", "11", "9", "6", "17", "20", "21", "22", "18", "16", "7", "10", "28", "5"], "time": [6422, 9288, 11129, 13760, 15730, 17753, 20144, 22228, 23928, 27583, 29315, 31057, 33213, 35049, 38461, 40853, 45011]}, "edge": {"target": [], "time": []}}, "mouseover": {"state": {"target": ["23", "31", "31", "32", "33", "29", "27", "27", "11", "9", "9", "5", "6", "16", "17", "20", "21", "21", "22", "13", "18", "18", "16", "6", "7", "7", "1", "10", "28", "10", "8", "5", "5", "2", "24", "31", "32"], "time": [5621, 5676, 5919, 7082, 8792, 9930, 11651, 12044, 14389, 16308, 17351, 18300, 18765, 20743, 20986, 22836, 24837, 27056, 28215, 29975, 30382, 30534, 32760, 34112, 34256, 34556, 37544, 38095, 39910, 44052, 44217, 44284, 44549, 49352, 49519, 49636, 49770]}, "edge": {"target": [], "time": []}}, "mouseout": {"state": {"target": ["19", "12", "23", "31", "31", "32", "33", "29", "27", "27", "11", "9", "9", "5", "6", "6", "16", "17", "20", "21", "21", "22", "13", "18", "18", "16", "6", "7", "7", "7", "1", "10", "28", "10", "8", "5", "5", "2", "24", "31"], "time": [2465, 2618, 5653, 5831, 6925, 8568, 9847, 11332, 11802, 13956, 16274, 16653, 17956, 18405, 20333, 20707, 20805, 22717, 24586, 26744, 27773, 29520, 30015, 30414, 31814, 33912, 34222, 34315, 35252, 37443, 37884, 38649, 43988, 44119, 44254, 44304, 49287, 49371, 49603, 49656]}, "edge": {"target": [], "time": []}}}, "displayed_time": "56.50", "trialTime": 59549, "trial_type": "mouselab-mdp", "trial_index": 41, "time_elapsed": 2633348, "internal_node_id": "0.0-4.0-1.0-32.0"}}, {"uniqueid": "w83126098:a27395938", "current_trial": 42, "dateTime": 1691162577410, "trialdata": {"revealed_states": [], "clicked_states": ["31", "32", "33", "29", "27", "11", "9", "5", "6", "16", "17", "18", "20", "21", "22", "7", "10", "28"], "num_clicks_accrued": [0, 0, 0, 0, 0, 0, 0, 0, 0, 0, 0, 0, 0], "stateRewards": ["", -2, 1, -3, -16, -39, -52, 30, -7, -41, -59, 11, 2, 1, 8, 2, -11, -26, -42, -13, 87, -59, -48, -1, -1, -1, 16, -79, 31, 50, -1, -84, 34, -82], "withholdReward": false, "trial_id": "mdp_trial_34", "block": "test", "trialIndex": 35, "score": 59.80000000000001, "costs": -25.199999999999992, "simulationMode": [null, null, null, null, null], "rewards": [2, 1, 8, -13, 87], "path": ["0", "0", "12", "13", "14", "19", "20"], "rt": [43823, 229, 297, 806, 1678], "actions": ["right", "right", "right", "down", "right"], "actionTimes": [46949, 47683, 48489, 49817, 51993], "queries": {"click": {"state": {"target": ["31", "32", "33", "29", "27", "11", "9", "5", "6", "16", "17", "18", "20", "21", "22", "7", "10", "28"], "time": [5173, 6966, 8649, 10414, 14139, 16076, 17755, 19449, 21280, 23500, 25190, 27134, 28831, 30715, 32965, 34885, 37418, 39144]}, "edge": {"target": [], "time": []}}, "mouseover": {"state": {"target": ["23", "31", "32", "33", "29", "27", "11", "8", "11", "9", "5", "6", "16", "16", "17", "15", "18", "14", "20", "21", "19", "22", "7", "2", "10", "28", "24"], "time": [4600, 4719, 5788, 7560, 9434, 11088, 14661, 14730, 15001, 16742, 18577, 19923, 21867, 22164, 24231, 25606, 25860, 27789, 28068, 29649, 32489, 32620, 33879, 35708, 35840, 38503, 40341]}, "edge": {"target": [], "time": []}}, "mouseout": {"state": {"target": ["32", "0", "23", "31", "32", "33", "29", "27", "11", "8", "11", "9", "5", "6", "16", "16", "17", "15", "18", "14", "20", "20", "21", "19", "22", "7", "2", "10", "10", "28", "24"], "time": [1723, 2092, 4659, 5669, 7399, 9238, 10920, 14337, 14687, 14894, 16261, 18221, 19640, 21833, 21901, 24103, 25598, 25693, 27556, 27868, 29112, 29602, 30913, 32553, 33162, 35667, 35748, 37615, 38351, 40262, 40411]}, "edge": {"target": [], "time": []}}}, "displayed_time": "52.51", "trialTime": 58336, "trial_type": "mouselab-mdp", "trial_index": 42, "time_elapsed": 2692758, "internal_node_id": "0.0-4.0-1.0-33.0"}}, {"uniqueid": "w83126098:a27395938", "current_trial": 43, "dateTime": 1691162651742, "trialdata": {"revealed_states": [], "clicked_states": ["31", "32", "33", "29", "27", "11", "9", "5", "6", "7", "16", "18", "17", "20", "21", "22", "10", "28"], "num_clicks_accrued": [0, 0, 0, 0, 0, 0, 0, 0, 0, 0, 0, 0, 0], "stateRewards": ["", 2, -1, -3, 16, -3, -16, -62, -1, 13, -26, 43, -1, 4, 3, -9, -54, -37, -3, -12, -71, -68, -57, 1, -3, 2, -9, 2, -2, -9, -11, 84, -52, 55], "withholdReward": false, "trial_id": "mdp_trial_35", "block": "test", "trialIndex": 36, "score": 47.80000000000001, "costs": -25.199999999999992, "simulationMode": [null, null, null, null, null], "rewards": [1, -3, 2, -11, 84], "path": ["0", "0", "23", "24", "25", "30", "31"], "rt": [41205, 176, 151, 1008, 1167], "actions": ["left", "left", "left", "down", "right"], "actionTimes": [66206, 66892, 67553, 69063, 70729], "queries": {"click": {"state": {"target": ["31", "32", "33", "29", "27", "11", "9", "5", "6", "7", "16", "18", "17", "20", "21", "22", "10", "28"], "time": [27342, 29750, 31489, 34014, 35737, 37351, 39053, 40734, 42503, 44593, 46156, 48188, 49725, 51265, 53649, 55620, 57811, 59993]}, "edge": {"target": [], "time": []}}, "mouseover": {"state": {"target": ["0", "23", "31", "32", "33", "29", "27", "11", "9", "5", "6", "6", "7", "16", "16", "18", "15", "17", "17", "20", "21", "22", "12", "1", "10", "28"], "time": [26674, 26703, 26940, 28112, 30489, 32209, 34815, 36234, 38172, 39705, 41591, 42064, 44119, 45445, 45794, 47046, 48553, 48627, 48922, 50784, 51974, 54362, 56556, 56786, 57214, 59440]}, "edge": {"target": [], "time": []}}, "mouseout": {"state": {"target": ["0", "23", "31", "32", "33", "29", "27", "11", "9", "5", "6", "6", "6", "7", "16", "16", "18", "15", "17", "17", "17", "20", "21", "22", "12", "1", "10"], "time": [26697, 26726, 27539, 30222, 32046, 34215, 35925, 37563, 39507, 41305, 41679, 42697, 44043, 44786, 45561, 46948, 48540, 48590, 48666, 49943, 50507, 51915, 54204, 56318, 56591, 57153, 59276]}, "edge": {"target": [], "time": []}}}, "displayed_time": "71.23", "trialTime": 72990, "trial_type": "mouselab-mdp", "trial_index": 43, "time_elapsed": 2767090, "internal_node_id": "0.0-4.0-1.0-34.0"}}, {"uniqueid": "w83126098:a27395938", "current_trial": 44, "dateTime": 1691162707040, "trialdata": {"revealed_states": [], "clicked_states": ["31", "32", "33", "29", "27", "11", "9", "5", "6", "7", "16", "18", "17", "20", "21", "22", "10", "28"], "num_clicks_accrued": [0, 0, 0, 0, 0, 0, 0, 0, 0, 0, 0, 0, 0], "stateRewards": ["", -2, -3, 1, -7, 39, -67, 16, 5, -20, 73, 66, -1, 4, 5, -3, 23, -68, -87, -8, 3, -3, 17, 1, -4, -2, -13, -32, 34, 61, -5, -11, -18, 12], "withholdReward": false, "trial_id": "mdp_trial_36", "block": "test", "trialIndex": 37, "score": 48.80000000000001, "costs": -25.199999999999992, "simulationMode": [null, null, null, null, null], "rewards": [-2, -3, 1, 5, 73], "path": ["0", "0", "1", "2", "3", "8", "10"], "rt": [40287, 468, 363, 880, 432], "actions": ["up", "up", "up", "left", "down"], "actionTimes": [43761, 44727, 45592, 47018, 47954], "queries": {"click": {"state": {"target": ["31", "32", "33", "29", "27", "11", "9", "5", "6", "7", "16", "18", "17", "20", "21", "22", "10", "28"], "time": [5705, 8026, 9641, 11338, 13059, 15013, 16609, 18200, 19853, 21768, 23323, 25291, 26934, 28686, 30224, 33295, 35009, 37388]}, "edge": {"target": [], "time": []}}, "mouseover": {"state": {"target": ["23", "31", "31", "32", "33", "29", "27", "11", "9", "5", "5", "6", "7", "16", "18", "17", "20", "21", "21", "22", "12", "12", "22", "12", "1", "10", "28", "1", "7", "18", "13", "19"], "time": [4711, 4815, 5239, 6332, 8552, 10337, 12179, 13622, 15590, 17397, 17762, 19207, 20695, 22563, 24657, 26062, 27876, 29158, 29425, 30696, 32279, 32617, 32732, 33845, 33926, 34278, 36383, 40641, 40809, 41515, 41784, 42085]}, "edge": {"target": [], "time": []}}, "mouseout": {"state": {"target": ["28", "23", "31", "31", "31", "32", "33", "29", "27", "11", "9", "5", "5", "5", "6", "7", "16", "18", "17", "17", "20", "21", "21", "22", "12", "12", "22", "12", "1", "10", "28", "1", "7", "18", "13"], "time": [2128, 4785, 4861, 5896, 6189, 8424, 9844, 12001, 13447, 15212, 17125, 17578, 18410, 19024, 20612, 21994, 24625, 25985, 27161, 27518, 29090, 29243, 30426, 32219, 32330, 32666, 33809, 33884, 34026, 36250, 39504, 40706, 40910, 41705, 41843]}, "edge": {"target": [], "time": []}}}, "displayed_time": "48.46", "trialTime": 54178, "trial_type": "mouselab-mdp", "trial_index": 44, "time_elapsed": 2822388, "internal_node_id": "0.0-4.0-1.0-35.0"}}, {"uniqueid": "w83126098:a27395938", "current_trial": 45, "dateTime": 1691163644669, "trialdata": {"revealed_states": [], "clicked_states": ["31", "32", "33", "29", "28", "11", "9", "5", "6", "7", "18", "16", "17", "20", "21", "22", "27", "10"], "num_clicks_accrued": [0, 0, 0, 0, 0, 0, 0, 0, 0, 0, 0, 0, 0], "stateRewards": ["", 1, 1, -2, 7, -31, -6, 76, 1, -36, -16, -53, 2, 1, 7, 13, -47, -10, 47, -7, 72, 46, -56, -2, -2, -2, 11, -80, 44, 38, 16, 67, 85, -78], "withholdReward": false, "trial_id": "mdp_trial_37", "block": "test", "trialIndex": 38, "score": 69.80000000000001, "costs": -25.199999999999992, "simulationMode": [null, null, null, null, null], "rewards": [-2, -2, -2, 16, 85], "path": ["0", "0", "23", "24", "25", "30", "32"], "rt": [42679, 39, 159, 512, 304], "actions": ["left", "left", "left", "down", "down"], "actionTimes": [915550, 916088, 916743, 917808, 918611], "queries": {"click": {"state": {"target": ["31", "32", "33", "29", "28", "11", "9", "5", "6", "7", "18", "16", "17", "20", "21", "22", "27", "10"], "time": [874620, 877064, 879535, 882250, 884790, 886554, 888422, 890297, 892017, 893753, 897217, 899038, 900598, 902321, 903994, 905938, 908109, 910339]}, "edge": {"target": [], "time": []}}, "mouseover": {"state": {"target": ["23", "31", "32", "33", "25", "29", "27", "28", "11", "11", "9", "5", "6", "7", "18", "18", "18", "16", "17", "20", "21", "21", "22", "0", "23", "27", "27", "10"], "time": [873580, 873640, 875173, 877884, 880981, 881767, 882806, 883965, 885307, 885769, 887270, 889242, 891047, 892499, 894289, 894587, 896777, 897996, 899701, 901457, 903067, 903364, 905074, 906767, 906868, 907368, 907660, 909289]}, "edge": {"target": [], "time": []}}, "mouseout": {"state": {"target": ["19", "17", "7", "16", "16", "23", "7", "1", "23", "31", "32", "33", "25", "29", "27", "28", "11", "11", "9", "5", "6", "6", "7", "18", "18", "18", "16", "17", "20", "21", "21", "22", "0", "23", "27", "27", "10"], "time": [462442, 462554, 462689, 462877, 462973, 463057, 464475, 871487, 873633, 875082, 877682, 880762, 881022, 882699, 883877, 885280, 885336, 887145, 888902, 890881, 892211, 892452, 894243, 894314, 894855, 897870, 899630, 901379, 903036, 903145, 904709, 906701, 906831, 906944, 907406, 908883, 910527]}, "edge": {"target": [], "time": []}}}, "displayed_time": "919.12", "trialTime": 936530, "trial_type": "mouselab-mdp", "trial_index": 45, "time_elapsed": 3760017, "internal_node_id": "0.0-4.0-1.0-36.0"}}, {"uniqueid": "w83126098:a27395938", "current_trial": 46, "dateTime": 1691163677039, "trialdata": {"revealed_states": [], "clicked_states": ["31", "32", "33", "29"], "num_clicks_accrued": [0, 0, 0, 0, 0, 0, 0, 0, 0, 0, 0, 0, 0], "stateRewards": ["", -1, -3, 4, -10, -5, 79, -87, -2, 53, 29, -20, -2, -1, -5, 10, 27, 86, 46, -16, -29, 40, 3, 2, 4, -1, -6, 37, 79, -29, 7, 86, -62, 29], "withholdReward": false, "trial_id": "mdp_trial_38", "block": "test", "trialIndex": 39, "score": 92.4, "costs": -5.6, "simulationMode": [null, null, null, null, null], "rewards": [2, 4, -1, 7, 86], "path": ["0", "0", "23", "24", "25", "30", "31"], "rt": [13451, 244, 195, 900, 445], "actions": ["left", "left", "left", "down", "right"], "actionTimes": [21159, 21910, 22613, 24030, 24971], "queries": {"click": {"state": {"target": ["31", "32", "33", "29"], "time": [9373, 11166, 13654, 15816]}, "edge": {"target": [], "time": []}}, "mouseover": {"state": {"target": ["23", "31", "32", "33", "29", "26", "28"], "time": [8411, 8920, 10026, 11942, 14514, 16501, 16615]}, "edge": {"target": [], "time": []}}, "mouseout": {"state": {"target": ["10", "7", "0", "23", "31", "32", "33", "29", "26"], "time": [470, 562, 6687, 8454, 9879, 11666, 14203, 16455, 16548]}, "edge": {"target": [], "time": []}}}, "displayed_time": "25.48", "trialTime": 31112, "trial_type": "mouselab-mdp", "trial_index": 46, "time_elapsed": 3792387, "internal_node_id": "0.0-4.0-1.0-37.0"}}, {"uniqueid": "w83126098:a27395938", "current_trial": 47, "dateTime": 1691163703846, "trialdata": {"revealed_states": [], "clicked_states": [], "num_clicks_accrued": [0, 0, 0, 0, 0, 0, 0, 0, 0, 0, 0, 0, 0], "stateRewards": ["", 2, 2, 3, -15, 23, -14, 73, -7, -32, -20, -6, 1, 1, -5, -12, 73, 6, -84, 11, -81, -57, 13, -2, -1, -4, -8, -52, -58, 49, 13, 5, -41, -41], "withholdReward": false, "trial_id": "mdp_trial_39", "block": "test", "trialIndex": 40, "score": 15, "costs": 0, "simulationMode": [null, null, null, null, null], "rewards": [2, 2, 3, -15, 23], "path": ["0", "0", "1", "2", "3", "4", "5"], "rt": [8735, 88, 136, 1551, 850], "actions": ["up", "up", "up", "right", "up"], "actionTimes": [11673, 12257, 12907, 14958, 16314], "queries": {"click": {"state": {"target": [], "time": []}, "edge": {"target": [], "time": []}}, "mouseover": {"state": {"target": ["23", "1", "1"], "time": [7338, 9912, 10490]}, "edge": {"target": [], "time": []}}, "mouseout": {"state": {"target": ["28", "0", "23", "1"], "time": [1078, 1820, 9848, 9957]}, "edge": {"target": [], "time": []}}}, "displayed_time": "16.94", "trialTime": 25541, "trial_type": "mouselab-mdp", "trial_index": 47, "time_elapsed": 3819194, "internal_node_id": "0.0-4.0-1.0-38.0"}}, {"uniqueid": "w83126098:a27395938", "current_trial": 48, "dateTime": 1691163757077, "trialdata": {"revealed_states": [], "clicked_states": ["5", "9", "11", "27", "29", "33", "32", "31", "22", "21", "20", "17", "16", "18", "7", "6", "10"], "num_clicks_accrued": [0, 0, 0, 0, 0, 0, 0, 0, 0, 0, 0, 0, 0], "stateRewards": ["", 1, -1, 4, -2, -75, -75, 84, -9, -60, -79, 59, 2, -4, 8, 9, -17, -82, 80, 14, -4, 49, 49, -1, 3, 6, -11, -33, 34, 55, 9, -57, 5, 59], "withholdReward": false, "trial_id": "mdp_trial_40", "block": "test", "trialIndex": 41, "score": 62.2, "costs": -23.799999999999994, "simulationMode": [null, null, null, null, null], "rewards": [1, -1, 4, -2, 84], "path": ["0", "0", "1", "2", "3", "4", "7"], "rt": [40696, 133, 300, 1671, 576], "actions": ["up", "up", "up", "right", "down"], "actionTimes": [42875, 43512, 44315, 46487, 47568], "queries": {"click": {"state": {"target": ["5", "9", "11", "27", "29", "33", "32", "31", "22", "21", "20", "17", "16", "18", "7", "6", "10"], "time": [3895, 5908, 7828, 9486, 11275, 13067, 15026, 17165, 18696, 20646, 23027, 25347, 27013, 29373, 31482, 35248, 37422]}, "edge": {"target": [], "time": []}}, "mouseover": {"state": {"target": ["1", "7", "4", "5", "9", "11", "27", "29", "33", "30", "32", "31", "22", "22", "21", "20", "17", "16", "18", "7", "6", "4", "2", "10"], "time": [3062, 3150, 3212, 3451, 4714, 6508, 8534, 10812, 12488, 13778, 13998, 15780, 17982, 18240, 19939, 22267, 24155, 26409, 28583, 30067, 34785, 36040, 36129, 36576]}, "edge": {"target": [], "time": []}}, "mouseout": {"state": {"target": ["1", "1", "7", "4", "5", "9", "11", "11", "27", "27", "29", "29", "33", "30", "32", "31", "22", "22", "22", "21", "20", "17", "16", "16", "18", "7", "6", "4", "2", "10"], "time": [731, 3131, 3207, 3384, 4515, 6440, 8018, 8398, 9688, 10131, 11479, 12165, 13269, 13816, 15614, 17864, 18022, 18908, 19881, 21888, 23777, 25544, 27206, 28325, 29963, 33681, 36035, 36061, 36478, 38476]}, "edge": {"target": [], "time": []}}}, "displayed_time": "48.08", "trialTime": 51880, "trial_type": "mouselab-mdp", "trial_index": 48, "time_elapsed": 3872425, "internal_node_id": "0.0-4.0-1.0-39.0"}}, {"uniqueid": "w83126098:a27395938", "current_trial": 49, "dateTime": 1691163915260, "trialdata": {"rt": 157854, "response": {"Q0": "$-2 to $2", "Q1": "$-32 to $32", "Q2": "$-88 to $88", "Q3": "The cost for clicking on nodes varied between nodes.", "Q4": "Slightly motivated"}, "question_order": [0, 1, 2, 3, 4], "trial_id": "final_quiz_control", "trial_type": "survey-multi-choice", "trial_index": 49, "time_elapsed": 4030578, "internal_node_id": "0.0-4.0-2.0"}}, {"uniqueid": "w83126098:a27395938", "current_trial": 50, "dateTime": 1691164076739, "trialdata": {"rt": 161113, "response": {"Q0": "I WOULD USE THE INSPECTOR ON THE LAST NODE", "Q1": "YES, using the inspector on the last node", "Q2": "not knowing which node has much value"}, "trial_id": "self_report_control", "trial_type": "survey-text", "trial_index": 50, "time_elapsed": 4192089, "internal_node_id": "0.0-4.0-3.0"}}, {"uniqueid": "w83126098:a27395938", "current_trial": 51, "dateTime": 1691164122065, "trialdata": {"rt": 44992, "response": {"gender": "female", "age": "22", "colorblind": "0", "effort": "0"}, "trial_type": "survey-html-form", "trial_index": 51, "time_elapsed": 4237415, "internal_node_id": "0.0-4.0-4.0"}}, {"uniqueid": "w83126098:a27395938", "current_trial": 52, "dateTime": 1691164154546, "trialdata": {"rt": 32439, "response": {"Q0": "no", "Q1": "no", "Q2": "no"}, "trial_type": "survey-text", "trial_index": 52, "time_elapsed": 4269896, "internal_node_id": "0.0-4.0-5.0"}}, {"uniqueid": "w83126098:a27395938", "current_trial": 53, "dateTime": 1691164166026, "trialdata": {"rt": 11343, "stimulus": "Press 'Finish HIT' in order to reach the completion code. Once the data has been saved, you will receive the code either in this window or in the original browser window where you started the experiment.\n", "response": 0, "trial_type": "html-button-response", "trial_index": 53, "time_elapsed": 4281375, "internal_node_id": "0.0-5.0"}}, {"uniqueid": "w83126098:a27395938", "current_trial": 54, "dateTime": 1691164167239, "trialdata": {"success": true, "trial_type": "fullscreen", "trial_index": 54, "time_elapsed": 4282589, "internal_node_id": "0.0-6.0"}}], "questiondata": {"params": {"CODE": "C6DMOQA6", "MIN_TIME": 14, "inspectCost": 1, "startTime": "Fri Aug 04 2023 16:38:02 GMT+0200 (South Africa Standard Time)", "bonusRate": 0.002, "variance": "1_2_4_8_44", "branching": "31123"}, "final_score": 1615.2}, "eventdata": [{"eventtype": "initialized", "value": null, "timestamp": 1691159881559, "interval": 0}, {"eventtype": "window_resize", "value": [1024, 646], "timestamp": 1691159881559, "interval": 0}, {"eventtype": "window_resize", "value": [1024, 646], "timestamp": 1691159882115, "interval": 556}, {"eventtype": "window_resize", "value": [1366, 768], "timestamp": 1691159964173, "interval": 82058}], "useragent": "Mozilla/5.0 (Windows NT 10.0; Win64; x64) AppleWebKit/537.36 (KHTML, like Gecko) Chrome/115.0.0.0 Safari/537.36", "mode": "live", "id": "w83126098:a27395938", "status": "user data saved", "Beginhit": "2023-08-04 14:37:56.8796", "Beginexp": "2023-08-04 14:39:25.918533", "Endhit": "2023-08-04 15:49:31.228143", "psiturkStatus": 3, "browser": "<redacted>", "platform": "windows", "language": "en-US"}