{"condition": 1, "counterbalance": 0, "assignmentId": "a10091289", "workerId": "w95222703", "hitId": "h79341228", "currenttrial": 56, "bonus": 0, "data": [{"uniqueid": "w95222703:a10091289", "current_trial": 0, "dateTime": 1693481259637, "trialdata": {"success": true, "trial_type": "fullscreen", "trial_index": 0, "time_elapsed": 8106, "internal_node_id": "0.0-0.0"}}, {"uniqueid": "w95222703:a10091289", "current_trial": 1, "dateTime": 1693481283734, "trialdata": {"view_history": [{"page_index": 0, "viewing_time": 24094}], "rt": 24094, "trial_id": "exp_instructions_misaligned", "trial_type": "instructions", "trial_index": 1, "time_elapsed": 32204, "internal_node_id": "0.0-1.0"}}, {"uniqueid": "w95222703:a10091289", "current_trial": 2, "dateTime": 1693481573916, "trialdata": {"view_history": [{"page_index": 0, "viewing_time": 82364}, {"page_index": 1, "viewing_time": 123132}, {"page_index": 2, "viewing_time": 36654}, {"page_index": 3, "viewing_time": 48028}], "rt": 290178, "trial_id": "mouselab_instructions_1_misaligned", "trial_type": "instructions", "trial_index": 2, "time_elapsed": 322385, "internal_node_id": "0.0-2.0-1.0"}}, {"uniqueid": "w95222703:a10091289", "current_trial": 3, "dateTime": 1693481601125, "trialdata": {"revealed_states": [], "clicked_states": ["12"], "num_clicks_accrued": [0, 0, 0, 0, 0, 0, 0, 0, 0, 0, 0, 0, 0], "stateRewards": ["", 10, -10, -10, -10, -10, -10, -10, 10, 10, 10, -10, -10, -10, 10, -10, 10, -10, -10, -10, 10, -10, 10, -10, -10, 10, 10, -10, 10, 10, -10, -10, -10, 10], "withholdReward": false, "trial_id": "practice_1", "block": "test", "trialIndex": 0, "score": -7, "costs": -0.5, "simulationMode": [null, null, null, null, null], "rewards": [-10, -10, 10, -10, 10], "path": ["0", "0", "12", "13", "14", "15", "16"], "rt": [5269, 1021, 781, 349, 289], "actions": ["right", "right", "right", "up", "up"], "actionTimes": [12185, 13713, 15008, 15876, 16681], "queries": {"click": {"state": {"target": ["12"], "time": [10743]}, "edge": {"target": [], "time": []}}, "mouseover": {"state": {"target": ["12"], "time": [10408]}, "edge": {"target": [], "time": []}}, "mouseout": {"state": {"target": ["14", "14", "13", "12", "0", "12", "15", "17"], "time": [775, 4175, 5376, 5541, 5825, 23241, 23407, 23457]}, "edge": {"target": [], "time": []}}}, "displayed_time": "17.19", "trialTime": 25987, "trial_type": "mouselab-mdp", "trial_index": 3, "time_elapsed": 349594, "internal_node_id": "0.0-2.0-2.0-0.0"}}, {"uniqueid": "w95222703:a10091289", "current_trial": 4, "dateTime": 1693481620779, "trialdata": {"revealed_states": [], "clicked_states": ["1"], "num_clicks_accrued": [0, 0, 0, 0, 0, 0, 0, 0, 0, 0, 0, 0, 0], "stateRewards": ["", 10, 10, -10, -10, 10, 10, 10, -10, -10, 10, 10, 10, -10, 10, -10, 10, 10, -10, 10, -10, -10, 10, 10, 10, -10, -10, 10, -10, 10, 10, -10, 10, -10], "withholdReward": false, "trial_id": "practice_2", "block": "test", "trialIndex": 1, "score": 13, "costs": -0.5, "simulationMode": [null, null, null, null, null], "rewards": [10, 10, -10, -10, 10], "path": ["0", "0", "1", "2", "3", "8", "11"], "rt": [3052, 3102, 2605, 408, 302], "actions": ["up", "up", "up", "left", "left"], "actionTimes": [6527, 10144, 13262, 14183, 14994], "queries": {"click": {"state": {"target": ["1"], "time": [4948]}, "edge": {"target": [], "time": []}}, "mouseover": {"state": {"target": ["1"], "time": [4224]}, "edge": {"target": [], "time": []}}, "mouseout": {"state": {"target": ["14", "13", "12", "1", "2", "7"], "time": [2456, 2540, 2740, 7744, 17623, 17655]}, "edge": {"target": [], "time": []}}}, "displayed_time": "15.51", "trialTime": 19542, "trial_type": "mouselab-mdp", "trial_index": 4, "time_elapsed": 369248, "internal_node_id": "0.0-2.0-2.0-1.0"}}, {"uniqueid": "w95222703:a10091289", "current_trial": 5, "dateTime": 1693481677334, "trialdata": {"view_history": [{"page_index": 0, "viewing_time": 43270}, {"page_index": 1, "viewing_time": 13280}], "rt": 56551, "trial_id": "mouselab_instructions_2_misaligned", "trial_type": "instructions", "trial_index": 5, "time_elapsed": 425804, "internal_node_id": "0.0-2.0-3.0"}}, {"uniqueid": "w95222703:a10091289", "current_trial": 6, "dateTime": 1693481748314, "trialdata": {"rt": 70975, "response": {"Q0": "The cost for clicking on nodes may vary between nodes.", "Q1": "The better I perform the higher my bonus will be.", "Q2": "No, the amount of cash at each node of the web may be different each time.", "Q3": "To get the highest total score.", "Q4": "Only before moving the spider.", "Q5": "3 seconds"}, "question_order": [0, 1, 2, 3, 4, 5], "correct": {"Q0": "The cost for clicking on nodes may vary between nodes.", "Q1": "The better I perform the higher my bonus will be.", "Q2": "No, the amount of cash at each node of the web may be different each time.", "Q3": "To get the highest total score.", "Q4": "Only before moving the spider.", "Q5": "3 seconds"}, "trial_id": "mouselab_quiz_misaligned", "trial_type": "survey-multi-choice", "trial_index": 6, "time_elapsed": 496784, "internal_node_id": "0.0-2.0-4.0"}}, {"uniqueid": "w95222703:a10091289", "current_trial": 7, "dateTime": 1693481757939, "trialdata": {"rt": 9616, "response": {"Q0": "No"}, "question_order": [0], "trial_id": "repeat_check", "trial_type": "survey-multi-choice", "trial_index": 7, "time_elapsed": 506408, "internal_node_id": "0.0-4.0-0.0"}}, {"uniqueid": "w95222703:a10091289", "current_trial": 8, "dateTime": 1693481781205, "trialdata": {"rt": 23259, "stimulus": "\n<h1> Get ready to start the game! </h1>\n\nThank you for reading the instructions. Get ready start with the 40 rounds of this game.\n<br><br>\nIf you need to take a break, feel free to take one after the end of a round, before continuing to the next one.\n<br><br>\nRemember, the more money the spider gets, the bigger your bonus will be!\n<br><br>\n<div style='text-align: center;'>Press <code>space</code> to begin.</div>\n\n<br><br>\n(If, at any point, the <code>space</code> key does not take you to the next page, click once on the text and try again.)", "response": " ", "trial_id": "mdp_ready", "trial_type": "html-keyboard-response", "trial_index": 8, "time_elapsed": 529675, "internal_node_id": "0.0-6.0-0.0"}}, {"uniqueid": "w95222703:a10091289", "current_trial": 9, "dateTime": 1693481802453, "trialdata": {"revealed_states": [], "clicked_states": [], "num_clicks_accrued": [0, 0, 0, 0, 0, 0, 0, 0, 0, 0, 0, 0, 0], "stateRewards": ["", -1, 2, -2, 5, 80, -61, -27, 12, 44, -26, -75, -2, -4, 1, -16, 42, -49, -50, 4, -44, 2, 80, -2, -2, 5, -2, 59, 10, 24, 7, -48, -86, -44], "withholdReward": false, "trial_id": "mdp_trial_1", "block": "test", "trialIndex": 2, "score": 58, "costs": 0, "simulationMode": [null, null, null, null, null], "rewards": [-2, -2, 5, -2, 59], "path": ["0", "0", "23", "24", "25", "26", "27"], "rt": [6567, 132, 44, 698, 7], "actions": ["left", "left", "left", "up", "up"], "actionTimes": [9621, 10273, 10836, 12039, 12565], "queries": {"click": {"state": {"target": [], "time": []}, "edge": {"target": [], "time": []}}, "mouseover": {"state": {"target": ["23", "24", "26", "24", "23"], "time": [4308, 4774, 5790, 7343, 8542]}, "edge": {"target": [], "time": []}}, "mouseout": {"state": {"target": ["0", "23", "24", "26", "24", "23", "0", "18", "15"], "time": [4241, 4690, 5658, 7060, 8325, 15073, 15106, 15157, 15172]}, "edge": {"target": [], "time": []}}}, "displayed_time": "17.06", "trialTime": 21127, "trial_type": "mouselab-mdp", "trial_index": 9, "time_elapsed": 550922, "internal_node_id": "0.0-6.0-1.0-0.0"}}, {"uniqueid": "w95222703:a10091289", "current_trial": 10, "dateTime": 1693481821342, "trialdata": {"revealed_states": [], "clicked_states": ["12"], "num_clicks_accrued": [0, 0, 0, 0, 0, 0, 0, 0, 0, 0, 0, 0, 0], "stateRewards": ["", 1, -2, -2, 10, -31, -77, 35, 9, -47, 8, 48, -2, 1, -4, -3, -26, -50, 43, -11, 76, -38, 17, 1, -1, 6, 10, 15, -9, 12, -8, 85, 11, -55], "withholdReward": false, "trial_id": "mdp_trial_2", "block": "test", "trialIndex": 3, "score": 60.25, "costs": 0.25, "simulationMode": [null, null, null, null, null], "rewards": [-2, 1, -4, -11, 76], "path": ["0", "0", "12", "13", "14", "19", "20"], "rt": [2984, 273, 257, 163, 165], "actions": ["right", "right", "right", "down", "right"], "actionTimes": [5378, 6170, 6937, 7610, 8278], "queries": {"click": {"state": {"target": ["12"], "time": [3964]}, "edge": {"target": [], "time": []}}, "mouseover": {"state": {"target": ["12"], "time": [3012]}, "edge": {"target": [], "time": []}}, "mouseout": {"state": {"target": ["14", "13", "12", "0", "12", "13"], "time": [1312, 1361, 1394, 2895, 12729, 12760]}, "edge": {"target": [], "time": []}}}, "displayed_time": "16.40", "trialTime": 18772, "trial_type": "mouselab-mdp", "trial_index": 10, "time_elapsed": 569811, "internal_node_id": "0.0-6.0-1.0-1.0"}}, {"uniqueid": "w95222703:a10091289", "current_trial": 11, "dateTime": 1693481842082, "trialdata": {"revealed_states": [], "clicked_states": ["2"], "num_clicks_accrued": [0, 0, 0, 0, 0, 0, 0, 0, 0, 0, 0, 0, 0], "stateRewards": ["", 2, 3, 8, 14, 69, -27, 17, 2, -71, -65, -10, 2, -3, 7, 8, 65, -10, 65, -12, 73, -12, 13, -2, -2, 6, 10, -79, -69, -18, 10, -85, 67, 74], "withholdReward": false, "trial_id": "mdp_trial_3", "block": "test", "trialIndex": 4, "score": 3.6500000000000004, "costs": -0.35, "simulationMode": [null, null, null, null, null], "rewards": [2, -3, 7, 8, -10], "path": ["0", "0", "12", "13", "14", "15", "17"], "rt": [3800, 441, 163, 350, 1904], "actions": ["right", "right", "right", "up", "right"], "actionTimes": [5758, 6720, 7393, 8261, 10666], "queries": {"click": {"state": {"target": ["2"], "time": [4243]}, "edge": {"target": [], "time": []}}, "mouseover": {"state": {"target": ["1", "2"], "time": [2977, 3795]}, "edge": {"target": [], "time": []}}, "mouseout": {"state": {"target": ["14", "13", "12", "1", "2", "6", "17", "15", "12"], "time": [1093, 1143, 1377, 3760, 4466, 11726, 19227, 19309, 19542]}, "edge": {"target": [], "time": []}}}, "displayed_time": "15.96", "trialTime": 20611, "trial_type": "mouselab-mdp", "trial_index": 11, "time_elapsed": 590551, "internal_node_id": "0.0-6.0-1.0-2.0"}}, {"uniqueid": "w95222703:a10091289", "current_trial": 12, "dateTime": 1693481868549, "trialdata": {"revealed_states": [], "clicked_states": ["25"], "num_clicks_accrued": [0, 0, 0, 0, 0, 0, 0, 0, 0, 0, 0, 0, 0], "stateRewards": ["", 1, 1, -5, 8, -6, 45, 16, -6, -7, -22, -38, -1, -4, 8, -11, -16, 21, -45, -15, -59, -32, 42, -1, 3, 6, 11, -7, 34, -27, -8, 85, 43, -9], "withholdReward": false, "trial_id": "mdp_trial_4", "block": "test", "trialIndex": 5, "score": -9.95, "costs": -0.95, "simulationMode": [null, null, null, null, null], "rewards": [-1, 3, 6, -8, -9], "path": ["0", "0", "23", "24", "25", "30", "33"], "rt": [3372, 136, 334, 335, 380], "actions": ["left", "left", "left", "down", "left"], "actionTimes": [11424, 12070, 12900, 13750, 14646], "queries": {"click": {"state": {"target": ["25"], "time": [9935]}, "edge": {"target": [], "time": []}}, "mouseover": {"state": {"target": ["0", "23", "24", "25"], "time": [8981, 9048, 9231, 9448]}, "edge": {"target": [], "time": []}}, "mouseout": {"state": {"target": ["0", "23", "24", "25", "24", "23", "0", "12", "13", "14"], "time": [8997, 9132, 9365, 15782, 15864, 15914, 15946, 15980, 16014, 16047]}, "edge": {"target": [], "time": []}}}, "displayed_time": "22.05", "trialTime": 26335, "trial_type": "mouselab-mdp", "trial_index": 12, "time_elapsed": 617018, "internal_node_id": "0.0-6.0-1.0-3.0"}}, {"uniqueid": "w95222703:a10091289", "current_trial": 13, "dateTime": 1693481888700, "trialdata": {"revealed_states": [], "clicked_states": ["7"], "num_clicks_accrued": [0, 0, 0, 0, 0, 0, 0, 0, 0, 0, 0, 0, 0], "stateRewards": ["", -1, -4, 8, 8, -68, 47, 24, -7, -61, 49, -69, -1, -1, 8, -7, 42, 1, -45, -11, 10, -63, -6, 1, 4, 6, -16, 79, -37, -58, -12, 81, 18, -53], "withholdReward": false, "trial_id": "mdp_trial_5", "block": "test", "trialIndex": 6, "score": -13.15, "costs": -2.15, "simulationMode": [null, null, null, null, null, null], "rewards": [-1, -1, 8, -11, -6], "path": ["0", "0", "12", "13", "14", "19", "22"], "rt": [2772, 1822, 412, 402, 322, 335], "actions": ["right", "right", "right", "right", "down", "left"], "actionTimes": [5685, 7510, 8433, 9356, 10194, 11023], "queries": {"click": {"state": {"target": ["7"], "time": [4319]}, "edge": {"target": [], "time": []}}, "mouseover": {"state": {"target": ["1", "2", "7", "1"], "time": [3454, 3571, 3721, 6803]}, "edge": {"target": [], "time": []}}, "mouseout": {"state": {"target": ["17", "15", "18", "1", "2", "7", "1", "0", "12"], "time": [1622, 1704, 1754, 3503, 3637, 6687, 6886, 12305, 12404]}, "edge": {"target": [], "time": []}}}, "displayed_time": "16.91", "trialTime": 20009, "trial_type": "mouselab-mdp", "trial_index": 13, "time_elapsed": 637169, "internal_node_id": "0.0-6.0-1.0-4.0"}}, {"uniqueid": "w95222703:a10091289", "current_trial": 14, "dateTime": 1693481908002, "trialdata": {"revealed_states": [], "clicked_states": [], "num_clicks_accrued": [0, 0, 0, 0, 0, 0, 0, 0, 0, 0, 0, 0, 0], "stateRewards": ["", -2, 4, 3, 5, -61, 4, 30, 1, -47, 83, 10, 1, 4, 7, -14, 19, -74, -83, 6, -2, -2, -65, -1, -2, 4, -11, 12, -1, -68, 11, -38, -28, 66], "withholdReward": false, "trial_id": "mdp_trial_6", "block": "test", "trialIndex": 7, "score": 17, "costs": 0, "simulationMode": [null, null, null, null, null], "rewards": [1, 4, 7, -14, 19], "path": ["0", "0", "12", "13", "14", "15", "16"], "rt": [1259, 233, 47, 106, 117], "actions": ["right", "right", "right", "up", "up"], "actionTimes": [3884, 4638, 5201, 5827, 6455], "queries": {"click": {"state": {"target": [], "time": []}, "edge": {"target": [], "time": []}}, "mouseover": {"state": {"target": [], "time": []}, "edge": {"target": [], "time": []}}, "mouseout": {"state": {"target": ["20", "19", "12", "0", "18"], "time": [1304, 1387, 1854, 8603, 8669]}, "edge": {"target": [], "time": []}}}, "displayed_time": "16.63", "trialTime": 19145, "trial_type": "mouselab-mdp", "trial_index": 14, "time_elapsed": 656471, "internal_node_id": "0.0-6.0-1.0-5.0"}}, {"uniqueid": "w95222703:a10091289", "current_trial": 15, "dateTime": 1693481929234, "trialdata": {"revealed_states": [], "clicked_states": [], "num_clicks_accrued": [0, 0, 0, 0, 0, 0, 0, 0, 0, 0, 0, 0, 0], "stateRewards": ["", -1, 3, 2, 9, 41, 4, -46, -12, -54, -87, -25, 2, 3, -1, 11, -77, 12, -33, -9, -32, 35, 72, 1, 3, -7, 4, 37, 65, -73, 6, 77, -43, 8], "withholdReward": false, "trial_id": "mdp_trial_7", "block": "test", "trialIndex": 8, "score": -95, "costs": 0, "simulationMode": [null, null, null, null, null], "rewards": [-1, 3, 2, -12, -87], "path": ["0", "0", "1", "2", "3", "8", "10"], "rt": [1190, 447, 94, 1307, 1485], "actions": ["up", "up", "up", "left", "down"], "actionTimes": [4920, 5876, 6488, 8285, 10280], "queries": {"click": {"state": {"target": [], "time": []}, "edge": {"target": [], "time": []}}, "mouseover": {"state": {"target": [], "time": []}, "edge": {"target": [], "time": []}}, "mouseout": {"state": {"target": ["0", "0", "12", "17"], "time": [3276, 11493, 11526, 11626]}, "edge": {"target": [], "time": []}}}, "displayed_time": "17.73", "trialTime": 21085, "trial_type": "mouselab-mdp", "trial_index": 15, "time_elapsed": 677703, "internal_node_id": "0.0-6.0-1.0-6.0"}}, {"uniqueid": "w95222703:a10091289", "current_trial": 16, "dateTime": 1693481948927, "trialdata": {"revealed_states": [], "clicked_states": [], "num_clicks_accrued": [0, 0, 0, 0, 0, 0, 0, 0, 0, 0, 0, 0, 0], "stateRewards": ["", -2, -3, -5, 8, 27, 11, 43, -6, -24, -87, 69, -2, 1, 1, 9, 19, 48, -37, 9, -14, 45, 62, 1, 2, 1, 16, -81, -41, 22, 4, -6, -63, 47], "withholdReward": false, "trial_id": "mdp_trial_8", "block": "test", "trialIndex": 9, "score": 2, "costs": 0, "simulationMode": [null, null, null, null, null], "rewards": [1, 2, 1, 4, -6], "path": ["0", "0", "23", "24", "25", "30", "31"], "rt": [1010, 13, 60, 205, 324], "actions": ["left", "left", "left", "down", "right"], "actionTimes": [4945, 5486, 6051, 6745, 7580], "queries": {"click": {"state": {"target": [], "time": []}, "edge": {"target": [], "time": []}}, "mouseover": {"state": {"target": [], "time": []}, "edge": {"target": [], "time": []}}, "mouseout": {"state": {"target": ["14", "13", "12", "0", "15"], "time": [3022, 3072, 3140, 10207, 10289]}, "edge": {"target": [], "time": []}}}, "displayed_time": "17.94", "trialTime": 19543, "trial_type": "mouselab-mdp", "trial_index": 16, "time_elapsed": 697397, "internal_node_id": "0.0-6.0-1.0-7.0"}}, {"uniqueid": "w95222703:a10091289", "current_trial": 17, "dateTime": 1693481967530, "trialdata": {"revealed_states": [], "clicked_states": [], "num_clicks_accrued": [0, 0, 0, 0, 0, 0, 0, 0, 0, 0, 0, 0, 0], "stateRewards": ["", -2, -3, 1, -7, 39, -67, 16, 5, -20, 73, 66, -1, 4, 5, -3, 23, -68, -87, -8, 3, -3, 17, 1, -4, -2, -13, -32, 34, 61, -5, -11, -18, 12], "withholdReward": false, "trial_id": "mdp_trial_9", "block": "test", "trialIndex": 10, "score": 2, "costs": 0, "simulationMode": [null, null, null, null, null], "rewards": [1, -4, -2, -5, 12], "path": ["0", "0", "23", "24", "25", "30", "33"], "rt": [1292, 727, 428, 337, 777], "actions": ["left", "left", "left", "down", "left"], "actionTimes": [4322, 5555, 6491, 7334, 8607], "queries": {"click": {"state": {"target": [], "time": []}, "edge": {"target": [], "time": []}}, "mouseover": {"state": {"target": [], "time": []}, "edge": {"target": [], "time": []}}, "mouseout": {"state": {"target": ["14", "13", "0", "12", "18", "15"], "time": [1578, 1678, 9945, 9994, 10078, 10128]}, "edge": {"target": [], "time": []}}}, "displayed_time": "17.03", "trialTime": 18453, "trial_type": "mouselab-mdp", "trial_index": 17, "time_elapsed": 715999, "internal_node_id": "0.0-6.0-1.0-8.0"}}, {"uniqueid": "w95222703:a10091289", "current_trial": 18, "dateTime": 1693481986188, "trialdata": {"revealed_states": [], "clicked_states": [], "num_clicks_accrued": [0, 0, 0, 0, 0, 0, 0, 0, 0, 0, 0, 0, 0], "stateRewards": ["", -1, -3, 4, -10, -5, 79, -87, -2, 53, 29, -20, -2, -1, -5, 10, 27, 86, 46, -16, -29, 40, 3, 2, 4, -1, -6, 37, 79, -29, 7, 86, -62, 29], "withholdReward": false, "trial_id": "mdp_trial_10", "block": "test", "trialIndex": 11, "score": 29, "costs": 0, "simulationMode": [null, null, null, null, null], "rewards": [-2, -1, -5, 10, 27], "path": ["0", "0", "12", "13", "14", "15", "16"], "rt": [931, 483, 143, 295, 302], "actions": ["right", "right", "right", "up", "up"], "actionTimes": [3800, 4801, 5445, 6245, 7035], "queries": {"click": {"state": {"target": [], "time": []}, "edge": {"target": [], "time": []}}, "mouseover": {"state": {"target": [], "time": []}, "edge": {"target": [], "time": []}}, "mouseout": {"state": {"target": ["18", "0"], "time": [2166, 17516]}, "edge": {"target": [], "time": []}}}, "displayed_time": "16.87", "trialTime": 18499, "trial_type": "mouselab-mdp", "trial_index": 18, "time_elapsed": 734657, "internal_node_id": "0.0-6.0-1.0-9.0"}}, {"uniqueid": "w95222703:a10091289", "current_trial": 19, "dateTime": 1693482003976, "trialdata": {"revealed_states": [], "clicked_states": [], "num_clicks_accrued": [0, 0, 0, 0, 0, 0, 0, 0, 0, 0, 0, 0, 0], "stateRewards": ["", 2, -3, 5, -14, -63, -9, -24, -11, -54, -43, 68, 2, -2, -4, 7, -64, 30, 47, 12, -74, 11, 86, 1, -3, 3, 10, -71, -42, -52, -1, -29, -16, 69], "withholdReward": false, "trial_id": "mdp_trial_11", "block": "test", "trialIndex": 12, "score": -60, "costs": 0, "simulationMode": [null, null, null, null, null], "rewards": [1, -3, 3, 10, -71], "path": ["0", "0", "23", "24", "25", "26", "27"], "rt": [1401, 213, 79, 601, 118], "actions": ["left", "left", "left", "up", "up"], "actionTimes": [3669, 4392, 4991, 6113, 6747], "queries": {"click": {"state": {"target": [], "time": []}, "edge": {"target": [], "time": []}}, "mouseover": {"state": {"target": [], "time": []}, "edge": {"target": [], "time": []}}, "mouseout": {"state": {"target": ["23"], "time": [1627]}, "edge": {"target": [], "time": []}}}, "displayed_time": "16.27", "trialTime": 17633, "trial_type": "mouselab-mdp", "trial_index": 19, "time_elapsed": 752445, "internal_node_id": "0.0-6.0-1.0-10.0"}}, {"uniqueid": "w95222703:a10091289", "current_trial": 20, "dateTime": 1693482023632, "trialdata": {"revealed_states": [], "clicked_states": [], "num_clicks_accrued": [0, 0, 0, 0, 0, 0, 0, 0, 0, 0, 0, 0, 0], "stateRewards": ["", -1, 4, -5, 9, 29, -75, -42, -16, 24, -28, -41, 2, -3, 1, 10, 60, 47, 55, -1, -53, 22, -40, 2, -3, -6, 4, -26, 44, 54, 15, -76, 42, 14], "withholdReward": false, "trial_id": "mdp_trial_12", "block": "test", "trialIndex": 13, "score": 57, "costs": 0, "simulationMode": [null, null, null, null, null], "rewards": [2, -3, 1, 10, 47], "path": ["0", "0", "12", "13", "14", "15", "17"], "rt": [1385, 134, 59, 644, 420], "actions": ["right", "right", "right", "up", "right"], "actionTimes": [4204, 4842, 5401, 6553, 7479], "queries": {"click": {"state": {"target": [], "time": []}, "edge": {"target": [], "time": []}}, "mouseover": {"state": {"target": [], "time": []}, "edge": {"target": [], "time": []}}, "mouseout": {"state": {"target": [], "time": []}, "edge": {"target": [], "time": []}}}, "displayed_time": "16.82", "trialTime": 19504, "trial_type": "mouselab-mdp", "trial_index": 20, "time_elapsed": 772101, "internal_node_id": "0.0-6.0-1.0-11.0"}}, {"uniqueid": "w95222703:a10091289", "current_trial": 21, "dateTime": 1693482040640, "trialdata": {"revealed_states": [], "clicked_states": [], "num_clicks_accrued": [0, 0, 0, 0, 0, 0, 0, 0, 0, 0, 0, 0, 0], "stateRewards": ["", 1, 2, 8, -2, 23, -69, -18, -16, 54, -21, 71, -1, -4, 7, 11, 43, -6, 88, 6, -55, 72, 43, 1, -3, -2, -1, 68, -31, -54, 4, -8, 25, -2], "withholdReward": false, "trial_id": "mdp_trial_13", "block": "test", "trialIndex": 14, "score": -47, "costs": 0, "simulationMode": [null, null, null, null, null], "rewards": [-1, -4, 7, 6, -55], "path": ["0", "0", "12", "13", "14", "19", "20"], "rt": [1554, 180, 283, 428, 363], "actions": ["right", "right", "right", "down", "right"], "actionTimes": [3113, 3791, 4577, 5522, 6407], "queries": {"click": {"state": {"target": [], "time": []}, "edge": {"target": [], "time": []}}, "mouseover": {"state": {"target": [], "time": []}, "edge": {"target": [], "time": []}}, "mouseout": {"state": {"target": [], "time": []}, "edge": {"target": [], "time": []}}}, "displayed_time": "15.56", "trialTime": 16847, "trial_type": "mouselab-mdp", "trial_index": 21, "time_elapsed": 789109, "internal_node_id": "0.0-6.0-1.0-12.0"}}, {"uniqueid": "w95222703:a10091289", "current_trial": 22, "dateTime": 1693482059781, "trialdata": {"revealed_states": [], "clicked_states": ["23"], "num_clicks_accrued": [0, 0, 0, 0, 0, 0, 0, 0, 0, 0, 0, 0, 0], "stateRewards": ["", -1, -3, -7, -4, -85, -70, 79, 8, 84, -66, 42, 2, -2, -3, -16, -54, -66, 68, -3, 21, -14, 7, -2, -1, -3, -8, 75, 80, 86, -7, -84, 73, -16], "withholdReward": false, "trial_id": "mdp_trial_14", "block": "test", "trialIndex": 15, "score": -28.75, "costs": 0.25, "simulationMode": [null, null, null, null, null], "rewards": [-2, -1, -3, -7, -16], "path": ["0", "0", "23", "24", "25", "30", "33"], "rt": [2816, 361, 293, 1147, 340], "actions": ["left", "left", "left", "down", "left"], "actionTimes": [5716, 6597, 7396, 9048, 9894], "queries": {"click": {"state": {"target": ["23"], "time": [4354]}, "edge": {"target": [], "time": []}}, "mouseover": {"state": {"target": ["23", "23"], "time": [3467, 3885]}, "edge": {"target": [], "time": []}}, "mouseout": {"state": {"target": ["0", "23"], "time": [3434, 3518]}, "edge": {"target": [], "time": []}}}, "displayed_time": "16.90", "trialTime": 18982, "trial_type": "mouselab-mdp", "trial_index": 22, "time_elapsed": 808250, "internal_node_id": "0.0-6.0-1.0-13.0"}}, {"uniqueid": "w95222703:a10091289", "current_trial": 23, "dateTime": 1693482076737, "trialdata": {"revealed_states": [], "clicked_states": [], "num_clicks_accrued": [0, 0, 0, 0, 0, 0, 0, 0, 0, 0, 0, 0, 0], "stateRewards": ["", 1, -2, 4, 7, -43, -83, -60, -5, -86, -80, 83, -1, -2, 6, 11, -15, 21, 13, 9, 29, -49, 11, -1, 4, -6, -11, 87, 40, 63, -8, -39, -11, 62], "withholdReward": false, "trial_id": "mdp_trial_15", "block": "test", "trialIndex": 16, "score": 35, "costs": 0, "simulationMode": [null, null, null, null, null], "rewards": [-1, -2, 6, 11, 21], "path": ["0", "0", "12", "13", "14", "15", "17"], "rt": [712, 157, 117, 522, 203], "actions": ["right", "right", "right", "up", "right"], "actionTimes": [2158, 2822, 3450, 4471, 5170], "queries": {"click": {"state": {"target": [], "time": []}, "edge": {"target": [], "time": []}}, "mouseover": {"state": {"target": [], "time": []}, "edge": {"target": [], "time": []}}, "mouseout": {"state": {"target": ["23"], "time": [714]}, "edge": {"target": [], "time": []}}}, "displayed_time": "15.45", "trialTime": 16785, "trial_type": "mouselab-mdp", "trial_index": 23, "time_elapsed": 825206, "internal_node_id": "0.0-6.0-1.0-14.0"}}, {"uniqueid": "w95222703:a10091289", "current_trial": 24, "dateTime": 1693482094010, "trialdata": {"revealed_states": [], "clicked_states": [], "num_clicks_accrued": [0, 0, 0, 0, 0, 0, 0, 0, 0, 0, 0, 0, 0], "stateRewards": ["", -2, -3, -3, 9, 79, 67, 22, -15, -56, 27, -85, -2, 4, -4, -15, -20, -32, 60, 15, 71, 57, 17, 1, 2, -8, 15, -37, -81, 82, 15, 21, -3, 2], "withholdReward": false, "trial_id": "mdp_trial_16", "block": "test", "trialIndex": 17, "score": 68, "costs": 0, "simulationMode": [null, null, null, null, null], "rewards": [-2, -3, -3, 9, 67], "path": ["0", "0", "1", "2", "3", "4", "6"], "rt": [1289, 216, 121, 175, 457], "actions": ["up", "up", "up", "right", "right"], "actionTimes": [2473, 3202, 3822, 4510, 5477], "queries": {"click": {"state": {"target": [], "time": []}, "edge": {"target": [], "time": []}}, "mouseover": {"state": {"target": [], "time": []}, "edge": {"target": [], "time": []}}, "mouseout": {"state": {"target": [], "time": []}, "edge": {"target": [], "time": []}}}, "displayed_time": "15.19", "trialTime": 17111, "trial_type": "mouselab-mdp", "trial_index": 24, "time_elapsed": 842479, "internal_node_id": "0.0-6.0-1.0-15.0"}}, {"uniqueid": "w95222703:a10091289", "current_trial": 25, "dateTime": 1693482112734, "trialdata": {"revealed_states": [], "clicked_states": [], "num_clicks_accrued": [0, 0, 0, 0, 0, 0, 0, 0, 0, 0, 0, 0, 0], "stateRewards": ["", -1, -1, 7, -15, -43, -21, -84, -9, -45, -66, 2, 1, -2, 2, 8, -27, 44, -52, -5, -84, 11, 53, 1, 4, -4, 16, 83, -82, -15, -16, 68, -43, 81], "withholdReward": false, "trial_id": "mdp_trial_17", "block": "test", "trialIndex": 18, "score": -53, "costs": 0, "simulationMode": [null, null, null, null, null], "rewards": [-1, -1, 7, -15, -43], "path": ["0", "0", "1", "2", "3", "4", "5"], "rt": [1247, 297, 172, 312, 407], "actions": ["up", "up", "up", "right", "up"], "actionTimes": [3605, 4424, 5114, 5939, 6866], "queries": {"click": {"state": {"target": [], "time": []}, "edge": {"target": [], "time": []}}, "mouseover": {"state": {"target": [], "time": []}, "edge": {"target": [], "time": []}}, "mouseout": {"state": {"target": [], "time": []}, "edge": {"target": [], "time": []}}}, "displayed_time": "16.36", "trialTime": 18561, "trial_type": "mouselab-mdp", "trial_index": 25, "time_elapsed": 861203, "internal_node_id": "0.0-6.0-1.0-16.0"}}, {"uniqueid": "w95222703:a10091289", "current_trial": 26, "dateTime": 1693482130915, "trialdata": {"revealed_states": [], "clicked_states": ["1"], "num_clicks_accrued": [0, 0, 0, 0, 0, 0, 0, 0, 0, 0, 0, 0, 0], "stateRewards": ["", 1, -3, -1, 9, -34, -40, 22, -7, 45, 53, -11, 2, 4, 5, 15, 21, 37, -49, -3, 80, -28, -34, 1, -3, 1, 1, -40, -6, -5, -16, -85, -86, 59], "withholdReward": false, "trial_id": "mdp_trial_18", "block": "test", "trialIndex": 19, "score": -39.75, "costs": 0.25, "simulationMode": [null, null, null, null, null], "rewards": [1, -3, 1, 1, -40], "path": ["0", "0", "23", "24", "25", "26", "27"], "rt": [3654, 891, 184, 398, 256], "actions": ["left", "left", "left", "up", "up"], "actionTimes": [6187, 7590, 8283, 9179, 9954], "queries": {"click": {"state": {"target": ["1"], "time": [4259]}, "edge": {"target": [], "time": []}}, "mouseover": {"state": {"target": ["1"], "time": [3765]}, "edge": {"target": [], "time": []}}, "mouseout": {"state": {"target": ["0"], "time": [3557]}, "edge": {"target": [], "time": []}}}, "displayed_time": "16.53", "trialTime": 18017, "trial_type": "mouselab-mdp", "trial_index": 26, "time_elapsed": 879385, "internal_node_id": "0.0-6.0-1.0-17.0"}}, {"uniqueid": "w95222703:a10091289", "current_trial": 27, "dateTime": 1693482148064, "trialdata": {"revealed_states": [], "clicked_states": [], "num_clicks_accrued": [0, 0, 0, 0, 0, 0, 0, 0, 0, 0, 0, 0, 0], "stateRewards": ["", 1, 2, -3, -5, 66, -50, -47, -5, 1, 28, -27, 1, 1, -1, -6, 37, -25, 56, 1, -82, -66, -40, -1, -4, -7, 15, -61, -23, 26, 10, 14, -56, 29], "withholdReward": false, "trial_id": "mdp_trial_19", "block": "test", "trialIndex": 20, "score": -64, "costs": 0, "simulationMode": [null, null, null, null, null], "rewards": [1, 1, -1, 1, -66], "path": ["0", "0", "12", "13", "14", "19", "21"], "rt": [2118, 153, 142, 455, 210], "actions": ["right", "right", "right", "down", "down"], "actionTimes": [3679, 4342, 4981, 5927, 6649], "queries": {"click": {"state": {"target": [], "time": []}, "edge": {"target": [], "time": []}}, "mouseover": {"state": {"target": [], "time": []}, "edge": {"target": [], "time": []}}, "mouseout": {"state": {"target": ["1"], "time": [888]}, "edge": {"target": [], "time": []}}}, "displayed_time": "15.56", "trialTime": 16974, "trial_type": "mouselab-mdp", "trial_index": 27, "time_elapsed": 896533, "internal_node_id": "0.0-6.0-1.0-18.0"}}, {"uniqueid": "w95222703:a10091289", "current_trial": 28, "dateTime": 1693482165678, "trialdata": {"revealed_states": [], "clicked_states": [], "num_clicks_accrued": [0, 0, 0, 0, 0, 0, 0, 0, 0, 0, 0, 0, 0], "stateRewards": ["", -1, 2, 5, -6, 13, -64, -47, 8, -79, -80, -33, 1, 2, -2, -16, 56, -71, -10, 3, 29, 44, 85, -1, 4, 5, 4, -36, -56, 19, 8, 52, -13, -2], "withholdReward": false, "trial_id": "mdp_trial_20", "block": "test", "trialIndex": 21, "score": 68, "costs": 0, "simulationMode": [null, null, null, null, null], "rewards": [-1, 4, 5, 8, 52], "path": ["0", "0", "23", "24", "25", "30", "31"], "rt": [1229, 142, 65, 290, 410], "actions": ["left", "left", "left", "down", "right"], "actionTimes": [2628, 3289, 3863, 4670, 5591], "queries": {"click": {"state": {"target": [], "time": []}, "edge": {"target": [], "time": []}}, "mouseover": {"state": {"target": [], "time": []}, "edge": {"target": [], "time": []}}, "mouseout": {"state": {"target": ["0"], "time": [1275]}, "edge": {"target": [], "time": []}}}, "displayed_time": "15.40", "trialTime": 17447, "trial_type": "mouselab-mdp", "trial_index": 28, "time_elapsed": 914148, "internal_node_id": "0.0-6.0-1.0-19.0"}}, {"uniqueid": "w95222703:a10091289", "current_trial": 29, "dateTime": 1693482182896, "trialdata": {"revealed_states": [], "clicked_states": [], "num_clicks_accrued": [0, 0, 0, 0, 0, 0, 0, 0, 0, 0, 0, 0, 0], "stateRewards": ["", -1, 4, 3, 12, -27, 34, -33, 3, -63, 1, 6, 2, 2, -6, -11, -77, -85, 68, -6, 51, 81, -60, -2, -2, 1, 15, 20, 15, 68, -10, -14, 6, -4], "withholdReward": false, "trial_id": "mdp_trial_21", "block": "test", "trialIndex": 22, "score": 32, "costs": 0, "simulationMode": [null, null, null, null, null], "rewards": [-2, -2, 1, 15, 20], "path": ["0", "0", "23", "24", "25", "26", "27"], "rt": [1021, 640, 471, 547, 648], "actions": ["left", "left", "left", "up", "up"], "actionTimes": [2563, 3724, 4705, 5746, 6913], "queries": {"click": {"state": {"target": [], "time": []}, "edge": {"target": [], "time": []}}, "mouseover": {"state": {"target": [], "time": []}, "edge": {"target": [], "time": []}}, "mouseout": {"state": {"target": ["0"], "time": [1424]}, "edge": {"target": [], "time": []}}}, "displayed_time": "15.54", "trialTime": 17018, "trial_type": "mouselab-mdp", "trial_index": 29, "time_elapsed": 931365, "internal_node_id": "0.0-6.0-1.0-20.0"}}, {"uniqueid": "w95222703:a10091289", "current_trial": 30, "dateTime": 1693482200545, "trialdata": {"revealed_states": [], "clicked_states": [], "num_clicks_accrued": [0, 0, 0, 0, 0, 0, 0, 0, 0, 0, 0, 0, 0], "stateRewards": ["", -1, 3, 1, -7, 56, 76, 57, 3, 11, -9, 14, 1, -2, 2, 8, -77, -3, 79, -5, 88, 24, -66, -2, -1, 7, -7, -30, 14, -76, 11, -36, 28, -6], "withholdReward": false, "trial_id": "mdp_trial_22", "block": "test", "trialIndex": 23, "score": 88, "costs": 0, "simulationMode": [null, null, null, null, null], "rewards": [1, -2, 2, 8, 79], "path": ["0", "0", "12", "13", "14", "15", "18"], "rt": [1052, 248, 111, 529, 248], "actions": ["right", "right", "right", "up", "left"], "actionTimes": [2567, 3334, 3947, 4981, 5748], "queries": {"click": {"state": {"target": [], "time": []}, "edge": {"target": [], "time": []}}, "mouseover": {"state": {"target": [], "time": []}, "edge": {"target": [], "time": []}}, "mouseout": {"state": {"target": ["0"], "time": [1386]}, "edge": {"target": [], "time": []}}}, "displayed_time": "15.52", "trialTime": 17469, "trial_type": "mouselab-mdp", "trial_index": 30, "time_elapsed": 949014, "internal_node_id": "0.0-6.0-1.0-21.0"}}, {"uniqueid": "w95222703:a10091289", "current_trial": 31, "dateTime": 1693482217583, "trialdata": {"revealed_states": [], "clicked_states": [], "num_clicks_accrued": [0, 0, 0, 0, 0, 0, 0, 0, 0, 0, 0, 0, 0], "stateRewards": ["", 2, -1, -1, -9, -81, -30, 55, -6, 78, 25, 62, 2, 4, -1, 9, -85, 1, -19, 1, -60, 12, -34, 1, 4, -1, -13, -24, -16, -83, -8, 16, 43, 9], "withholdReward": false, "trial_id": "mdp_trial_23", "block": "test", "trialIndex": 24, "score": 46, "costs": 0, "simulationMode": [null, null, null, null, null], "rewards": [2, -1, -1, -9, 55], "path": ["0", "0", "1", "2", "3", "4", "7"], "rt": [1562, 133, 175, 659, 276], "actions": ["up", "up", "up", "right", "down"], "actionTimes": [2806, 3450, 4124, 5291, 6075], "queries": {"click": {"state": {"target": [], "time": []}, "edge": {"target": [], "time": []}}, "mouseover": {"state": {"target": [], "time": []}, "edge": {"target": [], "time": []}}, "mouseout": {"state": {"target": ["0"], "time": [1025]}, "edge": {"target": [], "time": []}}}, "displayed_time": "15.25", "trialTime": 16856, "trial_type": "mouselab-mdp", "trial_index": 31, "time_elapsed": 966052, "internal_node_id": "0.0-6.0-1.0-22.0"}}, {"uniqueid": "w95222703:a10091289", "current_trial": 32, "dateTime": 1693482234664, "trialdata": {"revealed_states": [], "clicked_states": [], "num_clicks_accrued": [0, 0, 0, 0, 0, 0, 0, 0, 0, 0, 0, 0, 0], "stateRewards": ["", 2, -1, 5, 6, 10, 86, 55, 10, -45, 63, -71, 1, -2, 5, -8, -50, -72, 36, 15, 61, 12, 33, -1, -4, 6, 5, 79, -56, -21, -16, -87, 60, -81], "withholdReward": false, "trial_id": "mdp_trial_24", "block": "test", "trialIndex": 25, "score": 31, "costs": 0, "simulationMode": [null, null, null, null, null], "rewards": [1, -2, 5, 15, 12], "path": ["0", "0", "12", "13", "14", "19", "21"], "rt": [1339, 195, 176, 782, 438], "actions": ["right", "right", "right", "down", "down"], "actionTimes": [2541, 3249, 3915, 5203, 6159], "queries": {"click": {"state": {"target": [], "time": []}, "edge": {"target": [], "time": []}}, "mouseover": {"state": {"target": [], "time": []}, "edge": {"target": [], "time": []}}, "mouseout": {"state": {"target": ["0"], "time": [1076]}, "edge": {"target": [], "time": []}}}, "displayed_time": "15.20", "trialTime": 16894, "trial_type": "mouselab-mdp", "trial_index": 32, "time_elapsed": 983133, "internal_node_id": "0.0-6.0-1.0-23.0"}}, {"uniqueid": "w95222703:a10091289", "current_trial": 33, "dateTime": 1693482251924, "trialdata": {"revealed_states": [], "clicked_states": [], "num_clicks_accrued": [0, 0, 0, 0, 0, 0, 0, 0, 0, 0, 0, 0, 0], "stateRewards": ["", -2, -1, -1, 5, -54, -87, 35, 2, -8, 20, -22, 1, 3, 6, 13, -75, -32, -55, -3, 56, 62, -22, -1, -4, -1, -7, -51, 84, 70, 7, -15, 5, 55], "withholdReward": false, "trial_id": "mdp_trial_25", "block": "test", "trialIndex": 26, "score": 6, "costs": 0, "simulationMode": [null, null, null, null, null], "rewards": [-1, -4, -1, 7, 5], "path": ["0", "0", "23", "24", "25", "30", "32"], "rt": [1150, 214, 346, 574, 402], "actions": ["left", "left", "left", "down", "down"], "actionTimes": [2295, 3020, 3885, 4962, 5858], "queries": {"click": {"state": {"target": [], "time": []}, "edge": {"target": [], "time": []}}, "mouseover": {"state": {"target": [], "time": []}, "edge": {"target": [], "time": []}}, "mouseout": {"state": {"target": ["0"], "time": [1025]}, "edge": {"target": [], "time": []}}}, "displayed_time": "15.15", "trialTime": 17057, "trial_type": "mouselab-mdp", "trial_index": 33, "time_elapsed": 1000394, "internal_node_id": "0.0-6.0-1.0-24.0"}}, {"uniqueid": "w95222703:a10091289", "current_trial": 34, "dateTime": 1693482269077, "trialdata": {"revealed_states": [], "clicked_states": [], "num_clicks_accrued": [0, 0, 0, 0, 0, 0, 0, 0, 0, 0, 0, 0, 0], "stateRewards": ["", 2, 3, -2, -8, -8, -41, 74, 15, -23, -80, 1, 1, 3, 3, -15, -63, -78, 67, 13, 75, -41, 86, 2, -2, 6, -3, -8, -49, 50, -6, 83, 74, 80], "withholdReward": false, "trial_id": "mdp_trial_26", "block": "test", "trialIndex": 27, "score": -5, "costs": 0, "simulationMode": [null, null, null, null, null], "rewards": [2, 3, -2, 15, -23], "path": ["0", "0", "1", "2", "3", "8", "9"], "rt": [1346, 286, 249, 518, 1104], "actions": ["up", "up", "up", "left", "up"], "actionTimes": [2527, 3322, 4086, 5103, 6724], "queries": {"click": {"state": {"target": [], "time": []}, "edge": {"target": [], "time": []}}, "mouseover": {"state": {"target": [], "time": []}, "edge": {"target": [], "time": []}}, "mouseout": {"state": {"target": ["0"], "time": [1056]}, "edge": {"target": [], "time": []}}}, "displayed_time": "15.18", "trialTime": 16940, "trial_type": "mouselab-mdp", "trial_index": 34, "time_elapsed": 1017546, "internal_node_id": "0.0-6.0-1.0-25.0"}}, {"uniqueid": "w95222703:a10091289", "current_trial": 35, "dateTime": 1693482286771, "trialdata": {"revealed_states": [], "clicked_states": [], "num_clicks_accrued": [0, 0, 0, 0, 0, 0, 0, 0, 0, 0, 0, 0, 0], "stateRewards": ["", -1, 3, 8, 9, -53, 20, -84, 2, -28, -62, -31, -1, -2, -7, 2, 51, 58, 45, -4, -17, -41, 36, 2, -2, -7, -15, 29, -54, -37, -16, -43, 65, -17], "withholdReward": false, "trial_id": "mdp_trial_27", "block": "test", "trialIndex": 28, "score": -19, "costs": 0, "simulationMode": [null, null, null, null, null], "rewards": [-1, 3, 8, 2, -31], "path": ["0", "0", "1", "2", "3", "8", "11"], "rt": [808, 249, 205, 737, 359], "actions": ["up", "up", "up", "left", "left"], "actionTimes": [2638, 3384, 4089, 5321, 6191], "queries": {"click": {"state": {"target": [], "time": []}, "edge": {"target": [], "time": []}}, "mouseover": {"state": {"target": [], "time": []}, "edge": {"target": [], "time": []}}, "mouseout": {"state": {"target": ["0"], "time": [1700]}, "edge": {"target": [], "time": []}}}, "displayed_time": "15.83", "trialTime": 17482, "trial_type": "mouselab-mdp", "trial_index": 35, "time_elapsed": 1035240, "internal_node_id": "0.0-6.0-1.0-26.0"}}, {"uniqueid": "w95222703:a10091289", "current_trial": 36, "dateTime": 1693482304868, "trialdata": {"revealed_states": [], "clicked_states": [], "num_clicks_accrued": [0, 0, 0, 0, 0, 0, 0, 0, 0, 0, 0, 0, 0], "stateRewards": ["", -2, -4, 6, 14, -34, 49, 36, -8, -3, 32, -4, 1, -2, 1, -8, -20, -71, -57, -7, -86, -62, -16, -2, -3, -5, 11, 23, -21, 53, 5, -5, 85, 73], "withholdReward": false, "trial_id": "mdp_trial_28", "block": "test", "trialIndex": 29, "score": -79, "costs": 0, "simulationMode": [null, null, null, null, null], "rewards": [1, -2, 1, -8, -71], "path": ["0", "0", "12", "13", "14", "15", "17"], "rt": [1256, 350, 275, 403, 332], "actions": ["right", "right", "right", "up", "right"], "actionTimes": [2961, 3812, 4604, 5515, 6345], "queries": {"click": {"state": {"target": [], "time": []}, "edge": {"target": [], "time": []}}, "mouseover": {"state": {"target": [], "time": []}, "edge": {"target": [], "time": []}}, "mouseout": {"state": {"target": ["0"], "time": [1577]}, "edge": {"target": [], "time": []}}}, "displayed_time": "15.71", "trialTime": 17910, "trial_type": "mouselab-mdp", "trial_index": 36, "time_elapsed": 1053338, "internal_node_id": "0.0-6.0-1.0-27.0"}}, {"uniqueid": "w95222703:a10091289", "current_trial": 37, "dateTime": 1693482323444, "trialdata": {"revealed_states": [], "clicked_states": [], "num_clicks_accrued": [0, 0, 0, 0, 0, 0, 0, 0, 0, 0, 0, 0, 0], "stateRewards": ["", 2, 4, 7, 7, -79, -2, -21, -5, -53, 47, -21, 1, -3, -1, 7, 83, 7, 84, -7, 80, -37, 69, 2, -4, 5, 2, 4, -20, -30, 7, 71, 44, -81], "withholdReward": false, "trial_id": "mdp_trial_29", "block": "test", "trialIndex": 30, "score": 87, "costs": 0, "simulationMode": [null, null, null, null, null], "rewards": [1, -3, -1, 7, 83], "path": ["0", "0", "12", "13", "14", "15", "16"], "rt": [1917, 103, 71, 112, 206], "actions": ["right", "right", "right", "up", "up"], "actionTimes": [4506, 5122, 5688, 6297, 6991], "queries": {"click": {"state": {"target": [], "time": []}, "edge": {"target": [], "time": []}}, "mouseover": {"state": {"target": [], "time": []}, "edge": {"target": [], "time": []}}, "mouseout": {"state": {"target": ["0"], "time": [2488]}, "edge": {"target": [], "time": []}}}, "displayed_time": "16.59", "trialTime": 18276, "trial_type": "mouselab-mdp", "trial_index": 37, "time_elapsed": 1071913, "internal_node_id": "0.0-6.0-1.0-28.0"}}, {"uniqueid": "w95222703:a10091289", "current_trial": 38, "dateTime": 1693482341168, "trialdata": {"revealed_states": [], "clicked_states": [], "num_clicks_accrued": [0, 0, 0, 0, 0, 0, 0, 0, 0, 0, 0, 0, 0], "stateRewards": ["", 2, -1, 1, 10, -52, 86, -22, -2, -14, -63, 38, 1, 3, 7, -8, 11, -32, -27, 9, -71, 40, -87, -2, -1, 5, -7, 12, 31, -57, 13, 86, -58, 29], "withholdReward": false, "trial_id": "mdp_trial_30", "block": "test", "trialIndex": 31, "score": -62, "costs": 0, "simulationMode": [null, null, null, null, null], "rewards": [-2, -1, 5, -7, -57], "path": ["0", "0", "23", "24", "25", "26", "29"], "rt": [956, 147, 134, 616, 342], "actions": ["left", "left", "left", "up", "left"], "actionTimes": [2783, 3447, 4100, 5232, 6092], "queries": {"click": {"state": {"target": [], "time": []}, "edge": {"target": [], "time": []}}, "mouseover": {"state": {"target": [], "time": []}, "edge": {"target": [], "time": []}}, "mouseout": {"state": {"target": ["0"], "time": [1696]}, "edge": {"target": [], "time": []}}}, "displayed_time": "15.83", "trialTime": 17500, "trial_type": "mouselab-mdp", "trial_index": 38, "time_elapsed": 1089637, "internal_node_id": "0.0-6.0-1.0-29.0"}}, {"uniqueid": "w95222703:a10091289", "current_trial": 39, "dateTime": 1693482358470, "trialdata": {"revealed_states": [], "clicked_states": [], "num_clicks_accrued": [0, 0, 0, 0, 0, 0, 0, 0, 0, 0, 0, 0, 0], "stateRewards": ["", -2, -3, 7, -13, 60, 9, 37, -6, 37, 20, 1, 2, -2, -8, 6, -80, -31, -10, -7, 70, -65, -44, -1, 1, 7, 6, -11, 73, -85, 16, -21, 47, 34], "withholdReward": false, "trial_id": "mdp_trial_31", "block": "test", "trialIndex": 32, "score": 2, "costs": 0, "simulationMode": [null, null, null, null, null], "rewards": [-1, 1, 7, 6, -11], "path": ["0", "0", "23", "24", "25", "26", "27"], "rt": [888, 138, 120, 330, 103], "actions": ["left", "left", "left", "up", "up"], "actionTimes": [2350, 3008, 3644, 4468, 5091], "queries": {"click": {"state": {"target": [], "time": []}, "edge": {"target": [], "time": []}}, "mouseover": {"state": {"target": [], "time": []}, "edge": {"target": [], "time": []}}, "mouseout": {"state": {"target": ["0"], "time": [1325]}, "edge": {"target": [], "time": []}}}, "displayed_time": "15.46", "trialTime": 17090, "trial_type": "mouselab-mdp", "trial_index": 39, "time_elapsed": 1106940, "internal_node_id": "0.0-6.0-1.0-30.0"}}, {"uniqueid": "w95222703:a10091289", "current_trial": 40, "dateTime": 1693482375703, "trialdata": {"revealed_states": [], "clicked_states": [], "num_clicks_accrued": [0, 0, 0, 0, 0, 0, 0, 0, 0, 0, 0, 0, 0], "stateRewards": ["", 1, 2, 7, 13, 88, -71, 27, 3, 60, 5, -53, -2, 2, -6, -1, -30, 79, 47, -4, -14, 46, 68, 1, 1, 8, 10, -14, 86, 48, -11, -67, -44, 5], "withholdReward": false, "trial_id": "mdp_trial_32", "block": "test", "trialIndex": 33, "score": -45, "costs": 0, "simulationMode": [null, null, null, null, null], "rewards": [1, 1, 8, -11, -44], "path": ["0", "0", "23", "24", "25", "30", "32"], "rt": [1889, 390, 213, 473, 252], "actions": ["left", "left", "left", "down", "down"], "actionTimes": [3414, 4314, 5018, 5994, 6758], "queries": {"click": {"state": {"target": [], "time": []}, "edge": {"target": [], "time": []}}, "mouseover": {"state": {"target": [], "time": []}, "edge": {"target": [], "time": []}}, "mouseout": {"state": {"target": ["0"], "time": [1422]}, "edge": {"target": [], "time": []}}}, "displayed_time": "15.53", "trialTime": 17009, "trial_type": "mouselab-mdp", "trial_index": 40, "time_elapsed": 1124172, "internal_node_id": "0.0-6.0-1.0-31.0"}}, {"uniqueid": "w95222703:a10091289", "current_trial": 41, "dateTime": 1693482393015, "trialdata": {"revealed_states": [], "clicked_states": [], "num_clicks_accrued": [0, 0, 0, 0, 0, 0, 0, 0, 0, 0, 0, 0, 0], "stateRewards": ["", -2, -1, -3, -1, -78, -6, 2, -1, 22, -88, 32, 2, 2, -7, -8, -51, -17, 54, 2, -44, 54, 75, 2, -2, -8, -15, -29, 12, -67, 15, -1, -47, -47], "withholdReward": false, "trial_id": "mdp_trial_33", "block": "test", "trialIndex": 34, "score": -13, "costs": 0, "simulationMode": [null, null, null, null, null], "rewards": [-2, -1, -3, -1, -6], "path": ["0", "0", "1", "2", "3", "4", "6"], "rt": [1280, 736, 299, 373, 238], "actions": ["up", "up", "up", "right", "right"], "actionTimes": [2663, 3912, 4725, 5600, 6348], "queries": {"click": {"state": {"target": [], "time": []}, "edge": {"target": [], "time": []}}, "mouseover": {"state": {"target": [], "time": []}, "edge": {"target": [], "time": []}}, "mouseout": {"state": {"target": ["0"], "time": [1280]}, "edge": {"target": [], "time": []}}}, "displayed_time": "15.38", "trialTime": 17094, "trial_type": "mouselab-mdp", "trial_index": 41, "time_elapsed": 1141484, "internal_node_id": "0.0-6.0-1.0-32.0"}}, {"uniqueid": "w95222703:a10091289", "current_trial": 42, "dateTime": 1693482410122, "trialdata": {"revealed_states": [], "clicked_states": [], "num_clicks_accrued": [0, 0, 0, 0, 0, 0, 0, 0, 0, 0, 0, 0, 0], "stateRewards": ["", 1, 1, -2, 7, -31, -6, 76, 1, -36, -16, -53, 2, 1, 7, 13, -47, -10, 47, -7, 72, 46, -56, -2, -2, -2, 11, -80, 44, 38, 16, 67, 85, -78], "withholdReward": false, "trial_id": "mdp_trial_34", "block": "test", "trialIndex": 35, "score": 70, "costs": 0, "simulationMode": [null, null, null, null, null], "rewards": [2, 1, 7, 13, 47], "path": ["0", "0", "12", "13", "14", "15", "18"], "rt": [1189, 185, 159, 353, 322], "actions": ["right", "right", "right", "up", "left"], "actionTimes": [2599, 3304, 3978, 4823, 5659], "queries": {"click": {"state": {"target": [], "time": []}, "edge": {"target": [], "time": []}}, "mouseover": {"state": {"target": [], "time": []}, "edge": {"target": [], "time": []}}, "mouseout": {"state": {"target": ["0"], "time": [1301]}, "edge": {"target": [], "time": []}}}, "displayed_time": "15.41", "trialTime": 16877, "trial_type": "mouselab-mdp", "trial_index": 42, "time_elapsed": 1158591, "internal_node_id": "0.0-6.0-1.0-33.0"}}, {"uniqueid": "w95222703:a10091289", "current_trial": 43, "dateTime": 1693482426962, "trialdata": {"revealed_states": [], "clicked_states": [], "num_clicks_accrued": [0, 0, 0, 0, 0, 0, 0, 0, 0, 0, 0, 0, 0], "stateRewards": ["", 1, -1, -7, -7, -22, 15, -13, 13, 26, -32, 38, -1, 1, -7, -4, 16, -62, 86, 12, -54, 56, 64, -2, -1, 6, 14, -57, 37, 62, -6, -25, 50, -70], "withholdReward": false, "trial_id": "mdp_trial_35", "block": "test", "trialIndex": 36, "score": 54, "costs": 0, "simulationMode": [null, null, null, null, null], "rewards": [-2, -1, 6, 14, 37], "path": ["0", "0", "23", "24", "25", "26", "28"], "rt": [791, 328, 254, 483, 298], "actions": ["left", "left", "left", "up", "right"], "actionTimes": [2120, 2962, 3704, 4703, 5515], "queries": {"click": {"state": {"target": [], "time": []}, "edge": {"target": [], "time": []}}, "mouseover": {"state": {"target": [], "time": []}, "edge": {"target": [], "time": []}}, "mouseout": {"state": {"target": ["0"], "time": [1183]}, "edge": {"target": [], "time": []}}}, "displayed_time": "15.33", "trialTime": 16616, "trial_type": "mouselab-mdp", "trial_index": 43, "time_elapsed": 1175431, "internal_node_id": "0.0-6.0-1.0-34.0"}}, {"uniqueid": "w95222703:a10091289", "current_trial": 44, "dateTime": 1693482443700, "trialdata": {"revealed_states": [], "clicked_states": [], "num_clicks_accrued": [0, 0, 0, 0, 0, 0, 0, 0, 0, 0, 0, 0, 0], "stateRewards": ["", -1, 1, 8, -8, -49, 62, -78, 16, 28, -81, 78, -2, -3, -1, -4, 67, 49, -2, -13, -16, -39, 83, 1, -4, 4, -5, -20, 7, 84, 7, -32, -59, 19], "withholdReward": false, "trial_id": "mdp_trial_36", "block": "test", "trialIndex": 37, "score": 64, "costs": 0, "simulationMode": [null, null, null, null, null], "rewards": [-2, -3, -1, -13, 83], "path": ["0", "0", "12", "13", "14", "19", "22"], "rt": [1238, 89, 157, 516, 183], "actions": ["right", "right", "right", "down", "left"], "actionTimes": [2452, 3061, 3712, 4721, 5420], "queries": {"click": {"state": {"target": [], "time": []}, "edge": {"target": [], "time": []}}, "mouseover": {"state": {"target": [], "time": []}, "edge": {"target": [], "time": []}}, "mouseout": {"state": {"target": ["0"], "time": [1071]}, "edge": {"target": [], "time": []}}}, "displayed_time": "15.22", "trialTime": 16510, "trial_type": "mouselab-mdp", "trial_index": 44, "time_elapsed": 1192169, "internal_node_id": "0.0-6.0-1.0-35.0"}}, {"uniqueid": "w95222703:a10091289", "current_trial": 45, "dateTime": 1693482461872, "trialdata": {"revealed_states": [], "clicked_states": [], "num_clicks_accrued": [0, 0, 0, 0, 0, 0, 0, 0, 0, 0, 0, 0, 0], "stateRewards": ["", 2, -1, -2, -5, -47, -57, -33, -11, 31, -18, -72, -2, 1, -4, -8, -46, -53, -50, 15, -85, -9, 39, -2, -2, 1, 14, -1, -8, 53, -12, -41, -74, 62], "withholdReward": false, "trial_id": "mdp_trial_37", "block": "test", "trialIndex": 38, "score": -56, "costs": 0, "simulationMode": [null, null, null, null, null], "rewards": [-2, -2, 1, -12, -41], "path": ["0", "0", "23", "24", "25", "30", "31"], "rt": [930, 269, 198, 355, 314], "actions": ["left", "left", "left", "down", "right"], "actionTimes": [3255, 4030, 4727, 5600, 6408], "queries": {"click": {"state": {"target": [], "time": []}, "edge": {"target": [], "time": []}}, "mouseover": {"state": {"target": [], "time": []}, "edge": {"target": [], "time": []}}, "mouseout": {"state": {"target": ["0"], "time": [2176]}, "edge": {"target": [], "time": []}}}, "displayed_time": "16.33", "trialTime": 17939, "trial_type": "mouselab-mdp", "trial_index": 45, "time_elapsed": 1210341, "internal_node_id": "0.0-6.0-1.0-36.0"}}, {"uniqueid": "w95222703:a10091289", "current_trial": 46, "dateTime": 1693482480221, "trialdata": {"revealed_states": [], "clicked_states": [], "num_clicks_accrued": [0, 0, 0, 0, 0, 0, 0, 0, 0, 0, 0, 0, 0], "stateRewards": ["", -1, -3, -5, -14, -13, -47, 79, 8, -60, -64, 41, -1, 2, 3, 13, -46, 61, -79, -11, -64, -65, 23, 1, -2, 6, -14, 46, 32, 21, 7, 75, -66, 15], "withholdReward": false, "trial_id": "mdp_trial_38", "block": "test", "trialIndex": 39, "score": 12, "costs": 0, "simulationMode": [null, null, null, null, null], "rewards": [1, -2, 6, -14, 21], "path": ["0", "0", "23", "24", "25", "26", "29"], "rt": [1150, 154, 181, 323, 274], "actions": ["left", "left", "left", "up", "left"], "actionTimes": [2654, 3327, 4020, 4846, 5630], "queries": {"click": {"state": {"target": [], "time": []}, "edge": {"target": [], "time": []}}, "mouseover": {"state": {"target": [], "time": []}, "edge": {"target": [], "time": []}}, "mouseout": {"state": {"target": ["0"], "time": [1357]}, "edge": {"target": [], "time": []}}}, "displayed_time": "15.51", "trialTime": 18116, "trial_type": "mouselab-mdp", "trial_index": 46, "time_elapsed": 1228690, "internal_node_id": "0.0-6.0-1.0-37.0"}}, {"uniqueid": "w95222703:a10091289", "current_trial": 47, "dateTime": 1693482497400, "trialdata": {"revealed_states": [], "clicked_states": [], "num_clicks_accrued": [0, 0, 0, 0, 0, 0, 0, 0, 0, 0, 0, 0, 0], "stateRewards": ["", -2, 1, -7, 9, 8, 25, 61, -7, -17, 69, -81, 1, 4, -4, -11, 16, 67, 44, 3, 6, -45, -54, -2, 3, 6, -11, -15, 32, -47, 3, -39, -6, -88], "withholdReward": false, "trial_id": "mdp_trial_39", "block": "test", "trialIndex": 40, "score": 6, "costs": 0, "simulationMode": [null, null, null, null, null], "rewards": [1, 4, -4, -11, 16], "path": ["0", "0", "12", "13", "14", "15", "16"], "rt": [1044, 222, 118, 507, 882], "actions": ["right", "right", "right", "up", "up"], "actionTimes": [2576, 3306, 3920, 4925, 6316], "queries": {"click": {"state": {"target": [], "time": []}, "edge": {"target": [], "time": []}}, "mouseover": {"state": {"target": [], "time": []}, "edge": {"target": [], "time": []}}, "mouseout": {"state": {"target": ["0"], "time": [1358]}, "edge": {"target": [], "time": []}}}, "displayed_time": "15.53", "trialTime": 16941, "trial_type": "mouselab-mdp", "trial_index": 47, "time_elapsed": 1245869, "internal_node_id": "0.0-6.0-1.0-38.0"}}, {"uniqueid": "w95222703:a10091289", "current_trial": 48, "dateTime": 1693482525012, "trialdata": {"revealed_states": [], "clicked_states": [], "num_clicks_accrued": [0, 0, 0, 0, 0, 0, 0, 0, 0, 0, 0, 0, 0], "stateRewards": ["", -1, -3, -6, -2, -7, 80, -45, -3, -38, -72, 76, 2, 1, 7, 4, -62, 14, -74, 14, -87, -21, -88, -2, 1, -7, -10, 66, 56, -76, 10, -29, -72, -70], "withholdReward": false, "trial_id": "mdp_trial_40", "block": "test", "trialIndex": 41, "score": 3, "costs": 0, "simulationMode": [null, null, null, null, null], "rewards": [2, 1, 7, 14, -21], "path": ["0", "0", "12", "13", "14", "19", "21"], "rt": [893, 248, 122, 361, 193], "actions": ["right", "right", "right", "down", "down"], "actionTimes": [8591, 9351, 9991, 10864, 11563], "queries": {"click": {"state": {"target": [], "time": []}, "edge": {"target": [], "time": []}}, "mouseover": {"state": {"target": [], "time": []}, "edge": {"target": [], "time": []}}, "mouseout": {"state": {"target": ["0"], "time": [2200]}, "edge": {"target": [], "time": []}}}, "displayed_time": "21.70", "trialTime": 27359, "trial_type": "mouselab-mdp", "trial_index": 48, "time_elapsed": 1273482, "internal_node_id": "0.0-6.0-1.0-39.0"}}, {"uniqueid": "w95222703:a10091289", "current_trial": 49, "dateTime": 1693482594067, "trialdata": {"rt": 69050, "response": {"Q0": "$-2 to $2", "Q1": "$-16 to $16", "Q2": "$-88 to $88", "Q3": "The cost for clicking on nodes varied between nodes.", "Q4": "Very motivated"}, "question_order": [0, 1, 2, 3, 4], "trial_id": "final_quiz_control", "trial_type": "survey-multi-choice", "trial_index": 49, "time_elapsed": 1342536, "internal_node_id": "0.0-6.0-2.0"}}, {"uniqueid": "w95222703:a10091289", "current_trial": 50, "dateTime": 1693482822479, "trialdata": {"rt": 228393, "response": {"Q0": "My strategy was basically if I got a loss on the left side then I would make sure to go to the right side on the next round which I would get a profit in and then I tried to Just keep going like that round by round", "Q1": "I did not improve my strategy, I sort of continued with the same strategy.", "Q2": "It was not difficult to improve performance. I realised that if I sticked to my strategy, I would not be in a complete loss."}, "trial_id": "self_report_control", "trial_type": "survey-text", "trial_index": 50, "time_elapsed": 1570949, "internal_node_id": "0.0-6.0-3.0"}}, {"uniqueid": "w95222703:a10091289", "current_trial": 51, "dateTime": 1693482900062, "trialdata": {"rt": 77577, "response": {"Q0": "Agree", "Q1": "Agree", "Q2": "Agree", "Q3": "Strongly agree", "Q4": "Neither disagree nor agree", "Q5": "Strongly agree", "Q6": "Strongly disagree"}, "question_order": [0, 1, 2, 3, 4, 5, 6], "trial_id": "self_report_2", "trial_type": "survey-multi-choice", "trial_index": 51, "time_elapsed": 1648532, "internal_node_id": "0.0-6.0-4.0"}}, {"uniqueid": "w95222703:a10091289", "current_trial": 52, "dateTime": 1693482942766, "trialdata": {"rt": 42690, "response": {"gender": "female", "age": "21", "colorblind": "0", "effort": "0"}, "trial_type": "survey-html-form", "trial_index": 52, "time_elapsed": 1691236, "internal_node_id": "0.0-6.0-5.0"}}, {"uniqueid": "w95222703:a10091289", "current_trial": 53, "dateTime": 1693482995557, "trialdata": {"rt": 52784, "response": {"Q0": "No nothing was confusing. Understood the game very well.", "Q1": "No I have never played this before", "Q2": ""}, "trial_type": "survey-text", "trial_index": 53, "time_elapsed": 1744026, "internal_node_id": "0.0-6.0-6.0"}}, {"uniqueid": "w95222703:a10091289", "current_trial": 54, "dateTime": 1693483042207, "trialdata": {"rt": 46644, "stimulus": "<h1>Completion Code Instructions (1/2)</h1>\n<br><br><br><br>\nYou have reached the end of the experiment! The completion code consists of two parts: (1) a code with 2 characters (2) a code with 6 characters. On this page, you will receive the second part of the code. The first part of the completion code will be on the next page.\n<br><br>\nThe second part of your completion code is: <b>EWEK22</b>\n<br><br>\nPlease note this down. Then, press 'Finish HIT' in order to find the first part of your completion code. Once the data has been saved, you will receive this code either in this window or in the original browser window where you started the experiment.\n", "response": 0, "trial_type": "html-button-response", "trial_index": 54, "time_elapsed": 1790677, "internal_node_id": "0.0-6.0-7.0"}}, {"uniqueid": "w95222703:a10091289", "current_trial": 55, "dateTime": 1693483043222, "trialdata": {"success": true, "trial_type": "fullscreen", "trial_index": 55, "time_elapsed": 1791692, "internal_node_id": "0.0-7.0"}}], "questiondata": {"params": {"CODE": "C6DMOQA6", "MIN_TIME": 14, "inspectCost": 1, "startTime": "Thu Aug 31 2023 13:27:29 GMT+0200 (South Africa Standard Time)", "bonusRate": 0.002, "variance": "1_2_4_8_44", "branching": "31123"}, "final_score": 211.3}, "eventdata": [{"eventtype": "initialized", "value": null, "timestamp": 1693481248419, "interval": 0}, {"eventtype": "window_resize", "value": [1024, 694], "timestamp": 1693481248419, "interval": 0}, {"eventtype": "window_resize", "value": [1024, 694], "timestamp": 1693481248975, "interval": 556}, {"eventtype": "window_resize", "value": [1366, 768], "timestamp": 1693481258852, "interval": 9877}, {"eventtype": "window_resize", "value": [1024, 694], "timestamp": 1693483042443, "interval": 1783591}], "useragent": "Mozilla/5.0 (Windows NT 10.0; Win64; x64) AppleWebKit/537.36 (KHTML, like Gecko) Chrome/116.0.0.0 Safari/537.36", "mode": "live", "id": "w95222703:a10091289", "status": "user data saved", "Beginhit": "2023-08-31 11:27:23.81473", "Beginexp": "2023-08-31 11:27:39.345988", "Endhit": "2023-08-31 11:57:24.586238", "psiturkStatus": 3, "browser": "<redacted>", "platform": "windows", "language": "en-US"}