{"condition": 1, "counterbalance": 0, "assignmentId": "a94354787", "workerId": "w31042533", "hitId": "h73920418", "currenttrial": 8, "bonus": 0, "data": [{"uniqueid": "w31042533:a94354787", "current_trial": 0, "dateTime": 1693481024672, "trialdata": {"success": true, "trial_type": "fullscreen", "trial_index": 0, "time_elapsed": 6011, "internal_node_id": "0.0-0.0"}}, {"uniqueid": "w31042533:a94354787", "current_trial": 1, "dateTime": 1693481034846, "trialdata": {"view_history": [{"page_index": 0, "viewing_time": 10169}], "rt": 10169, "trial_id": "exp_instructions_misaligned", "trial_type": "instructions", "trial_index": 1, "time_elapsed": 16184, "internal_node_id": "0.0-1.0"}}, {"uniqueid": "w31042533:a94354787", "current_trial": 2, "dateTime": 1693481091658, "trialdata": {"view_history": [{"page_index": 0, "viewing_time": 32329}, {"page_index": 1, "viewing_time": 10175}, {"page_index": 2, "viewing_time": 4021}, {"page_index": 3, "viewing_time": 10284}], "rt": 56810, "trial_id": "mouselab_instructions_1_misaligned", "trial_type": "instructions", "trial_index": 2, "time_elapsed": 72997, "internal_node_id": "0.0-2.0-1.0"}}, {"uniqueid": "w31042533:a94354787", "current_trial": 3, "dateTime": 1693481193469, "trialdata": {"revealed_states": [], "clicked_states": ["24", "12", "1", "3", "30", "23", "13", "15", "16", "27", "11", "32", "22", "19", "21", "20", "14", "17", "7", "10", "28", "29", "26", "25", "33", "31", "2", "8", "5", "9", "4", "6", "18"], "num_clicks_accrued": [0, 0, 0, 0, 0, 0, 0, 0, 0, 0, 0, 0, 0], "stateRewards": ["", -10, 10, -10, 10, 10, 10, 10, -10, 10, -10, -10, -10, 10, -10, 10, -10, 10, 10, 10, 10, -10, -10, 10, 10, -10, -10, 10, 10, -10, 10, 10, 10, -10], "withholdReward": false, "trial_id": "practice_1", "block": "test", "trialIndex": 0, "score": -23, "costs": -16.5, "simulationMode": [null, null, null, null, null], "rewards": [-10, 10, -10, 10, -10], "path": ["0", "0", "12", "13", "14", "15", "16"], "rt": [87534, 893, 2489, 1740, 343], "actions": ["right", "right", "right", "up", "up"], "actionTimes": [90467, 91880, 94877, 97127, 97979], "queries": {"click": {"state": {"target": ["24", "12", "1", "3", "30", "23", "13", "15", "16", "27", "11", "32", "22", "19", "21", "20", "14", "17", "7", "10", "28", "29", "26", "25", "33", "31", "2", "8", "5", "9", "4", "6", "18"], "time": [6524, 8596, 10554, 12641, 15439, 16827, 23970, 25246, 26613, 28114, 30008, 32240, 35309, 38300, 40446, 42610, 44416, 46564, 47778, 48851, 49880, 51112, 53474, 54550, 55669, 56932, 58146, 59297, 60358, 62215, 65387, 66554, 75000]}, "edge": {"target": [], "time": []}}, "mouseover": {"state": {"target": ["1", "28", "24", "23", "12", "18", "18", "1", "2", "3", "10", "28", "30", "30", "24", "23", "0", "1", "12", "13", "15", "16", "7", "2", "10", "27", "11", "32", "22", "22", "19", "21", "20", "19", "14", "17", "17", "7", "2", "10", "28", "26", "29", "26", "25", "26", "25", "33", "31", "31", "10", "2", "8", "5", "9", "9", "2", "1", "1", "7", "4", "6", "5", "5", "7", "16", "15", "18", "17", "17", "14", "1", "1", "0", "12", "22"], "time": [5348, 5766, 6182, 7601, 7981, 9582, 9814, 10181, 11330, 12348, 13862, 14229, 14296, 15046, 16262, 16496, 18094, 19127, 21727, 23626, 24725, 26276, 27175, 27209, 27242, 27608, 29524, 31706, 34106, 34922, 37938, 40088, 42186, 43670, 44036, 45422, 46235, 47252, 48334, 48451, 49517, 50450, 50817, 51683, 52600, 53000, 54166, 55282, 56349, 56714, 57665, 57765, 58914, 59998, 60813, 61880, 62863, 62929, 64262, 64346, 64846, 66279, 67262, 67512, 67761, 68678, 68760, 74692, 76508, 82182, 82207, 82706, 83522, 83838, 85271, 87122]}, "edge": {"target": [], "time": []}}, "mouseout": {"state": {"target": ["0", "1", "28", "24", "23", "12", "18", "18", "1", "2", "3", "10", "28", "30", "30", "24", "23", "0", "1", "12", "13", "15", "16", "7", "2", "10", "27", "11", "32", "22", "22", "19", "21", "20", "19", "14", "17", "17", "7", "2", "10", "28", "26", "29", "26", "25", "26", "25", "33", "31", "31", "10", "2", "8", "5", "9", "9", "2", "1", "1", "7", "4", "6", "5", "5", "4", "7", "16", "15", "18", "17", "17", "14", "1", "1", "0", "12", "22"], "time": [4916, 5448, 6081, 7600, 7614, 8817, 9632, 9847, 11164, 12063, 13647, 14179, 14245, 14680, 16179, 16412, 17929, 18992, 21426, 22676, 24576, 26109, 27159, 27208, 27225, 27259, 29425, 31276, 32460, 34239, 37355, 39920, 41919, 43636, 43702, 45302, 45468, 47085, 48318, 48351, 49073, 50103, 50485, 51583, 52483, 52883, 54016, 55149, 56132, 56465, 57315, 57682, 58363, 59747, 60714, 61579, 62763, 62896, 62946, 64278, 64379, 65598, 66770, 67312, 67595, 67728, 67794, 68710, 68794, 75992, 76524, 82191, 82223, 83022, 83656, 85238, 85321, 87156]}, "edge": {"target": [], "time": []}}}, "displayed_time": "98.49", "trialTime": 101147, "trial_type": "mouselab-mdp", "trial_index": 3, "time_elapsed": 174807, "internal_node_id": "0.0-2.0-2.0-0.0"}}, {"uniqueid": "w31042533:a94354787", "current_trial": 4, "dateTime": 1693481208241, "trialdata": {"revealed_states": [], "clicked_states": [], "num_clicks_accrued": [0, 0, 0, 0, 0, 0, 0, 0, 0, 0, 0, 0, 0], "stateRewards": ["", -10, -10, 10, -10, -10, -10, 10, -10, 10, 10, -10, 10, 10, 10, 10, -10, 10, -10, -10, -10, 10, 10, -10, -10, -10, 10, -10, -10, 10, 10, 10, -10, 10], "withholdReward": false, "trial_id": "practice_2", "block": "test", "trialIndex": 1, "score": -26.5, "costs": 0, "simulationMode": [null, null, null, null, null], "rewards": [-10, -10, 10, -10, -10], "path": ["0", "0", "1", "2", "3", "8", "11"], "rt": [3644, 795, 360, 105, 490], "actions": ["up", "up", "up", "left", "left"], "actionTimes": [5921, 7229, 8093, 8705, 9706], "queries": {"click": {"state": {"target": [], "time": []}, "edge": {"target": [], "time": []}}, "mouseover": {"state": {"target": [], "time": []}, "edge": {"target": [], "time": []}}, "mouseout": {"state": {"target": [], "time": []}, "edge": {"target": [], "time": []}}}, "displayed_time": "10.22", "trialTime": 14638, "trial_type": "mouselab-mdp", "trial_index": 4, "time_elapsed": 189579, "internal_node_id": "0.0-2.0-2.0-1.0"}}, {"uniqueid": "w31042533:a94354787", "current_trial": 5, "dateTime": 1693481222196, "trialdata": {"view_history": [{"page_index": 0, "viewing_time": 10145}, {"page_index": 1, "viewing_time": 3807}], "rt": 13953, "trial_id": "mouselab_instructions_2_misaligned", "trial_type": "instructions", "trial_index": 5, "time_elapsed": 203535, "internal_node_id": "0.0-2.0-3.0"}}, {"uniqueid": "w31042533:a94354787", "current_trial": 6, "dateTime": 1693481250708, "trialdata": {"rt": 28505, "response": {"Q0": "The cost for clicking on nodes may vary between nodes.", "Q1": "I will receive a $1 bonus if I perform well, otherwise I will receive no bonus.", "Q2": "No, the structure of the web will be different each time.", "Q3": "To get the highest total score.", "Q4": "Only before moving the spider.", "Q5": "10 seconds"}, "question_order": [0, 1, 2, 3, 4, 5], "correct": {"Q0": "The cost for clicking on nodes may vary between nodes.", "Q1": "The better I perform the higher my bonus will be.", "Q2": "No, the amount of cash at each node of the web may be different each time.", "Q3": "To get the highest total score.", "Q4": "Only before moving the spider.", "Q5": "3 seconds"}, "trial_id": "mouselab_quiz_misaligned", "trial_type": "survey-multi-choice", "trial_index": 6, "time_elapsed": 232047, "internal_node_id": "0.0-2.0-4.0"}}, {"uniqueid": "w31042533:a94354787", "current_trial": 7, "dateTime": 1693481256357, "trialdata": {"success": true, "trial_type": "fullscreen", "trial_index": 7, "time_elapsed": 237696, "internal_node_id": "0.0-2.1-0.1-0.1"}}], "questiondata": {"params": {"CODE": "C6DMOQA6", "MIN_TIME": 14, "inspectCost": 1, "startTime": "Thu Aug 31 2023 13:23:36 GMT+0200 (South Africa Standard Time)", "bonusRate": 0.002, "variance": "1_2_4_8_44", "branching": "31123"}}, "eventdata": [{"eventtype": "initialized", "value": null, "timestamp": 1693481015940, "interval": 0}, {"eventtype": "window_resize", "value": [1028, 744], "timestamp": 1693481015940, "interval": 0}, {"eventtype": "window_resize", "value": [1028, 744], "timestamp": 1693481016477, "interval": 537}, {"eventtype": "window_resize", "value": [1536, 758], "timestamp": 1693481022286, "interval": 5809}, {"eventtype": "window_resize", "value": [1536, 864], "timestamp": 1693481023892, "interval": 1606}, {"eventtype": "focus", "value": "off", "timestamp": 1693481253468, "interval": 229576}, {"eventtype": "focus", "value": "on", "timestamp": 1693481253468, "interval": 0}, {"eventtype": "window_resize", "value": [1536, 758], "timestamp": 1693481253673, "interval": 205}, {"eventtype": "window_resize", "value": [1536, 864], "timestamp": 1693481255582, "interval": 1909}, {"eventtype": "window_resize", "value": [1536, 758], "timestamp": 1693481261201, "interval": 5619}], "useragent": "Mozilla/5.0 (Windows NT 10.0; Win64; x64) AppleWebKit/537.36 (KHTML, like Gecko) Chrome/116.0.0.0 Safari/537.36", "mode": "live", "id": "w31042533:a94354787", "status": "user data saved", "Beginhit": "2023-08-31 11:23:32.701516", "Beginexp": "2023-08-31 11:23:44.514278", "Endhit": null, "psiturkStatus": 6, "browser": "<redacted>", "platform": "windows", "language": "en-US", "excludeReason": "quizfail"}