{"condition": 1, "counterbalance": 0, "assignmentId": "a75836837", "workerId": "w54387959", "hitId": "h53522876", "currenttrial": 56, "bonus": 0, "data": [{"uniqueid": "w54387959:a75836837", "current_trial": 0, "dateTime": 1693580689277, "trialdata": {"success": true, "trial_type": "fullscreen", "trial_index": 0, "time_elapsed": 3307, "internal_node_id": "0.0-0.0"}}, {"uniqueid": "w54387959:a75836837", "current_trial": 1, "dateTime": 1693580699690, "trialdata": {"view_history": [{"page_index": 0, "viewing_time": 10409}], "rt": 10409, "trial_id": "exp_instructions_misaligned", "trial_type": "instructions", "trial_index": 1, "time_elapsed": 13719, "internal_node_id": "0.0-1.0"}}, {"uniqueid": "w54387959:a75836837", "current_trial": 2, "dateTime": 1693580844903, "trialdata": {"view_history": [{"page_index": 0, "viewing_time": 34472}, {"page_index": 1, "viewing_time": 49978}, {"page_index": 2, "viewing_time": 41260}, {"page_index": 3, "viewing_time": 19505}], "rt": 145215, "trial_id": "mouselab_instructions_1_misaligned", "trial_type": "instructions", "trial_index": 2, "time_elapsed": 158933, "internal_node_id": "0.0-2.0-1.0"}}, {"uniqueid": "w54387959:a75836837", "current_trial": 3, "dateTime": 1693580904458, "trialdata": {"revealed_states": [], "clicked_states": ["1", "12", "23", "24", "25", "3", "14", "13", "19", "22", "30", "31", "33", "27", "29", "2", "26", "28", "32", "18", "15"], "num_clicks_accrued": [0, 0, 0, 0, 0, 0, 0, 0, 0, 0, 0, 0, 0], "stateRewards": ["", -10, 10, -10, 10, -10, -10, -10, 10, 10, 10, -10, -10, -10, 10, 10, 10, 10, -10, -10, 10, 10, 10, -10, 10, -10, 10, 10, 10, 10, 10, -10, 10, 10], "withholdReward": false, "trial_id": "practice_1", "block": "test", "trialIndex": 0, "score": -17, "costs": -10.5, "simulationMode": [null, null, null, null, null], "rewards": [-10, 10, -10, 10, -10], "path": ["0", "0", "1", "2", "3", "4", "5"], "rt": [47273, 1158, 317, 571, 14], "actions": ["up", "up", "up", "right", "up"], "actionTimes": [50531, 52185, 52993, 54065, 54576], "queries": {"click": {"state": {"target": ["1", "12", "23", "24", "25", "3", "14", "13", "19", "22", "30", "31", "33", "27", "29", "2", "26", "28", "32", "18", "15"], "time": [6423, 9093, 11660, 12877, 14077, 15477, 16644, 18461, 19661, 21412, 22677, 24478, 25629, 29612, 30813, 32963, 38213, 40062, 41948, 44097, 45415]}, "edge": {"target": [], "time": []}}, "mouseover": {"state": {"target": ["1", "12", "2", "12", "23", "24", "23", "24", "25", "26", "28", "10", "2", "3", "7", "14", "13", "19", "22", "22", "22", "31", "30", "30", "31", "31", "33", "32", "30", "25", "24", "26", "27", "29", "8", "2", "1", "2", "3", "10", "13", "13", "12", "12", "18", "18", "1", "26", "28", "28", "24", "31", "30", "32", "0", "18", "13", "13", "18", "15", "17"], "time": [6002, 7503, 8474, 8853, 9569, 10618, 11482, 12070, 13655, 14737, 14784, 14853, 15169, 15320, 15935, 16457, 17005, 18920, 20152, 20820, 21039, 21924, 21968, 22487, 23006, 23352, 25007, 26070, 27790, 27840, 28455, 29059, 29489, 30238, 31790, 32356, 32522, 32791, 33759, 34191, 35189, 35589, 36423, 36640, 36705, 36839, 37189, 37675, 38507, 40041, 40488, 40908, 41372, 41609, 42839, 43322, 43673, 43774, 43890, 45225, 46542]}, "edge": {"target": [], "time": []}}, "mouseout": {"state": {"target": ["0", "1", "1", "12", "2", "12", "23", "24", "23", "24", "25", "26", "28", "10", "2", "3", "7", "14", "13", "19", "22", "22", "22", "31", "30", "30", "31", "31", "30", "33", "32", "30", "25", "24", "26", "27", "29", "8", "2", "1", "2", "3", "10", "2", "13", "13", "12", "12", "18", "18", "1", "26", "28", "28", "24", "31", "30", "32", "0", "18", "13", "13", "18", "15", "17"], "time": [4533, 6591, 7302, 8252, 8540, 9419, 10520, 11238, 12003, 13438, 14634, 14750, 14804, 14973, 15202, 15887, 15952, 16970, 18785, 20055, 20487, 20870, 21857, 21955, 22286, 22972, 23102, 24787, 24858, 25972, 27787, 27804, 27888, 28921, 29373, 29956, 31239, 31957, 32405, 32656, 33538, 34054, 34408, 34556, 35356, 36392, 36543, 36656, 36722, 36857, 37206, 38473, 39840, 40425, 40524, 41326, 41476, 42374, 42856, 43357, 43707, 43807, 45041, 46024, 46577]}, "edge": {"target": [], "time": []}}}, "displayed_time": "55.09", "trialTime": 59121, "trial_type": "mouselab-mdp", "trial_index": 3, "time_elapsed": 218487, "internal_node_id": "0.0-2.0-2.0-0.0"}}, {"uniqueid": "w54387959:a75836837", "current_trial": 4, "dateTime": 1693580931257, "trialdata": {"revealed_states": [], "clicked_states": ["1", "2", "23", "24", "12", "13", "14", "15", "17"], "num_clicks_accrued": [0, 0, 0, 0, 0, 0, 0, 0, 0, 0, 0, 0, 0], "stateRewards": ["", 10, -10, -10, 10, -10, 10, 10, 10, -10, -10, 10, -10, 10, 10, 10, -10, 10, -10, 10, 10, -10, 10, -10, -10, -10, 10, 10, 10, -10, 10, 10, 10, 10], "withholdReward": false, "trial_id": "practice_2", "block": "test", "trialIndex": 1, "score": 29, "costs": -4.5, "simulationMode": [null, null, null, null, null], "rewards": [-10, 10, 10, 10, 10], "path": ["0", "0", "12", "13", "14", "15", "17"], "rt": [19832, 163, 95, 2, 49], "actions": ["right", "right", "right", "up", "right"], "actionTimes": [22176, 22840, 23439, 23947, 24510], "queries": {"click": {"state": {"target": ["1", "2", "23", "24", "12", "13", "14", "15", "17"], "time": [3663, 4830, 7380, 8764, 10614, 11897, 14715, 16465, 19032]}, "edge": {"target": [], "time": []}}, "mouseover": {"state": {"target": ["1", "2", "3", "10", "23", "23", "24", "0", "12", "13", "14", "14", "15", "14", "15", "19", "17", "16", "18"], "time": [3440, 4337, 6005, 6688, 6771, 7171, 7874, 10089, 10424, 11189, 12839, 13726, 13908, 14439, 16206, 17508, 18809, 20174, 20641]}, "edge": {"target": [], "time": []}}, "mouseout": {"state": {"target": ["0", "1", "2", "3", "10", "23", "23", "24", "23", "0", "12", "13", "14", "14", "15", "14", "15", "14", "19", "14", "17", "16", "18"], "time": [3174, 4190, 5593, 6639, 6705, 6791, 7824, 9990, 10073, 10172, 11123, 12725, 13342, 13823, 14407, 16042, 17290, 17406, 18392, 18440, 19925, 20556, 20691]}, "edge": {"target": [], "time": []}}}, "displayed_time": "25.01", "trialTime": 26631, "trial_type": "mouselab-mdp", "trial_index": 4, "time_elapsed": 245286, "internal_node_id": "0.0-2.0-2.0-1.0"}}, {"uniqueid": "w54387959:a75836837", "current_trial": 5, "dateTime": 1693580951072, "trialdata": {"view_history": [{"page_index": 0, "viewing_time": 15046}, {"page_index": 1, "viewing_time": 4767}], "rt": 19814, "trial_id": "mouselab_instructions_2_misaligned", "trial_type": "instructions", "trial_index": 5, "time_elapsed": 265102, "internal_node_id": "0.0-2.0-3.0"}}, {"uniqueid": "w54387959:a75836837", "current_trial": 6, "dateTime": 1693580975829, "trialdata": {"rt": 24753, "response": {"Q0": "The cost for clicking on nodes may vary between nodes.", "Q1": "The better I perform the higher my bonus will be.", "Q2": "No, the amount of cash at each node of the web may be different each time.", "Q3": "To get the highest total score.", "Q4": "Only before moving the spider.", "Q5": "3 seconds"}, "question_order": [0, 1, 2, 3, 4, 5], "correct": {"Q0": "The cost for clicking on nodes may vary between nodes.", "Q1": "The better I perform the higher my bonus will be.", "Q2": "No, the amount of cash at each node of the web may be different each time.", "Q3": "To get the highest total score.", "Q4": "Only before moving the spider.", "Q5": "3 seconds"}, "trial_id": "mouselab_quiz_misaligned", "trial_type": "survey-multi-choice", "trial_index": 6, "time_elapsed": 289859, "internal_node_id": "0.0-2.0-4.0"}}, {"uniqueid": "w54387959:a75836837", "current_trial": 7, "dateTime": 1693580980229, "trialdata": {"rt": 4393, "response": {"Q0": "No"}, "question_order": [0], "trial_id": "repeat_check", "trial_type": "survey-multi-choice", "trial_index": 7, "time_elapsed": 294258, "internal_node_id": "0.0-4.0-0.0"}}, {"uniqueid": "w54387959:a75836837", "current_trial": 8, "dateTime": 1693580992336, "trialdata": {"rt": 12102, "stimulus": "\n<h1> Get ready to start the game! </h1>\n\nThank you for reading the instructions. Get ready start with the 40 rounds of this game.\n<br><br>\nIf you need to take a break, feel free to take one after the end of a round, before continuing to the next one.\n<br><br>\nRemember, the more money the spider gets, the bigger your bonus will be!\n<br><br>\n<div style='text-align: center;'>Press <code>space</code> to begin.</div>\n\n<br><br>\n(If, at any point, the <code>space</code> key does not take you to the next page, click once on the text and try again.)", "response": " ", "trial_id": "mdp_ready", "trial_type": "html-keyboard-response", "trial_index": 8, "time_elapsed": 306366, "internal_node_id": "0.0-6.0-0.0"}}, {"uniqueid": "w54387959:a75836837", "current_trial": 9, "dateTime": 1693581030119, "trialdata": {"revealed_states": [], "clicked_states": ["1", "2", "3", "7", "4", "12", "13", "23", "24", "25", "26", "28", "30", "29"], "num_clicks_accrued": [0, 0, 0, 0, 0, 0, 0, 0, 0, 0, 0, 0, 0], "stateRewards": ["", -1, -1, 4, -16, -75, 81, -51, -7, -84, 73, -30, -2, 1, -3, -16, -77, 33, 14, 1, 45, 87, -66, 2, 2, -5, -7, -19, -17, 79, -3, 8, 49, 47], "withholdReward": false, "trial_id": "mdp_trial_1", "block": "test", "trialIndex": 2, "score": 57.7, "costs": -13.3, "simulationMode": [null, null, null, null, null, null], "rewards": [2, 2, -5, -7, 79], "path": ["0", "0", "23", "24", "25", "26", "29"], "rt": [26252, 1829, 357, 793, 1095, 286], "actions": ["left", "left", "left", "left", "up", "left"], "actionTimes": [28869, 30700, 31557, 32845, 34444, 35236], "queries": {"click": {"state": {"target": ["1", "2", "3", "7", "4", "12", "13", "23", "24", "25", "26", "28", "30", "29"], "time": [3467, 4248, 5517, 7251, 10351, 11667, 12851, 14702, 15584, 17417, 19351, 20686, 24536, 26686]}, "edge": {"target": [], "time": []}}, "mouseover": {"state": {"target": ["1", "2", "3", "12", "7", "4", "4", "1", "12", "13", "14", "14", "0", "23", "24", "23", "24", "25", "25", "26", "28", "25", "30", "31", "33", "25", "29", "26"], "time": [3157, 4024, 5307, 6507, 7077, 7674, 10127, 10910, 11445, 12309, 13680, 13794, 14078, 14095, 14178, 14428, 15128, 16346, 17153, 18693, 20014, 22045, 22077, 25180, 25980, 26196, 26463, 27280]}, "edge": {"target": [], "time": []}}, "mouseout": {"state": {"target": ["0", "0", "1", "2", "2", "3", "2", "12", "7", "4", "4", "1", "12", "13", "14", "14", "13", "0", "23", "24", "23", "24", "25", "25", "25", "26", "28", "26", "25", "30", "31", "30", "33", "25", "29", "26"], "time": [1473, 2243, 3927, 4911, 5113, 6075, 6157, 6761, 7639, 9926, 10728, 10946, 12210, 13414, 13714, 13994, 14046, 14093, 14109, 14362, 15093, 16193, 16542, 18127, 18408, 19982, 21477, 22012, 22060, 25043, 25778, 25847, 26128, 26229, 27245, 27314]}, "edge": {"target": [], "time": []}}}, "displayed_time": "35.73", "trialTime": 37596, "trial_type": "mouselab-mdp", "trial_index": 9, "time_elapsed": 344148, "internal_node_id": "0.0-6.0-1.0-0.0"}}, {"uniqueid": "w54387959:a75836837", "current_trial": 10, "dateTime": 1693581049158, "trialdata": {"revealed_states": [], "clicked_states": ["23", "24", "25", "26", "29"], "num_clicks_accrued": [0, 0, 0, 0, 0, 0, 0, 0, 0, 0, 0, 0, 0], "stateRewards": ["", -2, -2, -7, -13, -10, 49, -68, -1, 84, 70, 88, 1, 4, 4, 12, -57, 25, 30, 8, -1, -77, 57, 2, 3, 2, 3, -18, -80, 23, -15, -41, 70, 11], "withholdReward": false, "trial_id": "mdp_trial_2", "block": "test", "trialIndex": 3, "score": 28.25, "costs": -4.75, "simulationMode": [null, null, null, null, null], "rewards": [2, 3, 2, 3, 23], "path": ["0", "0", "23", "24", "25", "26", "29"], "rt": [9324, 297, 304, 233, 259], "actions": ["left", "left", "left", "up", "left"], "actionTimes": [11170, 11970, 12779, 13507, 14267], "queries": {"click": {"state": {"target": ["23", "24", "25", "26", "29"], "time": [2796, 3697, 4693, 5643, 6547]}, "edge": {"target": [], "time": []}}, "mouseover": {"state": {"target": ["23", "24", "25", "26", "29", "30", "26", "27", "24"], "time": [2573, 3289, 4219, 5406, 6222, 6975, 8855, 8921, 10356]}, "edge": {"target": [], "time": []}}, "mouseout": {"state": {"target": ["0", "23", "24", "25", "26", "29", "30", "26", "27", "24"], "time": [2345, 3170, 4170, 5322, 6189, 6925, 8821, 8873, 10255, 16707]}, "edge": {"target": [], "time": []}}}, "displayed_time": "15.85", "trialTime": 18859, "trial_type": "mouselab-mdp", "trial_index": 10, "time_elapsed": 363188, "internal_node_id": "0.0-6.0-1.0-1.0"}}, {"uniqueid": "w54387959:a75836837", "current_trial": 11, "dateTime": 1693581084550, "trialdata": {"revealed_states": [], "clicked_states": ["12", "13", "14", "1", "2", "23", "24", "25", "30", "33", "31", "32", "26", "29", "27"], "num_clicks_accrued": [0, 0, 0, 0, 0, 0, 0, 0, 0, 0, 0, 0, 0], "stateRewards": ["", -1, 2, -2, 5, 80, -61, -27, 12, 44, -26, -75, -2, -4, 1, -16, 42, -49, -50, 4, -44, 2, 80, -2, -2, 5, -2, 59, 10, 24, 7, -48, -86, -44], "withholdReward": false, "trial_id": "mdp_trial_3", "block": "test", "trialIndex": 4, "score": 41.95, "costs": -16.05, "simulationMode": [null, null, null, null, null, null], "rewards": [-2, -2, 5, -2, 59], "path": ["0", "0", "23", "24", "25", "26", "27"], "rt": [27650, 943, 283, 195, 209, 180], "actions": ["left", "left", "left", "left", "up", "up"], "actionTimes": [29331, 30277, 31076, 31772, 32484, 33155], "queries": {"click": {"state": {"target": ["12", "13", "14", "1", "2", "23", "24", "25", "30", "33", "31", "32", "26", "29", "27"], "time": [2510, 3593, 5027, 6677, 7608, 8877, 9928, 10825, 12863, 13994, 16845, 20246, 23813, 24480, 27447]}, "edge": {"target": [], "time": []}}, "mouseover": {"state": {"target": ["12", "13", "14", "14", "1", "2", "1", "2", "23", "24", "25", "22", "19", "22", "31", "30", "33", "31", "32", "30", "26", "26", "29", "27", "28"], "time": [2235, 3120, 4523, 4870, 6018, 6219, 6505, 7185, 8420, 9436, 10537, 11686, 12039, 12219, 12337, 12621, 13620, 14558, 17286, 20887, 20992, 21389, 24138, 25388, 27938]}, "edge": {"target": [], "time": []}}, "mouseout": {"state": {"target": ["0", "12", "13", "14", "14", "1", "2", "1", "2", "23", "24", "25", "23", "22", "19", "22", "31", "30", "33", "30", "31", "32", "30", "26", "26", "29", "27"], "time": [2068, 3053, 4189, 4669, 5484, 6087, 6454, 7036, 8285, 9369, 10418, 11202, 11252, 11718, 12204, 12236, 12368, 13555, 14371, 14471, 17152, 20853, 20906, 21324, 24090, 25306, 27890]}, "edge": {"target": [], "time": []}}}, "displayed_time": "33.66", "trialTime": 35211, "trial_type": "mouselab-mdp", "trial_index": 11, "time_elapsed": 398579, "internal_node_id": "0.0-6.0-1.0-2.0"}}, {"uniqueid": "w54387959:a75836837", "current_trial": 12, "dateTime": 1693581103453, "trialdata": {"revealed_states": [], "clicked_states": ["1", "2", "3", "23", "24", "25", "26", "27"], "num_clicks_accrued": [0, 0, 0, 0, 0, 0, 0, 0, 0, 0, 0, 0, 0], "stateRewards": ["", 1, -4, -6, 11, -20, 8, -30, 1, -38, 88, 42, 2, 3, 5, -12, -8, -74, 30, -8, 67, -19, 42, 2, -1, 4, 13, 50, -68, 2, -8, -15, 87, -46], "withholdReward": false, "trial_id": "mdp_trial_4", "block": "test", "trialIndex": 5, "score": 62.2, "costs": -5.799999999999999, "simulationMode": [null, null, null, null, null], "rewards": [2, -1, 4, 13, 50], "path": ["0", "0", "23", "24", "25", "26", "27"], "rt": [12026, 94, 128, 77, 70], "actions": ["left", "left", "left", "up", "up"], "actionTimes": [14316, 14915, 15547, 16131, 16707], "queries": {"click": {"state": {"target": ["1", "2", "3", "23", "24", "25", "26", "27"], "time": [3023, 3907, 4939, 6190, 7105, 8126, 9208, 10157]}, "edge": {"target": [], "time": []}}, "mouseover": {"state": {"target": ["1", "2", "3", "10", "24", "23", "24", "25", "26", "27", "28"], "time": [2903, 3569, 4731, 5498, 5565, 5901, 6899, 7717, 8903, 9918, 11016]}, "edge": {"target": [], "time": []}}, "mouseout": {"state": {"target": ["28", "23", "0", "1", "2", "2", "3", "10", "24", "23", "24", "25", "26", "27", "28"], "time": [1281, 1347, 2732, 3516, 4054, 4533, 5482, 5514, 5831, 6767, 7663, 8768, 9801, 10815, 17834]}, "edge": {"target": [], "time": []}}}, "displayed_time": "17.20", "trialTime": 18723, "trial_type": "mouselab-mdp", "trial_index": 12, "time_elapsed": 417483, "internal_node_id": "0.0-6.0-1.0-3.0"}}, {"uniqueid": "w54387959:a75836837", "current_trial": 13, "dateTime": 1693581134277, "trialdata": {"revealed_states": [], "clicked_states": ["23", "24", "25", "12", "13", "14", "19", "15", "21", "20", "22", "1", "2", "3", "8", "4"], "num_clicks_accrued": [0, 0, 0, 0, 0, 0, 0, 0, 0, 0, 0, 0, 0], "stateRewards": ["", -1, 1, -6, -1, 80, 23, 2, -11, 73, -81, 59, 1, 3, 5, -1, -26, 28, -3, 16, -59, -13, -50, -2, -2, 2, 15, -50, 86, 17, -4, 37, 35, 44], "withholdReward": false, "trial_id": "mdp_trial_5", "block": "test", "trialIndex": 6, "score": -40.8, "costs": -15.8, "simulationMode": [null, null, null, null, null], "rewards": [1, 3, 5, 16, -50], "path": ["0", "0", "12", "13", "14", "19", "22"], "rt": [24246, 198, 243, 59, 61], "actions": ["right", "right", "right", "down", "left"], "actionTimes": [26066, 26770, 27513, 28066, 28633], "queries": {"click": {"state": {"target": ["23", "24", "25", "12", "13", "14", "19", "15", "21", "20", "22", "1", "2", "3", "8", "4"], "time": [2456, 3257, 4187, 5356, 6089, 6874, 7854, 9540, 10774, 14041, 17541, 21458, 22259, 23009, 23875, 24574]}, "edge": {"target": [], "time": []}}, "mouseover": {"state": {"target": ["23", "24", "25", "12", "13", "14", "19", "16", "15", "14", "21", "20", "19", "22", "15", "16", "18", "1", "1", "2", "3", "8", "4"], "time": [2215, 3047, 3882, 4866, 5932, 6717, 7584, 9114, 9365, 9983, 10616, 11314, 14549, 14635, 19304, 19368, 19619, 21068, 21367, 21916, 22852, 23654, 24369]}, "edge": {"target": [], "time": []}}, "mouseout": {"state": {"target": ["23", "0", "23", "24", "25", "24", "12", "13", "14", "19", "16", "15", "14", "19", "21", "20", "19", "22", "15", "16", "18", "1", "1", "2", "3", "8", "3"], "time": [514, 2182, 2967, 3797, 4714, 4764, 5832, 6647, 7548, 8684, 9183, 9951, 10019, 10347, 11199, 14515, 14584, 19251, 19315, 19482, 21019, 21082, 21467, 22752, 23615, 24299, 24334]}, "edge": {"target": [], "time": []}}}, "displayed_time": "29.14", "trialTime": 30625, "trial_type": "mouselab-mdp", "trial_index": 13, "time_elapsed": 448306, "internal_node_id": "0.0-6.0-1.0-4.0"}}, {"uniqueid": "w54387959:a75836837", "current_trial": 14, "dateTime": 1693581177700, "trialdata": {"revealed_states": [], "clicked_states": ["1", "2", "23", "24", "12", "13", "14", "15", "19", "16", "17", "18", "3", "4", "7", "6", "5", "8", "9", "10"], "num_clicks_accrued": [0, 0, 0, 0, 0, 0, 0, 0, 0, 0, 0, 0, 0], "stateRewards": ["", -1, -4, -1, -5, -28, -23, -15, -15, -38, 59, -87, 2, 2, -5, 9, -55, -39, -71, -6, 85, -85, -11, -1, -2, 5, -10, 1, 25, 41, -4, 69, -35, 86], "withholdReward": false, "trial_id": "mdp_trial_6", "block": "test", "trialIndex": 7, "score": 12.400000000000006, "costs": -25.599999999999998, "simulationMode": [null, null, null, null, null], "rewards": [-1, -4, -1, -15, 59], "path": ["0", "0", "1", "2", "3", "8", "10"], "rt": [36934, 85, 155, 36, 29], "actions": ["up", "up", "up", "left", "down"], "actionTimes": [38718, 39304, 39955, 40488, 41031], "queries": {"click": {"state": {"target": ["1", "2", "23", "24", "12", "13", "14", "15", "19", "16", "17", "18", "3", "4", "7", "6", "5", "8", "9", "10"], "time": [2385, 3250, 4419, 5233, 6001, 6688, 7551, 8552, 9437, 10418, 13653, 16887, 20220, 20773, 21489, 24269, 27506, 30639, 31320, 34190]}, "edge": {"target": [], "time": []}}, "mouseover": {"state": {"target": ["1", "2", "23", "24", "12", "13", "14", "15", "19", "16", "17", "15", "18", "7", "2", "3", "4", "7", "6", "5", "8", "9", "10", "11"], "time": [2229, 3013, 4180, 4978, 5798, 6462, 7264, 8362, 9182, 10276, 11043, 14110, 14165, 17667, 17981, 18164, 20581, 21315, 22250, 25080, 28463, 31116, 31933, 34719]}, "edge": {"target": [], "time": []}}, "mouseout": {"state": {"target": ["4", "7", "1", "1", "2", "1", "23", "24", "23", "12", "13", "14", "15", "14", "19", "14", "15", "16", "17", "15", "18", "7", "2", "3", "4", "7", "6", "5", "8", "9", "8", "10", "11", "10", "1", "0"], "time": [559, 917, 1059, 2945, 3825, 3862, 4915, 5626, 5677, 6430, 7213, 8296, 9043, 9143, 9881, 9949, 10097, 10915, 14077, 14144, 17532, 17896, 18032, 20546, 21262, 21848, 24715, 27967, 30997, 31766, 31849, 34602, 37966, 41952, 42016, 42433]}, "edge": {"target": [], "time": []}}}, "displayed_time": "41.55", "trialTime": 43239, "trial_type": "mouselab-mdp", "trial_index": 14, "time_elapsed": 491729, "internal_node_id": "0.0-6.0-1.0-5.0"}}, {"uniqueid": "w54387959:a75836837", "current_trial": 15, "dateTime": 1693581194492, "trialdata": {"revealed_states": [], "clicked_states": ["12", "13", "14", "19", "21", "22"], "num_clicks_accrued": [0, 0, 0, 0, 0, 0, 0, 0, 0, 0, 0, 0, 0], "stateRewards": ["", -1, 2, 5, -6, 13, -64, -47, 8, -79, -80, -33, 1, 2, -2, -16, 56, -71, -10, 3, 29, 44, 85, -1, 4, 5, 4, -36, -56, 19, 8, 52, -13, -2], "withholdReward": false, "trial_id": "mdp_trial_7", "block": "test", "trialIndex": 8, "score": 82.1, "costs": -6.9, "simulationMode": [null, null, null, null, null, null], "rewards": [1, 2, -2, 3, 85], "path": ["0", "0", "12", "13", "14", "19", "22"], "rt": [8472, 739, 198, 191, 13, 39], "actions": ["right", "right", "right", "right", "down", "left"], "actionTimes": [10121, 10863, 11584, 12288, 12794, 13352], "queries": {"click": {"state": {"target": ["12", "13", "14", "19", "21", "22"], "time": [2335, 3253, 4199, 5018, 6071, 9019]}, "edge": {"target": [], "time": []}}, "mouseover": {"state": {"target": ["12", "13", "14", "19", "21", "22"], "time": [2112, 3042, 3997, 4748, 5831, 6611]}, "edge": {"target": [], "time": []}}, "mouseout": {"state": {"target": ["0", "12", "0", "12", "13", "14", "19", "21", "22"], "time": [679, 1142, 2079, 2909, 3926, 4676, 5762, 6529, 14363]}, "edge": {"target": [], "time": []}}}, "displayed_time": "15.66", "trialTime": 16608, "trial_type": "mouselab-mdp", "trial_index": 15, "time_elapsed": 508521, "internal_node_id": "0.0-6.0-1.0-6.0"}}, {"uniqueid": "w54387959:a75836837", "current_trial": 16, "dateTime": 1693581218523, "trialdata": {"revealed_states": [], "clicked_states": ["23", "24", "25", "30", "26", "12", "13", "14", "19", "21", "20", "22"], "num_clicks_accrued": [0, 0, 0, 0, 0, 0, 0, 0, 0, 0, 0, 0, 0], "stateRewards": ["", -2, -4, 2, 10, -17, 18, 73, 11, -32, 23, -13, -2, -4, 7, 12, -25, 66, -23, 15, 40, -76, -9, 1, 2, -7, -5, -20, 24, 3, -5, 16, -73, 70], "withholdReward": false, "trial_id": "mdp_trial_8", "block": "test", "trialIndex": 9, "score": 42.8, "costs": -13.2, "simulationMode": [null, null, null, null, null, null], "rewards": [-2, -4, 7, 15, 40], "path": ["0", "0", "12", "13", "14", "19", "20"], "rt": [16386, 844, 125, 82, 641, 244], "actions": ["right", "right", "right", "right", "down", "right"], "actionTimes": [18148, 18995, 19642, 20226, 21370, 22106], "queries": {"click": {"state": {"target": ["23", "24", "25", "30", "26", "12", "13", "14", "19", "21", "20", "22"], "time": [2731, 3446, 4249, 5414, 6363, 7516, 8180, 8847, 9630, 10615, 13799, 16799]}, "edge": {"target": [], "time": []}}, "mouseover": {"state": {"target": ["23", "24", "25", "30", "26", "23", "0", "12", "13", "14", "19", "21", "20", "19", "22"], "time": [2474, 3255, 4042, 4889, 6121, 6922, 7206, 7476, 8057, 8675, 9389, 10410, 11175, 14256, 14423]}, "edge": {"target": [], "time": []}}, "mouseout": {"state": {"target": ["0", "23", "24", "25", "25", "30", "25", "26", "23", "0", "12", "13", "14", "19", "21", "20", "19", "22"], "time": [2441, 3189, 3972, 4739, 4872, 5890, 5972, 6841, 6939, 7242, 7956, 8624, 9305, 10289, 10623, 14243, 14311, 23375]}, "edge": {"target": [], "time": []}}}, "displayed_time": "22.61", "trialTime": 23849, "trial_type": "mouselab-mdp", "trial_index": 16, "time_elapsed": 532552, "internal_node_id": "0.0-6.0-1.0-7.0"}}, {"uniqueid": "w54387959:a75836837", "current_trial": 17, "dateTime": 1693581255939, "trialdata": {"revealed_states": [], "clicked_states": ["1", "2", "3", "4", "8", "9", "10", "11", "23", "24", "25", "26", "30", "12", "13", "14", "5", "6", "7"], "num_clicks_accrued": [0, 0, 0, 0, 0, 0, 0, 0, 0, 0, 0, 0, 0], "stateRewards": ["", 1, 2, -6, -13, -51, 22, -4, -12, -44, -12, 6, -2, -2, -2, -14, -46, -4, -77, -2, 36, -79, 41, 2, -4, 2, -6, -55, 59, 70, -5, 39, -19, 24], "withholdReward": false, "trial_id": "mdp_trial_9", "block": "test", "trialIndex": 10, "score": -16.25, "costs": -22.249999999999996, "simulationMode": [null, null, null, null, null, null], "rewards": [1, 2, -6, -13, 22], "path": ["0", "0", "1", "2", "3", "4", "6"], "rt": [29517, 1288, 522, 168, 540, 170], "actions": ["up", "up", "up", "up", "right", "right"], "actionTimes": [30962, 32252, 33276, 33940, 34980, 35644], "queries": {"click": {"state": {"target": ["1", "2", "3", "4", "8", "9", "10", "11", "23", "24", "25", "26", "30", "12", "13", "14", "5", "6", "7"], "time": [2072, 2920, 3622, 4320, 5124, 5959, 9190, 12141, 14974, 15973, 16672, 17492, 18275, 20059, 20874, 21523, 22892, 25843, 28910]}, "edge": {"target": [], "time": []}}, "mouseover": {"state": {"target": ["1", "2", "3", "4", "8", "9", "10", "11", "8", "23", "24", "25", "26", "30", "23", "0", "12", "13", "14", "4", "4", "5", "6", "7"], "time": [1868, 2646, 3413, 4150, 5030, 5798, 6647, 9717, 12603, 13017, 15832, 16470, 17268, 18049, 19404, 19703, 19834, 20668, 21317, 22067, 22351, 22735, 23555, 26237]}, "edge": {"target": [], "time": []}}, "mouseout": {"state": {"target": ["0", "1", "2", "3", "4", "3", "8", "9", "8", "10", "11", "8", "10", "23", "24", "25", "26", "25", "30", "25", "26", "25", "23", "0", "12", "13", "14", "4", "4", "5", "6", "7", "1"], "time": [1768, 2533, 3380, 4097, 4782, 4851, 5600, 6550, 6597, 9602, 12566, 12619, 12665, 15550, 16432, 17151, 17933, 18017, 18783, 18849, 18938, 19237, 19436, 19716, 20482, 21254, 21933, 22105, 22550, 23337, 26168, 36769, 36838]}, "edge": {"target": [], "time": []}}}, "displayed_time": "36.14", "trialTime": 37220, "trial_type": "mouselab-mdp", "trial_index": 17, "time_elapsed": 569968, "internal_node_id": "0.0-6.0-1.0-8.0"}}, {"uniqueid": "w54387959:a75836837", "current_trial": 18, "dateTime": 1693581274450, "trialdata": {"revealed_states": [], "clicked_states": ["23", "24", "25", "26", "27", "28"], "num_clicks_accrued": [0, 0, 0, 0, 0, 0, 0, 0, 0, 0, 0, 0, 0], "stateRewards": ["", 2, -1, -1, 7, 11, -40, -22, -2, 69, 37, 8, -2, 4, -8, -12, -2, -72, -3, -12, 17, 63, 12, 1, 3, -7, 6, 25, 61, 61, -9, 28, -17, 27], "withholdReward": false, "trial_id": "mdp_trial_10", "block": "test", "trialIndex": 11, "score": 57.1, "costs": -6.9, "simulationMode": [null, null, null, null, null, null], "rewards": [1, 3, -7, 6, 61], "path": ["0", "0", "23", "24", "25", "26", "28"], "rt": [8648, 714, 166, 116, 23, 47], "actions": ["left", "left", "left", "left", "up", "right"], "actionTimes": [11637, 12354, 13036, 13651, 14171, 14716], "queries": {"click": {"state": {"target": ["23", "24", "25", "26", "27", "28"], "time": [3621, 4319, 4969, 5886, 7122, 9924]}, "edge": {"target": [], "time": []}}, "mouseover": {"state": {"target": ["23", "24", "25", "26", "30", "27", "28", "26"], "time": [3412, 4129, 4782, 5715, 6432, 6864, 7668, 11014]}, "edge": {"target": [], "time": []}}, "mouseout": {"state": {"target": ["0", "0", "0", "23", "24", "25", "26", "25", "30", "25", "26", "27", "28", "26", "26", "25", "31"], "time": [735, 863, 3365, 4046, 4747, 5481, 6313, 6378, 6613, 6665, 6766, 7583, 10762, 11046, 15735, 15782, 17617]}, "edge": {"target": [], "time": []}}}, "displayed_time": "17.00", "trialTime": 18324, "trial_type": "mouselab-mdp", "trial_index": 18, "time_elapsed": 588480, "internal_node_id": "0.0-6.0-1.0-9.0"}}, {"uniqueid": "w54387959:a75836837", "current_trial": 19, "dateTime": 1693581292850, "trialdata": {"revealed_states": [], "clicked_states": ["12", "13", "14", "19", "20", "21", "22"], "num_clicks_accrued": [0, 0, 0, 0, 0, 0, 0, 0, 0, 0, 0, 0, 0], "stateRewards": ["", 2, -4, -4, 13, -80, 62, 13, -11, 57, -13, -44, 1, 4, 3, -4, -29, -88, 15, 16, -58, 68, -45, -1, -3, -1, -9, -44, -86, -19, -7, -36, 59, 66], "withholdReward": false, "trial_id": "mdp_trial_11", "block": "test", "trialIndex": 12, "score": 82.95, "costs": -9.05, "simulationMode": [null, null, null, null, null, null], "rewards": [1, 4, 3, 16, 68], "path": ["0", "0", "12", "13", "14", "19", "21"], "rt": [11437, 687, 192, 187, 277, 139], "actions": ["right", "right", "right", "right", "down", "down"], "actionTimes": [12686, 13376, 14085, 14782, 15559, 16198], "queries": {"click": {"state": {"target": ["12", "13", "14", "19", "20", "21", "22"], "time": [2515, 3197, 3896, 4700, 5663, 8916, 11866]}, "edge": {"target": [], "time": []}}, "mouseover": {"state": {"target": ["23", "12", "12", "13", "14", "19", "20", "21", "22"], "time": [1876, 1957, 2275, 2923, 3689, 4443, 5559, 6093, 9609]}, "edge": {"target": [], "time": []}}, "mouseout": {"state": {"target": ["0", "23", "12", "12", "13", "14", "19", "19", "20", "21"], "time": [872, 1889, 2025, 2822, 3640, 4373, 5090, 5406, 5990, 9357]}, "edge": {"target": [], "time": []}}}, "displayed_time": "16.70", "trialTime": 18214, "trial_type": "mouselab-mdp", "trial_index": 19, "time_elapsed": 606879, "internal_node_id": "0.0-6.0-1.0-10.0"}}, {"uniqueid": "w54387959:a75836837", "current_trial": 20, "dateTime": 1693581311585, "trialdata": {"revealed_states": [], "clicked_states": ["1", "2", "3", "4", "6", "7", "5"], "num_clicks_accrued": [0, 0, 0, 0, 0, 0, 0, 0, 0, 0, 0, 0, 0], "stateRewards": ["", 2, 3, -1, 16, -78, -11, 46, 2, -20, 79, -67, 2, 3, 2, 11, -83, -42, -58, -11, -67, -22, 55, 2, -1, -1, -16, -83, -82, 23, -11, -29, 13, 13], "withholdReward": false, "trial_id": "mdp_trial_12", "block": "test", "trialIndex": 13, "score": 56.95, "costs": -9.05, "simulationMode": [null, null, null, null, null, null], "rewards": [2, 3, -1, 16, 46], "path": ["0", "0", "1", "2", "3", "4", "7"], "rt": [11332, 748, 264, 292, 139, 100], "actions": ["up", "up", "up", "up", "right", "down"], "actionTimes": [12902, 13653, 14431, 15222, 15854, 16446], "queries": {"click": {"state": {"target": ["1", "2", "3", "4", "6", "7", "5"], "time": [2318, 3150, 3885, 4549, 5433, 8636, 11587]}, "edge": {"target": [], "time": []}}, "mouseover": {"state": {"target": ["1", "2", "3", "4", "6", "7", "4", "5"], "time": [2111, 2926, 3659, 4427, 5127, 5743, 8995, 9030]}, "edge": {"target": [], "time": []}}, "mouseout": {"state": {"target": ["22", "0", "1", "2", "3", "4", "4", "6", "6", "7", "4", "5", "2", "1"], "time": [659, 2011, 2776, 3575, 4344, 5012, 5093, 5549, 5694, 8944, 9015, 17498, 17613, 17880]}, "edge": {"target": [], "time": []}}}, "displayed_time": "16.95", "trialTime": 18550, "trial_type": "mouselab-mdp", "trial_index": 20, "time_elapsed": 625615, "internal_node_id": "0.0-6.0-1.0-11.0"}}, {"uniqueid": "w54387959:a75836837", "current_trial": 21, "dateTime": 1693581334161, "trialdata": {"revealed_states": [], "clicked_states": ["23", "12", "1", "24", "25", "13", "14", "2", "3", "30", "31", "32"], "num_clicks_accrued": [0, 0, 0, 0, 0, 0, 0, 0, 0, 0, 0, 0, 0], "stateRewards": ["", -2, 4, -5, -12, 85, -24, -18, -15, -78, -22, 26, -1, -1, 2, 14, -45, 52, -23, 7, -33, 24, -6, -2, -4, 5, -7, -16, 36, -39, 5, 71, -87, -23], "withholdReward": false, "trial_id": "mdp_trial_13", "block": "test", "trialIndex": 14, "score": 66, "costs": -9, "simulationMode": [null, null, null, null, null, null], "rewards": [-2, -4, 5, 5, 71], "path": ["0", "0", "23", "24", "25", "30", "31"], "rt": [15383, 964, 186, 219, 70, 104], "actions": ["left", "left", "left", "left", "down", "right"], "actionTimes": [17152, 18119, 18815, 19545, 20113, 20713], "queries": {"click": {"state": {"target": ["23", "12", "1", "24", "25", "13", "14", "2", "3", "30", "31", "32"], "time": [2363, 3414, 4311, 5597, 6545, 7461, 8263, 9279, 10216, 12347, 13212, 16232]}, "edge": {"target": [], "time": []}}, "mouseover": {"state": {"target": ["23", "12", "1", "24", "25", "23", "13", "14", "2", "3", "10", "28", "25", "30", "31", "32", "32"], "time": [2141, 3170, 4108, 5071, 6205, 6954, 7138, 8008, 8890, 9958, 10938, 11490, 11941, 12075, 12972, 13572, 15572]}, "edge": {"target": [], "time": []}}, "mouseout": {"state": {"target": ["0", "23", "12", "1", "24", "25", "24", "23", "13", "14", "2", "3", "10", "28", "25", "30", "31", "32", "32", "31"], "time": [2105, 2854, 4022, 4873, 6105, 6905, 6938, 6972, 7955, 8707, 9788, 10871, 11406, 11524, 11976, 12842, 13508, 15323, 16556, 21693]}, "edge": {"target": [], "time": []}}}, "displayed_time": "21.21", "trialTime": 22385, "trial_type": "mouselab-mdp", "trial_index": 21, "time_elapsed": 648190, "internal_node_id": "0.0-6.0-1.0-12.0"}}, {"uniqueid": "w54387959:a75836837", "current_trial": 22, "dateTime": 1693581360616, "trialdata": {"revealed_states": [], "clicked_states": ["23", "24", "12", "13", "1", "2", "3", "4", "8", "14", "25", "19", "20", "22"], "num_clicks_accrued": [0, 0, 0, 0, 0, 0, 0, 0, 0, 0, 0, 0, 0], "stateRewards": ["", 1, 4, -8, -13, -13, -87, -77, -10, -44, 54, 42, 2, -3, -4, 12, -9, -80, 52, 9, 84, -2, -65, 1, -4, -5, -6, 8, 80, 32, 13, -59, -5, -13], "withholdReward": false, "trial_id": "mdp_trial_14", "block": "test", "trialIndex": 15, "score": 75.9, "costs": -12.1, "simulationMode": [null, null, null, null, null, null], "rewards": [2, -3, -4, 9, 84], "path": ["0", "0", "12", "13", "14", "19", "20"], "rt": [19211, 752, 155, 208, 512, 211], "actions": ["right", "right", "right", "right", "down", "right"], "actionTimes": [20550, 21304, 21973, 22694, 23702, 24414], "queries": {"click": {"state": {"target": ["23", "24", "12", "13", "1", "2", "3", "4", "8", "14", "25", "19", "20", "22"], "time": [2105, 2837, 3955, 4907, 6222, 6903, 8522, 9523, 10504, 12306, 13822, 15323, 16540, 19824]}, "edge": {"target": [], "time": []}}, "mouseover": {"state": {"target": ["23", "24", "12", "13", "13", "1", "1", "2", "7", "3", "4", "8", "2", "14", "31", "30", "25", "24", "22", "19", "20", "21", "22"], "time": [1947, 2695, 3697, 4379, 4716, 5883, 6033, 6696, 7496, 8101, 9164, 10180, 11230, 12065, 13133, 13382, 13617, 14298, 14681, 14899, 16402, 16902, 18281]}, "edge": {"target": [], "time": []}}, "mouseout": {"state": {"target": ["0", "23", "24", "23", "12", "13", "13", "1", "1", "2", "7", "3", "4", "3", "8", "2", "14", "31", "30", "25", "24", "22", "19", "19", "20", "21", "22"], "time": [1864, 2563, 3547, 3562, 4366, 4412, 5566, 5898, 6616, 7449, 7830, 9066, 10066, 10146, 11183, 11250, 12917, 13165, 13465, 14283, 14318, 14730, 15880, 16131, 16798, 18235, 25435]}, "edge": {"target": [], "time": []}}}, "displayed_time": "24.92", "trialTime": 26262, "trial_type": "mouselab-mdp", "trial_index": 22, "time_elapsed": 674646, "internal_node_id": "0.0-6.0-1.0-13.0"}}, {"uniqueid": "w54387959:a75836837", "current_trial": 23, "dateTime": 1693581384158, "trialdata": {"revealed_states": [], "clicked_states": ["12", "13", "14", "15", "19", "22", "21", "20", "16"], "num_clicks_accrued": [0, 0, 0, 0, 0, 0, 0, 0, 0, 0, 0, 0, 0], "stateRewards": ["", -2, 2, -1, -6, 22, 6, 6, -5, 70, -42, 65, 1, 3, 5, -6, -67, -9, 3, 14, 7, -62, -13, -2, 4, 1, 16, 42, -21, -52, -8, 32, 53, 81], "withholdReward": false, "trial_id": "mdp_trial_15", "block": "test", "trialIndex": 16, "score": 17.25, "costs": -12.75, "simulationMode": [null, null, null, null, null, null], "rewards": [1, 3, 5, 14, 7], "path": ["0", "0", "12", "13", "14", "19", "20"], "rt": [16023, 892, 244, 142, 16, 168], "actions": ["right", "right", "right", "right", "down", "right"], "actionTimes": [17970, 18865, 19629, 20291, 20812, 21483], "queries": {"click": {"state": {"target": ["12", "13", "14", "15", "19", "22", "21", "20", "16"], "time": [2634, 3432, 4350, 5367, 6370, 7318, 10635, 13935, 16953]}, "edge": {"target": [], "time": []}}, "mouseover": {"state": {"target": ["12", "13", "14", "15", "19", "22", "21", "20", "16"], "time": [2408, 3175, 4141, 4992, 6113, 7159, 7879, 11345, 15344]}, "edge": {"target": [], "time": []}}, "mouseout": {"state": {"target": ["0", "12", "13", "14", "15", "14", "19", "22", "21", "20", "16", "18"], "time": [2395, 3079, 4076, 4930, 5978, 6041, 7059, 7726, 11097, 14643, 22798, 22896]}, "edge": {"target": [], "time": []}}}, "displayed_time": "21.98", "trialTime": 23329, "trial_type": "mouselab-mdp", "trial_index": 23, "time_elapsed": 698188, "internal_node_id": "0.0-6.0-1.0-14.0"}}, {"uniqueid": "w54387959:a75836837", "current_trial": 24, "dateTime": 1693581402792, "trialdata": {"revealed_states": [], "clicked_states": ["12", "13", "14", "19", "15", "16", "18"], "num_clicks_accrued": [0, 0, 0, 0, 0, 0, 0, 0, 0, 0, 0, 0, 0], "stateRewards": ["", -1, -2, 8, -6, -79, -6, 87, 9, -5, -66, -38, 2, 2, 5, -6, -82, 74, 85, -8, 67, -30, -15, 1, -2, -2, -2, 87, 64, 49, 7, 2, -38, -9], "withholdReward": false, "trial_id": "mdp_trial_16", "block": "test", "trialIndex": 17, "score": 79.55, "costs": -8.45, "simulationMode": [null, null, null, null, null], "rewards": [2, 2, 5, -6, 85], "path": ["0", "0", "12", "13", "14", "15", "18"], "rt": [12575, 143, 108, 792, 82], "actions": ["right", "right", "right", "up", "left"], "actionTimes": [13819, 14458, 15059, 16355, 16930], "queries": {"click": {"state": {"target": ["12", "13", "14", "19", "15", "16", "18"], "time": [1868, 2616, 3318, 4049, 5084, 6535, 9686]}, "edge": {"target": [], "time": []}}, "mouseover": {"state": {"target": ["12", "13", "14", "19", "15", "16", "18", "17"], "time": [1645, 2409, 3160, 3827, 4627, 6414, 7062, 10177]}, "edge": {"target": [], "time": []}}, "mouseout": {"state": {"target": ["12", "13", "14", "19", "14", "15", "14", "16", "18", "17"], "time": [2343, 3095, 3776, 4562, 4609, 5793, 6111, 7011, 10062, 13163]}, "edge": {"target": [], "time": []}}}, "displayed_time": "17.43", "trialTime": 18410, "trial_type": "mouselab-mdp", "trial_index": 24, "time_elapsed": 716821, "internal_node_id": "0.0-6.0-1.0-15.0"}}, {"uniqueid": "w54387959:a75836837", "current_trial": 25, "dateTime": 1693581426911, "trialdata": {"revealed_states": [], "clicked_states": ["1", "12", "13", "14", "15", "19", "23", "24", "25", "26", "30", "33", "32", "31"], "num_clicks_accrued": [0, 0, 0, 0, 0, 0, 0, 0, 0, 0, 0, 0, 0], "stateRewards": ["", -1, -3, -7, -7, -76, 30, -49, 11, -70, 56, 2, 1, 4, -3, -14, -59, -83, -25, -9, -21, -67, -73, -2, 4, 4, -9, -11, -32, 60, 9, -87, 22, -64], "withholdReward": false, "trial_id": "mdp_trial_17", "block": "test", "trialIndex": 18, "score": 22.5, "costs": -14.500000000000002, "simulationMode": [null, null, null, null, null, null], "rewards": [-2, 4, 4, 9, 22], "path": ["0", "0", "23", "24", "25", "30", "32"], "rt": [18002, 640, 130, 292, 60, 102], "actions": ["left", "left", "left", "left", "down", "down"], "actionTimes": [19289, 19933, 20573, 21383, 21935, 22541], "queries": {"click": {"state": {"target": ["1", "12", "13", "14", "15", "19", "23", "24", "25", "26", "30", "33", "32", "31"], "time": [1978, 3212, 4177, 4944, 5726, 6731, 7996, 8710, 9460, 10377, 11260, 12596, 15629, 18480]}, "edge": {"target": [], "time": []}}, "mouseover": {"state": {"target": ["1", "12", "13", "14", "15", "19", "12", "0", "23", "24", "25", "26", "30", "33", "32", "31"], "time": [1770, 2818, 3924, 4754, 5490, 6589, 7337, 7359, 7422, 8540, 9303, 10156, 11019, 12225, 13170, 16358]}, "edge": {"target": [], "time": []}}, "mouseout": {"state": {"target": ["13", "12", "1", "12", "13", "14", "15", "14", "19", "12", "0", "23", "24", "25", "26", "25", "30", "25", "33", "32"], "time": [602, 669, 2585, 3771, 4703, 5405, 6288, 6354, 7237, 7357, 7386, 8438, 9258, 10039, 10870, 10971, 11807, 12004, 13087, 15796]}, "edge": {"target": [], "time": []}}}, "displayed_time": "23.04", "trialTime": 23903, "trial_type": "mouselab-mdp", "trial_index": 25, "time_elapsed": 740941, "internal_node_id": "0.0-6.0-1.0-16.0"}}, {"uniqueid": "w54387959:a75836837", "current_trial": 26, "dateTime": 1693581452583, "trialdata": {"revealed_states": [], "clicked_states": ["23", "24", "12", "13", "14", "19", "15", "16", "17", "18", "20"], "num_clicks_accrued": [0, 0, 0, 0, 0, 0, 0, 0, 0, 0, 0, 0, 0], "stateRewards": ["", -2, -1, -1, 5, -54, -87, 35, 2, -8, 20, -22, 1, 3, 6, 13, -75, -32, -55, -3, 56, 62, -22, -1, -4, -1, -7, -51, 84, 70, 7, -15, 5, 55], "withholdReward": false, "trial_id": "mdp_trial_18", "block": "test", "trialIndex": 19, "score": 50.15, "costs": -12.850000000000001, "simulationMode": [null, null, null, null, null], "rewards": [1, 3, 6, -3, 56], "path": ["0", "0", "12", "13", "14", "19", "20"], "rt": [19595, 42, 80, 474, 99], "actions": ["right", "right", "right", "down", "right"], "actionTimes": [20910, 21454, 22037, 23014, 23605], "queries": {"click": {"state": {"target": ["23", "24", "12", "13", "14", "19", "15", "16", "17", "18", "20"], "time": [1895, 2645, 3509, 4167, 4929, 5759, 6693, 7627, 10895, 14130, 17080]}, "edge": {"target": [], "time": []}}, "mouseover": {"state": {"target": ["23", "24", "0", "12", "13", "14", "19", "15", "16", "17", "15", "18", "14", "19", "20", "21"], "time": [1721, 2503, 3106, 3371, 4018, 4668, 5552, 6441, 7438, 8119, 11339, 11490, 14987, 15272, 15406, 17455]}, "edge": {"target": [], "time": []}}, "mouseout": {"state": {"target": ["31", "0", "23", "24", "23", "0", "12", "13", "14", "19", "14", "15", "16", "17", "15", "18", "14", "19", "20", "21"], "time": [538, 1669, 2435, 3020, 3068, 3205, 3955, 4653, 5469, 5772, 6202, 7303, 8037, 11308, 11392, 14938, 15037, 15338, 17355, 24709]}, "edge": {"target": [], "time": []}}}, "displayed_time": "24.11", "trialTime": 25437, "trial_type": "mouselab-mdp", "trial_index": 26, "time_elapsed": 766612, "internal_node_id": "0.0-6.0-1.0-17.0"}}, {"uniqueid": "w54387959:a75836837", "current_trial": 27, "dateTime": 1693581478366, "trialdata": {"revealed_states": [], "clicked_states": ["23", "24", "25", "26", "27", "28", "29", "30", "31", "32"], "num_clicks_accrued": [0, 0, 0, 0, 0, 0, 0, 0, 0, 0, 0, 0, 0], "stateRewards": ["", -2, 3, -1, -9, 44, 48, -37, -3, 71, -39, 87, -1, 3, -4, 4, -21, 59, -15, -8, -1, 28, -38, 2, 4, 4, 8, -85, -72, -63, 14, 58, 63, -46], "withholdReward": false, "trial_id": "mdp_trial_19", "block": "test", "trialIndex": 20, "score": 72.1, "costs": -14.900000000000002, "simulationMode": [null, null, null, null, null, null], "rewards": [2, 4, 4, 14, 63], "path": ["0", "0", "23", "24", "25", "30", "32"], "rt": [18651, 1059, 206, 188, 440, 276], "actions": ["left", "left", "left", "left", "down", "down"], "actionTimes": [19935, 20997, 21713, 22401, 23337, 24121], "queries": {"click": {"state": {"target": ["23", "24", "25", "26", "27", "28", "29", "30", "31", "32"], "time": [1812, 2531, 3249, 3993, 5263, 8481, 11680, 14714, 15330, 18515]}, "edge": {"target": [], "time": []}}, "mouseover": {"state": {"target": ["23", "24", "25", "26", "27", "28", "26", "29", "25", "30", "31", "32"], "time": [1656, 2353, 3086, 3824, 5071, 5821, 8905, 9008, 12273, 12654, 15173, 18306]}, "edge": {"target": [], "time": []}}, "mouseout": {"state": {"target": ["0", "23", "24", "25", "26", "25", "25", "27", "28", "26", "29", "25", "30", "31", "32"], "time": [1607, 2304, 3006, 3723, 4357, 4436, 4637, 5654, 8874, 8954, 12220, 12593, 15115, 18208, 24870]}, "edge": {"target": [], "time": []}}}, "displayed_time": "24.63", "trialTime": 25585, "trial_type": "mouselab-mdp", "trial_index": 27, "time_elapsed": 792396, "internal_node_id": "0.0-6.0-1.0-18.0"}}, {"uniqueid": "w54387959:a75836837", "current_trial": 28, "dateTime": 1693581500469, "trialdata": {"revealed_states": [], "clicked_states": ["12", "23", "24", "1", "2", "3", "8", "4", "5", "6", "7"], "num_clicks_accrued": [0, 0, 0, 0, 0, 0, 0, 0, 0, 0, 0, 0, 0], "stateRewards": ["", 2, 3, -3, 12, -43, 81, -82, -15, 58, -7, -75, -1, -1, 3, -5, 50, -25, -8, 4, 66, 65, -66, 2, -4, 2, -1, -10, 10, 37, 11, 88, -37, 8], "withholdReward": false, "trial_id": "mdp_trial_20", "block": "test", "trialIndex": 21, "score": 84.55, "costs": -10.450000000000001, "simulationMode": [null, null, null, null, null, null], "rewards": [2, 3, -3, 12, 81], "path": ["0", "0", "1", "2", "3", "4", "6"], "rt": [15340, 713, 289, 125, 16, 51], "actions": ["up", "up", "up", "up", "right", "right"], "actionTimes": [16810, 17526, 18343, 18967, 19477, 20047], "queries": {"click": {"state": {"target": ["12", "23", "24", "1", "2", "3", "8", "4", "5", "6", "7"], "time": [2081, 3070, 3913, 4936, 5562, 6514, 7313, 8113, 9064, 12282, 15366]}, "edge": {"target": [], "time": []}}, "mouseover": {"state": {"target": ["12", "0", "23", "23", "24", "1", "2", "3", "8", "4", "5", "6", "7"], "time": [1906, 2638, 2671, 2906, 3710, 4572, 5422, 6327, 7090, 7772, 8922, 9592, 12841]}, "edge": {"target": [], "time": []}}, "mouseout": {"state": {"target": ["12", "0", "0", "12", "0", "23", "23", "24", "1", "2", "3", "8", "3", "4", "5", "6", "7", "7"], "time": [592, 1059, 1857, 2608, 2658, 2722, 3590, 4422, 5164, 6190, 6993, 7672, 7741, 8773, 9496, 12761, 15528, 21111]}, "edge": {"target": [], "time": []}}}, "displayed_time": "20.55", "trialTime": 21885, "trial_type": "mouselab-mdp", "trial_index": 28, "time_elapsed": 814498, "internal_node_id": "0.0-6.0-1.0-19.0"}}, {"uniqueid": "w54387959:a75836837", "current_trial": 29, "dateTime": 1693581518205, "trialdata": {"revealed_states": [], "clicked_states": ["12", "13", "23", "24", "25", "26", "30", "32", "31"], "num_clicks_accrued": [0, 0, 0, 0, 0, 0, 0, 0, 0, 0, 0, 0, 0], "stateRewards": ["", -2, 3, 8, -9, 59, 41, -50, -1, 82, 66, 33, 2, -2, 7, 8, 1, -38, 12, -16, 24, -37, 67, 1, 4, -2, 5, 35, -83, 28, 8, -27, 69, -64], "withholdReward": false, "trial_id": "mdp_trial_21", "block": "test", "trialIndex": 22, "score": 71.45, "costs": -8.55, "simulationMode": [null, null, null, null, null, null], "rewards": [1, 4, -2, 8, 69], "path": ["0", "0", "23", "24", "25", "30", "32"], "rt": [10826, 566, 193, 182, 28, 55], "actions": ["left", "left", "left", "left", "down", "down"], "actionTimes": [13140, 13708, 14404, 15094, 15622, 16166], "queries": {"click": {"state": {"target": ["12", "13", "23", "24", "25", "26", "30", "32", "31"], "time": [2966, 3569, 4548, 5183, 5885, 6732, 7950, 9150, 12201]}, "edge": {"target": [], "time": []}}, "mouseover": {"state": {"target": ["12", "13", "23", "24", "25", "26", "30", "28", "30", "32", "31"], "time": [2828, 3476, 4407, 4957, 5723, 6590, 7307, 7441, 7797, 8960, 9658]}, "edge": {"target": [], "time": []}}, "mouseout": {"state": {"target": ["0", "0", "12", "13", "23", "23", "24", "25", "26", "25", "30", "28", "26", "25", "30", "25", "26", "26", "25", "32"], "time": [475, 2758, 3409, 4042, 4561, 4926, 5661, 6423, 7128, 7240, 7343, 7457, 7690, 7757, 8195, 8259, 8340, 8613, 8657, 9478]}, "edge": {"target": [], "time": []}}}, "displayed_time": "16.68", "trialTime": 17534, "trial_type": "mouselab-mdp", "trial_index": 29, "time_elapsed": 832235, "internal_node_id": "0.0-6.0-1.0-20.0"}}, {"uniqueid": "w54387959:a75836837", "current_trial": 30, "dateTime": 1693581536470, "trialdata": {"revealed_states": [], "clicked_states": ["12", "13", "23", "24", "1", "2", "3", "8", "4", "9", "11"], "num_clicks_accrued": [0, 0, 0, 0, 0, 0, 0, 0, 0, 0, 0, 0, 0], "stateRewards": ["", 2, -1, 3, -12, -83, 6, -33, 9, 28, 24, -50, -2, -1, -2, -5, -87, 37, 82, 12, 80, -5, 10, -2, -3, -6, 9, 22, -1, 16, 9, 77, -62, 58], "withholdReward": false, "trial_id": "mdp_trial_22", "block": "test", "trialIndex": 23, "score": 32.35, "costs": -8.65, "simulationMode": [null, null, null, null, null, null], "rewards": [2, -1, 3, 9, 28], "path": ["0", "0", "1", "2", "3", "8", "9"], "rt": [12258, 630, 280, 160, 7, 56], "actions": ["up", "up", "up", "up", "left", "up"], "actionTimes": [13280, 13913, 14706, 15370, 15884, 16450], "queries": {"click": {"state": {"target": ["12", "13", "23", "24", "1", "2", "3", "8", "4", "9", "11"], "time": [1646, 2398, 3211, 3711, 4345, 4996, 5811, 6594, 7512, 8495, 11665]}, "edge": {"target": [], "time": []}}, "mouseover": {"state": {"target": ["12", "13", "0", "23", "23", "24", "1", "2", "3", "8", "4", "9", "11", "10"], "time": [1505, 2136, 2735, 2787, 3086, 3554, 4073, 4887, 5654, 6403, 6955, 8304, 8975, 12306]}, "edge": {"target": [], "time": []}}, "mouseout": {"state": {"target": ["31", "0", "12", "12", "13", "12", "0", "23", "23", "24", "1", "2", "3", "8", "3", "4", "3", "8", "9", "9", "11", "10", "2"], "time": [486, 1423, 1656, 2087, 2674, 2721, 2770, 2886, 3507, 4003, 4477, 5453, 6354, 6857, 6937, 8014, 8073, 8139, 8613, 8855, 12255, 12506, 17491]}, "edge": {"target": [], "time": []}}}, "displayed_time": "16.94", "trialTime": 18058, "trial_type": "mouselab-mdp", "trial_index": 30, "time_elapsed": 850499, "internal_node_id": "0.0-6.0-1.0-21.0"}}, {"uniqueid": "w54387959:a75836837", "current_trial": 31, "dateTime": 1693581552679, "trialdata": {"revealed_states": [], "clicked_states": ["23", "24", "25", "30", "26", "27", "28"], "num_clicks_accrued": [0, 0, 0, 0, 0, 0, 0, 0, 0, 0, 0, 0, 0], "stateRewards": ["", 1, 3, 1, -13, 52, -28, 67, -14, 3, 63, -70, -1, -4, 7, -11, -10, 47, -18, 6, 69, -9, -61, 2, 3, -6, 10, 63, -34, 40, -6, -79, -35, -32], "withholdReward": false, "trial_id": "mdp_trial_23", "block": "test", "trialIndex": 24, "score": 63.55, "costs": -8.45, "simulationMode": [null, null, null, null, null, null], "rewards": [2, 3, -6, 10, 63], "path": ["0", "0", "23", "24", "25", "26", "27"], "rt": [8422, 678, 225, 201, 23, 29], "actions": ["left", "left", "left", "left", "up", "up"], "actionTimes": [9474, 10154, 10882, 11595, 12115, 12651], "queries": {"click": {"state": {"target": ["23", "24", "25", "30", "26", "27", "28"], "time": [1595, 2146, 3010, 3647, 4427, 5128, 8230]}, "edge": {"target": [], "time": []}}, "mouseover": {"state": {"target": ["23", "24", "25", "30", "26", "27", "28"], "time": [1453, 2040, 2753, 3474, 4237, 4986, 5553]}, "edge": {"target": [], "time": []}}, "mouseout": {"state": {"target": ["23", "24", "25", "30", "25", "26", "27", "28"], "time": [1985, 2719, 3403, 3970, 4069, 4904, 5437, 8358]}, "edge": {"target": [], "time": []}}}, "displayed_time": "15.06", "trialTime": 15979, "trial_type": "mouselab-mdp", "trial_index": 31, "time_elapsed": 866708, "internal_node_id": "0.0-6.0-1.0-22.0"}}, {"uniqueid": "w54387959:a75836837", "current_trial": 32, "dateTime": 1693581571223, "trialdata": {"revealed_states": [], "clicked_states": ["12", "13", "23", "24", "1", "2", "25", "26", "30", "32"], "num_clicks_accrued": [0, 0, 0, 0, 0, 0, 0, 0, 0, 0, 0, 0, 0], "stateRewards": ["", -2, -1, -4, -15, -14, -67, 32, -3, -59, 63, 31, 2, -1, -7, -15, 71, -66, -27, -3, -54, -39, 72, 2, 1, 1, -13, 77, -40, 35, -9, 35, 75, 57], "withholdReward": false, "trial_id": "mdp_trial_24", "block": "test", "trialIndex": 25, "score": 63.5, "costs": -6.5, "simulationMode": [null, null, null, null, null], "rewards": [2, 1, 1, -9, 75], "path": ["0", "0", "23", "24", "25", "30", "32"], "rt": [11888, 576, 150, 540, 226], "actions": ["left", "left", "left", "down", "down"], "actionTimes": [12943, 14014, 14655, 15694, 16414], "queries": {"click": {"state": {"target": ["12", "13", "23", "24", "1", "2", "25", "26", "30", "32"], "time": [1626, 2228, 3163, 3758, 4894, 5547, 6327, 7047, 7779, 8726]}, "edge": {"target": [], "time": []}}, "mouseover": {"state": {"target": ["12", "13", "0", "23", "23", "24", "1", "2", "28", "25", "26", "30", "32", "31", "31"], "time": [1518, 2099, 2767, 2800, 3039, 3601, 4317, 5384, 5968, 6001, 6854, 7452, 8585, 9319, 10408]}, "edge": {"target": [], "time": []}}, "mouseout": {"state": {"target": ["28", "23", "0", "12", "13", "12", "0", "23", "23", "24", "1", "2", "28", "25", "26", "25", "30", "32", "31"], "time": [400, 470, 769, 2052, 2700, 2750, 2783, 2868, 3556, 4217, 5167, 5917, 5985, 6738, 7337, 7402, 8488, 9104, 10285]}, "edge": {"target": [], "time": []}}}, "displayed_time": "16.91", "trialTime": 18334, "trial_type": "mouselab-mdp", "trial_index": 32, "time_elapsed": 885252, "internal_node_id": "0.0-6.0-1.0-23.0"}}, {"uniqueid": "w54387959:a75836837", "current_trial": 33, "dateTime": 1693581590496, "trialdata": {"revealed_states": [], "clicked_states": ["1", "23", "24", "12", "13", "2", "14", "15", "19", "16", "17"], "num_clicks_accrued": [0, 0, 0, 0, 0, 0, 0, 0, 0, 0, 0, 0, 0], "stateRewards": ["", -2, -3, 8, -4, -30, 31, 69, 9, 66, 87, 64, -2, 2, 8, 5, 47, 16, -39, -8, -54, 51, -19, 1, -2, -2, -11, -25, -26, 43, -9, 19, -84, 86], "withholdReward": false, "trial_id": "mdp_trial_25", "block": "test", "trialIndex": 26, "score": 51.35, "costs": -8.65, "simulationMode": [null, null, null, null, null, null], "rewards": [-2, 2, 8, 5, 47], "path": ["0", "0", "12", "13", "14", "15", "16"], "rt": [13003, 530, 94, 86, 78, 563], "actions": ["right", "right", "right", "right", "up", "up"], "actionTimes": [14210, 14743, 15352, 15928, 16504, 17576], "queries": {"click": {"state": {"target": ["1", "23", "24", "12", "13", "2", "14", "15", "19", "16", "17"], "time": [2080, 2848, 3370, 4446, 5012, 5764, 6864, 7463, 8195, 9314, 12166]}, "edge": {"target": [], "time": []}}, "mouseover": {"state": {"target": ["1", "23", "24", "0", "12", "13", "2", "14", "15", "19", "16", "17", "15", "18", "15", "17", "15", "18"], "time": [1972, 2653, 3322, 3841, 4287, 4821, 5571, 6738, 7272, 7904, 9206, 9841, 10974, 11188, 11772, 11910, 12689, 12773]}, "edge": {"target": [], "time": []}}, "mouseout": {"state": {"target": ["31", "0", "1", "23", "24", "23", "0", "12", "13", "2", "12", "13", "14", "15", "14", "19", "19", "14", "15", "16", "17", "15", "18", "15", "17", "15"], "time": [605, 1621, 2570, 3204, 3722, 3803, 3887, 4737, 5354, 6057, 6220, 6586, 7193, 7774, 7856, 8331, 8742, 8889, 8988, 9591, 10854, 11106, 11740, 11839, 12677, 12739]}, "edge": {"target": [], "time": []}}}, "displayed_time": "18.08", "trialTime": 19056, "trial_type": "mouselab-mdp", "trial_index": 33, "time_elapsed": 904525, "internal_node_id": "0.0-6.0-1.0-24.0"}}, {"uniqueid": "w54387959:a75836837", "current_trial": 34, "dateTime": 1693581611576, "trialdata": {"revealed_states": [], "clicked_states": ["12", "13", "23", "24", "1", "2", "3", "25", "26", "30", "8", "9", "10"], "num_clicks_accrued": [0, 0, 0, 0, 0, 0, 0, 0, 0, 0, 0, 0, 0], "stateRewards": ["", 2, 1, -3, 7, 46, 11, -36, 16, 71, 5, 1, 2, -2, -8, -3, -4, 6, 55, 7, 68, -54, 2, 1, 1, 6, -6, 42, -4, -84, -11, -65, 63, 25], "withholdReward": false, "trial_id": "mdp_trial_26", "block": "test", "trialIndex": 27, "score": 75.85, "costs": -11.15, "simulationMode": [null, null, null, null, null, null], "rewards": [2, 1, -3, 16, 71], "path": ["0", "0", "1", "2", "3", "8", "9"], "rt": [14777, 717, 103, 168, 9, 88], "actions": ["up", "up", "up", "up", "left", "up"], "actionTimes": [16105, 16825, 17441, 18123, 18633, 19243], "queries": {"click": {"state": {"target": ["12", "13", "23", "24", "1", "2", "3", "25", "26", "30", "8", "9", "10"], "time": [1873, 2438, 3356, 3888, 4654, 5209, 6238, 7156, 8190, 9089, 10708, 11858, 14792]}, "edge": {"target": [], "time": []}}, "mouseover": {"state": {"target": ["12", "13", "0", "23", "24", "1", "2", "3", "10", "28", "25", "26", "30", "28", "10", "8", "8", "3", "4", "9", "10", "8"], "time": [1701, 2380, 2932, 3030, 3783, 4397, 4984, 5964, 6633, 6732, 7015, 8031, 8633, 9932, 10004, 10234, 10583, 11149, 11251, 11583, 12466, 15367]}, "edge": {"target": [], "time": []}}, "mouseout": {"state": {"target": ["18", "0", "12", "13", "0", "23", "24", "1", "2", "3", "10", "28", "25", "26", "25", "30", "28", "10", "8", "8", "3", "4", "9", "8", "10", "8"], "time": [683, 1613, 2214, 2880, 2980, 3647, 4304, 4830, 5786, 6598, 6680, 6780, 7947, 8533, 8598, 9686, 9969, 10016, 10301, 11117, 11187, 11402, 12134, 12283, 15333, 15402]}, "edge": {"target": [], "time": []}}}, "displayed_time": "19.74", "trialTime": 20843, "trial_type": "mouselab-mdp", "trial_index": 34, "time_elapsed": 925605, "internal_node_id": "0.0-6.0-1.0-25.0"}}, {"uniqueid": "w54387959:a75836837", "current_trial": 35, "dateTime": 1693581637297, "trialdata": {"revealed_states": [], "clicked_states": ["23", "24", "12", "13", "1", "2", "14", "3", "15", "19", "17", "16", "18"], "num_clicks_accrued": [0, 0, 0, 0, 0, 0, 0, 0, 0, 0, 0, 0, 0], "stateRewards": ["", 1, -2, -3, 14, -42, -87, -37, -11, -50, 33, -44, -2, 4, -7, 13, 48, -75, -66, 12, 23, -2, 82, 1, -4, 3, 12, 51, -15, -26, -11, -52, -29, 82], "withholdReward": false, "trial_id": "mdp_trial_27", "block": "test", "trialIndex": 28, "score": 44.25, "costs": -11.75, "simulationMode": [null, null, null, null, null, null], "rewards": [-2, 4, -7, 13, 48], "path": ["0", "0", "12", "13", "14", "15", "16"], "rt": [18240, 933, 154, 326, 480, 229], "actions": ["right", "right", "right", "right", "up", "up"], "actionTimes": [19619, 20555, 21226, 22043, 23018, 23746], "queries": {"click": {"state": {"target": ["23", "24", "12", "13", "1", "2", "14", "3", "15", "19", "17", "16", "18"], "time": [2020, 3238, 4175, 5154, 6037, 6773, 7972, 8853, 9839, 10675, 11789, 14990, 17907]}, "edge": {"target": [], "time": []}}, "mouseover": {"state": {"target": ["23", "24", "12", "13", "13", "1", "1", "2", "7", "14", "18", "7", "3", "18", "15", "19", "17", "16", "18", "13"], "time": [1798, 3028, 3796, 4478, 5013, 5512, 5865, 6513, 7247, 7696, 8549, 8579, 8629, 9330, 9563, 10385, 11563, 12313, 15630, 18534]}, "edge": {"target": [], "time": []}}, "mouseout": {"state": {"target": ["8", "2", "1", "23", "24", "12", "13", "13", "1", "1", "2", "7", "14", "18", "7", "3", "3", "18", "15", "14", "19", "19", "17", "16", "18", "13", "13"], "time": [562, 631, 928, 2978, 3248, 4464, 4530, 5461, 5529, 6395, 7231, 7262, 8495, 8562, 8596, 8969, 9229, 9346, 10082, 10146, 11164, 11250, 12250, 15532, 18468, 18885, 24883]}, "edge": {"target": [], "time": []}}}, "displayed_time": "24.25", "trialTime": 25490, "trial_type": "mouselab-mdp", "trial_index": 35, "time_elapsed": 951326, "internal_node_id": "0.0-6.0-1.0-26.0"}}, {"uniqueid": "w54387959:a75836837", "current_trial": 36, "dateTime": 1693581680201, "trialdata": {"revealed_states": [], "clicked_states": ["23", "24", "12", "13", "1", "2", "3", "4", "8", "7", "6", "5", "14", "19", "15", "25", "26", "30", "9", "17", "16", "18", "20"], "num_clicks_accrued": [0, 0, 0, 0, 0, 0, 0, 0, 0, 0, 0, 0, 0], "stateRewards": ["", 1, 1, 1, -3, -7, -1, -41, -10, 20, -72, -63, 1, -4, -2, 2, -66, 30, -84, -2, 49, 23, 71, -1, -4, 4, -12, 67, 5, 18, -16, 88, 56, -5], "withholdReward": false, "trial_id": "mdp_trial_28", "block": "test", "trialIndex": 29, "score": 12.350000000000009, "costs": -29.649999999999995, "simulationMode": [null, null, null, null, null], "rewards": [1, -4, -2, -2, 49], "path": ["0", "0", "12", "13", "14", "19", "20"], "rt": [37675, 124, 47, 133, 51], "actions": ["right", "right", "right", "down", "right"], "actionTimes": [38763, 39387, 39931, 40579, 41131], "queries": {"click": {"state": {"target": ["23", "24", "12", "13", "1", "2", "3", "4", "8", "7", "6", "5", "14", "19", "15", "25", "26", "30", "9", "17", "16", "18", "20"], "time": [1614, 2216, 2947, 3545, 4214, 4818, 5948, 6629, 7330, 8229, 11466, 14783, 17800, 18666, 19255, 20501, 21203, 22032, 23618, 26616, 29669, 32820, 35787]}, "edge": {"target": [], "time": []}}, "mouseover": {"state": {"target": ["23", "24", "0", "12", "13", "1", "2", "3", "3", "4", "8", "7", "6", "5", "18", "14", "19", "15", "25", "26", "30", "24", "10", "11", "9", "8", "10", "2", "7", "15", "17", "16", "18", "19", "20", "21"], "time": [1557, 2072, 2538, 2755, 3294, 3988, 4609, 5244, 5743, 6405, 7040, 7973, 8725, 12142, 15644, 16007, 18390, 19191, 20275, 20943, 21834, 22629, 23031, 23195, 23562, 23947, 24127, 25926, 25978, 26414, 26594, 27829, 30160, 33446, 33744, 36378]}, "edge": {"target": [], "time": []}}, "mouseout": {"state": {"target": ["0", "23", "24", "0", "12", "13", "1", "2", "3", "3", "4", "3", "8", "7", "6", "5", "6", "18", "14", "19", "14", "15", "25", "26", "25", "30", "24", "10", "11", "9", "8", "10", "2", "7", "15", "17", "16", "18", "19", "20", "21"], "time": [1440, 2040, 2344, 2622, 3256, 3668, 4296, 5189, 5355, 6359, 6955, 7005, 7829, 8509, 11890, 15558, 15607, 15876, 18341, 18975, 19075, 19625, 20512, 21592, 21779, 22558, 22644, 23045, 23208, 23896, 24045, 25892, 25943, 26026, 26463, 27409, 30097, 33344, 33695, 36314, 42150]}, "edge": {"target": [], "time": []}}}, "displayed_time": "41.63", "trialTime": 42650, "trial_type": "mouselab-mdp", "trial_index": 36, "time_elapsed": 994230, "internal_node_id": "0.0-6.0-1.0-27.0"}}, {"uniqueid": "w54387959:a75836837", "current_trial": 37, "dateTime": 1693581706011, "trialdata": {"revealed_states": [], "clicked_states": ["1", "2", "23", "24", "12", "13", "25", "26", "30", "27", "29", "28", "31"], "num_clicks_accrued": [0, 0, 0, 0, 0, 0, 0, 0, 0, 0, 0, 0, 0], "stateRewards": ["", -2, 4, -7, -3, -76, 39, -28, 10, 14, 12, 60, 2, -3, 6, -10, 88, -34, -41, -3, 72, -13, -56, 1, 3, 2, 8, -51, 23, -57, 1, 14, -46, -16], "withholdReward": false, "trial_id": "mdp_trial_29", "block": "test", "trialIndex": 30, "score": 24.049999999999997, "costs": -12.950000000000001, "simulationMode": [null, null, null, null, null, null], "rewards": [1, 3, 2, 8, 23], "path": ["0", "0", "23", "24", "25", "26", "28"], "rt": [18805, 857, 273, 328, 104, 144], "actions": ["left", "left", "left", "left", "up", "right"], "actionTimes": [20180, 21040, 21817, 22642, 23249, 23889], "queries": {"click": {"state": {"target": ["1", "2", "23", "24", "12", "13", "25", "26", "30", "27", "29", "28", "31"], "time": [1998, 2704, 3949, 4481, 5481, 6000, 7032, 7997, 8782, 9749, 12568, 15370, 18385]}, "edge": {"target": [], "time": []}}, "mouseover": {"state": {"target": ["1", "2", "23", "23", "24", "0", "12", "13", "25", "25", "23", "26", "30", "27", "29", "26", "28", "24", "31"], "time": [1841, 2523, 3057, 3440, 4258, 4890, 5007, 5857, 6609, 6859, 7509, 7807, 8441, 9592, 10374, 13177, 13428, 16013, 16078]}, "edge": {"target": [], "time": []}}, "mouseout": {"state": {"target": ["0", "1", "2", "23", "23", "24", "23", "0", "12", "13", "23", "24", "25", "25", "24", "23", "25", "26", "25", "30", "25", "27", "27", "29", "26", "28", "24", "31"], "time": [991, 2439, 2940, 3210, 4206, 4810, 4857, 4956, 5691, 6395, 6507, 6573, 6690, 7440, 7475, 7591, 7725, 8224, 8341, 9174, 9257, 9759, 10157, 13112, 13259, 15978, 16042, 25012]}, "edge": {"target": [], "time": []}}}, "displayed_time": "24.38", "trialTime": 25570, "trial_type": "mouselab-mdp", "trial_index": 37, "time_elapsed": 1020041, "internal_node_id": "0.0-6.0-1.0-28.0"}}, {"uniqueid": "w54387959:a75836837", "current_trial": 38, "dateTime": 1693581732964, "trialdata": {"revealed_states": [], "clicked_states": ["12", "13", "23", "24", "1", "2", "3", "14", "4", "8", "5", "7", "6", "9"], "num_clicks_accrued": [0, 0, 0, 0, 0, 0, 0, 0, 0, 0, 0, 0, 0], "stateRewards": ["", 2, -1, 8, -2, -16, 69, -39, -7, -13, -27, -86, 2, -2, 2, 13, -34, -16, -20, -5, 19, 81, 32, -2, -1, 2, -14, 20, 80, 58, 4, 70, 12, 73], "withholdReward": false, "trial_id": "mdp_trial_30", "block": "test", "trialIndex": 31, "score": 62.1, "costs": -13.9, "simulationMode": [null, null, null, null, null, null], "rewards": [2, -1, 8, -2, 69], "path": ["0", "0", "1", "2", "3", "4", "6"], "rt": [20160, 630, 306, 122, 21, 507], "actions": ["up", "up", "up", "up", "right", "right"], "actionTimes": [21257, 21889, 22706, 23323, 23841, 24859], "queries": {"click": {"state": {"target": ["12", "13", "23", "24", "1", "2", "3", "14", "4", "8", "5", "7", "6", "9"], "time": [2104, 2605, 3621, 4106, 5009, 5474, 6487, 7420, 8308, 9039, 10090, 13440, 16791, 19624]}, "edge": {"target": [], "time": []}}, "mouseover": {"state": {"target": ["23", "0", "12", "13", "0", "23", "23", "24", "1", "2", "3", "7", "18", "14", "18", "7", "4", "8", "5", "7", "6", "4", "3", "9", "8"], "time": [1516, 1879, 1946, 2444, 3146, 3181, 3481, 3996, 4513, 5379, 6179, 6847, 6904, 7119, 7963, 8019, 8080, 8831, 9763, 10782, 14148, 17314, 17367, 17681, 20351]}, "edge": {"target": [], "time": []}}, "mouseout": {"state": {"target": ["22", "12", "0", "23", "0", "12", "13", "12", "0", "23", "23", "24", "1", "2", "3", "7", "18", "14", "18", "7", "4", "3", "8", "5", "4", "7", "6", "4", "3", "9", "8", "28"], "time": [446, 648, 1479, 1614, 1895, 2115, 3114, 3128, 3162, 3247, 3946, 4432, 5198, 6113, 6812, 6882, 6963, 7912, 7980, 8030, 8716, 8796, 9465, 10497, 10730, 13998, 17297, 17332, 17383, 20299, 20367, 26120]}, "edge": {"target": [], "time": []}}}, "displayed_time": "25.35", "trialTime": 26706, "trial_type": "mouselab-mdp", "trial_index": 38, "time_elapsed": 1046993, "internal_node_id": "0.0-6.0-1.0-29.0"}}, {"uniqueid": "w54387959:a75836837", "current_trial": 39, "dateTime": 1693581750932, "trialdata": {"revealed_states": [], "clicked_states": ["12", "13", "23", "24", "1", "2", "3", "8", "4", "9", "11"], "num_clicks_accrued": [0, 0, 0, 0, 0, 0, 0, 0, 0, 0, 0, 0, 0], "stateRewards": ["", 2, 3, -6, -5, -3, 55, 40, 11, 61, 11, 51, 2, -4, -6, 9, -25, 29, -15, -6, 7, -77, -2, -2, -4, 1, 14, -43, -1, 56, -12, -54, 41, -74], "withholdReward": false, "trial_id": "mdp_trial_31", "block": "test", "trialIndex": 32, "score": 62.35, "costs": -8.65, "simulationMode": [null, null, null, null, null, null], "rewards": [2, 3, -6, 11, 61], "path": ["0", "0", "1", "2", "3", "8", "9"], "rt": [11959, 578, 193, 143, 20, 94], "actions": ["up", "up", "up", "up", "left", "up"], "actionTimes": [12888, 13468, 14173, 14806, 15316, 15926], "queries": {"click": {"state": {"target": ["12", "13", "23", "24", "1", "2", "3", "8", "4", "9", "11"], "time": [1452, 1918, 2951, 3517, 4439, 5017, 5689, 6351, 6969, 8070, 11054]}, "edge": {"target": [], "time": []}}, "mouseover": {"state": {"target": ["12", "13", "0", "23", "24", "23", "24", "1", "2", "3", "8", "4", "9", "11", "8", "10"], "time": [1293, 1896, 2399, 2435, 2610, 2759, 3301, 3995, 4860, 5544, 6202, 6679, 7861, 8594, 11613, 11894]}, "edge": {"target": [], "time": []}}, "mouseout": {"state": {"target": ["24", "0", "12", "13", "12", "0", "23", "24", "23", "24", "1", "2", "3", "8", "8", "3", "4", "9", "11", "8", "10", "0"], "time": [445, 1244, 1746, 2347, 2397, 2434, 2494, 2710, 3227, 3893, 4616, 5462, 6145, 6361, 6610, 6644, 7310, 8529, 11561, 11628, 16963, 17313]}, "edge": {"target": [], "time": []}}}, "displayed_time": "16.43", "trialTime": 17734, "trial_type": "mouselab-mdp", "trial_index": 39, "time_elapsed": 1064962, "internal_node_id": "0.0-6.0-1.0-30.0"}}, {"uniqueid": "w54387959:a75836837", "current_trial": 40, "dateTime": 1693581768917, "trialdata": {"revealed_states": [], "clicked_states": ["12", "13", "23", "24", "1", "2", "3", "4", "8", "9", "10"], "num_clicks_accrued": [0, 0, 0, 0, 0, 0, 0, 0, 0, 0, 0, 0, 0], "stateRewards": ["", -1, 1, 8, -8, -49, 62, -78, 16, 28, -81, 78, -2, -3, -1, -4, 67, 49, -2, -13, -16, -39, 83, 1, -4, 4, -5, -20, 7, 84, 7, -32, -59, 19], "withholdReward": false, "trial_id": "mdp_trial_32", "block": "test", "trialIndex": 33, "score": 43.35, "costs": -8.65, "simulationMode": [null, null, null, null, null, null], "rewards": [-1, 1, 8, 16, 28], "path": ["0", "0", "1", "2", "3", "8", "9"], "rt": [12143, 593, 104, 240, 46, 153], "actions": ["up", "up", "up", "up", "left", "up"], "actionTimes": [13403, 13999, 14620, 15357, 15892, 16572], "queries": {"click": {"state": {"target": ["12", "13", "23", "24", "1", "2", "3", "4", "8", "9", "10"], "time": [1902, 2670, 3366, 3919, 4818, 5335, 6221, 6885, 7817, 8467, 11271]}, "edge": {"target": [], "time": []}}, "mouseover": {"state": {"target": ["12", "13", "23", "24", "1", "2", "3", "4", "8", "9", "10", "8"], "time": [1713, 2492, 3226, 3721, 4528, 5178, 5961, 6695, 7260, 8349, 9029, 12046]}, "edge": {"target": [], "time": []}}, "mouseout": {"state": {"target": ["0", "12", "13", "12", "23", "24", "1", "2", "2", "3", "4", "3", "8", "9", "8", "10", "8"], "time": [1026, 2410, 3017, 3060, 3662, 4393, 5044, 5778, 5936, 6662, 7193, 7231, 8243, 8793, 8943, 11470, 12094]}, "edge": {"target": [], "time": []}}}, "displayed_time": "17.06", "trialTime": 17764, "trial_type": "mouselab-mdp", "trial_index": 40, "time_elapsed": 1082946, "internal_node_id": "0.0-6.0-1.0-31.0"}}, {"uniqueid": "w54387959:a75836837", "current_trial": 41, "dateTime": 1693581787702, "trialdata": {"revealed_states": [], "clicked_states": ["23", "24", "12", "13", "1", "2", "3", "4", "8", "5", "6"], "num_clicks_accrued": [0, 0, 0, 0, 0, 0, 0, 0, 0, 0, 0, 0, 0], "stateRewards": ["", 1, -1, 1, 13, 31, -56, 72, 2, 41, 5, 63, -2, -3, -2, 3, -71, -26, 52, 13, -31, 24, -67, 2, -2, 5, 4, 66, 43, 72, 9, 86, -26, 44], "withholdReward": false, "trial_id": "mdp_trial_33", "block": "test", "trialIndex": 34, "score": 36.35, "costs": -8.65, "simulationMode": [null, null, null, null, null, null], "rewards": [1, -1, 1, 13, 31], "path": ["0", "0", "1", "2", "3", "4", "5"], "rt": [12666, 695, 291, 206, 34, 86], "actions": ["up", "up", "up", "up", "right", "up"], "actionTimes": [13769, 14466, 15274, 15970, 16500, 17082], "queries": {"click": {"state": {"target": ["23", "24", "12", "13", "1", "2", "3", "4", "8", "5", "6"], "time": [1851, 2470, 3702, 4171, 5185, 5854, 6852, 7851, 8637, 9253, 12168]}, "edge": {"target": [], "time": []}}, "mouseover": {"state": {"target": ["23", "24", "0", "12", "12", "13", "1", "2", "3", "4", "8", "5", "6", "7"], "time": [1745, 2309, 2943, 2979, 3545, 3976, 4681, 5660, 6595, 7679, 8514, 9070, 9865, 12877]}, "edge": {"target": [], "time": []}}, "mouseout": {"state": {"target": ["8", "2", "1", "23", "24", "23", "0", "12", "12", "13", "1", "2", "3", "3", "3", "4", "3", "8", "5", "6", "6"], "time": [378, 441, 727, 2259, 2859, 2926, 2959, 3045, 3909, 4578, 5443, 6344, 6862, 7260, 7614, 8227, 8328, 8931, 9711, 12351, 12813]}, "edge": {"target": [], "time": []}}}, "displayed_time": "17.58", "trialTime": 18546, "trial_type": "mouselab-mdp", "trial_index": 41, "time_elapsed": 1101731, "internal_node_id": "0.0-6.0-1.0-32.0"}}, {"uniqueid": "w54387959:a75836837", "current_trial": 42, "dateTime": 1693581810502, "trialdata": {"revealed_states": [], "clicked_states": ["12", "13", "23", "24", "25", "14", "26", "30", "31", "32", "33"], "num_clicks_accrued": [0, 0, 0, 0, 0, 0, 0, 0, 0, 0, 0, 0, 0], "stateRewards": ["", 1, -3, -6, -5, 47, 80, -29, 11, -71, 10, -29, -2, 3, -6, 12, 2, -78, -6, 8, 34, -16, -5, -1, 3, 3, -13, 84, -36, -62, -3, -27, 66, 15], "withholdReward": false, "trial_id": "mdp_trial_34", "block": "test", "trialIndex": 35, "score": 56.35, "costs": -11.65, "simulationMode": [null, null, null, null, null, null], "rewards": [-1, 3, 3, -3, 66], "path": ["0", "0", "23", "24", "25", "30", "32"], "rt": [16089, 1650, 58, 170, 25, 8], "actions": ["left", "left", "left", "left", "down", "down"], "actionTimes": [17193, 18846, 19398, 20078, 20598, 21116], "queries": {"click": {"state": {"target": ["12", "13", "23", "24", "25", "14", "26", "30", "31", "32", "33"], "time": [1860, 2441, 3142, 3635, 5378, 6594, 7662, 8449, 9349, 12512, 15580]}, "edge": {"target": [], "time": []}}, "mouseover": {"state": {"target": ["12", "13", "0", "23", "24", "1", "25", "14", "13", "12", "28", "26", "30", "31", "32", "33"], "time": [1668, 2301, 2801, 2867, 3469, 4453, 5204, 6368, 7018, 7052, 7304, 7538, 8085, 9172, 9803, 13619]}, "edge": {"target": [], "time": []}}, "mouseout": {"state": {"target": ["7", "1", "0", "12", "13", "12", "0", "23", "24", "23", "1", "24", "25", "24", "14", "13", "12", "28", "26", "25", "30", "31", "32", "33"], "time": [519, 567, 1618, 2218, 2751, 2786, 2838, 3437, 4001, 4088, 4518, 4954, 5801, 5835, 7003, 7036, 7072, 7355, 7955, 8038, 9138, 9662, 12923, 15710]}, "edge": {"target": [], "time": []}}}, "displayed_time": "21.63", "trialTime": 22518, "trial_type": "mouselab-mdp", "trial_index": 42, "time_elapsed": 1124532, "internal_node_id": "0.0-6.0-1.0-33.0"}}, {"uniqueid": "w54387959:a75836837", "current_trial": 43, "dateTime": 1693581848791, "trialdata": {"revealed_states": [], "clicked_states": ["1", "2", "23", "24", "12", "13", "25", "26", "30", "3", "8", "4", "14", "15", "19", "17", "16", "18", "20", "21", "22"], "num_clicks_accrued": [0, 0, 0, 0, 0, 0, 0, 0, 0, 0, 0, 0, 0], "stateRewards": ["", 1, -2, 4, 7, -43, -83, -60, -5, -86, -80, 83, -1, -2, 6, 11, -15, 21, 13, 9, 29, -49, 11, -1, 4, -6, -11, 87, 40, 63, -8, -39, -11, 62], "withholdReward": false, "trial_id": "mdp_trial_35", "block": "test", "trialIndex": 36, "score": 15.650000000000006, "costs": -25.349999999999994, "simulationMode": [null, null, null, null, null, null], "rewards": [-1, -2, 6, 9, 29], "path": ["0", "0", "12", "13", "14", "19", "20"], "rt": [31325, 1036, 369, 302, 129, 170], "actions": ["right", "right", "right", "right", "down", "right"], "actionTimes": [32762, 33801, 34677, 35491, 36123, 36795], "queries": {"click": {"state": {"target": ["1", "2", "23", "24", "12", "13", "25", "26", "30", "3", "8", "4", "14", "15", "19", "17", "16", "18", "20", "21", "22"], "time": [2058, 2890, 3723, 4273, 5209, 5743, 6660, 7324, 8293, 9610, 10361, 11028, 12976, 14444, 16427, 17294, 20395, 23412, 26346, 29397, 32179]}, "edge": {"target": [], "time": []}}, "mouseover": {"state": {"target": ["1", "2", "23", "24", "12", "13", "25", "26", "30", "30", "2", "3", "8", "4", "7", "6", "15", "14", "15", "15", "19", "17", "19", "14", "17", "16", "18", "20", "21", "22"], "time": [1834, 2617, 3468, 4052, 5073, 5602, 6482, 7117, 7667, 8116, 9001, 9419, 10217, 10802, 11569, 12135, 12569, 12719, 13403, 13721, 14971, 15854, 16122, 16702, 16804, 17921, 21054, 24622, 27054, 30038]}, "edge": {"target": [], "time": []}}, "mouseout": {"state": {"target": ["30", "31", "0", "1", "2", "23", "24", "23", "12", "13", "12", "25", "26", "25", "30", "30", "2", "3", "8", "3", "4", "7", "6", "15", "14", "15", "15", "14", "19", "14", "15", "17", "19", "14", "17", "16", "18", "20", "21"], "time": [667, 715, 1734, 2431, 3332, 3999, 4599, 4650, 5516, 6049, 6082, 7049, 7600, 7653, 7735, 8867, 9167, 9622, 10671, 10753, 11534, 11586, 12255, 12634, 13351, 13453, 14771, 14884, 15502, 15554, 15604, 16038, 16651, 16735, 17588, 20886, 24540, 26936, 29857]}, "edge": {"target": [], "time": []}}}, "displayed_time": "37.30", "trialTime": 38067, "trial_type": "mouselab-mdp", "trial_index": 43, "time_elapsed": 1162821, "internal_node_id": "0.0-6.0-1.0-34.0"}}, {"uniqueid": "w54387959:a75836837", "current_trial": 44, "dateTime": 1693581876600, "trialdata": {"revealed_states": [], "clicked_states": ["12", "13", "23", "24", "1", "2", "3", "8", "4", "25", "26", "30", "29", "27", "28", "6"], "num_clicks_accrued": [0, 0, 0, 0, 0, 0, 0, 0, 0, 0, 0, 0, 0], "stateRewards": ["", 1, 1, -5, 8, -6, 45, 16, -6, -7, -22, -38, -1, -4, 8, -11, -16, 21, -45, -15, -59, -32, 42, -1, 3, 6, 11, -7, 34, -27, -8, 85, 43, -9], "withholdReward": false, "trial_id": "mdp_trial_36", "block": "test", "trialIndex": 37, "score": 33, "costs": -17, "simulationMode": [null, null, null, null, null], "rewards": [1, 1, -5, 8, 45], "path": ["0", "0", "1", "2", "3", "4", "6"], "rt": [21801, 478, 154, 407, 107], "actions": ["up", "up", "up", "right", "right"], "actionTimes": [22924, 23924, 24580, 25483, 26084], "queries": {"click": {"state": {"target": ["12", "13", "23", "24", "1", "2", "3", "8", "4", "25", "26", "30", "29", "27", "28", "6"], "time": [1629, 2147, 2880, 3398, 4095, 4562, 5282, 5995, 6628, 7831, 8564, 9247, 10000, 13098, 16183, 19133]}, "edge": {"target": [], "time": []}}, "mouseover": {"state": {"target": ["12", "13", "0", "23", "24", "1", "2", "3", "8", "4", "28", "25", "26", "30", "29", "27", "28", "2", "6"], "time": [1488, 2038, 2470, 2670, 3205, 3887, 4457, 5073, 5787, 6389, 7175, 7655, 8304, 9039, 9956, 10606, 13941, 16742, 17359]}, "edge": {"target": [], "time": []}}, "mouseout": {"state": {"target": ["22", "0", "12", "13", "12", "0", "23", "24", "1", "2", "3", "3", "8", "3", "4", "2", "28", "25", "26", "25", "30", "25", "29", "27", "28", "2"], "time": [506, 1439, 2004, 2421, 2456, 2521, 3170, 3754, 4307, 5023, 5424, 5721, 6272, 6358, 7004, 7060, 7408, 7960, 8790, 8888, 9574, 9707, 10473, 13422, 16642, 17056]}, "edge": {"target": [], "time": []}}}, "displayed_time": "26.58", "trialTime": 27540, "trial_type": "mouselab-mdp", "trial_index": 44, "time_elapsed": 1190630, "internal_node_id": "0.0-6.0-1.0-35.0"}}, {"uniqueid": "w54387959:a75836837", "current_trial": 45, "dateTime": 1693581902065, "trialdata": {"revealed_states": [], "clicked_states": ["12", "13", "14", "19", "15", "23", "24", "25", "1", "2", "3", "4", "8", "9", "10", "11"], "num_clicks_accrued": [0, 0, 0, 0, 0, 0, 0, 0, 0, 0, 0, 0, 0], "stateRewards": ["", 1, 4, -8, -5, -15, -7, 21, 13, -30, 40, -65, 1, 1, 5, -14, 35, 27, -38, -11, 36, -58, -47, -2, 4, -3, 13, -16, -49, 22, 15, -56, -44, -10], "withholdReward": false, "trial_id": "mdp_trial_37", "block": "test", "trialIndex": 38, "score": 34.2, "costs": -15.8, "simulationMode": [null, null, null, null, null, null], "rewards": [1, 4, -8, 13, 40], "path": ["0", "0", "1", "2", "3", "8", "10"], "rt": [18186, 1898, 12, 41, 8, 62], "actions": ["up", "up", "up", "up", "left", "down"], "actionTimes": [19393, 21295, 21804, 22350, 22853, 23423], "queries": {"click": {"state": {"target": ["12", "13", "14", "19", "15", "23", "24", "25", "1", "2", "3", "4", "8", "9", "10", "11"], "time": [1746, 2384, 2994, 3631, 4481, 6247, 7065, 7779, 8847, 9445, 10030, 10631, 11217, 12165, 15282, 18182]}, "edge": {"target": [], "time": []}}, "mouseover": {"state": {"target": ["12", "13", "14", "19", "15", "23", "24", "25", "1", "2", "3", "4", "8", "9", "10", "11"], "time": [1588, 2173, 2922, 3471, 4037, 5503, 6857, 7562, 8673, 9188, 9888, 10408, 11030, 11924, 12808, 15791]}, "edge": {"target": [], "time": []}}, "mouseout": {"state": {"target": ["6", "7", "1", "12", "13", "14", "19", "14", "15", "15", "23", "24", "25", "1", "2", "3", "4", "8", "8", "9", "8", "10", "11", "23"], "time": [604, 653, 705, 2120, 2836, 3406, 3727, 3986, 4492, 4937, 6673, 7492, 8356, 9104, 9823, 10354, 10924, 11674, 11775, 12555, 12705, 15659, 24344, 24460]}, "edge": {"target": [], "time": []}}}, "displayed_time": "23.93", "trialTime": 25199, "trial_type": "mouselab-mdp", "trial_index": 45, "time_elapsed": 1216095, "internal_node_id": "0.0-6.0-1.0-36.0"}}, {"uniqueid": "w54387959:a75836837", "current_trial": 46, "dateTime": 1693581922666, "trialdata": {"revealed_states": [], "clicked_states": ["12", "13", "14", "19", "15", "23", "24", "25", "1", "2", "3", "4", "8", "9", "10"], "num_clicks_accrued": [0, 0, 0, 0, 0, 0, 0, 0, 0, 0, 0, 0, 0], "stateRewards": ["", 2, 3, 6, -12, -29, 12, 87, 4, 35, -30, 67, 2, 3, -5, -9, 44, 69, -8, 1, 45, -8, 28, -2, -1, -8, 11, -12, -5, 81, 9, 87, 82, 88], "withholdReward": false, "trial_id": "mdp_trial_38", "block": "test", "trialIndex": 39, "score": 36.35, "costs": -13.65, "simulationMode": [null, null, null, null, null, null], "rewards": [2, 3, 6, 4, 35], "path": ["0", "0", "1", "2", "3", "8", "9"], "rt": [14372, 902, 55, 140, 34, 52], "actions": ["up", "up", "up", "up", "left", "up"], "actionTimes": [15314, 16219, 16787, 17428, 17964, 18532], "queries": {"click": {"state": {"target": ["12", "13", "14", "19", "15", "23", "24", "25", "1", "2", "3", "4", "8", "9", "10"], "time": [1500, 1965, 2572, 3265, 3932, 5401, 5951, 6455, 7436, 7951, 8635, 9284, 10085, 10822, 13601]}, "edge": {"target": [], "time": []}}, "mouseover": {"state": {"target": ["12", "13", "14", "19", "15", "0", "23", "24", "25", "1", "2", "3", "4", "8", "9", "10"], "time": [1292, 1895, 2360, 3043, 3774, 4908, 5209, 5825, 6258, 7241, 7794, 8431, 9061, 9911, 10612, 11294]}, "edge": {"target": [], "time": []}}, "mouseout": {"state": {"target": ["0", "12", "13", "14", "19", "14", "15", "0", "23", "24", "25", "1", "2", "3", "4", "3", "8", "9", "9", "8", "10", "1", "0"], "time": [1244, 1808, 2310, 2960, 3574, 3641, 4425, 5078, 5774, 6241, 6892, 7564, 8358, 8993, 9609, 9725, 10561, 10933, 11179, 11263, 14260, 19598, 19633]}, "edge": {"target": [], "time": []}}}, "displayed_time": "19.03", "trialTime": 20348, "trial_type": "mouselab-mdp", "trial_index": 46, "time_elapsed": 1236695, "internal_node_id": "0.0-6.0-1.0-37.0"}}, {"uniqueid": "w54387959:a75836837", "current_trial": 47, "dateTime": 1693581944953, "trialdata": {"revealed_states": [], "clicked_states": ["1", "2", "12", "13", "23", "24", "14", "25", "30", "31", "32", "33"], "num_clicks_accrued": [0, 0, 0, 0, 0, 0, 0, 0, 0, 0, 0, 0, 0], "stateRewards": ["", -1, -3, 1, 13, -64, -29, 12, -4, -33, 50, 56, 2, -3, 4, 11, -64, -58, -55, 12, 47, 38, -25, -2, 2, 5, -15, 85, 7, 84, 10, 8, 57, 26], "withholdReward": false, "trial_id": "mdp_trial_39", "block": "test", "trialIndex": 40, "score": 61.8, "costs": -10.200000000000001, "simulationMode": [null, null, null, null, null, null], "rewards": [-2, 2, 5, 10, 57], "path": ["0", "0", "23", "24", "25", "30", "32"], "rt": [16184, 1104, 182, 179, 4, 97], "actions": ["left", "left", "left", "left", "down", "down"], "actionTimes": [17276, 18383, 19073, 19753, 20262, 20873], "queries": {"click": {"state": {"target": ["1", "2", "12", "13", "23", "24", "14", "25", "30", "31", "32", "33"], "time": [1844, 2530, 3368, 4231, 5027, 5615, 6729, 7493, 8629, 9759, 13180, 16080]}, "edge": {"target": [], "time": []}}, "mouseover": {"state": {"target": ["1", "1", "2", "12", "13", "23", "24", "0", "14", "25", "0", "23", "30", "26", "31", "32", "30", "33"], "time": [1536, 1606, 2372, 3021, 3671, 4768, 5422, 6122, 6522, 7286, 7936, 8121, 8454, 9203, 9675, 10103, 13956, 14324]}, "edge": {"target": [], "time": []}}, "mouseout": {"state": {"target": ["0", "1", "1", "2", "12", "13", "12", "23", "24", "0", "12", "13", "14", "23", "24", "25", "24", "23", "0", "23", "30", "25", "26", "25", "31", "32", "30"], "time": [1487, 1570, 2234, 2804, 3619, 4535, 4586, 5286, 6053, 6154, 6356, 6472, 7071, 7169, 7223, 7855, 7888, 7919, 7969, 8136, 8985, 9086, 9286, 9407, 9987, 13837, 14236]}, "edge": {"target": [], "time": []}}}, "displayed_time": "21.37", "trialTime": 21976, "trial_type": "mouselab-mdp", "trial_index": 47, "time_elapsed": 1258983, "internal_node_id": "0.0-6.0-1.0-38.0"}}, {"uniqueid": "w54387959:a75836837", "current_trial": 48, "dateTime": 1693581965275, "trialdata": {"revealed_states": [], "clicked_states": ["23", "24", "12", "13", "1", "2", "3", "4", "8", "9", "10", "11"], "num_clicks_accrued": [0, 0, 0, 0, 0, 0, 0, 0, 0, 0, 0, 0, 0], "stateRewards": ["", 1, 3, 3, -10, 52, 68, 59, 12, 7, 49, 21, -2, -3, -4, -2, -2, 63, 63, -4, 44, 43, -76, -2, -3, -6, 13, 48, 36, 12, -5, -36, -33, -11], "withholdReward": false, "trial_id": "mdp_trial_40", "block": "test", "trialIndex": 41, "score": 57.2, "costs": -10.8, "simulationMode": [null, null, null, null, null, null], "rewards": [1, 3, 3, 12, 49], "path": ["0", "0", "1", "2", "3", "8", "10"], "rt": [13521, 1871, 91, 52, 13, 33], "actions": ["up", "up", "up", "up", "left", "down"], "actionTimes": [14653, 16526, 17118, 17662, 18188, 18728], "queries": {"click": {"state": {"target": ["23", "24", "12", "13", "1", "2", "3", "4", "8", "9", "10", "11"], "time": [1647, 2247, 3131, 3614, 4248, 4830, 5497, 6063, 6702, 7419, 10349, 13283]}, "edge": {"target": [], "time": []}}, "mouseover": {"state": {"target": ["23", "24", "0", "12", "13", "1", "2", "3", "4", "8", "9", "10", "11"], "time": [1557, 2089, 2672, 2805, 3388, 3972, 4689, 5324, 5889, 6556, 7272, 8006, 11073]}, "edge": {"target": [], "time": []}}, "mouseout": {"state": {"target": ["33", "24", "23", "0", "23", "24", "23", "0", "12", "13", "1", "2", "3", "4", "3", "8", "9", "8", "10"], "time": [339, 437, 589, 1439, 2022, 2605, 2638, 2740, 3342, 3891, 4438, 5222, 5839, 6389, 6456, 7208, 7845, 7926, 10806]}, "edge": {"target": [], "time": []}}}, "displayed_time": "19.24", "trialTime": 20046, "trial_type": "mouselab-mdp", "trial_index": 48, "time_elapsed": 1279304, "internal_node_id": "0.0-6.0-1.0-39.0"}}, {"uniqueid": "w54387959:a75836837", "current_trial": 49, "dateTime": 1693582004383, "trialdata": {"rt": 39102, "response": {"Q0": "$-2 to $2", "Q1": "$-16 to $16", "Q2": "$-88 to $88", "Q3": "The cost for clicking on nodes varied between nodes.", "Q4": "Very motivated"}, "question_order": [0, 1, 2, 3, 4], "trial_id": "final_quiz_control", "trial_type": "survey-multi-choice", "trial_index": 49, "time_elapsed": 1318412, "internal_node_id": "0.0-6.0-2.0"}}, {"uniqueid": "w54387959:a75836837", "current_trial": 50, "dateTime": 1693582192642, "trialdata": {"rt": 188246, "response": {"Q0": "I would check the node value of the 2 closest to the spider. Whichever had the best values I would then explore further out. As soon as i had found a path which would give a good total value I would proceed rather than explore further.", "Q1": "Yes, i think my strategy became more streamlined as i got used to the process.", "Q2": "I didnt really find it difficult. As i became more familiar with the game i was able to move quickly through my steps."}, "trial_id": "self_report_control", "trial_type": "survey-text", "trial_index": 50, "time_elapsed": 1506672, "internal_node_id": "0.0-6.0-3.0"}}, {"uniqueid": "w54387959:a75836837", "current_trial": 51, "dateTime": 1693582230233, "trialdata": {"rt": 37586, "response": {"Q0": "Strongly agree", "Q1": "Disagree", "Q2": "Strongly agree", "Q3": "Strongly agree", "Q4": "Strongly disagree", "Q5": "Strongly agree", "Q6": "Strongly disagree"}, "question_order": [0, 1, 2, 3, 4, 5, 6], "trial_id": "self_report_2", "trial_type": "survey-multi-choice", "trial_index": 51, "time_elapsed": 1544263, "internal_node_id": "0.0-6.0-4.0"}}, {"uniqueid": "w54387959:a75836837", "current_trial": 52, "dateTime": 1693582252338, "trialdata": {"rt": 22099, "response": {"gender": "female", "age": "40", "colorblind": "0", "effort": "0"}, "trial_type": "survey-html-form", "trial_index": 52, "time_elapsed": 1566368, "internal_node_id": "0.0-6.0-5.0"}}, {"uniqueid": "w54387959:a75836837", "current_trial": 53, "dateTime": 1693582266974, "trialdata": {"rt": 14632, "response": {"Q0": "no", "Q1": "no", "Q2": ""}, "trial_type": "survey-text", "trial_index": 53, "time_elapsed": 1581004, "internal_node_id": "0.0-6.0-6.0"}}, {"uniqueid": "w54387959:a75836837", "current_trial": 54, "dateTime": 1693582296165, "trialdata": {"rt": 29186, "stimulus": "<h1>Completion Code Instructions (1/2)</h1>\n<br><br><br><br>\nYou have reached the end of the experiment! The completion code consists of two parts: (1) a code with 2 characters (2) a code with 6 characters. On this page, you will receive the second part of the code. The first part of the completion code will be on the next page.\n<br><br>\nThe second part of your completion code is: <b>EWEK22</b>\n<br><br>\nPlease note this down. Then, press 'Next' in order to find the first part of your completion code. Once the data has been saved, you will receive this code either in this window or in the original browser window where you started the experiment.\n <br><br>\n<h2 style='color: red;'>Note: this is <strong>NOT</strong> the full completion code. Copy this down and click 'Next' to get the full completion code on the next page.</h2>", "response": 0, "trial_type": "html-button-response", "trial_index": 54, "time_elapsed": 1610195, "internal_node_id": "0.0-6.0-7.0"}}, {"uniqueid": "w54387959:a75836837", "current_trial": 55, "dateTime": 1693582297170, "trialdata": {"success": true, "trial_type": "fullscreen", "trial_index": 55, "time_elapsed": 1611200, "internal_node_id": "0.0-7.0"}}], "questiondata": {"params": {"CODE": "C6DMOQA6", "MIN_TIME": 14, "inspectCost": 1, "startTime": "Fri Sep 01 2023 16:04:44 GMT+0100 (British Summer Time)", "bonusRate": 0.002, "variance": "1_2_4_8_44", "branching": "31123"}, "final_score": 1872.75}, "eventdata": [{"eventtype": "initialized", "value": null, "timestamp": 1693580684245, "interval": 0}, {"eventtype": "window_resize", "value": [1440, 815], "timestamp": 1693580684245, "interval": 0}, {"eventtype": "window_resize", "value": [1440, 815], "timestamp": 1693580684546, "interval": 301}, {"eventtype": "window_resize", "value": [1440, 900], "timestamp": 1693580688483, "interval": 3937}, {"eventtype": "window_resize", "value": [1440, 815], "timestamp": 1693582296380, "interval": 1607897}], "useragent": "Mozilla/5.0 (Macintosh; Intel Mac OS X 10_15_7) AppleWebKit/537.36 (KHTML, like Gecko) Chrome/115.0.0.0 Safari/537.36", "mode": "live", "id": "w54387959:a75836837", "status": "user data saved", "Beginhit": "2023-09-01 15:04:41.903286", "Beginexp": "2023-09-01 15:04:49.501912", "Endhit": "2023-09-01 15:31:37.864177", "psiturkStatus": 3, "browser": "<redacted>", "platform": "macos", "language": "en-GB"}