{"condition": 1, "counterbalance": 0, "assignmentId": "a55917422", "workerId": "w38103637", "hitId": "h90137465", "currenttrial": 6, "bonus": 0, "data": [{"uniqueid": "w38103637:a55917422", "current_trial": 0, "dateTime": 1693660277269, "trialdata": {"success": true, "trial_type": "fullscreen", "trial_index": 0, "time_elapsed": 2477, "internal_node_id": "0.0-0.0"}}, {"uniqueid": "w38103637:a55917422", "current_trial": 1, "dateTime": 1693660278663, "trialdata": {"view_history": [{"page_index": 0, "viewing_time": 1390}], "rt": 1390, "trial_id": "exp_instructions_misaligned", "trial_type": "instructions", "trial_index": 1, "time_elapsed": 3871, "internal_node_id": "0.0-1.0"}}, {"uniqueid": "w38103637:a55917422", "current_trial": 2, "dateTime": 1693660319094, "trialdata": {"view_history": [{"page_index": 0, "viewing_time": 6467}, {"page_index": 1, "viewing_time": 7018}, {"page_index": 2, "viewing_time": 21903}, {"page_index": 3, "viewing_time": 5040}], "rt": 40428, "trial_id": "mouselab_instructions_1_misaligned", "trial_type": "instructions", "trial_index": 2, "time_elapsed": 44301, "internal_node_id": "0.0-2.0-1.0"}}, {"uniqueid": "w38103637:a55917422", "current_trial": 3, "dateTime": 1693660330822, "trialdata": {"revealed_states": [], "clicked_states": [], "num_clicks_accrued": [0, 0, 0, 0, 0, 0, 0, 0, 0, 0, 0, 0, 0], "stateRewards": ["", -10, -10, 10, 10, 10, 10, 10, 10, -10, -10, -10, -10, 10, 10, -10, -10, -10, 10, 10, -10, -10, -10, -10, -10, 10, 10, -10, -10, 10, -10, 10, -10, 10], "withholdReward": false, "trial_id": "practice_1", "block": "test", "trialIndex": 0, "score": -6.5, "costs": 0, "simulationMode": [null, null, null, null, null], "rewards": [-10, -10, 10, 10, -10], "path": ["0", "0", "23", "24", "25", "26", "27"], "rt": [1829, 976, 153, 127, 1182], "actions": ["left", "left", "left", "up", "up"], "actionTimes": [3594, 5098, 5789, 6446, 8157], "queries": {"click": {"state": {"target": [], "time": []}, "edge": {"target": [], "time": []}}, "mouseover": {"state": {"target": ["22"], "time": [2513]}, "edge": {"target": [], "time": []}}, "mouseout": {"state": {"target": ["0", "22", "22"], "time": [2353, 2529, 7899]}, "edge": {"target": [], "time": []}}}, "displayed_time": "8.68", "trialTime": 11370, "trial_type": "mouselab-mdp", "trial_index": 3, "time_elapsed": 56030, "internal_node_id": "0.0-2.0-2.0-0.0"}}, {"uniqueid": "w38103637:a55917422", "current_trial": 4, "dateTime": 1693660341600, "trialdata": {"revealed_states": [], "clicked_states": [], "num_clicks_accrued": [0, 0, 0, 0, 0, 0, 0, 0, 0, 0, 0, 0, 0], "stateRewards": ["", -10, -10, 10, -10, -10, 10, -10, -10, -10, 10, -10, 10, -10, -10, -10, -10, -10, -10, 10, -10, 10, 10, -10, 10, 10, 10, 10, 10, 10, -10, -10, 10, 10], "withholdReward": false, "trial_id": "practice_2", "block": "test", "trialIndex": 1, "score": -26.5, "costs": 0, "simulationMode": [null, null, null, null, null], "rewards": [-10, -10, 10, -10, -10], "path": ["0", "0", "1", "2", "3", "8", "11"], "rt": [539, 121, 149, 270, 940], "actions": ["up", "up", "up", "left", "left"], "actionTimes": [4448, 5099, 5780, 6553, 8023], "queries": {"click": {"state": {"target": [], "time": []}, "edge": {"target": [], "time": []}}, "mouseover": {"state": {"target": [], "time": []}, "edge": {"target": [], "time": []}}, "mouseout": {"state": {"target": ["0"], "time": [3730]}, "edge": {"target": [], "time": []}}}, "displayed_time": "8.56", "trialTime": 10567, "trial_type": "mouselab-mdp", "trial_index": 4, "time_elapsed": 66808, "internal_node_id": "0.0-2.0-2.0-1.0"}}, {"uniqueid": "w38103637:a55917422", "current_trial": 5, "dateTime": 1693660348915, "trialdata": {"view_history": [{"page_index": 0, "viewing_time": 5727}, {"page_index": 1, "viewing_time": 1586}], "rt": 7313, "trial_id": "mouselab_instructions_2_misaligned", "trial_type": "instructions", "trial_index": 5, "time_elapsed": 74123, "internal_node_id": "0.0-2.0-3.0"}}], "questiondata": {"params": {"CODE": "C6DMOQA6", "MIN_TIME": 14, "inspectCost": 1, "startTime": "Sat Sep 02 2023 14:11:13 GMT+0100 (British Summer Time)", "bonusRate": 0.002, "variance": "1_2_4_8_44", "branching": "31123"}}, "eventdata": [{"eventtype": "initialized", "value": null, "timestamp": 1693660273409, "interval": 0}, {"eventtype": "window_resize", "value": [1024, 768], "timestamp": 1693660273409, "interval": 0}, {"eventtype": "focus", "value": "on", "timestamp": 1693660273577, "interval": 168}, {"eventtype": "window_resize", "value": [1024, 768], "timestamp": 1693660273788, "interval": 211}, {"eventtype": "window_resize", "value": [3072, 1728], "timestamp": 1693660276843, "interval": 3055}, {"eventtype": "focus", "value": "off", "timestamp": 1693660282519, "interval": 5676}, {"eventtype": "focus", "value": "on", "timestamp": 1693660284898, "interval": 2379}, {"eventtype": "focus", "value": "off", "timestamp": 1693660286745, "interval": 1847}, {"eventtype": "focus", "value": "on", "timestamp": 1693660288807, "interval": 2062}, {"eventtype": "focus", "value": "off", "timestamp": 1693660310899, "interval": 22092}, {"eventtype": "focus", "value": "on", "timestamp": 1693660313002, "interval": 2103}, {"eventtype": "focus", "value": "off", "timestamp": 1693660316561, "interval": 3559}, {"eventtype": "focus", "value": "on", "timestamp": 1693660318582, "interval": 2021}, {"eventtype": "window_resize", "value": [1024, 768], "timestamp": 1693660353405, "interval": 34823}], "useragent": "Mozilla/5.0 (Windows NT 10.0; Win64; x64; rv:109.0) Gecko/20100101 Firefox/117.0", "mode": "live", "id": "w38103637:a55917422", "status": "user data saved", "Beginhit": "2023-09-02 13:11:10.654919", "Beginexp": "2023-09-02 13:11:16.081321", "Endhit": null, "psiturkStatus": 6, "browser": "<redacted>", "platform": "windows", "language": "en-GB", "excludeReason": "quizfail"}