{"condition": 1, "counterbalance": 0, "assignmentId": "a88272462", "workerId": "w12888826", "hitId": "h66916538", "currenttrial": 62, "bonus": 0, "data": [{"uniqueid": "w12888826:a88272462", "current_trial": 0, "dateTime": 1691071320340, "trialdata": {"success": true, "trial_type": "fullscreen", "trial_index": 0, "time_elapsed": 11613, "internal_node_id": "0.0-0.0"}}, {"uniqueid": "w12888826:a88272462", "current_trial": 1, "dateTime": 1691071364458, "trialdata": {"view_history": [{"page_index": 0, "viewing_time": 44072}], "rt": 44073, "trial_id": "exp_instructions_misaligned", "trial_type": "instructions", "trial_index": 1, "time_elapsed": 55731, "internal_node_id": "0.0-1.0"}}, {"uniqueid": "w12888826:a88272462", "current_trial": 2, "dateTime": 1691071370753, "trialdata": {"success": true, "trial_type": "fullscreen", "trial_index": 2, "time_elapsed": 62027, "internal_node_id": "0.0-2.0-0.0"}}, {"uniqueid": "w12888826:a88272462", "current_trial": 3, "dateTime": 1691071995941, "trialdata": {"view_history": [{"page_index": 0, "viewing_time": 295937}, {"page_index": 1, "viewing_time": 219646}, {"page_index": 2, "viewing_time": 38124}, {"page_index": 3, "viewing_time": 71466}], "rt": 625175, "trial_id": "mouselab_instructions_1_misaligned", "trial_type": "instructions", "trial_index": 3, "time_elapsed": 687212, "internal_node_id": "0.0-2.0-1.0"}}, {"uniqueid": "w12888826:a88272462", "current_trial": 4, "dateTime": 1691072103572, "trialdata": {"revealed_states": [], "clicked_states": ["12", "14", "19", "20", "1", "2", "3", "24", "25", "27"], "num_clicks_accrued": [0, 0, 0, 0, 0, 0, 0, 0, 0, 0, 0, 0, 0], "stateRewards": ["", -10, -10, 10, 10, -10, -10, 10, -10, 10, -10, -10, 10, -10, -10, 10, 10, -10, -10, -10, 10, -10, -10, -10, 10, -10, -10, 10, 10, -10, 10, -10, 10, -10], "withholdReward": false, "trial_id": "practice_1", "block": "test", "trialIndex": 0, "score": -31.5, "costs": -5, "simulationMode": [null, null, null, null, null], "rewards": [10, -10, -10, -10, -10], "path": ["0", "0", "12", "13", "14", "19", "21"], "rt": [67020, 844, 491, 566, 517], "actions": ["right", "right", "right", "down", "down"], "actionTimes": [81966, 83408, 84497, 85723, 86846], "queries": {"click": {"state": {"target": ["12", "14", "19", "20", "1", "2", "3", "24", "25", "27"], "time": [21993, 23850, 26842, 30151, 36248, 37778, 39406, 45589, 48289, 51022]}, "edge": {"target": [], "time": []}}, "mouseover": {"state": {"target": ["12", "22", "12", "13", "14", "19", "21", "20", "21", "19", "22", "0", "1", "2", "3", "24", "25", "30", "26", "27", "26", "23", "2", "2", "1", "2", "1", "12", "1"], "time": [16534, 21106, 21444, 22409, 23601, 25103, 27570, 29248, 32558, 33808, 34814, 34960, 36009, 37271, 38415, 45252, 46316, 48927, 50351, 50724, 51908, 60683, 61019, 61968, 62746, 63988, 64930, 71225, 71599]}, "edge": {"target": [], "time": []}}, "mouseout": {"state": {"target": ["12", "17", "20", "19", "12", "0", "12", "22", "12", "13", "14", "19", "21", "20", "21", "19", "22", "0", "1", "2", "3", "3", "24", "25", "30", "25", "26", "27", "26", "23", "2", "2", "1", "2", "1", "12", "1", "21", "21"], "time": [1550, 6395, 10109, 10157, 13297, 13939, 16601, 21175, 22379, 23345, 25074, 27239, 29013, 31070, 32833, 34793, 34883, 35448, 36948, 38324, 39639, 42295, 46285, 48833, 50193, 50263, 50416, 51879, 51995, 60748, 61481, 62445, 63728, 64164, 69210, 71309, 78981, 96507, 99164]}, "edge": {"target": [], "time": []}}}, "displayed_time": "87.45", "trialTime": 105395, "trial_type": "mouselab-mdp", "trial_index": 4, "time_elapsed": 794845, "internal_node_id": "0.0-2.0-2.0-0.0"}}, {"uniqueid": "w12888826:a88272462", "current_trial": 5, "dateTime": 1691072162676, "trialdata": {"revealed_states": [], "clicked_states": ["12", "13", "14", "2", "3", "23", "25", "15", "24", "19"], "num_clicks_accrued": [0, 0, 0, 0, 0, 0, 0, 0, 0, 0, 0, 0, 0], "stateRewards": ["", 10, 10, 10, -10, 10, 10, -10, 10, -10, -10, 10, 10, 10, -10, -10, -10, 10, 10, 10, -10, -10, -10, -10, -10, -10, -10, 10, 10, -10, 10, 10, 10, -10], "withholdReward": false, "trial_id": "practice_2", "block": "test", "trialIndex": 1, "score": 8.5, "costs": -5, "simulationMode": [null, null, null, null, null], "rewards": [10, 10, -10, 10, -10], "path": ["0", "0", "12", "13", "14", "19", "21"], "rt": [34746, 630, 179, 1510, 359], "actions": ["right", "right", "right", "down", "down"], "actionTimes": [39276, 40520, 41309, 43408, 44417], "queries": {"click": {"state": {"target": ["12", "13", "14", "2", "3", "23", "25", "15", "24", "19"], "time": [8652, 10060, 13603, 15722, 17879, 20378, 21950, 23907, 28292, 30263]}, "edge": {"target": [], "time": []}}, "mouseover": {"state": {"target": ["12", "14", "22", "12", "13", "13", "14", "1", "18", "14", "19", "2", "1", "3", "1", "23", "24", "25", "30", "18", "15", "16", "0", "23", "24", "19", "13", "12", "13", "14", "13", "12", "19", "13", "12"], "time": [5185, 5343, 7618, 8405, 9252, 9947, 10803, 11933, 13099, 13263, 14850, 15460, 16232, 17592, 18664, 20015, 21094, 21668, 22756, 23372, 23585, 24700, 26042, 26781, 27828, 29166, 31421, 31582, 33534, 34117, 35559, 35724, 37539, 37902, 38046]}, "edge": {"target": [], "time": []}}, "mouseout": {"state": {"target": ["2", "12", "13", "12", "0", "12", "14", "22", "12", "13", "13", "13", "14", "1", "18", "14", "19", "2", "2", "1", "2", "3", "1", "23", "24", "25", "30", "18", "15", "16", "0", "23", "24", "19", "13", "12", "13", "14", "13", "12", "19", "13", "12", "14"], "time": [1055, 1638, 2480, 2896, 3592, 5254, 5816, 7693, 9221, 9497, 10217, 10633, 11432, 13031, 13178, 14817, 14943, 15883, 16135, 17092, 17440, 18423, 19941, 20998, 21639, 22728, 22923, 23439, 24605, 25240, 26333, 27567, 28754, 31387, 31511, 32077, 34041, 35159, 35691, 36800, 37606, 37978, 38130, 48798]}, "edge": {"target": [], "time": []}}}, "displayed_time": "48.28", "trialTime": 57721, "trial_type": "mouselab-mdp", "trial_index": 5, "time_elapsed": 853950, "internal_node_id": "0.0-2.0-2.0-1.0"}}, {"uniqueid": "w12888826:a88272462", "current_trial": 6, "dateTime": 1691072222079, "trialdata": {"view_history": [{"page_index": 0, "viewing_time": 39226}, {"page_index": 1, "viewing_time": 20164}], "rt": 59391, "trial_id": "mouselab_instructions_2_misaligned", "trial_type": "instructions", "trial_index": 6, "time_elapsed": 913351, "internal_node_id": "0.0-2.0-3.0"}}, {"uniqueid": "w12888826:a88272462", "current_trial": 7, "dateTime": 1691072330684, "trialdata": {"rt": 108553, "response": {"Q0": "The cost for clicking on nodes may vary between nodes.", "Q1": "The better I perform the higher my bonus will be.", "Q2": "No, the structure of the web will be different each time.", "Q3": "To get the highest total score.", "Q4": "Only before moving the spider.", "Q5": "3 seconds"}, "question_order": [0, 1, 2, 3, 4, 5], "correct": {"Q0": "The cost for clicking on nodes may vary between nodes.", "Q1": "The better I perform the higher my bonus will be.", "Q2": "No, the amount of cash at each node of the web may be different each time.", "Q3": "To get the highest total score.", "Q4": "Only before moving the spider.", "Q5": "3 seconds"}, "trial_id": "mouselab_quiz_misaligned", "trial_type": "survey-multi-choice", "trial_index": 7, "time_elapsed": 1021958, "internal_node_id": "0.0-2.0-4.0"}}, {"uniqueid": "w12888826:a88272462", "current_trial": 8, "dateTime": 1691072340767, "trialdata": {"success": true, "trial_type": "fullscreen", "trial_index": 8, "time_elapsed": 1032040, "internal_node_id": "0.0-2.1-0.1"}}, {"uniqueid": "w12888826:a88272462", "current_trial": 9, "dateTime": 1691072426296, "trialdata": {"view_history": [{"page_index": 0, "viewing_time": 13962}, {"page_index": 1, "viewing_time": 4966}, {"page_index": 2, "viewing_time": 31522}, {"page_index": 3, "viewing_time": 34996}], "rt": 85446, "trial_id": "mouselab_instructions_1_misaligned", "trial_type": "instructions", "trial_index": 9, "time_elapsed": 1117569, "internal_node_id": "0.0-2.1-1.1"}}, {"uniqueid": "w12888826:a88272462", "current_trial": 10, "dateTime": 1691072473642, "trialdata": {"revealed_states": [], "clicked_states": ["12", "13", "14", "24", "25", "1", "2", "3", "4", "23"], "num_clicks_accrued": [0, 0, 0, 0, 0, 0, 0, 0, 0, 0, 0, 0, 0], "stateRewards": ["", -10, -10, 10, 10, -10, -10, 10, -10, 10, -10, -10, 10, -10, -10, 10, 10, -10, -10, -10, 10, -10, -10, -10, 10, -10, -10, 10, 10, -10, 10, -10, 10, -10], "withholdReward": false, "trial_id": "practice_1", "block": "test", "trialIndex": 2, "score": -31.5, "costs": -5, "simulationMode": [null, null, null, null, null], "rewards": [10, -10, -10, -10, -10], "path": ["0", "0", "12", "13", "14", "19", "21"], "rt": [31101, 217, 182, 193, 63], "actions": ["right", "right", "right", "down", "down"], "actionTimes": [35434, 36261, 37039, 37829, 38553], "queries": {"click": {"state": {"target": ["12", "13", "14", "24", "25", "1", "2", "3", "4", "23"], "time": [6056, 8574, 10863, 12890, 15058, 16383, 18533, 19882, 22149, 25895]}, "edge": {"target": [], "time": []}}, "mouseover": {"state": {"target": ["12", "13", "13", "14", "0", "23", "24", "23", "25", "23", "1", "2", "3", "4", "6", "4", "6", "0", "23", "12", "13", "12", "23", "24", "14", "13", "20", "14", "13", "12"], "time": [5449, 6581, 8219, 9449, 11348, 11622, 12359, 13831, 14819, 15625, 16110, 17015, 19326, 20583, 21545, 21869, 23088, 25051, 25562, 27280, 28215, 28696, 30239, 30553, 33468, 33620, 33910, 34070, 34353, 34505]}, "edge": {"target": [], "time": []}}, "mouseout": {"state": {"target": ["13", "14", "20", "19", "0", "12", "13", "13", "14", "0", "23", "24", "23", "24", "25", "23", "1", "2", "3", "4", "6", "4", "6", "0", "23", "23", "12", "13", "12", "23", "24", "14", "13", "20", "14", "13", "12", "21"], "time": [1265, 1305, 2848, 2889, 3303, 6429, 7725, 9200, 11250, 11525, 12291, 13736, 14672, 14739, 15594, 15712, 16921, 19154, 20486, 21481, 21799, 22770, 23829, 25293, 26645, 27209, 28149, 28556, 30074, 30405, 33256, 33557, 33835, 33985, 34155, 34419, 42882, 45423]}, "edge": {"target": [], "time": []}}}, "displayed_time": "39.20", "trialTime": 45977, "trial_type": "mouselab-mdp", "trial_index": 10, "time_elapsed": 1164915, "internal_node_id": "0.0-2.1-2.1-0.1"}}, {"uniqueid": "w12888826:a88272462", "current_trial": 11, "dateTime": 1691072546624, "trialdata": {"revealed_states": [], "clicked_states": ["1", "2", "3", "4", "5", "8", "9", "11", "10", "23", "24", "12", "13", "14", "19", "22", "20", "21", "15", "16", "18", "7", "25", "30", "32", "33"], "num_clicks_accrued": [0, 0, 0, 0, 0, 0, 0, 0, 0, 0, 0, 0, 0], "stateRewards": ["", 10, 10, 10, -10, 10, 10, -10, 10, -10, -10, 10, 10, 10, -10, -10, -10, 10, 10, 10, -10, -10, -10, -10, -10, -10, -10, 10, 10, -10, 10, 10, 10, -10], "withholdReward": false, "trial_id": "practice_2", "block": "test", "trialIndex": 3, "score": -19.5, "costs": -13, "simulationMode": [null, null, null, null, null], "rewards": [-10, -10, -10, 10, 10], "path": ["0", "0", "23", "24", "25", "30", "32"], "rt": [55514, 1193, 1, 572, 47], "actions": ["left", "left", "left", "down", "down"], "actionTimes": [58305, 63214, 63876, 65073, 65715], "queries": {"click": {"state": {"target": ["1", "2", "3", "4", "5", "8", "9", "11", "10", "23", "24", "12", "13", "14", "19", "22", "20", "21", "15", "16", "18", "7", "25", "30", "32", "33"], "time": [4058, 5621, 7303, 9574, 11439, 12729, 14866, 17322, 18647, 20465, 21843, 24019, 25930, 27657, 28882, 31049, 33304, 34992, 37688, 39633, 44228, 46953, 48563, 50411, 52786, 54056]}, "edge": {"target": [], "time": []}}, "mouseover": {"state": {"target": ["12", "1", "2", "2", "3", "4", "5", "8", "9", "11", "11", "10", "1", "23", "24", "24", "25", "12", "13", "14", "19", "22", "20", "21", "13", "12", "15", "16", "17", "15", "18", "18", "18", "18", "24", "1", "2", "7", "24", "25", "30", "31", "32", "33", "23"], "time": [3075, 3759, 4943, 5355, 6414, 8172, 11071, 12453, 13508, 15804, 16965, 18330, 19442, 20193, 21110, 21592, 22628, 23847, 24668, 26570, 28531, 29901, 32492, 34305, 36428, 36586, 37344, 38563, 40495, 42489, 42636, 43174, 43695, 43946, 45456, 45784, 46283, 46434, 48042, 48373, 49415, 51336, 52644, 53781, 56493]}, "edge": {"target": [], "time": []}}, "mouseout": {"state": {"target": ["0", "23", "0", "12", "1", "2", "2", "3", "4", "5", "8", "9", "11", "11", "10", "1", "23", "24", "24", "25", "24", "12", "13", "14", "19", "22", "20", "21", "13", "12", "15", "16", "17", "15", "18", "18", "18", "18", "24", "1", "2", "7", "24", "25", "30", "31", "30", "32", "33", "23", "29", "15"], "time": [1421, 1543, 3058, 3314, 4842, 5039, 6241, 7995, 10259, 12204, 13340, 15639, 16648, 18081, 19411, 19902, 21075, 21343, 22455, 23427, 23496, 24635, 26539, 28302, 29802, 31819, 33986, 35978, 36496, 36729, 37845, 40247, 42421, 42564, 42835, 43484, 43773, 44988, 45556, 46057, 46353, 47573, 48297, 49173, 50566, 51980, 52054, 52939, 55824, 56588, 67338, 68062]}, "edge": {"target": [], "time": []}}}, "displayed_time": "66.38", "trialTime": 71383, "trial_type": "mouselab-mdp", "trial_index": 11, "time_elapsed": 1237896, "internal_node_id": "0.0-2.1-2.1-1.1"}}, {"uniqueid": "w12888826:a88272462", "current_trial": 12, "dateTime": 1691072593652, "trialdata": {"view_history": [{"page_index": 0, "viewing_time": 33646}, {"page_index": 1, "viewing_time": 13364}], "rt": 47011, "trial_id": "mouselab_instructions_2_misaligned", "trial_type": "instructions", "trial_index": 12, "time_elapsed": 1284925, "internal_node_id": "0.0-2.1-3.1"}}, {"uniqueid": "w12888826:a88272462", "current_trial": 13, "dateTime": 1691072687368, "trialdata": {"rt": 93688, "response": {"Q0": "The cost for clicking on nodes may vary between nodes.", "Q1": "The better I perform the higher my bonus will be.", "Q2": "No, the amount of cash at each node of the web may be different each time.", "Q3": "To get the highest total score.", "Q4": "Only before moving the spider.", "Q5": "3 seconds"}, "question_order": [0, 1, 2, 3, 4, 5], "correct": {"Q0": "The cost for clicking on nodes may vary between nodes.", "Q1": "The better I perform the higher my bonus will be.", "Q2": "No, the amount of cash at each node of the web may be different each time.", "Q3": "To get the highest total score.", "Q4": "Only before moving the spider.", "Q5": "3 seconds"}, "trial_id": "mouselab_quiz_misaligned", "trial_type": "survey-multi-choice", "trial_index": 13, "time_elapsed": 1378641, "internal_node_id": "0.0-2.1-4.1"}}, {"uniqueid": "w12888826:a88272462", "current_trial": 14, "dateTime": 1691072752841, "trialdata": {"rt": 65443, "stimulus": "\n<h1> Get ready to start the game! </h1>\n\nThank you for reading the instructions. Get ready start with the 40 rounds of this game.\n<br><br>\nIf you need to take a break, feel free to take one after the end of a round, before continuing to the next one.\n<br><br>\nRemember, the more money the spider gets, the bigger your bonus will be!\n<br><br>\n<div style='text-align: center;'>Press <code>space</code> to begin.</div>\n\n<br><br>\n(If, at any point, the <code>space</code> key does not take you to the next page, click once on the text and try again.)", "response": " ", "trial_id": "mdp_ready", "trial_type": "html-keyboard-response", "trial_index": 14, "time_elapsed": 1444115, "internal_node_id": "0.0-4.0-0.0"}}, {"uniqueid": "w12888826:a88272462", "current_trial": 15, "dateTime": 1691072824941, "trialdata": {"revealed_states": [], "clicked_states": ["12", "13", "14", "19", "15", "1", "2", "3", "4", "5", "8", "11", "23", "24", "25", "30", "32", "26", "29", "27"], "num_clicks_accrued": [0, 0, 0, 0, 0, 0, 0, 0, 0, 0, 0, 0, 0], "stateRewards": ["", 1, 3, 1, -13, 52, -28, 67, -14, 3, 63, -70, -1, -4, 7, -11, -10, 47, -18, 6, 69, -9, -61, 2, 3, -6, 10, 63, -34, 40, -6, -79, -35, -32], "withholdReward": false, "trial_id": "mdp_trial_1", "block": "test", "trialIndex": 4, "score": 48.800000000000004, "costs": -23.199999999999996, "simulationMode": [null, null, null, null, null], "rewards": [2, 3, -6, 10, 63], "path": ["0", "0", "23", "24", "25", "26", "27"], "rt": [39304, 688, 396, 633, 211], "actions": ["left", "left", "left", "up", "up"], "actionTimes": [54132, 55425, 56413, 57641, 58447], "queries": {"click": {"state": {"target": ["12", "13", "14", "19", "15", "1", "2", "3", "4", "5", "8", "11", "23", "24", "25", "30", "32", "26", "29", "27"], "time": [16205, 17166, 18159, 19095, 20057, 21087, 21944, 22830, 24068, 26527, 29771, 30683, 34566, 36494, 38558, 39679, 40887, 44026, 45013, 50220]}, "edge": {"target": [], "time": []}}, "mouseover": {"state": {"target": ["12", "13", "14", "19", "15", "1", "2", "3", "4", "5", "8", "11", "8", "11", "23", "24", "23", "24", "25", "25", "30", "32", "27", "26", "29", "27", "28", "27", "28"], "time": [15892, 16906, 17954, 18746, 19715, 20886, 21666, 22400, 23933, 26023, 27442, 28304, 29237, 30417, 31643, 33102, 33772, 36205, 37861, 38263, 39399, 40682, 41624, 42327, 44821, 46035, 48211, 49785, 50933]}, "edge": {"target": [], "time": []}}, "mouseout": {"state": {"target": ["2", "7", "21", "22", "0", "23", "24", "1", "23", "24", "26", "28", "12", "0", "12", "13", "14", "19", "14", "15", "1", "2", "3", "4", "5", "8", "11", "8", "11", "23", "24", "23", "24", "25", "25", "30", "32", "25", "27", "26", "29", "27", "28", "27", "28", "28", "14", "20"], "time": [1307, 1353, 9238, 9324, 11046, 11555, 11645, 11743, 12510, 12560, 12657, 12975, 13208, 15187, 16412, 17866, 18335, 19597, 19688, 20231, 21494, 22137, 23329, 25504, 27057, 27980, 29140, 30385, 31183, 32924, 33699, 36116, 37337, 38014, 39229, 40433, 41415, 41592, 42080, 44787, 45641, 47771, 49541, 50682, 52224, 64687, 66250, 66590]}, "edge": {"target": [], "time": []}}}, "displayed_time": "59.10", "trialTime": 70994, "trial_type": "mouselab-mdp", "trial_index": 15, "time_elapsed": 1516215, "internal_node_id": "0.0-4.0-1.0-0.0"}}, {"uniqueid": "w12888826:a88272462", "current_trial": 16, "dateTime": 1691072873744, "trialdata": {"revealed_states": [], "clicked_states": ["12", "13", "14", "15", "16", "19", "21", "23", "24", "25", "26", "27", "32", "30"], "num_clicks_accrued": [0, 0, 0, 0, 0, 0, 0, 0, 0, 0, 0, 0, 0], "stateRewards": ["", -1, -3, 1, 13, -64, -29, 12, -4, -33, 50, 56, 2, -3, 4, 11, -64, -58, -55, 12, 47, 38, -25, -2, 2, 5, -15, 85, 7, 84, 10, 8, 57, 26], "withholdReward": false, "trial_id": "mdp_trial_2", "block": "test", "trialIndex": 5, "score": 55.1, "costs": -16.9, "simulationMode": [null, null, null, null, null], "rewards": [-2, 2, 5, 10, 57], "path": ["0", "0", "23", "24", "25", "30", "32"], "rt": [32447, 191, 1, 416, 159], "actions": ["left", "left", "left", "down", "down"], "actionTimes": [35460, 36263, 36908, 37940, 38691], "queries": {"click": {"state": {"target": ["12", "13", "14", "15", "16", "19", "21", "23", "24", "25", "26", "27", "32", "30"], "time": [4148, 5306, 6625, 7834, 8909, 13460, 14601, 17900, 19103, 20323, 21624, 22618, 25580, 28624]}, "edge": {"target": [], "time": []}}, "mouseover": {"state": {"target": ["12", "13", "14", "14", "15", "16", "19", "21", "20", "19", "21", "23", "24", "25", "26", "27", "30", "32", "25", "30", "33", "30", "25", "24", "25", "24"], "time": [3837, 5049, 5939, 6513, 7484, 8554, 9719, 12406, 12553, 12861, 14324, 15223, 18907, 20105, 21403, 22260, 23133, 24135, 26899, 27087, 27278, 28287, 30483, 31079, 31912, 32593]}, "edge": {"target": [], "time": []}}, "mouseout": {"state": {"target": ["0", "0", "12", "13", "14", "14", "15", "15", "16", "19", "21", "20", "19", "21", "23", "24", "25", "26", "27", "25", "30", "32", "25", "30", "33", "30", "32", "30", "25", "24", "25", "24", "28", "24"], "time": [846, 3301, 4635, 5768, 6335, 7318, 8000, 8388, 9400, 12201, 12476, 12634, 14153, 15128, 18579, 19866, 20552, 21856, 22962, 23040, 24039, 26284, 26995, 27183, 28254, 29831, 30142, 30235, 31002, 31282, 32517, 33381, 44039, 44178]}, "edge": {"target": [], "time": []}}}, "displayed_time": "39.27", "trialTime": 47409, "trial_type": "mouselab-mdp", "trial_index": 16, "time_elapsed": 1565018, "internal_node_id": "0.0-4.0-1.0-1.0"}}, {"uniqueid": "w12888826:a88272462", "current_trial": 17, "dateTime": 1691072976389, "trialdata": {"revealed_states": [], "clicked_states": ["1", "2", "3", "4", "5", "6", "7", "8", "11", "9", "12", "13", "14", "19", "21", "20", "23", "24", "25", "30", "32", "33", "31", "26", "27", "29", "28", "15", "16", "18", "17", "10"], "num_clicks_accrued": [0, 0, 0, 0, 0, 0, 0, 0, 0, 0, 0, 0, 0], "stateRewards": ["", 1, 2, 2, -15, -84, 28, -26, 13, 31, 86, 30, -2, 1, -1, -8, 66, -40, -1, -10, -32, 57, -17, 1, 2, -2, 9, -23, 77, 85, 12, -32, -62, -35], "withholdReward": false, "trial_id": "mdp_trial_3", "block": "test", "trialIndex": 6, "score": 55.00000000000002, "costs": -48.99999999999998, "simulationMode": [null, null, null, null, null], "rewards": [1, 2, 2, 13, 86], "path": ["0", "0", "1", "2", "3", "8", "10"], "rt": [88133, 216, 183, 790, 457], "actions": ["up", "up", "up", "left", "down"], "actionTimes": [90724, 91557, 92378, 93834, 94961], "queries": {"click": {"state": {"target": ["1", "2", "3", "4", "5", "6", "7", "8", "11", "9", "12", "13", "14", "19", "21", "20", "23", "24", "25", "30", "32", "33", "31", "26", "27", "29", "28", "15", "16", "18", "17", "10"], "time": [3855, 4787, 7117, 8041, 9004, 12161, 15230, 18475, 19616, 22973, 27530, 28667, 29787, 31919, 33075, 37381, 41005, 41986, 42981, 43844, 45757, 49221, 52385, 56165, 57925, 61382, 64956, 68337, 69994, 74245, 79135, 82555]}, "edge": {"target": [], "time": []}}, "mouseover": {"state": {"target": ["1", "2", "3", "3", "4", "5", "6", "7", "7", "2", "10", "8", "11", "9", "9", "12", "13", "14", "19", "19", "21", "20", "19", "22", "23", "23", "25", "24", "23", "24", "25", "30", "32", "33", "31", "25", "26", "26", "27", "29", "28", "12", "15", "16", "18", "15", "17", "17", "4", "3", "8", "10", "2"], "time": [3627, 4526, 6443, 6835, 7771, 8726, 10876, 13485, 14880, 17010, 17726, 18349, 19416, 20340, 22720, 24343, 28468, 29661, 30817, 31644, 32869, 33879, 38105, 38216, 39147, 39480, 40473, 40570, 40712, 41641, 42783, 43425, 45372, 46780, 50551, 53108, 54346, 55790, 57636, 58941, 62087, 66684, 67936, 69696, 71175, 74902, 75254, 78576, 80904, 81261, 81371, 81564, 84344]}, "edge": {"target": [], "time": []}}, "mouseout": {"state": {"target": ["18", "23", "0", "1", "2", "3", "3", "4", "5", "6", "6", "7", "7", "7", "2", "10", "8", "11", "9", "9", "12", "13", "14", "19", "19", "19", "21", "20", "19", "22", "23", "23", "25", "24", "23", "24", "25", "30", "32", "32", "33", "31", "25", "26", "26", "27", "29", "28", "12", "15", "16", "18", "15", "17", "17", "4", "3", "8", "10", "2", "1", "0", "21"], "time": [967, 1194, 3572, 4442, 5975, 6516, 7669, 8636, 9508, 12318, 13167, 14552, 15384, 16685, 17692, 17967, 18707, 20244, 22519, 23737, 28150, 29421, 30350, 30906, 32077, 32627, 33782, 38073, 38183, 38307, 39309, 40327, 40541, 40639, 41609, 42621, 43400, 44409, 45924, 46380, 50069, 53076, 53191, 55649, 57271, 58621, 61538, 66587, 67071, 69544, 71143, 74873, 74980, 77919, 79833, 81234, 81356, 81469, 84302, 84458, 99554, 99900, 100747]}, "edge": {"target": [], "time": []}}}, "displayed_time": "95.54", "trialTime": 101524, "trial_type": "mouselab-mdp", "trial_index": 17, "time_elapsed": 1667663, "internal_node_id": "0.0-4.0-1.0-2.0"}}, {"uniqueid": "w12888826:a88272462", "current_trial": 18, "dateTime": 1691073082444, "trialdata": {"revealed_states": [], "clicked_states": ["12", "13", "14", "19", "21", "20", "22", "15", "16", "18", "17", "1", "2", "3", "4", "5", "7", "6", "8", "11", "9", "10", "23", "24", "25", "26", "27", "29", "28", "30", "33", "32", "31"], "num_clicks_accrued": [0, 0, 0, 0, 0, 0, 0, 0, 0, 0, 0, 0, 0], "stateRewards": ["", -2, 3, -1, -9, 44, 48, -37, -3, 71, -39, 87, -1, 3, -4, 4, -21, 59, -15, -8, -1, 28, -38, 2, 4, 4, 8, -85, -72, -63, 14, 58, 63, -46], "withholdReward": false, "trial_id": "mdp_trial_4", "block": "test", "trialIndex": 7, "score": 32.850000000000016, "costs": -51.149999999999984, "simulationMode": [null, null, null, null, null], "rewards": [-2, 3, -1, -3, 87], "path": ["0", "0", "1", "2", "3", "8", "11"], "rt": [87266, 1, 195, 1681, 97], "actions": ["up", "up", "up", "left", "left"], "actionTimes": [90214, 93204, 94014, 96296, 97035], "queries": {"click": {"state": {"target": ["12", "13", "14", "19", "21", "20", "22", "15", "16", "18", "17", "1", "2", "3", "4", "5", "7", "6", "8", "11", "9", "10", "23", "24", "25", "26", "27", "29", "28", "30", "33", "32", "31"], "time": [4031, 5292, 6347, 7273, 8148, 12532, 15687, 21545, 22377, 26241, 29874, 33851, 34919, 35986, 37068, 38055, 41783, 44871, 47809, 49082, 52941, 56347, 59970, 61049, 61822, 62554, 63511, 67035, 70368, 74132, 75274, 79373, 83168]}, "edge": {"target": [], "time": []}}, "mouseover": {"state": {"target": ["12", "13", "13", "14", "19", "21", "20", "22", "14", "15", "16", "18", "18", "15", "17", "1", "1", "2", "3", "4", "5", "7", "7", "6", "6", "8", "11", "9", "9", "8", "10", "2", "23", "24", "25", "26", "27", "29", "29", "26", "28", "28", "25", "30", "31", "30", "33", "32", "32", "32", "31", "31"], "time": [3675, 4611, 5074, 6143, 7145, 7798, 9007, 13170, 20774, 21250, 22125, 23063, 24291, 26958, 27135, 31406, 33403, 34493, 35645, 36799, 37632, 38897, 41023, 42643, 44395, 45725, 48814, 49954, 51621, 53786, 54276, 58390, 59119, 60844, 61405, 62356, 63238, 64281, 66480, 67887, 68079, 69679, 70942, 71365, 73607, 73789, 75076, 76289, 78402, 79060, 80368, 82384]}, "edge": {"target": [], "time": []}}, "mouseout": {"state": {"target": ["0", "0", "12", "13", "13", "14", "19", "21", "20", "22", "14", "15", "16", "18", "18", "15", "17", "1", "1", "2", "3", "4", "5", "4", "7", "7", "6", "6", "8", "11", "9", "9", "8", "10", "2", "23", "23", "24", "25", "26", "27", "27", "29", "29", "26", "28", "28", "28", "25", "30", "31", "30", "33", "32", "32", "32", "31", "31"], "time": [1238, 3612, 4581, 4688, 5834, 6904, 7448, 8659, 13075, 16460, 20862, 21928, 22743, 24122, 26925, 27042, 30557, 32991, 34328, 35478, 36561, 37473, 38479, 38726, 40630, 42471, 44227, 45637, 48565, 49236, 51300, 53546, 53878, 58072, 58486, 60126, 60755, 61375, 62070, 62899, 63779, 64102, 66150, 67195, 67983, 69216, 70524, 70846, 71035, 73532, 73700, 74899, 75829, 78291, 78475, 80058, 81775, 83923]}, "edge": {"target": [], "time": []}}}, "displayed_time": "97.70", "trialTime": 104380, "trial_type": "mouselab-mdp", "trial_index": 18, "time_elapsed": 1773718, "internal_node_id": "0.0-4.0-1.0-3.0"}}, {"uniqueid": "w12888826:a88272462", "current_trial": 19, "dateTime": 1691073190501, "trialdata": {"revealed_states": [], "clicked_states": ["1", "2", "3", "8", "11", "10", "9", "4", "5", "6", "7", "12", "13", "14", "15", "16", "17", "18", "19", "21", "20", "23", "24", "25", "30", "33", "31", "32", "26", "29", "28", "27"], "num_clicks_accrued": [0, 0, 0, 0, 0, 0, 0, 0, 0, 0, 0, 0, 0], "stateRewards": ["", -1, 3, -7, 16, -32, -74, -48, 2, 10, 15, -30, 1, 1, -2, 10, 12, -83, 67, 13, -66, 47, 65, -2, 4, 2, -14, -8, -57, 24, 9, 65, 12, 46], "withholdReward": false, "trial_id": "mdp_trial_5", "block": "test", "trialIndex": 8, "score": 29.000000000000014, "costs": -48.999999999999986, "simulationMode": [null, null, null, null, null], "rewards": [-2, 4, 2, 9, 65], "path": ["0", "0", "23", "24", "25", "30", "31"], "rt": [88147, 584, 181, 454, 440], "actions": ["left", "left", "left", "down", "right"], "actionTimes": [92257, 93429, 94249, 95345, 96431], "queries": {"click": {"state": {"target": ["1", "2", "3", "8", "11", "10", "9", "4", "5", "6", "7", "12", "13", "14", "15", "16", "17", "18", "19", "21", "20", "23", "24", "25", "30", "33", "31", "32", "26", "29", "28", "27"], "time": [5194, 6231, 7236, 8179, 9269, 13076, 16464, 20766, 21919, 25124, 28831, 33560, 34723, 35626, 36424, 37223, 41498, 44957, 48249, 49454, 53415, 59113, 60090, 61351, 62610, 63888, 68721, 72639, 76329, 77305, 80864, 84442]}, "edge": {"target": [], "time": []}}, "mouseover": {"state": {"target": ["1", "2", "3", "8", "11", "10", "3", "9", "9", "3", "4", "4", "5", "6", "7", "12", "12", "13", "14", "15", "16", "18", "15", "17", "15", "18", "19", "21", "20", "19", "22", "23", "23", "24", "25", "30", "33", "32", "31", "30", "25", "25", "30", "32", "26", "26", "26", "29", "27", "28", "28", "27"], "time": [4759, 5817, 6739, 7830, 9071, 9687, 13637, 14120, 15786, 17314, 17720, 20485, 21563, 22883, 25978, 30476, 33256, 34334, 35364, 36216, 36945, 37765, 40042, 40838, 42222, 42405, 46499, 49268, 50370, 54063, 54468, 58343, 58922, 59743, 61061, 61999, 63335, 64604, 67383, 71010, 71200, 71675, 71860, 72343, 74710, 75276, 75674, 76955, 78028, 79569, 79907, 81791]}, "edge": {"target": [], "time": []}}, "mouseout": {"state": {"target": ["13", "12", "0", "1", "2", "3", "8", "11", "10", "3", "9", "9", "3", "4", "4", "5", "6", "7", "12", "12", "13", "14", "15", "16", "18", "15", "17", "15", "18", "19", "21", "20", "19", "22", "23", "23", "24", "25", "30", "33", "32", "31", "30", "25", "25", "30", "31", "32", "26", "26", "26", "29", "27", "28", "28", "27", "2", "7", "0"], "time": [879, 1012, 4345, 5662, 6564, 7659, 8906, 9445, 13608, 13717, 15698, 16996, 17630, 20333, 21401, 22682, 25808, 29317, 32690, 34096, 35185, 35971, 36826, 37567, 39946, 40647, 42191, 42309, 45502, 49097, 49983, 54034, 54302, 56517, 58563, 59573, 60440, 61969, 62787, 64439, 67316, 70980, 71176, 71283, 71749, 71928, 72014, 73477, 74874, 75372, 76485, 77480, 79487, 79661, 81542, 85204, 102499, 102697, 104920]}, "edge": {"target": [], "time": []}}}, "displayed_time": "97.08", "trialTime": 105442, "trial_type": "mouselab-mdp", "trial_index": 19, "time_elapsed": 1881775, "internal_node_id": "0.0-4.0-1.0-4.0"}}, {"uniqueid": "w12888826:a88272462", "current_trial": 20, "dateTime": 1691073291173, "trialdata": {"revealed_states": [], "clicked_states": ["12", "13", "14", "19", "21", "22", "20", "15", "16", "17", "18", "23", "24", "25", "30", "33", "32", "31", "26", "29", "27", "28", "1", "2", "3", "4", "5", "6"], "num_clicks_accrued": [0, 0, 0, 0, 0, 0, 0, 0, 0, 0, 0, 0, 0], "stateRewards": ["", 2, -4, 1, -12, -59, -53, -74, 16, -88, -66, 66, 1, -2, 8, -9, -14, 22, 25, -1, -39, 47, -14, -1, -1, -2, 1, -4, 52, -26, 15, -7, 46, 43], "withholdReward": false, "trial_id": "mdp_trial_6", "block": "test", "trialIndex": 9, "score": 8.000000000000007, "costs": -40.99999999999999, "simulationMode": [null, null, null, null, null], "rewards": [-1, -1, -2, 1, 52], "path": ["0", "0", "23", "24", "25", "26", "28"], "rt": [81606, 292, 79, 356, 269], "actions": ["left", "left", "left", "up", "right"], "actionTimes": [87158, 88035, 88770, 89770, 90700], "queries": {"click": {"state": {"target": ["12", "13", "14", "19", "21", "22", "20", "15", "16", "17", "18", "23", "24", "25", "30", "33", "32", "31", "26", "29", "27", "28", "1", "2", "3", "4", "5", "6"], "time": [7028, 8023, 8799, 9391, 10870, 14515, 18690, 22072, 23056, 27314, 30920, 34196, 35108, 35909, 36638, 37519, 41395, 44337, 47662, 48801, 53047, 56421, 61709, 62812, 64590, 65411, 66230, 69544]}, "edge": {"target": [], "time": []}}, "mouseover": {"state": {"target": ["0", "12", "13", "14", "19", "21", "20", "22", "22", "20", "15", "16", "17", "17", "15", "17", "15", "18", "15", "18", "23", "23", "24", "25", "30", "33", "31", "32", "31", "25", "26", "26", "26", "25", "26", "29", "27", "28", "1", "2", "3", "4", "5", "7", "6", "7", "8", "8", "8", "7", "7", "7", "8", "7", "4", "7"], "time": [5902, 6661, 7553, 8519, 9157, 10690, 11648, 12577, 12974, 17098, 20309, 22703, 23977, 25499, 26476, 26767, 28016, 28290, 29535, 29946, 31778, 32202, 34760, 35626, 36281, 37323, 38493, 40024, 41806, 44826, 45454, 45799, 46057, 46987, 47339, 48453, 49728, 53618, 57503, 62452, 64154, 65135, 66030, 67217, 67712, 70245, 73564, 74032, 74412, 77155, 77494, 80073, 81090, 82354, 82864, 83718]}, "edge": {"target": [], "time": []}}, "mouseout": {"state": {"target": ["0", "0", "12", "13", "14", "19", "21", "20", "22", "22", "20", "15", "16", "17", "17", "15", "17", "15", "18", "15", "18", "23", "23", "24", "25", "30", "33", "30", "31", "32", "31", "25", "26", "26", "26", "25", "26", "29", "27", "28", "1", "2", "3", "4", "5", "7", "6", "7", "8", "8", "8", "7", "7", "7", "8", "7", "4"], "time": [4815, 6339, 7521, 8342, 9043, 10470, 11029, 12541, 12656, 16720, 19235, 22529, 23720, 25109, 26406, 26701, 27548, 28198, 29503, 29771, 30998, 31878, 34585, 35448, 36095, 37227, 38010, 38322, 39710, 41708, 44791, 45203, 45558, 45888, 46898, 47304, 47822, 48973, 53445, 56959, 62282, 63431, 64746, 65769, 67047, 67383, 69996, 73255, 73945, 74139, 77018, 77277, 78808, 80852, 82173, 82788, 83595]}, "edge": {"target": [], "time": []}}}, "displayed_time": "91.36", "trialTime": 99365, "trial_type": "mouselab-mdp", "trial_index": 20, "time_elapsed": 1982446, "internal_node_id": "0.0-4.0-1.0-5.0"}}, {"uniqueid": "w12888826:a88272462", "current_trial": 21, "dateTime": 1691073405422, "trialdata": {"revealed_states": [], "clicked_states": ["1", "2", "3", "4", "5", "6", "7", "8", "9", "11", "10", "23", "24", "25", "30", "32", "31", "33", "26", "29", "27", "28", "12", "13", "14", "19", "21", "22", "20", "15", "17", "16", "18"], "num_clicks_accrued": [0, 0, 0, 0, 0, 0, 0, 0, 0, 0, 0, 0, 0], "stateRewards": ["", -1, 4, -8, 12, 14, 69, -8, 5, -72, -14, 56, -1, -1, -1, 9, 67, 19, 11, -9, -88, -58, 3, 2, -4, -8, 4, 62, 77, -74, 5, -31, 65, 88], "withholdReward": false, "trial_id": "mdp_trial_7", "block": "test", "trialIndex": 10, "score": 8.850000000000016, "costs": -51.149999999999984, "simulationMode": [null, null, null, null, null], "rewards": [2, -4, -8, 5, 65], "path": ["0", "0", "23", "24", "25", "30", "32"], "rt": [99390, 90, 7, 633, 179], "actions": ["left", "left", "left", "down", "down"], "actionTimes": [107641, 108318, 108904, 110180, 110997], "queries": {"click": {"state": {"target": ["1", "2", "3", "4", "5", "6", "7", "8", "9", "11", "10", "23", "24", "25", "30", "32", "31", "33", "26", "29", "27", "28", "12", "13", "14", "19", "21", "22", "20", "15", "17", "16", "18"], "time": [9795, 10958, 12434, 13978, 15560, 19440, 23567, 28756, 30301, 33522, 36942, 42108, 43268, 43952, 45624, 47714, 53259, 58238, 62997, 64147, 67438, 70989, 74805, 75800, 76676, 77622, 78797, 83670, 87040, 90692, 93112, 97363, 100881]}, "edge": {"target": [], "time": []}}, "mouseover": {"state": {"target": ["12", "1", "2", "3", "4", "4", "5", "6", "6", "7", "6", "7", "10", "8", "9", "11", "10", "2", "1", "23", "24", "25", "30", "30", "32", "33", "31", "33", "33", "33", "26", "26", "29", "27", "28", "28", "12", "13", "14", "19", "21", "22", "19", "20", "19", "22", "20", "20", "14", "15", "15", "17", "16", "16", "18", "18", "0"], "time": [8705, 9522, 10405, 12228, 13071, 13423, 15132, 16233, 16638, 18401, 18922, 20904, 24372, 25399, 29884, 31176, 35147, 40816, 41024, 41708, 42589, 43606, 44538, 45376, 46642, 48343, 49873, 55026, 57473, 57935, 61577, 62402, 63779, 65086, 68837, 70529, 72526, 75523, 76259, 77197, 78594, 79441, 82249, 82526, 83242, 83433, 84242, 86697, 87981, 88327, 89351, 92758, 96441, 96976, 98593, 98859, 101690]}, "edge": {"target": [], "time": []}}, "mouseout": {"state": {"target": ["7", "2", "0", "12", "1", "2", "3", "4", "4", "5", "4", "6", "6", "7", "6", "7", "10", "8", "9", "9", "11", "10", "10", "2", "1", "23", "24", "25", "25", "30", "30", "32", "33", "31", "33", "33", "33", "33", "26", "26", "29", "27", "27", "28", "28", "12", "12", "13", "13", "14", "19", "21", "22", "19", "20", "19", "22", "20", "20", "14", "15", "15", "17", "16", "16", "18", "18", "0"], "time": [957, 1205, 8566, 8827, 10260, 11622, 13039, 13190, 14953, 15889, 16140, 16325, 18161, 18566, 20735, 24341, 24454, 29005, 30454, 30928, 34819, 40325, 40791, 40877, 41508, 42494, 43579, 44136, 44343, 44704, 46483, 48251, 49702, 54781, 57308, 57548, 59502, 60354, 61653, 63619, 64678, 67673, 68156, 70379, 71667, 74958, 75429, 76050, 76225, 77106, 78195, 79345, 82181, 82410, 83167, 83318, 84209, 84325, 87882, 88234, 88964, 92690, 96371, 96521, 98502, 98686, 101592, 101946]}, "edge": {"target": [], "time": []}}}, "displayed_time": "111.59", "trialTime": 113035, "trial_type": "mouselab-mdp", "trial_index": 21, "time_elapsed": 2096696, "internal_node_id": "0.0-4.0-1.0-6.0"}}, {"uniqueid": "w12888826:a88272462", "current_trial": 22, "dateTime": 1691073432048, "trialdata": {"revealed_states": [], "clicked_states": ["12"], "num_clicks_accrued": [0, 0, 0, 0, 0, 0, 0, 0, 0, 0, 0, 0, 0], "stateRewards": ["", 2, -4, 7, 3, 23, -42, 4, 7, -81, -33, 7, -2, -4, 5, -1, 50, -57, -14, -13, -14, 44, 55, -2, -2, 5, -2, 33, 1, 57, -13, -7, 58, 87], "withholdReward": false, "trial_id": "mdp_trial_8", "block": "test", "trialIndex": 11, "score": 30.25, "costs": 0.25, "simulationMode": [null, null, null, null, null], "rewards": [-2, -4, 5, -13, 44], "path": ["0", "0", "12", "13", "14", "19", "21"], "rt": [8526, 205, 73, 462, 60], "actions": ["right", "right", "right", "down", "down"], "actionTimes": [13631, 14436, 15159, 16198, 16847], "queries": {"click": {"state": {"target": ["12"], "time": [7603]}, "edge": {"target": [], "time": []}}, "mouseover": {"state": {"target": ["12", "12", "13", "13"], "time": [6251, 6532, 8755, 12030]}, "edge": {"target": [], "time": []}}, "mouseout": {"state": {"target": ["31", "23", "0", "12", "12", "13", "13", "21"], "time": [3644, 3928, 6142, 6312, 8660, 11591, 12105, 23409]}, "edge": {"target": [], "time": []}}}, "displayed_time": "22.34", "trialTime": 25324, "trial_type": "mouselab-mdp", "trial_index": 22, "time_elapsed": 2123322, "internal_node_id": "0.0-4.0-1.0-7.0"}}, {"uniqueid": "w12888826:a88272462", "current_trial": 23, "dateTime": 1691073469605, "trialdata": {"revealed_states": [], "clicked_states": ["1", "2", "3", "4", "5", "6", "23", "24", "25", "30", "32"], "num_clicks_accrued": [0, 0, 0, 0, 0, 0, 0, 0, 0, 0, 0, 0, 0], "stateRewards": ["", 1, -3, -4, -11, -56, 61, -47, -16, -28, -9, 69, -2, -3, -4, -8, 40, -86, 59, -4, 80, 27, 54, -1, 3, -1, 8, 67, 23, 50, 6, 83, -43, -29], "withholdReward": false, "trial_id": "mdp_trial_9", "block": "test", "trialIndex": 12, "score": 55.35, "costs": -11.65, "simulationMode": [null, null, null, null, null], "rewards": [-2, -3, -4, -4, 80], "path": ["0", "0", "12", "13", "14", "19", "20"], "rt": [25062, 524, 130, 391, 404], "actions": ["right", "right", "right", "down", "right"], "actionTimes": [28735, 29857, 30586, 31586, 32587], "queries": {"click": {"state": {"target": ["1", "2", "3", "4", "5", "6", "23", "24", "25", "30", "32"], "time": [5239, 6429, 7551, 8674, 9890, 12917, 17551, 18725, 19583, 20455, 22990]}, "edge": {"target": [], "time": []}}, "mouseover": {"state": {"target": ["12", "1", "7", "2", "3", "4", "5", "6", "28", "23", "23", "23", "24", "24", "25", "25", "30", "32", "31", "32", "30", "33", "30", "31", "31"], "time": [4195, 4822, 5855, 6117, 7132, 8255, 9545, 10759, 13553, 14408, 16980, 17237, 18115, 18450, 19131, 19387, 20191, 21726, 22141, 22775, 24077, 25027, 26154, 26624, 27051]}, "edge": {"target": [], "time": []}}, "mouseout": {"state": {"target": ["21", "0", "1", "12", "1", "7", "2", "3", "4", "5", "5", "6", "28", "23", "23", "23", "24", "24", "25", "25", "30", "32", "31", "32", "30", "32", "33", "30", "31", "31"], "time": [816, 1242, 1433, 4262, 5684, 5950, 6587, 8080, 9376, 10044, 10372, 13148, 13642, 16716, 17103, 18083, 18197, 19100, 19292, 20157, 21024, 21997, 22375, 23301, 24174, 24710, 26028, 26547, 26694, 28220]}, "edge": {"target": [], "time": []}}}, "displayed_time": "33.18", "trialTime": 35938, "trial_type": "mouselab-mdp", "trial_index": 23, "time_elapsed": 2160879, "internal_node_id": "0.0-4.0-1.0-8.0"}}, {"uniqueid": "w12888826:a88272462", "current_trial": 24, "dateTime": 1691073493933, "trialdata": {"revealed_states": [], "clicked_states": [], "num_clicks_accrued": [0, 0, 0, 0, 0, 0, 0, 0, 0, 0, 0, 0, 0], "stateRewards": ["", -2, 2, -5, -6, 10, -66, -58, -10, -11, -63, -70, -1, -4, -5, 7, 66, -64, -43, -3, 45, -37, 4, -2, -2, -6, -4, -30, 33, 43, 15, -32, -65, -59], "withholdReward": false, "trial_id": "mdp_trial_10", "block": "test", "trialIndex": 13, "score": -1, "costs": 0, "simulationMode": [null, null, null, null, null], "rewards": [-2, 2, -5, -6, 10], "path": ["0", "0", "1", "2", "3", "4", "5"], "rt": [1471, 257, 186, 338, 336], "actions": ["up", "up", "up", "right", "up"], "actionTimes": [4013, 4861, 5680, 6659, 7636], "queries": {"click": {"state": {"target": [], "time": []}, "edge": {"target": [], "time": []}}, "mouseover": {"state": {"target": ["0"], "time": [3191]}, "edge": {"target": [], "time": []}}, "mouseout": {"state": {"target": ["20", "0", "0"], "time": [891, 1380, 13004]}, "edge": {"target": [], "time": []}}}, "displayed_time": "16.86", "trialTime": 19303, "trial_type": "mouselab-mdp", "trial_index": 24, "time_elapsed": 2185206, "internal_node_id": "0.0-4.0-1.0-9.0"}}, {"uniqueid": "w12888826:a88272462", "current_trial": 25, "dateTime": 1691073516687, "trialdata": {"revealed_states": [], "clicked_states": [], "num_clicks_accrued": [0, 0, 0, 0, 0, 0, 0, 0, 0, 0, 0, 0, 0], "stateRewards": ["", 2, 4, -3, 16, -58, 30, -35, 11, -60, 47, 27, -2, -1, -7, -16, 23, -70, 68, -10, -65, -43, -34, -2, 1, 7, 9, -63, 34, -31, -8, -12, -86, 59], "withholdReward": false, "trial_id": "mdp_trial_11", "block": "test", "trialIndex": 14, "score": -48, "costs": 0, "simulationMode": [null, null, null, null, null], "rewards": [-2, 1, 7, 9, -63], "path": ["0", "0", "23", "24", "25", "26", "27"], "rt": [1621, 28, 235, 463, 1], "actions": ["left", "left", "left", "up", "up"], "actionTimes": [6261, 6898, 7781, 8891, 9500], "queries": {"click": {"state": {"target": [], "time": []}, "edge": {"target": [], "time": []}}, "mouseover": {"state": {"target": [], "time": []}, "edge": {"target": [], "time": []}}, "mouseout": {"state": {"target": ["23", "16", "16", "18", "0", "1"], "time": [1064, 2878, 3209, 3267, 17630, 18511]}, "edge": {"target": [], "time": []}}}, "displayed_time": "18.78", "trialTime": 21449, "trial_type": "mouselab-mdp", "trial_index": 25, "time_elapsed": 2207960, "internal_node_id": "0.0-4.0-1.0-10.0"}}, {"uniqueid": "w12888826:a88272462", "current_trial": 26, "dateTime": 1691073549000, "trialdata": {"revealed_states": [], "clicked_states": ["1", "2", "3", "4", "6"], "num_clicks_accrued": [0, 0, 0, 0, 0, 0, 0, 0, 0, 0, 0, 0, 0], "stateRewards": ["", -1, -4, -3, 1, -45, -67, -24, 14, 32, 22, 22, -1, 1, -5, -7, 72, 84, -79, -5, 19, -40, -2, -1, -2, 8, -3, 84, -25, -28, 11, 64, -66, 77], "withholdReward": false, "trial_id": "mdp_trial_12", "block": "test", "trialIndex": 15, "score": -78.75, "costs": -4.75, "simulationMode": [null, null, null, null, null], "rewards": [-1, -4, -3, 1, -67], "path": ["0", "0", "1", "2", "3", "4", "6"], "rt": [18975, 426, 61, 1343, 1508], "actions": ["up", "up", "up", "right", "right"], "actionTimes": [20952, 21976, 22632, 24658, 26820], "queries": {"click": {"state": {"target": ["1", "2", "3", "4", "6"], "time": [3051, 3787, 4833, 5633, 6588]}, "edge": {"target": [], "time": []}}, "mouseover": {"state": {"target": ["1", "2", "3", "4", "6", "23", "21", "22", "19", "12"], "time": [2677, 3476, 4485, 5357, 6390, 7346, 16964, 19495, 19596, 19983]}, "edge": {"target": [], "time": []}}, "mouseout": {"state": {"target": ["12", "12", "1", "2", "3", "4", "6", "23", "21", "22", "19", "12"], "time": [514, 809, 3382, 4314, 5197, 6225, 7244, 7436, 17046, 19563, 19653, 20049]}, "edge": {"target": [], "time": []}}}, "displayed_time": "27.42", "trialTime": 31149, "trial_type": "mouselab-mdp", "trial_index": 26, "time_elapsed": 2240273, "internal_node_id": "0.0-4.0-1.0-11.0"}}, {"uniqueid": "w12888826:a88272462", "current_trial": 27, "dateTime": 1691073577246, "trialdata": {"revealed_states": [], "clicked_states": ["23", "24", "25", "30", "33", "32", "31"], "num_clicks_accrued": [0, 0, 0, 0, 0, 0, 0, 0, 0, 0, 0, 0, 0], "stateRewards": ["", 2, 4, 7, 7, -79, -2, -21, -5, -53, 47, -21, 1, -3, -1, 7, 83, 7, 84, -7, 80, -37, 69, 2, -4, 5, 2, 4, -20, -30, 7, 71, 44, -81], "withholdReward": false, "trial_id": "mdp_trial_13", "block": "test", "trialIndex": 16, "score": 44.95, "costs": -9.05, "simulationMode": [null, null, null, null, null], "rewards": [2, -4, 5, 7, 44], "path": ["0", "0", "23", "24", "25", "30", "32"], "rt": [15598, 159, 76, 125, 5], "actions": ["left", "left", "left", "down", "down"], "actionTimes": [20267, 21018, 21742, 22512, 23114], "queries": {"click": {"state": {"target": ["23", "24", "25", "30", "33", "32", "31"], "time": [6292, 7237, 7921, 9470, 10243, 14100, 17268]}, "edge": {"target": [], "time": []}}, "mouseover": {"state": {"target": ["23", "24", "25", "33", "30", "33", "32", "32", "31", "31", "26", "23"], "time": [5327, 6901, 7667, 8955, 9200, 9980, 11132, 12726, 15095, 17044, 18645, 18989]}, "edge": {"target": [], "time": []}}, "mouseout": {"state": {"target": ["2", "22", "0", "23", "24", "25", "33", "30", "30", "33", "32", "32", "31", "32", "32", "31", "26", "23", "12", "13", "21"], "time": [1855, 2893, 5268, 6734, 7437, 8878, 9127, 9628, 9951, 10899, 12486, 14628, 15415, 15812, 16797, 17422, 18742, 19227, 24441, 24523, 24864]}, "edge": {"target": [], "time": []}}}, "displayed_time": "23.73", "trialTime": 27002, "trial_type": "mouselab-mdp", "trial_index": 27, "time_elapsed": 2268520, "internal_node_id": "0.0-4.0-1.0-12.0"}}, {"uniqueid": "w12888826:a88272462", "current_trial": 28, "dateTime": 1691073604012, "trialdata": {"revealed_states": [], "clicked_states": [], "num_clicks_accrued": [0, 0, 0, 0, 0, 0, 0, 0, 0, 0, 0, 0, 0], "stateRewards": ["", -2, 4, -5, -12, 85, -24, -18, -15, -78, -22, 26, -1, -1, 2, 14, -45, 52, -23, 7, -33, 24, -6, -2, -4, 5, -7, -16, 36, -39, 5, 71, -87, -23], "withholdReward": false, "trial_id": "mdp_trial_14", "block": "test", "trialIndex": 17, "score": -96, "costs": 0, "simulationMode": [null, null, null, null, null], "rewards": [-2, 4, -5, -15, -78], "path": ["0", "0", "1", "2", "3", "8", "9"], "rt": [6602, 3, 1099, 567, 203], "actions": ["up", "up", "up", "left", "up"], "actionTimes": [13126, 13729, 15451, 16615, 17404], "queries": {"click": {"state": {"target": [], "time": []}, "edge": {"target": [], "time": []}}, "mouseover": {"state": {"target": ["5", "8", "1"], "time": [11760, 11974, 12143]}, "edge": {"target": [], "time": []}}, "mouseout": {"state": {"target": ["22", "20", "20", "20", "14", "1", "0", "5", "8", "1", "19", "20"], "time": [666, 742, 959, 4540, 4594, 5019, 11277, 11829, 12043, 18656, 19284, 19353]}, "edge": {"target": [], "time": []}}}, "displayed_time": "22.57", "trialTime": 25225, "trial_type": "mouselab-mdp", "trial_index": 28, "time_elapsed": 2295286, "internal_node_id": "0.0-4.0-1.0-13.0"}}, {"uniqueid": "w12888826:a88272462", "current_trial": 29, "dateTime": 1691073639623, "trialdata": {"revealed_states": [], "clicked_states": ["1", "2", "3", "4", "5"], "num_clicks_accrued": [0, 0, 0, 0, 0, 0, 0, 0, 0, 0, 0, 0, 0], "stateRewards": ["", -2, 2, 3, -7, 76, 63, 21, 15, 35, -8, -44, 1, 1, -2, -12, 23, 24, 76, -9, 46, 66, -49, -2, -1, 7, 12, 40, -71, -45, -6, 38, -49, 46], "withholdReward": false, "trial_id": "mdp_trial_15", "block": "test", "trialIndex": 18, "score": 67.25, "costs": -4.75, "simulationMode": [null, null, null, null, null], "rewards": [-2, 2, 3, -7, 76], "path": ["0", "0", "1", "2", "3", "4", "5"], "rt": [18860, 427, 12, 447, 236], "actions": ["up", "up", "up", "right", "up"], "actionTimes": [21253, 22265, 22919, 24011, 24848], "queries": {"click": {"state": {"target": ["1", "2", "3", "4", "5"], "time": [5601, 6779, 7625, 8413, 9301]}, "edge": {"target": [], "time": []}}, "mouseover": {"state": {"target": ["1", "2", "3", "4", "5", "3"], "time": [5162, 6533, 7132, 8068, 8952, 20464]}, "edge": {"target": [], "time": []}}, "mouseout": {"state": {"target": ["23", "0", "1", "2", "3", "4", "5", "3", "2", "1"], "time": [890, 3697, 5712, 7031, 7797, 8835, 20340, 20635, 29341, 29878]}, "edge": {"target": [], "time": []}}}, "displayed_time": "25.45", "trialTime": 30917, "trial_type": "mouselab-mdp", "trial_index": 29, "time_elapsed": 2330897, "internal_node_id": "0.0-4.0-1.0-14.0"}}, {"uniqueid": "w12888826:a88272462", "current_trial": 30, "dateTime": 1691073703967, "trialdata": {"revealed_states": [], "clicked_states": [], "num_clicks_accrued": [0, 0, 0, 0, 0, 0, 0, 0, 0, 0, 0, 0, 0], "stateRewards": ["", 1, 4, -4, 14, 35, 51, 19, -13, 54, 78, -74, -2, -1, -3, 13, -11, -42, -73, -15, -24, -3, -69, 2, -1, 5, 16, -27, 73, 58, 9, -60, 5, -60], "withholdReward": false, "trial_id": "mdp_trial_16", "block": "test", "trialIndex": 19, "score": -86, "costs": 0, "simulationMode": [null, null, null, null, null], "rewards": [1, 4, -4, -13, -74], "path": ["0", "0", "1", "2", "3", "8", "11"], "rt": [45286, 451, 2, 368, 614], "actions": ["up", "up", "up", "left", "left"], "actionTimes": [48463, 49569, 50172, 51169, 52449], "queries": {"click": {"state": {"target": [], "time": []}, "edge": {"target": [], "time": []}}, "mouseover": {"state": {"target": ["13", "12"], "time": [3479, 3684]}, "edge": {"target": [], "time": []}}, "mouseout": {"state": {"target": ["19", "22", "0", "13", "12", "13", "14"], "time": [768, 1138, 3327, 3554, 3762, 53979, 54044]}, "edge": {"target": [], "time": []}}}, "displayed_time": "53.11", "trialTime": 62671, "trial_type": "mouselab-mdp", "trial_index": 30, "time_elapsed": 2395238, "internal_node_id": "0.0-4.0-1.0-15.0"}}, {"uniqueid": "w12888826:a88272462", "current_trial": 31, "dateTime": 1691073733632, "trialdata": {"revealed_states": [], "clicked_states": ["1", "2", "3", "4", "6"], "num_clicks_accrued": [0, 0, 0, 0, 0, 0, 0, 0, 0, 0, 0, 0, 0], "stateRewards": ["", -2, -3, -3, 9, 79, 67, 22, -15, -56, 27, -85, -2, 4, -4, -15, -20, -32, 60, 15, 71, 57, 17, 1, 2, -8, 15, -37, -81, 82, 15, 21, -3, 2], "withholdReward": false, "trial_id": "mdp_trial_17", "block": "test", "trialIndex": 20, "score": 63.25, "costs": -4.75, "simulationMode": [null, null, null, null, null], "rewards": [-2, -3, -3, 9, 67], "path": ["0", "0", "1", "2", "3", "4", "6"], "rt": [10273, 26, 2, 467, 2120], "actions": ["up", "up", "up", "right", "right"], "actionTimes": [16378, 17015, 17620, 18705, 21424], "queries": {"click": {"state": {"target": ["1", "2", "3", "4", "6"], "time": [8199, 9264, 10257, 10979, 11734]}, "edge": {"target": [], "time": []}}, "mouseover": {"state": {"target": ["1", "2", "3", "4", "6", "2", "11", "8"], "time": [6822, 8850, 9690, 10715, 11447, 12445, 13238, 13724]}, "edge": {"target": [], "time": []}}, "mouseout": {"state": {"target": ["14", "12", "0", "1", "2", "3", "4", "6", "2", "11", "8", "16", "7", "12"], "time": [2971, 3358, 6723, 8690, 9593, 10682, 11414, 12412, 12532, 13488, 25605, 25790, 26356, 27502]}, "edge": {"target": [], "time": []}}}, "displayed_time": "22.03", "trialTime": 28428, "trial_type": "mouselab-mdp", "trial_index": 31, "time_elapsed": 2424906, "internal_node_id": "0.0-4.0-1.0-16.0"}}, {"uniqueid": "w12888826:a88272462", "current_trial": 32, "dateTime": 1691073777633, "trialdata": {"revealed_states": [], "clicked_states": ["12", "13", "14", "19", "20", "21", "22", "23", "24", "25", "26", "27", "29", "28"], "num_clicks_accrued": [0, 0, 0, 0, 0, 0, 0, 0, 0, 0, 0, 0, 0], "stateRewards": ["", -1, -3, 3, 5, 56, 39, 50, -1, -80, 33, -46, 1, -2, -6, -8, 87, 48, 54, -11, -20, -64, -54, -2, 3, -7, -3, 12, 88, 35, -16, -46, -70, -3], "withholdReward": false, "trial_id": "mdp_trial_18", "block": "test", "trialIndex": 21, "score": 60.9, "costs": -18.1, "simulationMode": [null, null, null, null, null], "rewards": [-2, 3, -7, -3, 88], "path": ["0", "0", "23", "24", "25", "26", "28"], "rt": [32062, 131, 468, 439, 307], "actions": ["left", "left", "left", "up", "right"], "actionTimes": [35364, 36155, 37218, 38244, 39139], "queries": {"click": {"state": {"target": ["12", "13", "14", "19", "20", "21", "22", "23", "24", "25", "26", "27", "29", "28"], "time": [4413, 5322, 6345, 7274, 7990, 12443, 15916, 18840, 19918, 20918, 22263, 23314, 26443, 30435]}, "edge": {"target": [], "time": []}}, "mouseover": {"state": {"target": ["12", "13", "14", "19", "20", "21", "21", "21", "22", "21", "22", "22", "24", "0", "23", "24", "25", "26", "26", "27", "29", "26", "29", "26", "28", "28", "30", "30", "31"], "time": [4069, 4998, 6071, 6624, 7725, 9059, 9398, 10982, 11481, 12079, 13071, 14742, 16550, 17117, 17522, 19635, 20637, 21439, 21996, 22965, 24249, 25771, 26113, 27157, 27415, 29435, 31128, 32807, 34287]}, "edge": {"target": [], "time": []}}, "mouseout": {"state": {"target": ["0", "23", "0", "12", "13", "14", "19", "20", "21", "21", "21", "22", "21", "22", "22", "24", "0", "23", "24", "25", "26", "26", "27", "29", "26", "29", "26", "28", "28", "30", "30"], "time": [814, 1391, 3482, 4979, 5980, 6593, 7693, 8743, 9149, 10748, 11404, 11873, 12979, 14425, 16074, 16949, 17356, 19463, 20089, 21094, 21530, 22719, 24081, 25682, 25948, 27125, 27247, 29191, 30962, 32634, 34219]}, "edge": {"target": [], "time": []}}}, "displayed_time": "39.80", "trialTime": 42132, "trial_type": "mouselab-mdp", "trial_index": 32, "time_elapsed": 2468907, "internal_node_id": "0.0-4.0-1.0-17.0"}}, {"uniqueid": "w12888826:a88272462", "current_trial": 33, "dateTime": 1691073912038, "trialdata": {"revealed_states": [], "clicked_states": ["1"], "num_clicks_accrued": [0, 0, 0, 0, 0, 0, 0, 0, 0, 0, 0, 0, 0], "stateRewards": ["", -2, 2, -4, -4, -59, 88, 62, -3, 69, -15, -34, 1, -2, -5, 7, -54, -20, 78, -16, -74, -53, -21, 2, -4, 2, 13, -8, -44, 26, 9, 72, 4, 17], "withholdReward": false, "trial_id": "mdp_trial_19", "block": "test", "trialIndex": 22, "score": 80.25, "costs": 0.25, "simulationMode": [null, null, null, null, null], "rewards": [-2, 2, -4, -4, 88], "path": ["0", "0", "1", "2", "3", "4", "6"], "rt": [9258, 2, 1291, 317, 1883], "actions": ["up", "up", "up", "right", "right"], "actionTimes": [12803, 13405, 15295, 16230, 18732], "queries": {"click": {"state": {"target": ["1"], "time": [5369]}, "edge": {"target": [], "time": []}}, "mouseover": {"state": {"target": ["12", "1", "1", "2", "7", "2"], "time": [3747, 4225, 4993, 6194, 10555, 11173]}, "edge": {"target": [], "time": []}}, "mouseout": {"state": {"target": ["31", "23", "0", "12", "1", "1", "2", "7", "2", "19"], "time": [959, 1407, 3726, 3808, 4805, 5799, 10488, 11100, 11253, 132717]}, "edge": {"target": [], "time": []}}}, "displayed_time": "19.34", "trialTime": 133124, "trial_type": "mouselab-mdp", "trial_index": 33, "time_elapsed": 2603311, "internal_node_id": "0.0-4.0-1.0-18.0"}}, {"uniqueid": "w12888826:a88272462", "current_trial": 34, "dateTime": 1691073939903, "trialdata": {"revealed_states": [], "clicked_states": ["12", "13", "14", "19", "20", "21", "22"], "num_clicks_accrued": [0, 0, 0, 0, 0, 0, 0, 0, 0, 0, 0, 0, 0], "stateRewards": ["", 2, -4, -8, -15, 71, -43, -41, 7, -17, 20, 67, -1, -1, -4, 6, 37, -24, -47, 9, 34, 57, 45, 1, 2, -4, -5, -23, 88, -5, 13, -40, 43, 44], "withholdReward": false, "trial_id": "mdp_trial_20", "block": "test", "trialIndex": 23, "score": 50.95, "costs": -9.05, "simulationMode": [null, null, null, null, null, null], "rewards": [-1, -1, -4, 9, 57], "path": ["0", "0", "12", "13", "14", "19", "21"], "rt": [15130, 2047, 139, 69, 589, 89], "actions": ["right", "right", "right", "right", "down", "down"], "actionTimes": [18914, 21002, 21732, 22403, 23625, 24380], "queries": {"click": {"state": {"target": ["12", "13", "14", "19", "20", "21", "22"], "time": [5417, 6554, 7726, 8866, 9718, 14002, 17877]}, "edge": {"target": [], "time": []}}, "mouseover": {"state": {"target": ["12", "13", "13", "14", "19", "20", "21", "21", "21", "22", "19", "22", "22"], "time": [5124, 5796, 6174, 7455, 8664, 9292, 10620, 13079, 13711, 14783, 15578, 15836, 17111]}, "edge": {"target": [], "time": []}}, "mouseout": {"state": {"target": ["0", "23", "0", "12", "13", "13", "13", "14", "19", "20", "21", "21", "21", "22", "19", "22", "22", "19", "13"], "time": [1947, 2298, 3076, 5774, 6010, 6718, 7359, 8266, 9043, 10296, 12773, 13603, 14687, 15548, 15808, 16968, 25892, 25965, 26216]}, "edge": {"target": [], "time": []}}}, "displayed_time": "25.02", "trialTime": 26801, "trial_type": "mouselab-mdp", "trial_index": 34, "time_elapsed": 2631176, "internal_node_id": "0.0-4.0-1.0-19.0"}}, {"uniqueid": "w12888826:a88272462", "current_trial": 35, "dateTime": 1691073975963, "trialdata": {"revealed_states": [], "clicked_states": ["1", "2", "3", "8", "11", "9", "10", "4", "6", "7"], "num_clicks_accrued": [0, 0, 0, 0, 0, 0, 0, 0, 0, 0, 0, 0, 0], "stateRewards": ["", -2, -4, -2, -13, -15, 87, -19, -6, -80, 30, 12, 1, 1, -8, 2, 55, 56, 15, 11, -68, -7, 55, -2, 3, -3, -3, 48, 62, 4, 1, -3, 69, -33], "withholdReward": false, "trial_id": "mdp_trial_21", "block": "test", "trialIndex": 24, "score": 51.099999999999994, "costs": -14.900000000000002, "simulationMode": [null, null, null, null, null, null], "rewards": [-2, -4, -2, -13, 87], "path": ["0", "0", "1", "2", "3", "4", "6"], "rt": [21069, 2708, 129, 26, 549, 3], "actions": ["up", "up", "up", "up", "right", "right"], "actionTimes": [23559, 26310, 27089, 27747, 28941, 29595], "queries": {"click": {"state": {"target": ["1", "2", "3", "8", "11", "9", "10", "4", "6", "7"], "time": [3475, 4531, 5286, 6324, 7334, 11214, 14592, 17901, 18601, 22080]}, "edge": {"target": [], "time": []}}, "mouseover": {"state": {"target": ["1", "2", "2", "3", "8", "11", "6", "4", "9", "10", "4", "6", "7", "7"], "time": [2839, 3830, 4281, 4934, 6125, 6677, 8051, 8396, 10955, 11805, 15461, 18260, 19622, 21302]}, "edge": {"target": [], "time": []}}, "mouseout": {"state": {"target": ["0", "28", "1", "2", "2", "3", "8", "11", "6", "4", "9", "9", "10", "4", "6", "7", "7", "6", "17", "20"], "time": [950, 1066, 3806, 4038, 4769, 5799, 6646, 7963, 8365, 10730, 11384, 11628, 15054, 18230, 19362, 20451, 22420, 22816, 31559, 32509]}, "edge": {"target": [], "time": []}}}, "displayed_time": "30.20", "trialTime": 34698, "trial_type": "mouselab-mdp", "trial_index": 35, "time_elapsed": 2667237, "internal_node_id": "0.0-4.0-1.0-20.0"}}, {"uniqueid": "w12888826:a88272462", "current_trial": 36, "dateTime": 1691074002147, "trialdata": {"revealed_states": [], "clicked_states": ["12", "13", "14"], "num_clicks_accrued": [0, 0, 0, 0, 0, 0, 0, 0, 0, 0, 0, 0, 0], "stateRewards": ["", -2, -1, -3, -1, -78, -6, 2, -1, 22, -88, 32, 2, 2, -7, -8, -51, -17, 54, 2, -44, 54, 75, 2, -2, -8, -15, -29, 12, -67, 15, -1, -47, -47], "withholdReward": false, "trial_id": "mdp_trial_22", "block": "test", "trialIndex": 25, "score": -63.05, "costs": -1.0499999999999998, "simulationMode": [null, null, null, null, null], "rewards": [2, 2, -7, -8, -51], "path": ["0", "0", "12", "13", "14", "15", "16"], "rt": [11176, 1360, 167, 404, 1], "actions": ["right", "right", "right", "up", "up"], "actionTimes": [13841, 15798, 16621, 17690, 18287], "queries": {"click": {"state": {"target": ["12", "13", "14"], "time": [4815, 5559, 6534]}, "edge": {"target": [], "time": []}}, "mouseover": {"state": {"target": ["0", "12", "13", "1", "12", "13", "14", "20", "20", "14", "15", "18", "15"], "time": [3006, 3534, 3675, 3884, 4298, 5297, 6332, 9509, 9982, 10131, 10649, 12360, 12624]}, "edge": {"target": [], "time": []}}, "mouseout": {"state": {"target": ["19", "22", "0", "0", "12", "13", "1", "12", "13", "14", "20", "20", "14", "15", "18", "15", "20", "17", "20", "19"], "time": [711, 1077, 1721, 3072, 3600, 3740, 4168, 5199, 6082, 7934, 9578, 10053, 10467, 12330, 12425, 12694, 20631, 22001, 22782, 22851]}, "edge": {"target": [], "time": []}}}, "displayed_time": "18.91", "trialTime": 23901, "trial_type": "mouselab-mdp", "trial_index": 36, "time_elapsed": 2693418, "internal_node_id": "0.0-4.0-1.0-21.0"}}, {"uniqueid": "w12888826:a88272462", "current_trial": 37, "dateTime": 1691074051666, "trialdata": {"revealed_states": [], "clicked_states": ["23", "24", "25", "30", "32", "31", "33", "26", "27", "29"], "num_clicks_accrued": [0, 0, 0, 0, 0, 0, 0, 0, 0, 0, 0, 0, 0], "stateRewards": ["", 2, -1, 4, -9, -43, 7, 54, -13, 38, -40, -83, -1, 2, -8, -10, 34, -33, 11, -14, -79, 65, 26, 1, 2, 4, 10, 21, 1, 86, 4, -53, 28, -29], "withholdReward": false, "trial_id": "mdp_trial_23", "block": "test", "trialIndex": 26, "score": 88.1, "costs": -14.900000000000002, "simulationMode": [null, null, null, null, null], "rewards": [1, 2, 4, 10, 86], "path": ["0", "0", "23", "24", "25", "26", "29"], "rt": [25350, 9, 4, 715, 412], "actions": ["left", "left", "left", "up", "left"], "actionTimes": [27753, 28380, 28997, 30403, 31471], "queries": {"click": {"state": {"target": ["23", "24", "25", "30", "32", "31", "33", "26", "27", "29"], "time": [3249, 4355, 4980, 5593, 7019, 10817, 14057, 17437, 18424, 23461]}, "edge": {"target": [], "time": []}}, "mouseover": {"state": {"target": ["0", "23", "24", "25", "24", "25", "30", "32", "31", "31", "31", "33", "26", "25", "26", "27", "29", "28", "28", "26", "29", "28", "28", "26", "29", "28"], "time": [2558, 2955, 3618, 3775, 4019, 4638, 5354, 6476, 7953, 9330, 10408, 12130, 15171, 15358, 15996, 18084, 19375, 20149, 20422, 20684, 20805, 22247, 22598, 22738, 22965, 24026]}, "edge": {"target": [], "time": []}}, "mouseout": {"state": {"target": ["12", "0", "23", "24", "25", "24", "25", "30", "32", "31", "31", "31", "33", "26", "25", "26", "27", "29", "28", "28", "26", "29", "28", "28", "26", "29", "28"], "time": [844, 2890, 3596, 3698, 3940, 4607, 5322, 6304, 7418, 9014, 10131, 11881, 14613, 15263, 15752, 17833, 19124, 19917, 20314, 20656, 20767, 22048, 22380, 22667, 22834, 23859, 37584]}, "edge": {"target": [], "time": []}}}, "displayed_time": "32.07", "trialTime": 44667, "trial_type": "mouselab-mdp", "trial_index": 37, "time_elapsed": 2742940, "internal_node_id": "0.0-4.0-1.0-22.0"}}, {"uniqueid": "w12888826:a88272462", "current_trial": 38, "dateTime": 1691074092877, "trialdata": {"revealed_states": [], "clicked_states": ["1", "2", "3", "4", "6", "5", "7", "8", "11", "9", "10"], "num_clicks_accrued": [0, 0, 0, 0, 0, 0, 0, 0, 0, 0, 0, 0, 0], "stateRewards": ["", 2, 3, 3, 10, 19, -21, 6, 9, 54, 68, 16, 2, 2, -6, -8, 40, -2, -75, -2, -42, 55, 59, -1, 2, 4, -14, 11, -34, -30, -6, 61, -53, 13], "withholdReward": false, "trial_id": "mdp_trial_24", "block": "test", "trialIndex": 27, "score": 67.95, "costs": -17.05, "simulationMode": [null, null, null, null, null, null], "rewards": [2, 3, 3, 9, 68], "path": ["0", "0", "1", "2", "3", "8", "10"], "rt": [24569, 1904, 40, 99, 987, 315], "actions": ["up", "up", "up", "up", "left", "down"], "actionTimes": [27585, 29527, 30190, 30918, 34987, 35948], "queries": {"click": {"state": {"target": ["1", "2", "3", "4", "6", "5", "7", "8", "11", "9", "10"], "time": [4312, 5306, 6403, 7414, 8358, 11710, 15016, 18312, 19141, 22615, 25883]}, "edge": {"target": [], "time": []}}, "mouseover": {"state": {"target": ["1", "2", "3", "4", "6", "4", "6", "27", "5", "4", "7", "8", "11", "9", "8", "10", "7"], "time": [4031, 4902, 6120, 6762, 6938, 7133, 7861, 9017, 11010, 12216, 12416, 16743, 18867, 19817, 22956, 23076, 26385]}, "edge": {"target": [], "time": []}}, "mouseout": {"state": {"target": ["3", "4", "7", "1", "0", "1", "2", "2", "3", "4", "6", "4", "6", "27", "5", "4", "7", "8", "11", "9", "8", "10", "7", "1", "24", "29"], "time": [1216, 1326, 1423, 1489, 3755, 4871, 5478, 5951, 6732, 6845, 7035, 7828, 8770, 9270, 12043, 12324, 15638, 18775, 19316, 22921, 23044, 26358, 26555, 37330, 37436, 37805]}, "edge": {"target": [], "time": []}}}, "displayed_time": "36.59", "trialTime": 39674, "trial_type": "mouselab-mdp", "trial_index": 38, "time_elapsed": 2784151, "internal_node_id": "0.0-4.0-1.0-23.0"}}, {"uniqueid": "w12888826:a88272462", "current_trial": 39, "dateTime": 1691074132216, "trialdata": {"revealed_states": [], "clicked_states": ["12", "13", "14", "19", "21", "20", "22", "15", "16", "17"], "num_clicks_accrued": [0, 0, 0, 0, 0, 0, 0, 0, 0, 0, 0, 0, 0], "stateRewards": ["", -2, -4, 2, 10, -17, 18, 73, 11, -32, 23, -13, -2, -4, 7, 12, -25, 66, -23, 15, 40, -76, -9, 1, 2, -7, -5, -20, 24, 3, -5, 16, -73, 70], "withholdReward": false, "trial_id": "mdp_trial_25", "block": "test", "trialIndex": 28, "score": 64.1, "costs": -14.900000000000002, "simulationMode": [null, null, null, null, null], "rewards": [-2, -4, 7, 12, 66], "path": ["0", "0", "12", "13", "14", "15", "17"], "rt": [27691, 540, 322, 627, 481], "actions": ["right", "right", "right", "up", "right"], "actionTimes": [31086, 32233, 33151, 34364, 35442], "queries": {"click": {"state": {"target": ["12", "13", "14", "19", "21", "20", "22", "15", "16", "17"], "time": [5569, 6725, 7808, 8964, 10372, 13620, 17197, 20605, 21589, 24961]}, "edge": {"target": [], "time": []}}, "mouseover": {"state": {"target": ["12", "12", "1", "12", "13", "14", "13", "14", "19", "21", "20", "19", "22", "15", "15", "16", "17", "15", "18"], "time": [4113, 4361, 4754, 5157, 6070, 6244, 6522, 7151, 8534, 10106, 11540, 13980, 14165, 18834, 19166, 21319, 22396, 25825, 26031]}, "edge": {"target": [], "time": []}}, "mouseout": {"state": {"target": ["29", "25", "22", "23", "0", "12", "12", "1", "12", "13", "14", "13", "14", "19", "21", "20", "19", "22", "15", "15", "16", "17", "15", "18"], "time": [760, 927, 1101, 1636, 4044, 4175, 4591, 5038, 6038, 6153, 6437, 7121, 8437, 9718, 10455, 13953, 14080, 17828, 18925, 21145, 21923, 25117, 26000, 28633]}, "edge": {"target": [], "time": []}}}, "displayed_time": "36.05", "trialTime": 37526, "trial_type": "mouselab-mdp", "trial_index": 39, "time_elapsed": 2823490, "internal_node_id": "0.0-4.0-1.0-24.0"}}, {"uniqueid": "w12888826:a88272462", "current_trial": 40, "dateTime": 1691074163947, "trialdata": {"revealed_states": [], "clicked_states": ["1", "2", "3", "4", "5"], "num_clicks_accrued": [0, 0, 0, 0, 0, 0, 0, 0, 0, 0, 0, 0, 0], "stateRewards": ["", -1, -4, -1, -11, 43, 69, 39, 4, 17, -20, -82, -2, -1, 4, 8, -79, 24, -79, 11, 36, 64, 41, 2, 4, -1, 11, -79, -47, 75, -3, 63, -36, -19], "withholdReward": false, "trial_id": "mdp_trial_26", "block": "test", "trialIndex": 29, "score": 21.25, "costs": -4.75, "simulationMode": [null, null, null, null, null], "rewards": [-1, -4, -1, -11, 43], "path": ["0", "0", "1", "2", "3", "4", "5"], "rt": [14332, 71, 172, 907, 856], "actions": ["up", "up", "up", "right", "up"], "actionTimes": [19068, 19721, 20467, 21975, 23442], "queries": {"click": {"state": {"target": ["1", "2", "3", "4", "5"], "time": [6359, 7519, 8628, 9489, 10270]}, "edge": {"target": [], "time": []}}, "mouseover": {"state": {"target": ["12", "1", "2", "3", "4", "5", "6", "4"], "time": [5443, 6146, 7164, 8133, 9065, 9926, 10720, 18130]}, "edge": {"target": [], "time": []}}, "mouseout": {"state": {"target": ["15", "23", "0", "12", "1", "2", "3", "4", "5", "6", "4"], "time": [746, 3588, 5379, 5808, 7066, 7678, 8811, 9805, 10689, 17457, 18196]}, "edge": {"target": [], "time": []}}}, "displayed_time": "25.91", "trialTime": 30668, "trial_type": "mouselab-mdp", "trial_index": 40, "time_elapsed": 2855221, "internal_node_id": "0.0-4.0-1.0-25.0"}}, {"uniqueid": "w12888826:a88272462", "current_trial": 41, "dateTime": 1691074207480, "trialdata": {"revealed_states": [], "clicked_states": ["1", "2", "3", "4", "5", "6", "7", "8", "9", "11", "10"], "num_clicks_accrued": [0, 0, 0, 0, 0, 0, 0, 0, 0, 0, 0, 0, 0], "stateRewards": ["", -1, -4, 8, 8, -68, 47, 24, -7, -61, 49, -69, -1, -1, 8, -7, 42, 1, -45, -11, 10, -63, -6, 1, 4, 6, -16, 79, -37, -58, -12, 81, 18, -53], "withholdReward": false, "trial_id": "mdp_trial_27", "block": "test", "trialIndex": 30, "score": 27.95, "costs": -17.05, "simulationMode": [null, null, null, null, null], "rewards": [-1, -4, 8, -7, 49], "path": ["0", "0", "1", "2", "3", "8", "10"], "rt": [31443, 130, 2, 392, 386], "actions": ["up", "up", "up", "left", "down"], "actionTimes": [35608, 36363, 37020, 38034, 39028], "queries": {"click": {"state": {"target": ["1", "2", "3", "4", "5", "6", "7", "8", "9", "11", "10"], "time": [5625, 7359, 9240, 10150, 10957, 14608, 18053, 22666, 23747, 27191, 32670]}, "edge": {"target": [], "time": []}}, "mouseover": {"state": {"target": ["1", "1", "2", "3", "4", "5", "6", "6", "7", "8", "9", "8", "9", "11", "11", "8", "10", "10", "28"], "time": [4945, 5244, 6572, 8388, 9876, 10676, 11886, 14116, 15396, 18912, 21636, 22157, 23325, 24558, 26552, 27537, 27887, 32386, 33400]}, "edge": {"target": [], "time": []}}, "mouseout": {"state": {"target": ["4", "0", "1", "1", "2", "3", "3", "4", "5", "5", "6", "6", "7", "8", "9", "8", "9", "11", "11", "8", "10", "10", "10", "28", "28", "26"], "time": [1830, 4420, 5000, 6177, 8014, 9457, 9705, 10511, 11126, 11490, 13859, 15219, 18519, 21512, 22085, 23062, 24307, 26268, 27509, 27619, 32050, 32827, 33367, 33487, 40874, 41060]}, "edge": {"target": [], "time": []}}}, "displayed_time": "39.65", "trialTime": 42265, "trial_type": "mouselab-mdp", "trial_index": 41, "time_elapsed": 2898754, "internal_node_id": "0.0-4.0-1.0-26.0"}}, {"uniqueid": "w12888826:a88272462", "current_trial": 42, "dateTime": 1691074239497, "trialdata": {"revealed_states": [], "clicked_states": ["12", "13", "14", "19", "21", "20", "22", "23", "24"], "num_clicks_accrued": [0, 0, 0, 0, 0, 0, 0, 0, 0, 0, 0, 0, 0], "stateRewards": ["", -1, 2, -2, 13, -56, -28, 10, 14, 53, -80, -29, 1, -3, -3, -14, 14, 9, -40, -9, 18, 18, 48, 1, 1, 1, -9, 64, -39, -9, 7, -52, -78, 7], "withholdReward": false, "trial_id": "mdp_trial_28", "block": "test", "trialIndex": 31, "score": 24.85, "costs": -9.15, "simulationMode": [null, null, null, null, null], "rewards": [1, -3, -3, -9, 48], "path": ["0", "0", "12", "13", "14", "19", "22"], "rt": [20472, 86, 5, 201, 20], "actions": ["right", "right", "right", "down", "left"], "actionTimes": [23220, 23908, 24561, 25393, 26048], "queries": {"click": {"state": {"target": ["12", "13", "14", "19", "21", "20", "22", "23", "24"], "time": [4276, 5090, 5872, 6540, 7436, 11095, 15085, 20149, 21380]}, "edge": {"target": [], "time": []}}, "mouseover": {"state": {"target": ["12", "13", "14", "19", "21", "20", "19", "22", "19", "22", "23", "24", "25"], "time": [3594, 5059, 5593, 6157, 7100, 8403, 13297, 13849, 14520, 14672, 20118, 21039, 21873]}, "edge": {"target": [], "time": []}}, "mouseout": {"state": {"target": ["27", "22", "12", "12", "13", "14", "19", "21", "20", "19", "22", "19", "22", "23", "24"], "time": [658, 1102, 1492, 4345, 5504, 6057, 6980, 7704, 13266, 13381, 14413, 14603, 15616, 20866, 21539]}, "edge": {"target": [], "time": []}}}, "displayed_time": "26.65", "trialTime": 30719, "trial_type": "mouselab-mdp", "trial_index": 42, "time_elapsed": 2930769, "internal_node_id": "0.0-4.0-1.0-27.0"}}, {"uniqueid": "w12888826:a88272462", "current_trial": 43, "dateTime": 1691074278796, "trialdata": {"revealed_states": [], "clicked_states": ["1", "2", "3", "8", "10", "11", "9", "4", "5", "7", "6"], "num_clicks_accrued": [0, 0, 0, 0, 0, 0, 0, 0, 0, 0, 0, 0, 0], "stateRewards": ["", 2, -3, -8, 14, -7, -51, 73, 2, 36, 36, -43, -1, 3, -4, 1, 6, 87, -65, 15, 61, -42, -83, -1, 3, -2, -7, 30, -48, 35, 13, 26, 60, 78], "withholdReward": false, "trial_id": "mdp_trial_29", "block": "test", "trialIndex": 32, "score": 60.95, "costs": -17.05, "simulationMode": [null, null, null, null, null, null], "rewards": [2, -3, -8, 14, 73], "path": ["0", "0", "1", "2", "3", "4", "7"], "rt": [26102, 1266, 155, 129, 405, 2], "actions": ["up", "up", "up", "up", "right", "down"], "actionTimes": [29119, 30426, 31216, 32026, 33023, 33631], "queries": {"click": {"state": {"target": ["1", "2", "3", "8", "10", "11", "9", "4", "5", "7", "6"], "time": [4225, 5363, 6675, 7683, 9213, 12878, 16483, 19905, 21000, 24453, 27841]}, "edge": {"target": [], "time": []}}, "mouseover": {"state": {"target": ["1", "1", "2", "2", "3", "8", "10", "11", "3", "24", "31", "9", "4", "5", "7", "6"], "time": [3577, 3925, 4759, 5161, 6321, 7254, 9033, 12267, 13824, 14161, 14286, 15837, 17752, 20651, 22188, 25092]}, "edge": {"target": [], "time": []}}, "mouseout": {"state": {"target": ["25", "23", "1", "1", "2", "2", "3", "8", "10", "10", "11", "3", "24", "31", "9", "9", "4", "5", "7", "6"], "time": [910, 984, 3633, 4663, 4852, 5541, 7222, 8302, 9295, 11955, 13354, 13991, 14253, 14837, 16638, 17115, 20392, 21418, 24848, 28537]}, "edge": {"target": [], "time": []}}}, "displayed_time": "34.24", "trialTime": 37637, "trial_type": "mouselab-mdp", "trial_index": 43, "time_elapsed": 2970070, "internal_node_id": "0.0-4.0-1.0-28.0"}}, {"uniqueid": "w12888826:a88272462", "current_trial": 44, "dateTime": 1691074306660, "trialdata": {"revealed_states": [], "clicked_states": [], "num_clicks_accrued": [0, 0, 0, 0, 0, 0, 0, 0, 0, 0, 0, 0, 0], "stateRewards": ["", 1, 3, 3, -10, 52, 68, 59, 12, 7, 49, 21, -2, -3, -4, -2, -2, 63, 63, -4, 44, 43, -76, -2, -3, -6, 13, 48, 36, 12, -5, -36, -33, -11], "withholdReward": false, "trial_id": "mdp_trial_30", "block": "test", "trialIndex": 33, "score": -27, "costs": 0, "simulationMode": [null, null, null, null, null], "rewards": [-2, -3, -6, -5, -11], "path": ["0", "0", "23", "24", "25", "30", "33"], "rt": [5161, 110, 268, 643, 439], "actions": ["left", "left", "left", "down", "left"], "actionTimes": [10868, 11595, 12460, 13750, 14857], "queries": {"click": {"state": {"target": [], "time": []}, "edge": {"target": [], "time": []}}, "mouseover": {"state": {"target": ["1", "18", "23", "23"], "time": [5892, 8672, 9052, 10001]}, "edge": {"target": [], "time": []}}, "mouseout": {"state": {"target": ["10", "10", "1", "18", "23", "23"], "time": [3482, 3808, 5947, 8753, 9816, 10075]}, "edge": {"target": [], "time": []}}}, "displayed_time": "20.47", "trialTime": 23239, "trial_type": "mouselab-mdp", "trial_index": 44, "time_elapsed": 2997933, "internal_node_id": "0.0-4.0-1.0-29.0"}}, {"uniqueid": "w12888826:a88272462", "current_trial": 45, "dateTime": 1691074363678, "trialdata": {"revealed_states": [], "clicked_states": ["1", "2", "3", "4", "6", "7", "5", "8", "11", "9", "10", "23", "24", "25", "26", "27", "28"], "num_clicks_accrued": [0, 0, 0, 0, 0, 0, 0, 0, 0, 0, 0, 0, 0], "stateRewards": ["", -2, -1, -1, 5, -54, -87, 35, 2, -8, 20, -22, 1, 3, 6, 13, -75, -32, -55, -3, 56, 62, -22, -1, -4, -1, -7, -51, 84, 70, 7, -15, 5, 55], "withholdReward": false, "trial_id": "mdp_trial_31", "block": "test", "trialIndex": 34, "score": 47.05, "costs": -23.95, "simulationMode": [null, null, null, null, null], "rewards": [-1, -4, -1, -7, 84], "path": ["0", "0", "23", "24", "25", "26", "28"], "rt": [41566, 79, 31, 52, 293], "actions": ["left", "left", "left", "up", "right"], "actionTimes": [46365, 47053, 47729, 48366, 49309], "queries": {"click": {"state": {"target": ["1", "2", "3", "4", "6", "7", "5", "8", "11", "9", "10", "23", "24", "25", "26", "27", "28"], "time": [7386, 8415, 9368, 10393, 11277, 15352, 19477, 22933, 23707, 27103, 30572, 34887, 36053, 36681, 37695, 38199, 41910]}, "edge": {"target": [], "time": []}}, "mouseover": {"state": {"target": ["12", "2", "10", "7", "1", "2", "3", "4", "6", "7", "7", "5", "5", "8", "8", "11", "9", "9", "8", "10", "1", "23", "23", "24", "25", "26", "27", "28", "26", "29"], "time": [5207, 5366, 5454, 6792, 7064, 7954, 9085, 10038, 11003, 12317, 14975, 16314, 18957, 20444, 22207, 23368, 24387, 26165, 27511, 27902, 30898, 31898, 32395, 35734, 36564, 37245, 38083, 38754, 42338, 45252]}, "edge": {"target": [], "time": []}}, "mouseout": {"state": {"target": ["18", "12", "0", "0", "12", "2", "10", "7", "1", "2", "3", "4", "6", "7", "7", "5", "5", "8", "8", "11", "9", "8", "9", "8", "10", "1", "23", "23", "24", "25", "26", "27", "28", "26", "29", "26", "25", "31"], "time": [1301, 1647, 2186, 4989, 5283, 5419, 6726, 6867, 7697, 8667, 9870, 10914, 11832, 14498, 15815, 17852, 20091, 21886, 23337, 24138, 25152, 26137, 27414, 27680, 30809, 31198, 32156, 35707, 36537, 37218, 38050, 38626, 42306, 42581, 45731, 55036, 55123, 55323]}, "edge": {"target": [], "time": []}}}, "displayed_time": "49.98", "trialTime": 55908, "trial_type": "mouselab-mdp", "trial_index": 45, "time_elapsed": 3054950, "internal_node_id": "0.0-4.0-1.0-30.0"}}, {"uniqueid": "w12888826:a88272462", "current_trial": 46, "dateTime": 1691074436074, "trialdata": {"revealed_states": [], "clicked_states": ["12", "13", "14", "15", "16", "18", "17", "19", "21", "20", "22", "23", "24", "25", "30", "32", "33", "31", "26", "27", "28", "29"], "num_clicks_accrued": [0, 0, 0, 0, 0, 0, 0, 0, 0, 0, 0, 0, 0], "stateRewards": ["", 2, -1, -2, -5, -47, -57, -33, -11, 31, -18, -72, -2, 1, -4, -8, -46, -53, -50, 15, -85, -9, 39, -2, -2, 1, 14, -1, -8, 53, -12, -41, -74, 62], "withholdReward": false, "trial_id": "mdp_trial_32", "block": "test", "trialIndex": 35, "score": 12.900000000000006, "costs": -34.099999999999994, "simulationMode": [null, null, null, null, null], "rewards": [-2, -2, 1, -12, 62], "path": ["0", "0", "23", "24", "25", "30", "33"], "rt": [58404, 18, 1, 76, 377], "actions": ["left", "left", "left", "down", "left"], "actionTimes": [63425, 64042, 64702, 65375, 66378], "queries": {"click": {"state": {"target": ["12", "13", "14", "15", "16", "18", "17", "19", "21", "20", "22", "23", "24", "25", "30", "32", "33", "31", "26", "27", "28", "29"], "time": [6549, 7344, 8151, 9259, 10189, 13623, 17487, 20679, 21862, 25306, 28607, 32945, 34378, 35521, 36777, 38034, 42450, 45887, 49566, 50695, 54108, 58218]}, "edge": {"target": [], "time": []}}, "mouseover": {"state": {"target": ["0", "1", "12", "13", "14", "15", "16", "18", "18", "15", "17", "19", "21", "20", "22", "23", "24", "25", "30", "32", "33", "30", "30", "33", "30", "31", "26", "27", "26", "27", "28", "26", "26", "26", "29", "26", "25", "33"], "time": [5316, 5915, 6418, 7069, 7881, 8816, 9837, 10966, 12509, 14110, 14296, 19169, 21448, 22705, 25859, 30059, 34200, 35321, 36492, 37931, 39347, 41678, 41848, 42175, 43111, 43446, 47190, 48197, 49178, 50271, 51681, 54840, 56148, 57780, 58049, 58851, 59110, 60527]}, "edge": {"target": [], "time": []}}, "mouseout": {"state": {"target": ["18", "15", "13", "12", "0", "1", "12", "13", "14", "15", "16", "16", "18", "15", "18", "15", "17", "19", "21", "20", "22", "23", "24", "25", "25", "30", "32", "33", "30", "30", "33", "30", "31", "26", "27", "26", "27", "28", "26", "26", "28", "26", "29", "26", "25", "33"], "time": [2986, 3147, 3719, 3807, 5683, 6049, 6901, 7684, 8327, 9433, 10363, 10716, 12174, 12409, 13856, 14208, 18253, 21274, 22238, 25766, 29298, 34086, 34622, 35777, 36255, 37540, 38190, 41614, 41751, 42000, 43014, 43200, 46045, 47945, 48907, 50103, 51309, 54820, 54923, 56396, 57713, 57852, 58822, 58942, 60211, 60619]}, "edge": {"target": [], "time": []}}}, "displayed_time": "67.02", "trialTime": 70376, "trial_type": "mouselab-mdp", "trial_index": 46, "time_elapsed": 3127347, "internal_node_id": "0.0-4.0-1.0-31.0"}}, {"uniqueid": "w12888826:a88272462", "current_trial": 47, "dateTime": 1691074493266, "trialdata": {"revealed_states": [], "clicked_states": ["1", "2", "3", "4", "5", "6", "7", "8", "9", "11", "10", "23", "24", "25", "26", "28"], "num_clicks_accrued": [0, 0, 0, 0, 0, 0, 0, 0, 0, 0, 0, 0, 0], "stateRewards": ["", -2, 1, 6, -2, -10, -78, -69, 14, -15, 7, -1, 1, -1, -2, 13, 77, 32, 87, 5, -74, 30, -26, 1, 3, 4, 12, 39, 54, -43, 2, 10, 23, 13], "withholdReward": false, "trial_id": "mdp_trial_33", "block": "test", "trialIndex": 36, "score": 52.2, "costs": -21.8, "simulationMode": [null, null, null, null, null], "rewards": [1, 3, 4, 12, 54], "path": ["0", "0", "23", "24", "25", "26", "28"], "rt": [38733, 651, 337, 306, 398], "actions": ["left", "left", "left", "up", "right"], "actionTimes": [41528, 42791, 43718, 44691, 45737], "queries": {"click": {"state": {"target": ["1", "2", "3", "4", "5", "6", "7", "8", "9", "11", "10", "23", "24", "25", "26", "28"], "time": [3834, 4805, 5447, 6616, 7659, 13279, 17132, 20513, 21989, 26290, 29877, 33432, 34676, 35346, 36463, 37227]}, "edge": {"target": [], "time": []}}, "mouseover": {"state": {"target": ["1", "2", "3", "4", "4", "5", "6", "7", "7", "7", "8", "8", "9", "9", "11", "8", "10", "23", "24", "25", "27", "26", "28", "27"], "time": [3620, 4616, 5166, 5815, 6117, 7450, 8630, 13859, 14866, 16293, 17795, 18366, 21229, 21565, 23000, 27760, 29357, 32127, 34508, 35074, 36004, 36266, 36879, 39016]}, "edge": {"target": [], "time": []}}, "mouseout": {"state": {"target": ["12", "1", "2", "3", "4", "4", "5", "6", "7", "7", "7", "8", "8", "9", "9", "11", "8", "10", "10", "23", "24", "25", "27", "26", "28"], "time": [982, 4587, 5049, 5704, 6019, 7164, 8277, 13759, 14623, 16149, 17703, 18118, 21053, 21389, 22685, 27729, 27848, 30045, 30451, 34039, 34983, 35553, 36170, 36644, 37664]}, "edge": {"target": [], "time": []}}}, "displayed_time": "46.40", "trialTime": 52904, "trial_type": "mouselab-mdp", "trial_index": 47, "time_elapsed": 3184537, "internal_node_id": "0.0-4.0-1.0-32.0"}}, {"uniqueid": "w12888826:a88272462", "current_trial": 48, "dateTime": 1691074517717, "trialdata": {"revealed_states": [], "clicked_states": ["1", "2", "3", "4", "6", "7"], "num_clicks_accrued": [0, 0, 0, 0, 0, 0, 0, 0, 0, 0, 0, 0, 0], "stateRewards": ["", -2, -1, -5, 10, -36, -70, 68, -9, 86, 71, -10, 2, -4, 7, -7, 66, 44, -66, -13, -69, 43, 15, -2, 2, 6, -13, 62, 57, 50, -10, -69, 42, -72], "withholdReward": false, "trial_id": "mdp_trial_34", "block": "test", "trialIndex": 37, "score": 63.1, "costs": -6.9, "simulationMode": [null, null, null, null, null], "rewards": [-2, -1, -5, 10, 68], "path": ["0", "0", "1", "2", "3", "4", "7"], "rt": [13152, 149, 74, 298, 4], "actions": ["up", "up", "up", "right", "down"], "actionTimes": [16894, 17651, 18325, 19249, 19858], "queries": {"click": {"state": {"target": ["1", "2", "3", "4", "6", "7"], "time": [5003, 6638, 7357, 8019, 8916, 12428]}, "edge": {"target": [], "time": []}}, "mouseover": {"state": {"target": ["0", "1", "2", "2", "3", "4", "6", "7", "5"], "time": [4199, 4756, 5995, 6428, 7019, 7726, 8651, 9299, 13462]}, "edge": {"target": [], "time": []}}, "mouseout": {"state": {"target": ["27", "11", "8", "2", "0", "0", "1", "2", "2", "3", "4", "6", "7"], "time": [1648, 1835, 1951, 2013, 3930, 4674, 5548, 6086, 6981, 7537, 8618, 9266, 12662]}, "edge": {"target": [], "time": []}}}, "displayed_time": "20.49", "trialTime": 23388, "trial_type": "mouselab-mdp", "trial_index": 48, "time_elapsed": 3208991, "internal_node_id": "0.0-4.0-1.0-33.0"}}, {"uniqueid": "w12888826:a88272462", "current_trial": 49, "dateTime": 1691074567550, "trialdata": {"revealed_states": [], "clicked_states": ["1", "2", "3", "8", "11", "9", "10", "4", "5", "6"], "num_clicks_accrued": [0, 0, 0, 0, 0, 0, 0, 0, 0, 0, 0, 0, 0], "stateRewards": ["", 1, 2, -3, 6, -88, 74, -45, 7, -46, 40, -77, 1, -4, 4, 3, 22, -25, -59, 8, -83, 19, -60, -1, -1, -1, -8, 26, -29, 64, -7, -88, -51, -55], "withholdReward": false, "trial_id": "mdp_trial_35", "block": "test", "trialIndex": 38, "score": 65.1, "costs": -14.900000000000002, "simulationMode": [null, null, null, null, null], "rewards": [1, 2, -3, 6, 74], "path": ["0", "0", "1", "2", "3", "4", "6"], "rt": [27899, 410, 2, 380, 67], "actions": ["up", "up", "up", "right", "right"], "actionTimes": [35303, 36310, 36964, 37962, 38615], "queries": {"click": {"state": {"target": ["1", "2", "3", "8", "11", "9", "10", "4", "5", "6"], "time": [9005, 9884, 11084, 11922, 12855, 17079, 20889, 25018, 25766, 30246]}, "edge": {"target": [], "time": []}}, "mouseover": {"state": {"target": ["1", "2", "3", "8", "11", "9", "9", "10", "10", "2", "10", "4", "4", "5", "6", "6", "6", "7", "7", "2"], "time": [8441, 9551, 10804, 11572, 12355, 15382, 16363, 17804, 18159, 20178, 20589, 21682, 24804, 25419, 26208, 29581, 29850, 30813, 32963, 34579]}, "edge": {"target": [], "time": []}}, "mouseout": {"state": {"target": ["5", "8", "10", "2", "7", "12", "0", "1", "2", "3", "8", "11", "11", "9", "9", "9", "10", "10", "2", "10", "4", "4", "5", "6", "6", "6", "7", "7", "2"], "time": [1915, 2060, 2133, 2201, 3299, 3481, 4312, 9373, 10459, 11472, 12106, 13035, 15121, 15773, 17236, 17486, 17981, 20110, 20375, 21290, 24570, 25326, 25967, 29270, 29657, 30551, 32253, 34362, 40892]}, "edge": {"target": [], "time": []}}}, "displayed_time": "39.21", "trialTime": 45715, "trial_type": "mouselab-mdp", "trial_index": 49, "time_elapsed": 3258824, "internal_node_id": "0.0-4.0-1.0-34.0"}}, {"uniqueid": "w12888826:a88272462", "current_trial": 50, "dateTime": 1691074624729, "trialdata": {"revealed_states": [], "clicked_states": ["12", "13", "14", "19", "20", "21", "22", "15", "16", "17", "18", "23", "24", "25", "26", "28", "27"], "num_clicks_accrued": [0, 0, 0, 0, 0, 0, 0, 0, 0, 0, 0, 0, 0], "stateRewards": ["", -2, 2, 3, -7, -31, -33, 29, -8, -57, 50, -83, -1, -1, 5, 13, -23, -62, 25, 5, -66, -85, 14, 1, -2, -1, 16, 71, 33, -19, -14, 5, -43, 79], "withholdReward": false, "trial_id": "mdp_trial_36", "block": "test", "trialIndex": 39, "score": 61.05, "costs": -23.95, "simulationMode": [null, null, null, null, null], "rewards": [1, -2, -1, 16, 71], "path": ["0", "0", "23", "24", "25", "26", "27"], "rt": [41509, 96, 2, 455, 5], "actions": ["left", "left", "left", "up", "up"], "actionTimes": [46307, 47013, 47663, 48717, 49344], "queries": {"click": {"state": {"target": ["12", "13", "14", "19", "20", "21", "22", "15", "16", "17", "18", "23", "24", "25", "26", "28", "27"], "time": [6461, 7266, 8311, 9787, 10784, 14780, 19024, 23729, 25394, 28385, 31611, 35419, 36335, 37049, 37798, 38460, 42035]}, "edge": {"target": [], "time": []}}, "mouseover": {"state": {"target": ["1", "12", "13", "14", "19", "20", "21", "21", "21", "22", "19", "19", "22", "19", "19", "14", "15", "16", "16", "17", "17", "18", "18", "15", "23", "24", "25", "26", "28", "27", "27", "29"], "time": [5709, 5891, 6925, 8107, 9396, 10585, 11878, 14016, 14432, 15421, 16678, 18449, 18609, 19610, 20975, 22416, 23379, 24433, 25097, 26623, 27896, 29226, 31232, 32170, 33131, 35993, 36779, 37517, 38231, 40361, 40625, 42887]}, "edge": {"target": [], "time": []}}, "mouseout": {"state": {"target": ["32", "0", "1", "12", "13", "14", "14", "19", "20", "21", "21", "21", "22", "19", "19", "22", "19", "22", "19", "22", "14", "15", "16", "16", "16", "17", "17", "18", "17", "18", "15", "18", "23", "24", "25", "26", "28", "27", "27"], "time": [3667, 4951, 5823, 6897, 7858, 8564, 9011, 10395, 11472, 13691, 14252, 15391, 16585, 17072, 18542, 19582, 19702, 20884, 21068, 22346, 23310, 23962, 24990, 25639, 26124, 27656, 29053, 30599, 30837, 32138, 32258, 32347, 35901, 36586, 37303, 38116, 38944, 40455, 42345]}, "edge": {"target": [], "time": []}}}, "displayed_time": "50.02", "trialTime": 55393, "trial_type": "mouselab-mdp", "trial_index": 50, "time_elapsed": 3316003, "internal_node_id": "0.0-4.0-1.0-35.0"}}, {"uniqueid": "w12888826:a88272462", "current_trial": 51, "dateTime": 1691074665394, "trialdata": {"revealed_states": [], "clicked_states": ["1", "2", "3", "4", "5", "6", "7", "8"], "num_clicks_accrued": [0, 0, 0, 0, 0, 0, 0, 0, 0, 0, 0, 0, 0], "stateRewards": ["", 1, 2, -3, -6, 50, -7, 7, -7, -80, 21, -1, 2, 2, 4, -1, 33, 84, 1, 14, -53, 81, 6, -2, -2, -3, -9, -87, -38, -59, -5, -74, -3, -71], "withholdReward": false, "trial_id": "mdp_trial_37", "block": "test", "trialIndex": 40, "score": 33.4, "costs": -10.600000000000001, "simulationMode": [null, null, null, null, null], "rewards": [1, 2, -3, -6, 50], "path": ["0", "0", "1", "2", "3", "4", "5"], "rt": [30172, 71, 34, 461, 3], "actions": ["up", "up", "up", "right", "up"], "actionTimes": [32536, 33255, 33985, 35038, 35637], "queries": {"click": {"state": {"target": ["1", "2", "3", "4", "5", "6", "7", "8"], "time": [3584, 4390, 6021, 6997, 7766, 12121, 15484, 19550]}, "edge": {"target": [], "time": []}}, "mouseover": {"state": {"target": ["1", "1", "2", "3", "4", "5", "6", "7", "8", "11", "10", "11", "11"], "time": [3052, 3370, 4119, 4990, 6364, 7563, 10224, 12698, 19240, 20099, 28016, 29038, 29283]}, "edge": {"target": [], "time": []}}, "mouseout": {"state": {"target": ["29", "9", "1", "12", "0", "1", "1", "2", "3", "4", "5", "4", "6", "7", "7", "8", "11", "10", "11", "11"], "time": [null, 46, 688, 933, 2540, 3108, 3809, 4682, 6332, 7322, 8216, 8471, 12608, 15644, 18874, 19923, 27949, 28968, 29107, 30181]}, "edge": {"target": [], "time": []}}}, "displayed_time": "36.25", "trialTime": 39118, "trial_type": "mouselab-mdp", "trial_index": 51, "time_elapsed": 3356668, "internal_node_id": "0.0-4.0-1.0-36.0"}}, {"uniqueid": "w12888826:a88272462", "current_trial": 52, "dateTime": 1691074698728, "trialdata": {"revealed_states": [], "clicked_states": ["23", "24", "25", "26", "29", "27", "28", "30"], "num_clicks_accrued": [0, 0, 0, 0, 0, 0, 0, 0, 0, 0, 0, 0, 0], "stateRewards": ["", 1, 1, 7, -11, 80, -20, -53, -14, 3, 31, 27, 2, -1, -8, -10, 33, 41, 86, 9, 78, -37, -13, -1, -2, -6, -8, -80, 75, 4, -16, -49, -74, 24], "withholdReward": false, "trial_id": "mdp_trial_38", "block": "test", "trialIndex": 41, "score": 47.4, "costs": -10.600000000000001, "simulationMode": [null, null, null, null, null], "rewards": [-1, -2, -6, -8, 75], "path": ["0", "0", "23", "24", "25", "26", "28"], "rt": [16782, 9, 1488, 1102, 615], "actions": ["left", "left", "left", "up", "right"], "actionTimes": [21415, 22095, 24291, 27445, 28702], "queries": {"click": {"state": {"target": ["23", "24", "25", "26", "29", "27", "28", "30"], "time": [5678, 6279, 7010, 7864, 8580, 11985, 15887, 19265]}, "edge": {"target": [], "time": []}}, "mouseover": {"state": {"target": ["23", "24", "25", "26", "26", "29", "27", "28", "26", "30"], "time": [5348, 6033, 6811, 7378, 7663, 8375, 9721, 12469, 16235, 17018]}, "edge": {"target": [], "time": []}}, "mouseout": {"state": {"target": ["11", "1", "0", "23", "24", "25", "26", "26", "29", "27", "28", "26"], "time": [2870, 3003, 3884, 5808, 6516, 7184, 7493, 8044, 8826, 12218, 16204, 16323]}, "edge": {"target": [], "time": []}}}, "displayed_time": "29.36", "trialTime": 32205, "trial_type": "mouselab-mdp", "trial_index": 52, "time_elapsed": 3390002, "internal_node_id": "0.0-4.0-1.0-37.0"}}, {"uniqueid": "w12888826:a88272462", "current_trial": 53, "dateTime": 1691074761926, "trialdata": {"revealed_states": [], "clicked_states": ["12", "13", "14", "19", "21", "20", "22", "15", "16", "17", "18", "23", "24", "25", "26", "27", "28", "29", "30", "32"], "num_clicks_accrued": [0, 0, 0, 0, 0, 0, 0, 0, 0, 0, 0, 0, 0], "stateRewards": ["", -2, 2, -5, 1, 42, -63, -58, -6, 2, 16, 81, -2, 4, 7, -10, 33, 3, -33, -2, -52, -84, -27, 2, -3, -3, 15, -74, -14, -5, -5, -84, 79, -31], "withholdReward": false, "trial_id": "mdp_trial_39", "block": "test", "trialIndex": 42, "score": 40.2, "costs": -29.799999999999997, "simulationMode": [null, null, null, null, null], "rewards": [2, -3, -3, -5, 79], "path": ["0", "0", "23", "24", "25", "30", "32"], "rt": [49533, 342, 93, 503, 121], "actions": ["left", "left", "left", "down", "down"], "actionTimes": [55792, 56756, 57499, 58652, 59427], "queries": {"click": {"state": {"target": ["12", "13", "14", "19", "21", "20", "22", "15", "16", "17", "18", "23", "24", "25", "26", "27", "28", "29", "30", "32"], "time": [8822, 10349, 10939, 11962, 13170, 17001, 21082, 26080, 26909, 30401, 33728, 37303, 37998, 38582, 39365, 40032, 43625, 46959, 50275, 51185]}, "edge": {"target": [], "time": []}}, "mouseover": {"state": {"target": ["12", "13", "14", "19", "21", "20", "20", "19", "22", "14", "15", "18", "15", "16", "17", "17", "15", "18", "14", "0", "23", "24", "24", "23", "24", "25", "26", "27", "28", "26", "29", "26", "30", "32", "33", "33", "30"], "time": [8795, 9063, 10615, 11682, 12670, 13797, 16312, 18842, 19257, 22734, 24958, 25387, 25542, 26642, 27358, 28497, 30815, 31375, 34285, 34922, 35115, 35547, 35727, 36700, 37655, 38279, 39147, 39822, 40648, 43877, 44285, 47440, 48768, 50830, 51704, 53943, 55015]}, "edge": {"target": [], "time": []}}, "mouseout": {"state": {"target": ["30", "0", "12", "13", "14", "19", "21", "20", "20", "19", "22", "14", "15", "18", "15", "16", "17", "15", "17", "15", "18", "14", "0", "23", "24", "24", "23", "24", "25", "26", "27", "28", "26", "29", "26", "28", "30", "32", "33", "33", "30", "30"], "time": [5143, 6596, 9033, 10584, 11377, 12576, 13629, 16120, 18740, 18933, 22171, 24555, 25327, 25467, 26396, 27329, 28148, 28398, 30782, 31127, 34189, 34379, 35018, 35511, 35634, 36117, 37625, 38248, 38768, 39802, 40218, 43791, 43969, 47413, 47647, 47800, 50660, 51527, 53621, 54952, 55108, 60865]}, "edge": {"target": [], "time": []}}}, "displayed_time": "60.02", "trialTime": 61557, "trial_type": "mouselab-mdp", "trial_index": 53, "time_elapsed": 3453199, "internal_node_id": "0.0-4.0-1.0-38.0"}}, {"uniqueid": "w12888826:a88272462", "current_trial": 54, "dateTime": 1691074797150, "trialdata": {"revealed_states": [], "clicked_states": ["1", "2", "3", "4", "7", "6", "5", "8", "9"], "num_clicks_accrued": [0, 0, 0, 0, 0, 0, 0, 0, 0, 0, 0, 0, 0], "stateRewards": ["", 1, -4, -6, -1, -21, 17, -72, 10, 77, 67, -46, -1, 4, -2, 14, -66, -49, -45, -15, -52, 23, -67, 2, -2, -2, 15, -3, 45, -64, 5, -44, 83, 61], "withholdReward": false, "trial_id": "mdp_trial_40", "block": "test", "trialIndex": 43, "score": 65.25, "costs": -12.750000000000002, "simulationMode": [null, null, null, null, null], "rewards": [1, -4, -6, 10, 77], "path": ["0", "0", "1", "2", "3", "8", "9"], "rt": [21239, 83, 1151, 693, 243], "actions": ["up", "up", "up", "left", "up"], "actionTimes": [25052, 25770, 27570, 28888, 29718], "queries": {"click": {"state": {"target": ["1", "2", "3", "4", "7", "6", "5", "8", "9"], "time": [5698, 6523, 7652, 8204, 8888, 12696, 16045, 19500, 20640]}, "edge": {"target": [], "time": []}}, "mouseover": {"state": {"target": ["12", "1", "2", "3", "4", "7", "6", "5", "5", "9", "9", "8", "9", "11", "11"], "time": [4003, 5442, 6122, 7379, 7938, 8593, 9577, 13506, 15686, 16705, 16981, 17330, 20214, 21407, 23162]}, "edge": {"target": [], "time": []}}, "mouseout": {"state": {"target": ["12", "25", "24", "0", "0", "12", "1", "2", "3", "4", "7", "6", "5", "5", "9", "9", "8", "9", "11"], "time": [null, null, 145, 1935, 3978, 5259, 6023, 7111, 7906, 8572, 9262, 13168, 14766, 16429, 16884, 17153, 20042, 21091, 22699]}, "edge": {"target": [], "time": []}}}, "displayed_time": "30.36", "trialTime": 32803, "trial_type": "mouselab-mdp", "trial_index": 54, "time_elapsed": 3488424, "internal_node_id": "0.0-4.0-1.0-39.0"}}, {"uniqueid": "w12888826:a88272462", "current_trial": 55, "dateTime": 1691074908207, "trialdata": {"rt": 110805, "response": {"Q0": "$-2 to $2", "Q1": "$-16 to $16", "Q2": "$-88 to $88", "Q3": "The cost for clicking on nodes varied between nodes.", "Q4": "Very motivated"}, "question_order": [0, 1, 2, 3, 4], "trial_id": "final_quiz_control", "trial_type": "survey-multi-choice", "trial_index": 55, "time_elapsed": 3599464, "internal_node_id": "0.0-4.0-2.0"}}, {"uniqueid": "w12888826:a88272462", "current_trial": 56, "dateTime": 1691075191267, "trialdata": {"rt": 281324, "response": {"Q0": "checking with the nodes inspector as fast as l can", "Q1": "used the same strategy of checking nodes inspector", "Q2": "not difficult"}, "trial_id": "self_report_control", "trial_type": "survey-text", "trial_index": 56, "time_elapsed": 3882315, "internal_node_id": "0.0-4.0-3.0"}}, {"uniqueid": "w12888826:a88272462", "current_trial": 57, "dateTime": 1691075283954, "trialdata": {"rt": 92144, "response": {"Q0": "Strongly agree", "Q1": "Neither disagree nor agree", "Q2": "Agree", "Q3": "Strongly agree", "Q4": "Neither disagree nor agree", "Q5": "Strongly agree", "Q6": "Strongly disagree"}, "question_order": [0, 1, 2, 3, 4, 5, 6], "trial_id": "self_report_2", "trial_type": "survey-multi-choice", "trial_index": 57, "time_elapsed": 3975227, "internal_node_id": "0.0-4.0-4.0"}}, {"uniqueid": "w12888826:a88272462", "current_trial": 58, "dateTime": 1691075310290, "trialdata": {"rt": 26183, "response": {"gender": "female", "age": "28", "colorblind": "0", "effort": "0"}, "trial_type": "survey-html-form", "trial_index": 58, "time_elapsed": 4001563, "internal_node_id": "0.0-4.0-5.0"}}, {"uniqueid": "w12888826:a88272462", "current_trial": 59, "dateTime": 1691075360387, "trialdata": {"rt": 50044, "response": {"Q0": "no", "Q1": "no", "Q2": ""}, "trial_type": "survey-text", "trial_index": 59, "time_elapsed": 4051661, "internal_node_id": "0.0-4.0-6.0"}}, {"uniqueid": "w12888826:a88272462", "current_trial": 60, "dateTime": 1691075363005, "trialdata": {"rt": 2565, "stimulus": "Press 'Finish HIT' in order to reach the completion code. Once the data has been saved, you will receive the code either in this window or in the original browser window where you started the experiment.\n", "response": 0, "trial_type": "html-button-response", "trial_index": 60, "time_elapsed": 4054279, "internal_node_id": "0.0-5.0"}}, {"uniqueid": "w12888826:a88272462", "current_trial": 61, "dateTime": 1691075364045, "trialdata": {"success": true, "trial_type": "fullscreen", "trial_index": 61, "time_elapsed": 4055318, "internal_node_id": "0.0-6.0"}}], "questiondata": {"params": {"CODE": "C6DMOQA6", "MIN_TIME": 14, "inspectCost": 1, "startTime": "Thu Aug 03 2023 16:01:46 GMT+0200 (South Africa Standard Time)", "bonusRate": 0.002, "variance": "1_2_4_8_44", "branching": "31123"}, "final_score": 1184.85}, "eventdata": [{"eventtype": "initialized", "value": null, "timestamp": 1691071305868, "interval": 0}, {"eventtype": "window_resize", "value": [1024, 640], "timestamp": 1691071305868, "interval": 0}, {"eventtype": "focus", "value": "on", "timestamp": 1691071306322, "interval": 454}, {"eventtype": "window_resize", "value": [1024, 640], "timestamp": 1691071306510, "interval": 188}, {"eventtype": "window_resize", "value": [1366, 768], "timestamp": 1691071320404, "interval": 13894}, {"eventtype": "window_resize", "value": [1024, 640], "timestamp": 1691071515029, "interval": 194625}, {"eventtype": "focus", "value": "off", "timestamp": 1691071517345, "interval": 2316}, {"eventtype": "focus", "value": "off", "timestamp": 1691071541553, "interval": 24208}, {"eventtype": "focus", "value": "on", "timestamp": 1691071541553, "interval": 0}, {"eventtype": "focus", "value": "off", "timestamp": 1691071586792, "interval": 45239}, {"eventtype": "focus", "value": "off", "timestamp": 1691071594213, "interval": 7421}, {"eventtype": "focus", "value": "on", "timestamp": 1691071594214, "interval": 1}, {"eventtype": "focus", "value": "off", "timestamp": 1691072335437, "interval": 741223}, {"eventtype": "focus", "value": "on", "timestamp": 1691072335437, "interval": 0}, {"eventtype": "window_resize", "value": [1366, 768], "timestamp": 1691072340639, "interval": 5202}], "useragent": "Mozilla/5.0 (Windows NT 10.0; Win64; x64; rv:109.0) Gecko/20100101 Firefox/115.0", "mode": "live", "id": "w12888826:a88272462", "status": "user data saved", "Beginhit": "2023-08-03 14:01:41.675611", "Beginexp": "2023-08-03 14:02:00.540963", "Endhit": "2023-08-03 15:09:29.228808", "psiturkStatus": 3, "browser": "<redacted>", "platform": "windows", "language": "en-US"}