{"condition": 0, "counterbalance": 0, "assignmentId": "a44424243", "workerId": "w48068842", "hitId": "h80269439", "currenttrial": 55, "bonus": 0, "data": [{"uniqueid": "w48068842:a44424243", "current_trial": 0, "dateTime": 1693481078028, "trialdata": {"success": true, "trial_type": "fullscreen", "trial_index": 0, "time_elapsed": 5743, "internal_node_id": "0.0-0.0"}}, {"uniqueid": "w48068842:a44424243", "current_trial": 1, "dateTime": 1693481105607, "trialdata": {"view_history": [{"page_index": 0, "viewing_time": 27568}], "rt": 27569, "trial_id": "exp_instructions_control", "trial_type": "instructions", "trial_index": 1, "time_elapsed": 33324, "internal_node_id": "0.0-1.0"}}, {"uniqueid": "w48068842:a44424243", "current_trial": 2, "dateTime": 1693481570707, "trialdata": {"view_history": [{"page_index": 0, "viewing_time": 221659}, {"page_index": 1, "viewing_time": 133341}, {"page_index": 2, "viewing_time": 37803}, {"page_index": 3, "viewing_time": 72294}], "rt": 465099, "trial_id": "mouselab_instructions_1_control", "trial_type": "instructions", "trial_index": 2, "time_elapsed": 498424, "internal_node_id": "0.0-2.0-1.0"}}, {"uniqueid": "w48068842:a44424243", "current_trial": 3, "dateTime": 1693481598539, "trialdata": {"revealed_states": [], "clicked_states": ["12", "1", "23"], "num_clicks_accrued": [0, 0, 0, 0, 0, 0, 0, 0, 0, 0, 0, 0, 0], "stateRewards": ["", 10, 10, -10, 10, 10, -10, -10, 10, -10, 10, 10, 10, -10, 10, -10, 10, 10, 10, 10, 10, -10, 10, -10, 10, 10, 10, -10, 10, 10, 10, -10, -10, 10], "withholdReward": false, "trial_id": "practice_1", "block": "test", "trialIndex": 0, "score": 32, "costs": -1.5, "simulationMode": [null, null, null, null, null], "rewards": [10, 10, -10, 10, 10], "path": ["0", "0", "1", "2", "3", "4", "5"], "rt": [7704, 572, 455, 968, 472], "actions": ["up", "up", "up", "right", "up"], "actionTimes": [8278, 9350, 10318, 11800, 12783], "queries": {"click": {"state": {"target": ["12", "1", "23"], "time": [1490, 2680, 4012]}, "edge": {"target": [], "time": []}}, "mouseover": {"state": {"target": ["12", "1", "23"], "time": [1246, 2408, 3641]}, "edge": {"target": [], "time": []}}, "mouseout": {"state": {"target": ["0", "12", "1", "23"], "time": [1048, 2209, 3307, 5543]}, "edge": {"target": [], "time": []}}}, "displayed_time": "13.28", "trialTime": 26719, "trial_type": "mouselab-mdp", "trial_index": 3, "time_elapsed": 526255, "internal_node_id": "0.0-2.0-2.0-0.0"}}, {"uniqueid": "w48068842:a44424243", "current_trial": 4, "dateTime": 1693481619435, "trialdata": {"revealed_states": [], "clicked_states": ["23", "12", "1"], "num_clicks_accrued": [0, 0, 0, 0, 0, 0, 0, 0, 0, 0, 0, 0, 0], "stateRewards": ["", -10, -10, -10, 10, 10, 10, 10, 10, 10, -10, 10, -10, 10, 10, 10, -10, 10, -10, -10, 10, -10, -10, 10, 10, 10, -10, 10, 10, 10, 10, 10, -10, -10], "withholdReward": false, "trial_id": "practice_2", "block": "test", "trialIndex": 1, "score": 32, "costs": -1.5, "simulationMode": [null, null, null, null, null], "rewards": [10, 10, 10, -10, 10], "path": ["0", "0", "23", "24", "25", "26", "29"], "rt": [5510, 526, 542, 908, 339], "actions": ["left", "left", "left", "up", "left"], "actionTimes": [7703, 8750, 9815, 11230, 12077], "queries": {"click": {"state": {"target": ["23", "12", "1"], "time": [2924, 4348, 5501]}, "edge": {"target": [], "time": []}}, "mouseover": {"state": {"target": ["23", "0", "12", "1"], "time": [2702, 3817, 4155, 5238]}, "edge": {"target": [], "time": []}}, "mouseout": {"state": {"target": ["0", "23", "0", "12", "1"], "time": [2651, 3736, 4020, 5002, 6235]}, "edge": {"target": [], "time": []}}}, "displayed_time": "12.57", "trialTime": 20511, "trial_type": "mouselab-mdp", "trial_index": 4, "time_elapsed": 547151, "internal_node_id": "0.0-2.0-2.0-1.0"}}, {"uniqueid": "w48068842:a44424243", "current_trial": 5, "dateTime": 1693481710246, "trialdata": {"view_history": [{"page_index": 0, "viewing_time": 68117}, {"page_index": 1, "viewing_time": 22683}], "rt": 90802, "trial_id": "mouselab_instructions_2_control", "trial_type": "instructions", "trial_index": 5, "time_elapsed": 637963, "internal_node_id": "0.0-2.0-3.0"}}, {"uniqueid": "w48068842:a44424243", "current_trial": 6, "dateTime": 1693481771806, "trialdata": {"rt": 61548, "response": {"Q0": "The cost for clicking on nodes may vary between nodes.", "Q1": "The better I perform the higher my bonus will be.", "Q2": "No, the amount of cash at each node of the web may be different each time.", "Q3": "To get the highest total score.", "Q4": "Only before moving the spider.", "Q5": "3 seconds"}, "question_order": [0, 1, 2, 3, 4, 5], "correct": {"Q0": "The cost for clicking on nodes may vary between nodes.", "Q1": "The better I perform the higher my bonus will be.", "Q2": "No, the amount of cash at each node of the web may be different each time.", "Q3": "To get the highest total score.", "Q4": "Only before moving the spider.", "Q5": "3 seconds"}, "trial_id": "mouselab_quiz_control", "trial_type": "survey-multi-choice", "trial_index": 6, "time_elapsed": 699522, "internal_node_id": "0.0-2.0-4.0"}}, {"uniqueid": "w48068842:a44424243", "current_trial": 7, "dateTime": 1693481787260, "trialdata": {"rt": 15445, "response": {"Q0": "No"}, "question_order": [0], "trial_id": "repeat_check", "trial_type": "survey-multi-choice", "trial_index": 7, "time_elapsed": 714977, "internal_node_id": "0.0-4.0-0.0"}}, {"uniqueid": "w48068842:a44424243", "current_trial": 8, "dateTime": 1693481816215, "trialdata": {"rt": 28946, "stimulus": "\n<h1> Get ready to start the game! </h1>\n\nThank you for reading the instructions. Get ready start with the 40 rounds of this game.\n<br><br>\nIf you need to take a break, feel free to take one after the end of a round, before continuing to the next one.\n<br><br>\nRemember, the more money the spider gets, the bigger your bonus will be!\n<br><br>\n<div style='text-align: center;'>Press <code>space</code> to begin.</div>\n\n<br><br>\n(If, at any point, the <code>space</code> key does not take you to the next page, click once on the text and try again.)", "response": " ", "trial_id": "mdp_ready", "trial_type": "html-keyboard-response", "trial_index": 8, "time_elapsed": 743932, "internal_node_id": "0.0-6.0-0.0"}}, {"uniqueid": "w48068842:a44424243", "current_trial": 9, "dateTime": 1693481843769, "trialdata": {"revealed_states": [], "clicked_states": ["1", "12"], "num_clicks_accrued": [0, 0, 0, 0, 0, 0, 0, 0, 0, 0, 0, 0, 0], "stateRewards": ["", 2, 3, 6, -5, -74, -53, 17, -12, 46, 44, 18, -2, 4, 1, -8, 22, -23, -49, 9, -45, 55, 81, 1, -1, -7, -16, -83, -71, -45, 2, 51, 82, 61], "withholdReward": false, "trial_id": "mdp_trial_1", "block": "test", "trialIndex": 2, "score": -70.8, "costs": -2.8, "simulationMode": [null, null, null, null, null], "rewards": [2, 3, 6, -5, -74], "path": ["0", "0", "1", "2", "3", "4", "5"], "rt": [7282, 668, 533, 201, 823], "actions": ["up", "up", "up", "right", "up"], "actionTimes": [10387, 11570, 12601, 13319, 14657], "queries": {"click": {"state": {"target": ["1", "12"], "time": [5615, 7573]}, "edge": {"target": [], "time": []}}, "mouseover": {"state": {"target": ["12", "19", "22", "12", "1", "23", "12"], "time": [3499, 3837, 3953, 4303, 5220, 6265, 7338]}, "edge": {"target": [], "time": []}}, "mouseout": {"state": {"target": ["22", "9", "8", "2", "1", "0", "12", "19", "22", "12", "1", "23", "12"], "time": [800, 2114, 2164, 2214, 2299, 3453, 3516, 3866, 4002, 4983, 6082, 7185, 8533]}, "edge": {"target": [], "time": []}}}, "displayed_time": "17.11", "trialTime": 27260, "trial_type": "mouselab-mdp", "trial_index": 9, "time_elapsed": 771484, "internal_node_id": "0.0-6.0-1.0-0.0"}}, {"uniqueid": "w48068842:a44424243", "current_trial": 10, "dateTime": 1693481884431, "trialdata": {"revealed_states": [], "clicked_states": ["23", "12", "1", "2", "10", "3", "8", "9", "11"], "num_clicks_accrued": [0, 0, 0, 0, 0, 0, 0, 0, 0, 0, 0, 0, 0], "stateRewards": ["", -2, 2, 8, -6, -25, 3, 87, 2, -62, -2, 74, -2, -1, 2, -1, 79, 49, -37, -14, 5, 67, -9, -1, 2, -2, 5, 15, 38, 32, -14, -38, -38, 30], "withholdReward": false, "trial_id": "mdp_trial_2", "block": "test", "trialIndex": 3, "score": 71.4, "costs": -12.600000000000001, "simulationMode": [null, null, null, null, null], "rewards": [-2, 2, 8, 2, 74], "path": ["0", "0", "1", "2", "3", "8", "11"], "rt": [21917, 120, 157, 371, 200], "actions": ["up", "up", "up", "left", "left"], "actionTimes": [25462, 26097, 26769, 27650, 28344], "queries": {"click": {"state": {"target": ["23", "12", "1", "2", "10", "3", "8", "9", "11"], "time": [4644, 7187, 9727, 11366, 13316, 15679, 17720, 20578, 22449]}, "edge": {"target": [], "time": []}}, "mouseover": {"state": {"target": ["23", "12", "13", "1", "28", "2", "10", "3", "8", "9", "11"], "time": [4163, 5508, 7674, 9573, 10375, 11141, 12558, 14492, 16342, 18441, 21474]}, "edge": {"target": [], "time": []}}, "mouseout": {"state": {"target": ["28", "23", "0", "23", "12", "13", "1", "28", "2", "10", "3", "8", "9", "11"], "time": [2458, 2656, 2878, 5225, 7508, 9264, 10175, 10725, 12124, 14191, 16091, 18224, 21123, 23292]}, "edge": {"target": [], "time": []}}}, "displayed_time": "28.84", "trialTime": 40400, "trial_type": "mouselab-mdp", "trial_index": 10, "time_elapsed": 812147, "internal_node_id": "0.0-6.0-1.0-1.0"}}, {"uniqueid": "w48068842:a44424243", "current_trial": 11, "dateTime": 1693481914000, "trialdata": {"revealed_states": [], "clicked_states": ["1", "23", "24", "25", "26", "29"], "num_clicks_accrued": [0, 0, 0, 0, 0, 0, 0, 0, 0, 0, 0, 0, 0], "stateRewards": ["", 1, 4, -4, 14, 35, 51, 19, -13, 54, 78, -74, -2, -1, -3, 13, -11, -42, -73, -15, -24, -3, -69, 2, -1, 5, 16, -27, 73, 58, 9, -60, 5, -60], "withholdReward": false, "trial_id": "mdp_trial_3", "block": "test", "trialIndex": 4, "score": 71.6, "costs": -8.4, "simulationMode": [null, null, null, null, null], "rewards": [2, -1, 5, 16, 58], "path": ["0", "0", "23", "24", "25", "26", "29"], "rt": [14435, 452, 347, 549, 293], "actions": ["left", "left", "left", "up", "left"], "actionTimes": [16852, 17817, 18681, 19748, 20543], "queries": {"click": {"state": {"target": ["1", "23", "24", "25", "26", "29"], "time": [3186, 5289, 7869, 9708, 11579, 13451]}, "edge": {"target": [], "time": []}}, "mouseover": {"state": {"target": ["1", "23", "0", "24", "24", "25", "26", "29", "27", "30"], "time": [2982, 3715, 5848, 7297, 7683, 8514, 10630, 12497, 14880, 16180]}, "edge": {"target": [], "time": []}}, "mouseout": {"state": {"target": ["23", "0", "1", "23", "0", "24", "24", "25", "26", "29", "27"], "time": [1398, 2802, 3547, 5780, 6182, 7536, 8352, 10296, 12247, 14396, 15719]}, "edge": {"target": [], "time": []}}}, "displayed_time": "21.07", "trialTime": 29241, "trial_type": "mouselab-mdp", "trial_index": 11, "time_elapsed": 841715, "internal_node_id": "0.0-6.0-1.0-2.0"}}, {"uniqueid": "w48068842:a44424243", "current_trial": 12, "dateTime": 1693481956707, "trialdata": {"revealed_states": [], "clicked_states": ["1", "12", "23", "13", "14", "15", "18", "16", "17", "19", "22", "20", "21"], "num_clicks_accrued": [0, 0, 0, 0, 0, 0, 0, 0, 0, 0, 0, 0, 0], "stateRewards": ["", -2, -3, 7, -13, 60, 9, 37, -6, 37, 20, 1, 2, -2, -8, 6, -80, -31, -10, -7, 70, -65, -44, -1, 1, 7, 6, -11, 73, -85, 16, -21, 47, 34], "withholdReward": false, "trial_id": "mdp_trial_4", "block": "test", "trialIndex": 5, "score": 36.8, "costs": -18.2, "simulationMode": [null, null, null, null, null], "rewards": [2, -2, -8, -7, 70], "path": ["0", "0", "12", "13", "14", "19", "20"], "rt": [25155, 436, 301, 411, 221], "actions": ["right", "right", "right", "down", "right"], "actionTimes": [27286, 28235, 29051, 29975, 30721], "queries": {"click": {"state": {"target": ["1", "12", "23", "13", "14", "15", "18", "16", "17", "19", "22", "20", "21"], "time": [3125, 4642, 6283, 8188, 10026, 11802, 14298, 16139, 18002, 19794, 21531, 23394, 25241]}, "edge": {"target": [], "time": []}}, "mouseover": {"state": {"target": ["1", "12", "0", "23", "0", "13", "14", "15", "19", "18", "18", "16", "17", "19", "22", "20", "21"], "time": [2829, 3829, 5228, 5446, 6980, 7512, 9713, 11097, 13112, 13811, 14116, 15062, 16830, 18763, 20546, 23380, 24713]}, "edge": {"target": [], "time": []}}, "mouseout": {"state": {"target": ["30", "24", "23", "0", "12", "12", "1", "12", "0", "23", "0", "12", "13", "14", "15", "14", "19", "18", "18", "16", "17", "17", "19", "22", "19", "20", "20", "21"], "time": [466, 1196, 1262, 1312, 1361, 1515, 3646, 5146, 5363, 6915, 7047, 7280, 9298, 10613, 12629, 13029, 13724, 13845, 14645, 16629, 18091, 18496, 20295, 22329, 23011, 23539, 24096, 25412]}, "edge": {"target": [], "time": []}}}, "displayed_time": "31.21", "trialTime": 42382, "trial_type": "mouselab-mdp", "trial_index": 12, "time_elapsed": 884423, "internal_node_id": "0.0-6.0-1.0-3.0"}}, {"uniqueid": "w48068842:a44424243", "current_trial": 13, "dateTime": 1693481997354, "trialdata": {"revealed_states": [], "clicked_states": ["12", "23", "1", "24", "25", "26", "29", "2"], "num_clicks_accrued": [0, 0, 0, 0, 0, 0, 0, 0, 0, 0, 0, 0, 0], "stateRewards": ["", -2, -3, 1, -7, 39, -67, 16, 5, -20, 73, 66, -1, 4, 5, -3, 23, -68, -87, -8, 3, -3, 17, 1, -4, -2, -13, -32, 34, 61, -5, -11, -18, 12], "withholdReward": false, "trial_id": "mdp_trial_5", "block": "test", "trialIndex": 6, "score": 31.799999999999997, "costs": -11.200000000000001, "simulationMode": [null, null, null, null, null], "rewards": [1, -4, -2, -13, 61], "path": ["0", "0", "23", "24", "25", "26", "29"], "rt": [18164, 342, 271, 144, 255], "actions": ["left", "left", "left", "up", "left"], "actionTimes": [23735, 24611, 25374, 26028, 26774], "queries": {"click": {"state": {"target": ["12", "23", "1", "24", "25", "26", "29", "2"], "time": [6515, 9317, 11743, 14486, 16653, 18388, 20292, 22159]}, "edge": {"target": [], "time": []}}, "mouseover": {"state": {"target": ["12", "1", "23", "1", "24", "25", "26", "29", "28", "2", "23"], "time": [6172, 7366, 8833, 9834, 12333, 14883, 17166, 20005, 21066, 21467, 23050]}, "edge": {"target": [], "time": []}}, "mouseout": {"state": {"target": ["6", "7", "0", "12", "1", "23", "1", "24", "25", "26", "29", "26", "28", "2", "23"], "time": [1068, 1133, 6087, 6949, 8683, 9633, 11855, 14816, 17015, 19902, 20950, 20999, 21099, 22750, 23067]}, "edge": {"target": [], "time": []}}}, "displayed_time": "27.27", "trialTime": 40351, "trial_type": "mouselab-mdp", "trial_index": 13, "time_elapsed": 925070, "internal_node_id": "0.0-6.0-1.0-4.0"}}, {"uniqueid": "w48068842:a44424243", "current_trial": 14, "dateTime": 1693482029281, "trialdata": {"revealed_states": [], "clicked_states": ["12", "23", "1", "2", "3", "4", "6", "5"], "num_clicks_accrued": [0, 0, 0, 0, 0, 0, 0, 0, 0, 0, 0, 0, 0], "stateRewards": ["", 2, 3, 8, 11, 25, -80, 6, -4, -56, 84, -23, -2, -4, -3, 4, -51, -9, -61, -15, -64, 67, -35, 1, -1, -7, -6, 83, 59, -15, 12, -79, 56, 41], "withholdReward": false, "trial_id": "mdp_trial_6", "block": "test", "trialIndex": 7, "score": 37.8, "costs": -11.200000000000001, "simulationMode": [null, null, null, null, null], "rewards": [2, 3, 8, 11, 25], "path": ["0", "0", "1", "2", "3", "4", "5"], "rt": [18763, 82, 152, 213, 330], "actions": ["up", "up", "up", "right", "up"], "actionTimes": [21469, 22073, 22741, 23469, 24320], "queries": {"click": {"state": {"target": ["12", "23", "1", "2", "3", "4", "6", "5"], "time": [4640, 6641, 8472, 11289, 13012, 14911, 16675, 18575]}, "edge": {"target": [], "time": []}}, "mouseover": {"state": {"target": ["0", "12", "0", "23", "1", "2", "2", "24", "2", "2", "10", "3", "4", "6", "5", "22", "22"], "time": [2959, 4287, 5136, 5488, 7119, 9220, 9786, 10272, 10736, 11024, 12169, 12719, 14486, 15604, 17785, 20592, 21009]}, "edge": {"target": [], "time": []}}, "mouseout": {"state": {"target": ["24", "28", "25", "24", "23", "0", "12", "0", "23", "1", "2", "2", "24", "2", "2", "10", "3", "4", "6", "5", "22", "22", "22"], "time": [606, 620, 1804, 1906, 2153, 2979, 5102, 5319, 7036, 8577, 9569, 9969, 10666, 10752, 11869, 12604, 14319, 15419, 17402, 19970, 20605, 25690, 30439]}, "edge": {"target": [], "time": []}}}, "displayed_time": "24.84", "trialTime": 31681, "trial_type": "mouselab-mdp", "trial_index": 14, "time_elapsed": 956996, "internal_node_id": "0.0-6.0-1.0-5.0"}}, {"uniqueid": "w48068842:a44424243", "current_trial": 15, "dateTime": 1693482058544, "trialdata": {"revealed_states": [], "clicked_states": ["23", "1", "12", "13", "14", "15", "18", "16"], "num_clicks_accrued": [0, 0, 0, 0, 0, 0, 0, 0, 0, 0, 0, 0, 0], "stateRewards": ["", 1, 1, 7, -11, 80, -20, -53, -14, 3, 31, 27, 2, -1, -8, -10, 33, 41, 86, 9, 78, -37, -13, -1, -2, -6, -8, -80, 75, 4, -16, -49, -74, 24], "withholdReward": false, "trial_id": "mdp_trial_7", "block": "test", "trialIndex": 8, "score": 57.8, "costs": -11.200000000000001, "simulationMode": [null, null, null, null, null], "rewards": [2, -1, -8, -10, 86], "path": ["0", "0", "12", "13", "14", "15", "18"], "rt": [16211, 608, 364, 411, 327], "actions": ["right", "right", "right", "up", "left"], "actionTimes": [17511, 18640, 19497, 20425, 21259], "queries": {"click": {"state": {"target": ["23", "1", "12", "13", "14", "15", "18", "16"], "time": [1986, 4149, 5984, 8213, 10021, 12362, 14163, 15750]}, "edge": {"target": [], "time": []}}, "mouseover": {"state": {"target": ["23", "1", "0", "12", "13", "13", "14", "15", "18", "16"], "time": [1649, 2662, 5095, 5379, 6679, 7983, 8896, 10645, 12762, 14995]}, "edge": {"target": [], "time": []}}, "mouseout": {"state": {"target": ["6", "6", "7", "1", "0", "23", "1", "0", "12", "13", "13", "14", "15", "18", "16", "15", "18", "3"], "time": [337, 450, 479, 511, 1635, 2346, 4662, 5112, 6612, 7329, 8712, 10396, 12663, 14612, 16428, 16495, 28081, 28967]}, "edge": {"target": [], "time": []}}}, "displayed_time": "21.78", "trialTime": 28973, "trial_type": "mouselab-mdp", "trial_index": 15, "time_elapsed": 986260, "internal_node_id": "0.0-6.0-1.0-6.0"}}, {"uniqueid": "w48068842:a44424243", "current_trial": 16, "dateTime": 1693482088664, "trialdata": {"revealed_states": [], "clicked_states": ["12", "1", "23", "13", "14", "15", "18", "16", "17", "19"], "num_clicks_accrued": [0, 0, 0, 0, 0, 0, 0, 0, 0, 0, 0, 0, 0], "stateRewards": ["", -1, -3, 1, -4, -48, -63, -49, -2, -84, -19, 65, 2, -2, -2, -12, -4, 59, 9, 6, 75, 69, -13, -1, -3, -3, -2, -37, -68, -36, 13, 32, 18, -14], "withholdReward": false, "trial_id": "mdp_trial_8", "block": "test", "trialIndex": 9, "score": 31, "costs": -14.000000000000002, "simulationMode": [null, null, null, null, null], "rewards": [2, -2, -2, -12, 59], "path": ["0", "0", "12", "13", "14", "15", "17"], "rt": [17952, 30, 87, 168, 140], "actions": ["right", "right", "right", "up", "right"], "actionTimes": [20284, 20820, 21411, 22074, 22728], "queries": {"click": {"state": {"target": ["12", "1", "23", "13", "14", "15", "18", "16", "17", "19"], "time": [3006, 4785, 6414, 8237, 10022, 11613, 13181, 15005, 16621, 18334]}, "edge": {"target": [], "time": []}}, "mouseover": {"state": {"target": ["12", "1", "23", "0", "13", "14", "15", "18", "16", "17", "14", "19", "22"], "time": [2707, 3652, 5335, 6936, 7190, 9102, 10686, 12219, 14352, 16018, 17318, 17502, 19018]}, "edge": {"target": [], "time": []}}, "mouseout": {"state": {"target": ["2", "12", "12", "1", "23", "0", "12", "13", "14", "15", "18", "16", "17", "14", "19", "22"], "time": [320, 720, 3016, 5168, 6903, 7019, 7135, 8886, 10402, 12135, 13918, 15551, 17202, 17419, 18868, 19637]}, "edge": {"target": [], "time": []}}}, "displayed_time": "23.22", "trialTime": 29798, "trial_type": "mouselab-mdp", "trial_index": 16, "time_elapsed": 1016380, "internal_node_id": "0.0-6.0-1.0-7.0"}}, {"uniqueid": "w48068842:a44424243", "current_trial": 17, "dateTime": 1693482120632, "trialdata": {"revealed_states": [], "clicked_states": ["12", "1", "23", "2", "3", "4", "6", "5"], "num_clicks_accrued": [0, 0, 0, 0, 0, 0, 0, 0, 0, 0, 0, 0, 0], "stateRewards": ["", 2, -3, 5, 11, -79, 54, 11, -9, -78, 33, 22, -2, -1, 2, 14, 43, 34, 1, 10, 49, -65, 39, -1, 1, -1, 3, -16, -2, 11, 2, 12, 48, -65], "withholdReward": false, "trial_id": "mdp_trial_9", "block": "test", "trialIndex": 10, "score": 57.8, "costs": -11.200000000000001, "simulationMode": [null, null, null, null, null], "rewards": [2, -3, 5, 11, 54], "path": ["0", "0", "1", "2", "3", "4", "6"], "rt": [16107, 63, 42, 48, 77], "actions": ["up", "up", "up", "right", "right"], "actionTimes": [20849, 21422, 21969, 22508, 23119], "queries": {"click": {"state": {"target": ["12", "1", "23", "2", "3", "4", "6", "5"], "time": [5342, 7170, 9310, 11283, 13098, 14781, 16533, 18336]}, "edge": {"target": [], "time": []}}, "mouseover": {"state": {"target": ["12", "1", "23", "2", "3", "4", "6", "5", "2"], "time": [5107, 6089, 7857, 9856, 11856, 13623, 15573, 17706, 18806]}, "edge": {"target": [], "time": []}}, "mouseout": {"state": {"target": ["3", "0", "0", "12", "1", "23", "2", "3", "4", "6", "5", "2", "16"], "time": [3455, 4093, 5074, 5690, 7624, 9589, 11723, 13523, 15239, 17272, 18756, 30828, 31340]}, "edge": {"target": [], "time": []}}}, "displayed_time": "23.63", "trialTime": 31674, "trial_type": "mouselab-mdp", "trial_index": 17, "time_elapsed": 1048349, "internal_node_id": "0.0-6.0-1.0-8.0"}}, {"uniqueid": "w48068842:a44424243", "current_trial": 18, "dateTime": 1693482149946, "trialdata": {"revealed_states": [], "clicked_states": ["1", "12", "23", "24", "25", "26", "29", "28", "27", "30"], "num_clicks_accrued": [0, 0, 0, 0, 0, 0, 0, 0, 0, 0, 0, 0, 0], "stateRewards": ["", 1, 3, 1, -13, 52, -28, 67, -14, 3, 63, -70, -1, -4, 7, -11, -10, 47, -18, 6, 69, -9, -61, 2, 3, -6, 10, 63, -34, 40, -6, -79, -35, -32], "withholdReward": false, "trial_id": "mdp_trial_10", "block": "test", "trialIndex": 11, "score": 58, "costs": -14.000000000000002, "simulationMode": [null, null, null, null, null], "rewards": [2, 3, -6, 10, 63], "path": ["0", "0", "23", "24", "25", "26", "27"], "rt": [19747, 79, 144, 206, 136], "actions": ["left", "left", "left", "up", "up"], "actionTimes": [21198, 21784, 22428, 23140, 23774], "queries": {"click": {"state": {"target": ["1", "12", "23", "24", "25", "26", "29", "28", "27", "30"], "time": [2272, 4314, 6157, 8603, 10554, 12369, 14059, 15891, 17610, 19443]}, "edge": {"target": [], "time": []}}, "mouseover": {"state": {"target": ["1", "12", "12", "0", "23", "2", "28", "25", "24", "25", "26", "29", "28", "27", "30"], "time": [1952, 2949, 3264, 4633, 4748, 7582, 8081, 8164, 8415, 9099, 11133, 13048, 15365, 16931, 18564]}, "edge": {"target": [], "time": []}}, "mouseout": {"state": {"target": ["14", "22", "0", "1", "12", "12", "0", "23", "2", "28", "25", "24", "25", "26", "29", "26", "28", "27", "30"], "time": [585, 665, 1134, 2682, 3015, 4631, 4682, 6898, 8054, 8098, 8369, 8948, 10965, 12781, 14899, 15165, 16648, 18181, 20250]}, "edge": {"target": [], "time": []}}}, "displayed_time": "24.28", "trialTime": 29061, "trial_type": "mouselab-mdp", "trial_index": 18, "time_elapsed": 1077662, "internal_node_id": "0.0-6.0-1.0-9.0"}}, {"uniqueid": "w48068842:a44424243", "current_trial": 19, "dateTime": 1693482180160, "trialdata": {"revealed_states": [], "clicked_states": ["1", "12", "23", "24", "25", "26", "27", "29", "28"], "num_clicks_accrued": [0, 0, 0, 0, 0, 0, 0, 0, 0, 0, 0, 0, 0], "stateRewards": ["", -1, -2, -8, 8, -27, -82, 19, -14, -62, 4, 1, -2, 2, 6, 10, 73, -51, -2, 2, 73, -48, 54, -1, 2, -4, 11, -25, 47, 86, 15, 33, 43, -42], "withholdReward": false, "trial_id": "mdp_trial_11", "block": "test", "trialIndex": 12, "score": 81.4, "costs": -12.600000000000001, "simulationMode": [null, null, null, null, null], "rewards": [-1, 2, -4, 11, 86], "path": ["0", "0", "23", "24", "25", "26", "29"], "rt": [17994, 84, 100, 235, 389], "actions": ["left", "left", "left", "up", "left"], "actionTimes": [20158, 20759, 21362, 22110, 22999], "queries": {"click": {"state": {"target": ["1", "12", "23", "24", "25", "26", "27", "29", "28"], "time": [3174, 4886, 6880, 8680, 10676, 12519, 14382, 16191, 17956]}, "edge": {"target": [], "time": []}}, "mouseover": {"state": {"target": ["1", "12", "0", "23", "23", "24", "25", "26", "27", "29", "28"], "time": [2924, 3690, 5240, 5341, 5658, 7274, 9191, 11190, 13390, 15273, 16924]}, "edge": {"target": [], "time": []}}, "mouseout": {"state": {"target": ["30", "31", "0", "1", "12", "0", "23", "23", "24", "25", "26", "27", "29", "26", "28"], "time": [941, 1139, 2622, 3557, 5190, 5307, 5424, 7191, 9092, 11041, 13124, 14857, 16640, 16757, 18423]}, "edge": {"target": [], "time": []}}}, "displayed_time": "23.51", "trialTime": 29954, "trial_type": "mouselab-mdp", "trial_index": 19, "time_elapsed": 1107877, "internal_node_id": "0.0-6.0-1.0-10.0"}}, {"uniqueid": "w48068842:a44424243", "current_trial": 20, "dateTime": 1693482218066, "trialdata": {"revealed_states": [], "clicked_states": ["1", "12", "23", "13", "14", "15", "17", "16", "18", "2", "3", "4", "6"], "num_clicks_accrued": [0, 0, 0, 0, 0, 0, 0, 0, 0, 0, 0, 0, 0], "stateRewards": ["", 1, 2, -3, 6, -88, 74, -45, 7, -46, 40, -77, 1, -4, 4, 3, 22, -25, -59, 8, -83, 19, -60, -1, -1, -1, -8, 26, -29, 64, -7, -88, -51, -55], "withholdReward": false, "trial_id": "mdp_trial_12", "block": "test", "trialIndex": 13, "score": 61.8, "costs": -18.2, "simulationMode": [null, null, null, null, null], "rewards": [1, 2, -3, 6, 74], "path": ["0", "0", "1", "2", "3", "4", "6"], "rt": [26102, 144, 139, 132, 81], "actions": ["up", "up", "up", "right", "right"], "actionTimes": [28943, 29613, 30257, 30880, 31479], "queries": {"click": {"state": {"target": ["1", "12", "23", "13", "14", "15", "17", "16", "18", "2", "3", "4", "6"], "time": [3502, 5283, 7072, 9492, 11353, 13132, 14981, 16932, 18865, 20741, 22760, 24508, 26023]}, "edge": {"target": [], "time": []}}, "mouseover": {"state": {"target": ["1", "12", "23", "24", "0", "13", "14", "13", "14", "15", "17", "16", "18", "2", "3", "4", "6", "5", "7"], "time": [3229, 3996, 5797, 7563, 8897, 8946, 8979, 9296, 10779, 12013, 13763, 15830, 17429, 19880, 21363, 23413, 25730, 27063, 28079]}, "edge": {"target": [], "time": []}}, "mouseout": {"state": {"target": ["24", "23", "12", "1", "1", "12", "23", "24", "23", "0", "12", "13", "14", "13", "14", "15", "17", "16", "18", "2", "3", "4", "6", "5", "7"], "time": [1283, 1449, 1765, 3631, 3863, 5613, 7463, 8852, 8881, 8913, 8929, 8963, 9251, 10598, 11746, 13629, 15564, 17230, 19413, 21212, 23248, 25330, 26746, 28067, 28095]}, "edge": {"target": [], "time": []}}}, "displayed_time": "32.00", "trialTime": 37647, "trial_type": "mouselab-mdp", "trial_index": 20, "time_elapsed": 1145782, "internal_node_id": "0.0-6.0-1.0-11.0"}}, {"uniqueid": "w48068842:a44424243", "current_trial": 21, "dateTime": 1693482251009, "trialdata": {"revealed_states": [], "clicked_states": ["1", "12", "23", "24", "25", "26", "29", "27"], "num_clicks_accrued": [0, 0, 0, 0, 0, 0, 0, 0, 0, 0, 0, 0, 0], "stateRewards": ["", -1, -1, 4, -16, -75, 81, -51, -7, -84, 73, -30, -2, 1, -3, -16, -77, 33, 14, 1, 45, 87, -66, 2, 2, -5, -7, -19, -17, 79, -3, 8, 49, 47], "withholdReward": false, "trial_id": "mdp_trial_13", "block": "test", "trialIndex": 14, "score": 59.8, "costs": -11.200000000000001, "simulationMode": [null, null, null, null, null], "rewards": [2, 2, -5, -7, 79], "path": ["0", "0", "23", "24", "25", "26", "29"], "rt": [15479, 219, 148, 241, 54], "actions": ["left", "left", "left", "up", "left"], "actionTimes": [19624, 20338, 20997, 21755, 22323], "queries": {"click": {"state": {"target": ["1", "12", "23", "24", "25", "26", "29", "27"], "time": [4772, 6568, 8354, 10561, 12544, 14256, 16024, 17929]}, "edge": {"target": [], "time": []}}, "mouseover": {"state": {"target": ["1", "12", "0", "23", "24", "25", "26", "29", "27"], "time": [4552, 5447, 7047, 7163, 10349, 10997, 13014, 15131, 17147]}, "edge": {"target": [], "time": []}}, "mouseout": {"state": {"target": ["12", "1", "0", "0", "1", "12", "0", "23", "24", "25", "26", "29", "27", "29"], "time": [396, 1264, 1301, 4289, 5313, 6997, 7114, 8881, 10930, 12847, 14797, 16880, 18248, 18730]}, "edge": {"target": [], "time": []}}}, "displayed_time": "22.85", "trialTime": 32657, "trial_type": "mouselab-mdp", "trial_index": 21, "time_elapsed": 1178724, "internal_node_id": "0.0-6.0-1.0-12.0"}}, {"uniqueid": "w48068842:a44424243", "current_trial": 22, "dateTime": 1693482330428, "trialdata": {"revealed_states": [], "clicked_states": ["1", "12", "23", "24", "25", "26", "29", "27"], "num_clicks_accrued": [0, 0, 0, 0, 0, 0, 0, 0, 0, 0, 0, 0, 0], "stateRewards": ["", -1, 2, -6, 6, 43, 78, 78, -2, 55, -29, -17, -2, -4, 1, -15, 13, 7, -79, 8, -28, -68, 36, -1, -3, 3, -16, 84, -18, 87, 10, 32, 13, -81], "withholdReward": false, "trial_id": "mdp_trial_14", "block": "test", "trialIndex": 15, "score": 55.8, "costs": -11.200000000000001, "simulationMode": [null, null, null, null, null], "rewards": [-1, -3, 3, -16, 84], "path": ["0", "0", "23", "24", "25", "26", "27"], "rt": [15798, 26, 56, 664, 70], "actions": ["left", "left", "left", "up", "up"], "actionTimes": [68391, 68936, 69516, 70676, 71263], "queries": {"click": {"state": {"target": ["1", "12", "23", "24", "25", "26", "29", "27"], "time": [53472, 55082, 57177, 58991, 60769, 62699, 64569, 66399]}, "edge": {"target": [], "time": []}}, "mouseover": {"state": {"target": ["1", "12", "0", "23", "31", "31", "24", "25", "26", "29", "27", "28"], "time": [53071, 54004, 55521, 55887, 57698, 57988, 58071, 59637, 61123, 63106, 64958, 67273]}, "edge": {"target": [], "time": []}}, "mouseout": {"state": {"target": ["27", "4", "7", "0", "1", "12", "0", "23", "31", "31", "24", "25", "26", "29", "27", "28"], "time": [51487, 51641, 51671, 52939, 53921, 55437, 55638, 57604, 57752, 58037, 59488, 61056, 63056, 64889, 67238, 67288]}, "edge": {"target": [], "time": []}}}, "displayed_time": "71.76", "trialTime": 79070, "trial_type": "mouselab-mdp", "trial_index": 22, "time_elapsed": 1258144, "internal_node_id": "0.0-6.0-1.0-13.0"}}, {"uniqueid": "w48068842:a44424243", "current_trial": 23, "dateTime": 1693482381128, "trialdata": {"revealed_states": [], "clicked_states": ["1", "12", "23", "2", "3", "4", "6", "5", "7", "8"], "num_clicks_accrued": [0, 0, 0, 0, 0, 0, 0, 0, 0, 0, 0, 0, 0], "stateRewards": ["", 2, 3, -1, 16, -78, -11, 46, 2, -20, 79, -67, 2, 3, 2, 11, -83, -42, -58, -11, -67, -22, 55, 2, -1, -1, -16, -83, -82, 23, -11, -29, 13, 13], "withholdReward": false, "trial_id": "mdp_trial_15", "block": "test", "trialIndex": 16, "score": 52, "costs": -14.000000000000002, "simulationMode": [null, null, null, null, null, null], "rewards": [2, 3, -1, 16, 46], "path": ["0", "0", "1", "2", "3", "4", "7"], "rt": [19337, 915, 61, 144, 110, 75], "actions": ["up", "up", "up", "up", "right", "down"], "actionTimes": [35874, 36794, 37381, 38047, 38680, 39277], "queries": {"click": {"state": {"target": ["1", "12", "23", "2", "3", "4", "6", "5", "7", "8"], "time": [17415, 19214, 21077, 22871, 24654, 26181, 28773, 31054, 32990, 34854]}, "edge": {"target": [], "time": []}}, "mouseover": {"state": {"target": ["1", "12", "0", "23", "2", "3", "4", "7", "11", "8", "6", "5", "5", "4", "7", "8", "33"], "time": [17149, 18266, 19617, 19731, 22115, 23433, 25183, 27187, 28047, 28117, 28438, 29233, 29532, 31447, 31600, 33649, 35299]}, "edge": {"target": [], "time": []}}, "mouseout": {"state": {"target": ["0", "1", "12", "0", "23", "2", "3", "4", "7", "11", "8", "3", "6", "5", "5", "4", "7", "8", "33"], "time": [16954, 17783, 19567, 19649, 21600, 23332, 25083, 27184, 27199, 28083, 28203, 28249, 29133, 29332, 31399, 31498, 33316, 35249, 35316]}, "edge": {"target": [], "time": []}}}, "displayed_time": "39.79", "trialTime": 50430, "trial_type": "mouselab-mdp", "trial_index": 23, "time_elapsed": 1308843, "internal_node_id": "0.0-6.0-1.0-14.0"}}, {"uniqueid": "w48068842:a44424243", "current_trial": 24, "dateTime": 1693482458818, "trialdata": {"revealed_states": [], "clicked_states": ["1", "12", "23", "24", "25", "26", "27", "29", "28", "30"], "num_clicks_accrued": [0, 0, 0, 0, 0, 0, 0, 0, 0, 0, 0, 0, 0], "stateRewards": ["", -1, 3, -4, -14, 78, 67, 2, 13, -32, 28, 39, -2, 1, -4, -4, -4, -42, -86, 11, 64, -29, -32, -1, -4, 2, -7, 5, 68, -61, 2, -21, 85, 50], "withholdReward": false, "trial_id": "mdp_trial_16", "block": "test", "trialIndex": 17, "score": 44, "costs": -14.000000000000002, "simulationMode": [null, null, null, null, null, null], "rewards": [-1, -4, 2, -7, 68], "path": ["0", "0", "23", "24", "25", "26", "28"], "rt": [18766, 1072, 136, 126, 331, 140], "actions": ["left", "left", "left", "left", "up", "right"], "actionTimes": [63082, 64165, 64814, 65454, 66309, 66952], "queries": {"click": {"state": {"target": ["1", "12", "23", "24", "25", "26", "27", "29", "28", "30"], "time": [45113, 47018, 48931, 50722, 52364, 54114, 55655, 57394, 59969, 61689]}, "edge": {"target": [], "time": []}}, "mouseover": {"state": {"target": ["1", "12", "12", "0", "23", "23", "24", "28", "25", "26", "27", "29", "28", "28", "24", "30"], "time": [44746, 45558, 45875, 47342, 47442, 47725, 49658, 51529, 51907, 52924, 54564, 56074, 57907, 58176, 60425, 60573]}, "edge": {"target": [], "time": []}}, "mouseout": {"state": {"target": ["24", "1", "1", "12", "12", "0", "23", "23", "24", "28", "25", "26", "27", "29", "29", "26", "28", "28", "24", "30", "30"], "time": [43560, 43626, 45475, 45625, 47325, 47394, 47557, 49608, 51307, 51775, 52758, 54423, 55958, 57725, 57808, 57892, 57974, 60358, 60440, 61793, 62208]}, "edge": {"target": [], "time": []}}}, "displayed_time": "67.44", "trialTime": 77398, "trial_type": "mouselab-mdp", "trial_index": 24, "time_elapsed": 1386534, "internal_node_id": "0.0-6.0-1.0-15.0"}}, {"uniqueid": "w48068842:a44424243", "current_trial": 25, "dateTime": 1693482517081, "trialdata": {"revealed_states": [], "clicked_states": ["1", "12", "23", "24", "25", "30", "31", "32", "33", "26", "27", "28"], "num_clicks_accrued": [0, 0, 0, 0, 0, 0, 0, 0, 0, 0, 0, 0, 0], "stateRewards": ["", -2, -3, -7, 7, -54, -69, -4, -14, -77, 22, 40, -2, -1, 5, 6, -35, 50, -60, 10, -28, 75, 57, 1, -4, -2, 2, 68, 34, -18, 12, 3, -21, -43], "withholdReward": false, "trial_id": "mdp_trial_17", "block": "test", "trialIndex": 18, "score": 48.2, "costs": -16.8, "simulationMode": [null, null, null, null, null, null], "rewards": [1, -4, -2, 2, 68], "path": ["0", "0", "23", "24", "25", "26", "27"], "rt": [21915, 481, 249, 142, 419, 179], "actions": ["left", "left", "left", "left", "up", "up"], "actionTimes": [45400, 45885, 46653, 47309, 48224, 48917], "queries": {"click": {"state": {"target": ["1", "12", "23", "24", "25", "30", "31", "32", "33", "26", "27", "28"], "time": [24281, 26440, 28033, 29857, 31529, 33360, 35265, 37017, 38832, 40649, 42363, 44224]}, "edge": {"target": [], "time": []}}, "mouseover": {"state": {"target": ["1", "12", "0", "23", "24", "25", "30", "31", "32", "33", "26", "26", "27", "28", "24"], "time": [24055, 24917, 27434, 27751, 29118, 30551, 31983, 33801, 35701, 37584, 39534, 39883, 41116, 43017, 44567]}, "edge": {"target": [], "time": []}}, "mouseout": {"state": {"target": ["23", "1", "12", "0", "23", "24", "25", "30", "31", "32", "33", "26", "26", "27", "28", "24"], "time": [22599, 24651, 27418, 27468, 28701, 30284, 31884, 33651, 35584, 37234, 39251, 39601, 41051, 42684, 44549, 44584]}, "edge": {"target": [], "time": []}}}, "displayed_time": "49.42", "trialTime": 57770, "trial_type": "mouselab-mdp", "trial_index": 25, "time_elapsed": 1444797, "internal_node_id": "0.0-6.0-1.0-16.0"}}, {"uniqueid": "w48068842:a44424243", "current_trial": 26, "dateTime": 1693482604750, "trialdata": {"revealed_states": [], "clicked_states": ["1", "12", "23", "13", "14", "15", "16", "18", "17", "19", "20", "21", "22"], "num_clicks_accrued": [0, 0, 0, 0, 0, 0, 0, 0, 0, 0, 0, 0, 0], "stateRewards": ["", 2, -3, 5, -14, -63, -9, -24, -11, -54, -43, 68, 2, -2, -4, 7, -64, 30, 47, 12, -74, 11, 86, 1, -3, 3, 10, -71, -42, -52, -1, -29, -16, 69], "withholdReward": false, "trial_id": "mdp_trial_18", "block": "test", "trialIndex": 19, "score": 75.8, "costs": -18.2, "simulationMode": [null, null, null, null, null], "rewards": [2, -2, -4, 12, 86], "path": ["0", "0", "12", "13", "14", "19", "22"], "rt": [24613, 67, 154, 124, 368], "actions": ["right", "right", "right", "down", "left"], "actionTimes": [76002, 76585, 77265, 77913, 78807], "queries": {"click": {"state": {"target": ["1", "12", "23", "13", "14", "15", "16", "18", "17", "19", "20", "21", "22"], "time": [52089, 53928, 55457, 57015, 59032, 60595, 62126, 63966, 65862, 67543, 69122, 70783, 72553]}, "edge": {"target": [], "time": []}}, "mouseover": {"state": {"target": ["1", "12", "23", "13", "14", "15", "16", "18", "18", "18", "17", "19", "20", "21", "22", "13", "1", "2", "1"], "time": [51822, 52769, 54374, 56517, 57835, 59469, 61052, 62552, 62866, 63501, 64534, 66485, 68100, 69903, 71418, 73166, 73718, 73935, 74621]}, "edge": {"target": [], "time": []}}, "mouseout": {"state": {"target": ["12", "1", "12", "12", "23", "1", "13", "14", "15", "16", "18", "18", "18", "17", "19", "20", "21", "22", "13", "1", "2", "1"], "time": [50787, 52452, 54009, 54202, 55804, 56035, 57717, 59352, 60957, 62486, 62569, 63202, 64302, 66252, 67708, 69568, 71301, 73102, 73251, 73802, 74589, 74635]}, "edge": {"target": [], "time": []}}}, "displayed_time": "79.31", "trialTime": 87159, "trial_type": "mouselab-mdp", "trial_index": 26, "time_elapsed": 1532466, "internal_node_id": "0.0-6.0-1.0-17.0"}}, {"uniqueid": "w48068842:a44424243", "current_trial": 27, "dateTime": 1693482660084, "trialdata": {"revealed_states": [], "clicked_states": ["1", "12", "23", "24", "25", "26", "28", "27", "29", "30", "31", "32", "33"], "num_clicks_accrued": [0, 0, 0, 0, 0, 0, 0, 0, 0, 0, 0, 0, 0], "stateRewards": ["", -2, -4, 2, 10, -17, 18, 73, 11, -32, 23, -13, -2, -4, 7, 12, -25, 66, -23, 15, 40, -76, -9, 1, 2, -7, -5, -20, 24, 3, -5, 16, -73, 70], "withholdReward": false, "trial_id": "mdp_trial_19", "block": "test", "trialIndex": 20, "score": 42.8, "costs": -18.2, "simulationMode": [null, null, null, null, null], "rewards": [1, 2, -7, -5, 70], "path": ["0", "0", "23", "24", "25", "30", "33"], "rt": [24572, 71, 133, 193, 179], "actions": ["left", "left", "left", "down", "left"], "actionTimes": [44981, 45568, 46210, 46918, 47606], "queries": {"click": {"state": {"target": ["1", "12", "23", "24", "25", "26", "28", "27", "29", "30", "31", "32", "33"], "time": [21518, 23333, 25006, 26824, 28805, 30582, 32229, 33966, 35548, 37134, 38781, 40486, 42158]}, "edge": {"target": [], "time": []}}, "mouseover": {"state": {"target": ["1", "1", "12", "0", "23", "24", "25", "26", "28", "27", "29", "25", "30", "31", "32", "33", "30", "21"], "time": [20805, 21237, 21900, 23658, 23926, 25726, 27574, 29491, 30992, 32909, 34390, 36092, 36458, 37742, 39359, 41075, 42709, 44212]}, "edge": {"target": [], "time": []}}, "mouseout": {"state": {"target": ["24", "23", "0", "12", "1", "1", "1", "12", "0", "23", "24", "25", "26", "28", "27", "29", "25", "30", "31", "32", "33", "30", "31", "21"], "time": [19702, 19717, 19765, 19969, 20886, 21615, 21850, 23625, 23726, 25709, 27309, 29092, 30891, 32659, 34292, 36026, 36124, 37675, 39159, 40761, 42625, 42790, 43309, 44312]}, "edge": {"target": [], "time": []}}}, "displayed_time": "48.13", "trialTime": 55044, "trial_type": "mouselab-mdp", "trial_index": 27, "time_elapsed": 1587800, "internal_node_id": "0.0-6.0-1.0-18.0"}}, {"uniqueid": "w48068842:a44424243", "current_trial": 28, "dateTime": 1693482690033, "trialdata": {"revealed_states": [], "clicked_states": ["1", "12", "2", "3", "8", "9", "11", "10"], "num_clicks_accrued": [0, 0, 0, 0, 0, 0, 0, 0, 0, 0, 0, 0, 0], "stateRewards": ["", 2, 1, -3, 7, 46, 11, -36, 16, 71, 5, 1, 2, -2, -8, -3, -4, 6, 55, 7, 68, -54, 2, 1, 1, 6, -6, 42, -4, -84, -11, -65, 63, 25], "withholdReward": false, "trial_id": "mdp_trial_20", "block": "test", "trialIndex": 21, "score": 75.8, "costs": -11.200000000000001, "simulationMode": [null, null, null, null, null], "rewards": [2, 1, -3, 16, 71], "path": ["0", "0", "1", "2", "3", "8", "9"], "rt": [16997, 553, 426, 363, 193], "actions": ["up", "up", "up", "left", "up"], "actionTimes": [18302, 19355, 20294, 21181, 21895], "queries": {"click": {"state": {"target": ["1", "12", "2", "3", "8", "9", "11", "10"], "time": [2246, 4062, 6807, 8711, 10407, 12502, 14343, 15861]}, "edge": {"target": [], "time": []}}, "mouseover": {"state": {"target": ["1", "12", "23", "2", "2", "3", "8", "9", "11", "10", "13", "19"], "time": [1797, 2898, 4632, 5298, 6352, 7231, 9164, 10964, 13195, 14914, 16564, 16598]}, "edge": {"target": [], "time": []}}, "mouseout": {"state": {"target": ["0", "1", "1", "12", "23", "1", "2", "2", "3", "8", "9", "11", "10", "13", "19"], "time": [1718, 2375, 2664, 4431, 4980, 5097, 6151, 7081, 9048, 10881, 12981, 14798, 16412, 16581, 16615]}, "edge": {"target": [], "time": []}}}, "displayed_time": "22.42", "trialTime": 29664, "trial_type": "mouselab-mdp", "trial_index": 28, "time_elapsed": 1617748, "internal_node_id": "0.0-6.0-1.0-19.0"}}, {"uniqueid": "w48068842:a44424243", "current_trial": 29, "dateTime": 1693482725587, "trialdata": {"revealed_states": [], "clicked_states": ["1", "12", "23", "24", "25", "30", "31", "32", "33", "26", "27", "28"], "num_clicks_accrued": [0, 0, 0, 0, 0, 0, 0, 0, 0, 0, 0, 0, 0], "stateRewards": ["", -1, 1, 6, -6, 70, 66, 67, -16, -75, -35, 37, -1, 4, 4, -6, 47, -9, 63, 15, 21, -63, 13, 1, 3, -6, 10, 79, -29, 18, -15, 9, -67, -19], "withholdReward": false, "trial_id": "mdp_trial_21", "block": "test", "trialIndex": 22, "score": 70.2, "costs": -16.8, "simulationMode": [null, null, null, null, null], "rewards": [1, 3, -6, 10, 79], "path": ["0", "0", "23", "24", "25", "26", "27"], "rt": [22560, 112, 169, 172, 126], "actions": ["left", "left", "left", "up", "up"], "actionTimes": [24357, 24996, 25685, 26355, 26994], "queries": {"click": {"state": {"target": ["1", "12", "23", "24", "25", "30", "31", "32", "33", "26", "27", "28"], "time": [2711, 4644, 6328, 8349, 10351, 12094, 13686, 15407, 17134, 19007, 20799, 22576]}, "edge": {"target": [], "time": []}}, "mouseover": {"state": {"target": ["1", "12", "0", "23", "24", "25", "30", "31", "32", "33", "25", "26", "27", "28"], "time": [2214, 3414, 5014, 5163, 8000, 8863, 10813, 12563, 14245, 16045, 17795, 18096, 19512, 21362]}, "edge": {"target": [], "time": []}}, "mouseout": {"state": {"target": ["12", "0", "1", "12", "0", "23", "24", "24", "25", "30", "31", "32", "30", "33", "25", "26", "27", "28"], "time": [1365, 2151, 3097, 4964, 5097, 7030, 8697, 8746, 10730, 12413, 14114, 15596, 15863, 17512, 17846, 19332, 21244, 23030]}, "edge": {"target": [], "time": []}}}, "displayed_time": "27.52", "trialTime": 35244, "trial_type": "mouselab-mdp", "trial_index": 29, "time_elapsed": 1653303, "internal_node_id": "0.0-6.0-1.0-20.0"}}, {"uniqueid": "w48068842:a44424243", "current_trial": 30, "dateTime": 1693482773193, "trialdata": {"revealed_states": [], "clicked_states": ["1", "12", "23", "2", "3", "8", "9", "11", "10", "4", "5", "6", "7", "24", "25", "26", "27", "29"], "num_clicks_accrued": [0, 0, 0, 0, 0, 0, 0, 0, 0, 0, 0, 0, 0], "stateRewards": ["", -2, -2, -3, -6, -15, -11, 41, -12, -63, -76, 2, -2, -3, 8, 9, -36, -2, -18, -16, -32, -85, -17, -2, 1, 5, -16, 82, 35, -88, -1, 80, -82, -20], "withholdReward": false, "trial_id": "mdp_trial_22", "block": "test", "trialIndex": 23, "score": 44.80000000000001, "costs": -25.199999999999992, "simulationMode": [null, null, null, null, null], "rewards": [-2, 1, 5, -16, 82], "path": ["0", "0", "23", "24", "25", "26", "27"], "rt": [34057, 62, 72, 103, 78], "actions": ["left", "left", "left", "up", "up"], "actionTimes": [36114, 36675, 37267, 37883, 38455], "queries": {"click": {"state": {"target": ["1", "12", "23", "2", "3", "8", "9", "11", "10", "4", "5", "6", "7", "24", "25", "26", "27", "29"], "time": [2839, 4714, 6478, 9127, 10950, 12815, 14674, 16494, 18368, 20192, 21855, 23375, 25204, 26788, 28507, 30246, 32220, 33989]}, "edge": {"target": [], "time": []}}, "mouseover": {"state": {"target": ["1", "12", "0", "23", "24", "1", "2", "3", "4", "8", "9", "11", "10", "3", "4", "5", "6", "7", "1", "23", "24", "25", "26", "27", "29", "25", "31"], "time": [2632, 3394, 5161, 5197, 7143, 8698, 8950, 9577, 11394, 11977, 13178, 15144, 16960, 18777, 18893, 20561, 22543, 24190, 25708, 25857, 26058, 27240, 28890, 30741, 32874, 34440, 34474]}, "edge": {"target": [], "time": []}}, "mouseout": {"state": {"target": ["21", "22", "1", "12", "0", "23", "24", "1", "2", "3", "4", "3", "8", "9", "11", "10", "3", "4", "5", "6", "7", "1", "23", "24", "25", "26", "27", "29", "25", "31"], "time": [1363, 1395, 3210, 5127, 5194, 6992, 8476, 8744, 9442, 11067, 11811, 11860, 13044, 15012, 16893, 18391, 18825, 20353, 22226, 23928, 25591, 25741, 25907, 26931, 28669, 30590, 32641, 34391, 34457, 34491]}, "edge": {"target": [], "time": []}}}, "displayed_time": "38.98", "trialTime": 47298, "trial_type": "mouselab-mdp", "trial_index": 30, "time_elapsed": 1700909, "internal_node_id": "0.0-6.0-1.0-21.0"}}, {"uniqueid": "w48068842:a44424243", "current_trial": 31, "dateTime": 1693482812442, "trialdata": {"revealed_states": [], "clicked_states": ["12", "1", "23", "24", "25", "26", "27", "28", "29", "30", "33", "31", "32"], "num_clicks_accrued": [0, 0, 0, 0, 0, 0, 0, 0, 0, 0, 0, 0, 0], "stateRewards": ["", -2, -3, 8, -4, -30, 31, 69, 9, 66, 87, 64, -2, 2, 8, 5, 47, 16, -39, -8, -54, 51, -19, 1, -2, -2, -11, -25, -26, 43, -9, 19, -84, 86], "withholdReward": false, "trial_id": "mdp_trial_23", "block": "test", "trialIndex": 24, "score": 55.8, "costs": -18.2, "simulationMode": [null, null, null, null, null], "rewards": [1, -2, -2, -9, 86], "path": ["0", "0", "23", "24", "25", "30", "33"], "rt": [24312, 117, 156, 124, 222], "actions": ["left", "left", "left", "down", "left"], "actionTimes": [25716, 26338, 26992, 27629, 28360], "queries": {"click": {"state": {"target": ["12", "1", "23", "24", "25", "26", "27", "28", "29", "30", "33", "31", "32"], "time": [2231, 3798, 6010, 7821, 9653, 11382, 13340, 14933, 16727, 18663, 20389, 22015, 23829]}, "edge": {"target": [], "time": []}}, "mouseover": {"state": {"target": ["12", "1", "23", "24", "25", "26", "27", "28", "29", "25", "30", "33", "31", "32"], "time": [1970, 2651, 4433, 6483, 8232, 10033, 11900, 14000, 15583, 17183, 17267, 19700, 20917, 22816]}, "edge": {"target": [], "time": []}}, "mouseout": {"state": {"target": ["13", "2", "10", "12", "1", "23", "23", "24", "25", "26", "27", "28", "29", "25", "30", "33", "30", "31", "32"], "time": [469, 535, 616, 2266, 4304, 6140, 6381, 8183, 9899, 11750, 13715, 15282, 17133, 17216, 19333, 20800, 20867, 22550, 24234]}, "edge": {"target": [], "time": []}}}, "displayed_time": "28.87", "trialTime": 38940, "trial_type": "mouselab-mdp", "trial_index": 31, "time_elapsed": 1740158, "internal_node_id": "0.0-6.0-1.0-22.0"}}, {"uniqueid": "w48068842:a44424243", "current_trial": 32, "dateTime": 1693482843958, "trialdata": {"revealed_states": [], "clicked_states": ["1", "12", "23", "2", "3", "4", "5", "6", "7"], "num_clicks_accrued": [0, 0, 0, 0, 0, 0, 0, 0, 0, 0, 0, 0, 0], "stateRewards": ["", 1, 2, 7, 13, 88, -71, 27, 3, 60, 5, -53, -2, 2, -6, -1, -30, 79, 47, -4, -14, 46, 68, 1, 1, 8, 10, -14, 86, 48, -11, -67, -44, 5], "withholdReward": false, "trial_id": "mdp_trial_24", "block": "test", "trialIndex": 25, "score": 98.4, "costs": -12.600000000000001, "simulationMode": [null, null, null, null, null], "rewards": [1, 2, 7, 13, 88], "path": ["0", "0", "1", "2", "3", "4", "5"], "rt": [18813, 86, 137, 262, 76], "actions": ["up", "up", "up", "right", "up"], "actionTimes": [20434, 21033, 21666, 22442, 23040], "queries": {"click": {"state": {"target": ["1", "12", "23", "2", "3", "4", "5", "6", "7"], "time": [2453, 4390, 6291, 8934, 10542, 12421, 14215, 16173, 18004]}, "edge": {"target": [], "time": []}}, "mouseover": {"state": {"target": ["1", "12", "0", "23", "2", "2", "3", "4", "5", "6", "7", "16"], "time": [2178, 3009, 4792, 4857, 6979, 8696, 9293, 10974, 12857, 14676, 16710, 18626]}, "edge": {"target": [], "time": []}}, "mouseout": {"state": {"target": ["12", "1", "0", "1", "12", "0", "23", "2", "2", "3", "4", "5", "6", "7", "16", "18"], "time": [773, 1007, 1997, 2877, 4758, 4824, 6707, 8278, 9192, 10910, 12727, 14576, 16593, 18440, 22225, 22309]}, "edge": {"target": [], "time": []}}}, "displayed_time": "23.56", "trialTime": 31213, "trial_type": "mouselab-mdp", "trial_index": 32, "time_elapsed": 1771674, "internal_node_id": "0.0-6.0-1.0-23.0"}}, {"uniqueid": "w48068842:a44424243", "current_trial": 33, "dateTime": 1693482879675, "trialdata": {"revealed_states": [], "clicked_states": ["1", "12", "23", "2", "3", "4", "5", "6", "7"], "num_clicks_accrued": [0, 0, 0, 0, 0, 0, 0, 0, 0, 0, 0, 0, 0], "stateRewards": ["", 2, -3, -2, 14, -4, 85, 46, 15, -28, 41, 31, -1, -1, -1, 5, 62, 79, 57, 12, -73, -64, 86, -1, 1, -3, -5, 68, 11, -32, 8, -80, -21, -56], "withholdReward": false, "trial_id": "mdp_trial_25", "block": "test", "trialIndex": 26, "score": 83.4, "costs": -12.600000000000001, "simulationMode": [null, null, null, null, null], "rewards": [2, -3, -2, 14, 85], "path": ["0", "0", "1", "2", "3", "4", "6"], "rt": [17392, 76, 180, 10, 74], "actions": ["up", "up", "up", "right", "right"], "actionTimes": [18755, 19343, 20045, 20576, 21190], "queries": {"click": {"state": {"target": ["1", "12", "23", "2", "3", "4", "5", "6", "7"], "time": [2141, 4135, 6132, 8012, 9829, 11490, 13276, 15091, 16802]}, "edge": {"target": [], "time": []}}, "mouseover": {"state": {"target": ["1", "2", "12", "0", "23", "2", "3", "4", "5", "6", "7", "12"], "time": [1782, 2928, 3262, 4512, 5425, 6661, 8845, 10229, 12112, 13762, 15662, 17462]}, "edge": {"target": [], "time": []}}, "mouseout": {"state": {"target": ["0", "1", "2", "1", "12", "0", "23", "2", "3", "4", "5", "6", "7", "12"], "time": [782, 2610, 3165, 3194, 4478, 4612, 6429, 8728, 10129, 11946, 13595, 15478, 17328, 17495]}, "edge": {"target": [], "time": []}}}, "displayed_time": "21.72", "trialTime": 35400, "trial_type": "mouselab-mdp", "trial_index": 33, "time_elapsed": 1807390, "internal_node_id": "0.0-6.0-1.0-24.0"}}, {"uniqueid": "w48068842:a44424243", "current_trial": 34, "dateTime": 1693482916062, "trialdata": {"revealed_states": [], "clicked_states": ["1", "23", "12", "2", "3", "4", "5", "6", "7", "8", "9", "11", "10"], "num_clicks_accrued": [0, 0, 0, 0, 0, 0, 0, 0, 0, 0, 0, 0, 0], "stateRewards": ["", 2, -2, 7, -11, -76, -65, -23, 16, -58, 30, 81, 1, 2, 7, 14, 9, 55, -2, 6, 11, -15, 31, -1, -1, -3, 2, 15, 2, 46, 15, 18, 45, -34], "withholdReward": false, "trial_id": "mdp_trial_26", "block": "test", "trialIndex": 27, "score": 85.8, "costs": -18.2, "simulationMode": [null, null, null, null, null], "rewards": [2, -2, 7, 16, 81], "path": ["0", "0", "1", "2", "3", "8", "11"], "rt": [24428, 51, 15, 47, 45], "actions": ["up", "up", "up", "left", "left"], "actionTimes": [27698, 28260, 28812, 29360, 29942], "queries": {"click": {"state": {"target": ["1", "23", "12", "2", "3", "4", "5", "6", "7", "8", "9", "11", "10"], "time": [4234, 6044, 7563, 9389, 11309, 13093, 14763, 16355, 18140, 19967, 21684, 23518, 25307]}, "edge": {"target": [], "time": []}}, "mouseover": {"state": {"target": ["1", "23", "12", "2", "3", "4", "5", "6", "7", "8", "9", "11", "10", "14", "15"], "time": [3765, 4643, 6610, 8276, 9825, 11692, 13472, 15476, 17160, 19077, 20376, 22193, 23977, 26025, 26392]}, "edge": {"target": [], "time": []}}, "mouseout": {"state": {"target": ["23", "0", "1", "23", "12", "2", "3", "4", "5", "5", "6", "7", "8", "9", "11", "10", "14", "15"], "time": [2162, 2777, 4576, 6377, 7977, 9610, 11660, 13327, 14885, 15193, 16894, 18318, 20160, 22076, 23962, 25776, 26310, 26560]}, "edge": {"target": [], "time": []}}}, "displayed_time": "30.48", "trialTime": 35838, "trial_type": "mouselab-mdp", "trial_index": 34, "time_elapsed": 1843778, "internal_node_id": "0.0-6.0-1.0-25.0"}}, {"uniqueid": "w48068842:a44424243", "current_trial": 35, "dateTime": 1693482953524, "trialdata": {"revealed_states": [], "clicked_states": ["1", "12", "23", "13", "14", "15", "16", "17", "18", "19", "20", "21", "22"], "num_clicks_accrued": [0, 0, 0, 0, 0, 0, 0, 0, 0, 0, 0, 0, 0], "stateRewards": ["", 1, 4, -8, -13, -13, -87, -77, -10, -44, 54, 42, 2, -3, -4, 12, -9, -80, 52, 9, 84, -2, -65, 1, -4, -5, -6, 8, 80, 32, 13, -59, -5, -13], "withholdReward": false, "trial_id": "mdp_trial_27", "block": "test", "trialIndex": 28, "score": 69.8, "costs": -18.2, "simulationMode": [null, null, null, null, null], "rewards": [2, -3, -4, 9, 84], "path": ["0", "0", "12", "13", "14", "19", "20"], "rt": [23850, 443, 168, 344, 220], "actions": ["right", "right", "right", "down", "right"], "actionTimes": [25990, 26953, 27642, 28487, 29226], "queries": {"click": {"state": {"target": ["1", "12", "23", "13", "14", "15", "16", "17", "18", "19", "20", "21", "22"], "time": [3029, 4974, 6773, 8403, 10334, 12084, 13668, 15549, 17397, 19036, 20780, 22348, 24342]}, "edge": {"target": [], "time": []}}, "mouseover": {"state": {"target": ["0", "1", "12", "0", "23", "13", "13", "14", "15", "16", "17", "18", "14", "19", "20", "21", "22"], "time": [2253, 2589, 3503, 5317, 5453, 7237, 7618, 8918, 10919, 12553, 14287, 15951, 17768, 17985, 19503, 21386, 23189]}, "edge": {"target": [], "time": []}}, "mouseout": {"state": {"target": ["13", "1", "0", "0", "1", "1", "12", "0", "23", "12", "13", "13", "14", "15", "16", "17", "15", "18", "14", "19", "20", "21", "22"], "time": [1170, 1438, 2150, 2389, 3159, 3419, 5301, 5403, 7153, 7203, 7286, 8903, 10720, 12487, 13970, 15868, 15923, 17719, 17869, 19469, 21184, 23056, 24722]}, "edge": {"target": [], "time": []}}}, "displayed_time": "29.73", "trialTime": 36876, "trial_type": "mouselab-mdp", "trial_index": 35, "time_elapsed": 1881239, "internal_node_id": "0.0-6.0-1.0-26.0"}}, {"uniqueid": "w48068842:a44424243", "current_trial": 36, "dateTime": 1693482993352, "trialdata": {"revealed_states": [], "clicked_states": ["1", "12", "23", "2", "3", "8", "9", "11", "10", "4", "7", "6", "5"], "num_clicks_accrued": [0, 0, 0, 0, 0, 0, 0, 0, 0, 0, 0, 0, 0], "stateRewards": ["", 1, 4, 5, 8, -55, -11, 8, 16, -37, 77, -22, -2, 3, -8, -10, 45, 87, -67, 4, 17, -33, -22, -1, -3, 7, 6, -39, -85, 75, -1, 7, -48, 45], "withholdReward": false, "trial_id": "mdp_trial_28", "block": "test", "trialIndex": 29, "score": 84.8, "costs": -18.2, "simulationMode": [null, null, null, null, null], "rewards": [1, 4, 5, 16, 77], "path": ["0", "0", "1", "2", "3", "8", "10"], "rt": [24139, 387, 265, 392, 50], "actions": ["up", "up", "up", "left", "down"], "actionTimes": [26131, 27036, 27797, 28708, 29283], "queries": {"click": {"state": {"target": ["1", "12", "23", "2", "3", "8", "9", "11", "10", "4", "7", "6", "5"], "time": [2797, 4424, 6070, 8141, 9960, 11502, 13320, 15023, 16695, 18344, 20104, 21952, 23733]}, "edge": {"target": [], "time": []}}, "mouseover": {"state": {"target": ["1", "12", "23", "24", "2", "3", "4", "8", "9", "11", "11", "10", "3", "4", "7", "6", "5", "5", "4", "13", "22"], "time": [2349, 3313, 4829, 6446, 7332, 8546, 10278, 10728, 12063, 13779, 14080, 15779, 17211, 17610, 18744, 20496, 22446, 22764, 24330, 25179, 25381]}, "edge": {"target": [], "time": []}}, "mouseout": {"state": {"target": ["23", "0", "1", "12", "23", "24", "2", "3", "4", "3", "8", "9", "11", "11", "11", "10", "3", "4", "7", "6", "5", "5", "4", "7", "13", "22"], "time": [1430, 1579, 3178, 4763, 6413, 6997, 8496, 10246, 10546, 10697, 11846, 13713, 13847, 15191, 15544, 17029, 17513, 18677, 20362, 22363, 22496, 24295, 24362, 24429, 25348, 25465]}, "edge": {"target": [], "time": []}}}, "displayed_time": "29.80", "trialTime": 39513, "trial_type": "mouselab-mdp", "trial_index": 36, "time_elapsed": 1921068, "internal_node_id": "0.0-6.0-1.0-27.0"}}, {"uniqueid": "w48068842:a44424243", "current_trial": 37, "dateTime": 1693483043103, "trialdata": {"revealed_states": [], "clicked_states": ["1", "12", "23", "24", "25", "26", "27", "29", "28", "30", "33", "32", "31", "2", "3", "5", "4", "6", "7"], "num_clicks_accrued": [0, 0, 0, 0, 0, 0, 0, 0, 0, 0, 0, 0, 0], "stateRewards": ["", 1, -1, 8, 4, 76, -33, -17, -3, -1, -54, -74, -2, 2, -5, 13, -51, 63, 83, 1, 84, 29, -36, 2, -1, 7, -12, -10, -44, -43, -14, 8, -69, 19], "withholdReward": false, "trial_id": "mdp_trial_29", "block": "test", "trialIndex": 30, "score": 61.400000000000006, "costs": -26.59999999999999, "simulationMode": [null, null, null, null, null], "rewards": [1, -1, 8, 4, 76], "path": ["0", "0", "1", "2", "3", "4", "5"], "rt": [35261, 557, 209, 167, 464], "actions": ["up", "up", "up", "right", "up"], "actionTimes": [36541, 37595, 38330, 39019, 39984], "queries": {"click": {"state": {"target": ["1", "12", "23", "24", "25", "26", "27", "29", "28", "30", "33", "32", "31", "2", "3", "5", "4", "6", "7"], "time": [1909, 3475, 5364, 7981, 9646, 11179, 12929, 14555, 16204, 18045, 19939, 21588, 23227, 25189, 26911, 29072, 30652, 32419, 34325]}, "edge": {"target": [], "time": []}}, "mouseover": {"state": {"target": ["1", "12", "23", "24", "25", "11", "2", "24", "25", "26", "26", "27", "29", "28", "30", "33", "32", "31", "1", "2", "3", "4", "5", "4", "4", "6", "7", "7", "16"], "time": [1654, 2350, 4051, 5665, 5704, 6517, 7020, 7769, 8648, 10067, 10450, 11817, 13364, 15065, 17450, 18515, 20400, 22166, 24117, 24366, 25699, 27350, 28733, 29366, 29700, 31197, 32833, 33281, 34915]}, "edge": {"target": [], "time": []}}, "mouseout": {"state": {"target": ["1", "1", "12", "23", "24", "25", "11", "2", "24", "25", "26", "26", "27", "27", "29", "28", "28", "30", "30", "33", "32", "31", "1", "2", "3", "4", "5", "4", "4", "6", "7", "7", "16"], "time": [2041, 2316, 3909, 5649, 5700, 5717, 6566, 7420, 8384, 9967, 10133, 11716, 12986, 13234, 14832, 16816, 17134, 18197, 18433, 20333, 22017, 23649, 24149, 25565, 27233, 28670, 29198, 29483, 30999, 32734, 33100, 34333, 34932]}, "edge": {"target": [], "time": []}}}, "displayed_time": "40.50", "trialTime": 49469, "trial_type": "mouselab-mdp", "trial_index": 37, "time_elapsed": 1970819, "internal_node_id": "0.0-6.0-1.0-28.0"}}, {"uniqueid": "w48068842:a44424243", "current_trial": 38, "dateTime": 1693483101750, "trialdata": {"revealed_states": [], "clicked_states": ["1", "12", "23", "13", "14", "15", "16", "17", "18", "19", "20", "21", "22", "7", "6", "5", "9", "11", "10", "27", "29", "28", "33", "32", "31"], "num_clicks_accrued": [0, 0, 0, 0, 0, 0, 0, 0, 0, 0, 0, 0, 0], "stateRewards": ["", -2, 2, -1, -6, 22, 6, 6, -5, 70, -42, 65, 1, 3, 5, -6, -67, -9, 3, 14, 7, -62, -13, -2, 4, 1, 16, 42, -21, -52, -8, 32, 53, 81], "withholdReward": false, "trial_id": "mdp_trial_30", "block": "test", "trialIndex": 31, "score": 41.000000000000014, "costs": -34.999999999999986, "simulationMode": [null, null, null, null, null], "rewards": [-2, 4, 1, -8, 81], "path": ["0", "0", "23", "24", "25", "30", "33"], "rt": [47299, 4, 142, 47, 132], "actions": ["left", "left", "left", "down", "left"], "actionTimes": [48843, 49366, 50020, 50591, 51244], "queries": {"click": {"state": {"target": ["1", "12", "23", "13", "14", "15", "16", "17", "18", "19", "20", "21", "22", "7", "6", "5", "9", "11", "10", "27", "29", "28", "33", "32", "31"], "time": [2381, 4021, 5829, 8182, 9725, 11476, 13237, 15046, 16936, 18751, 20462, 22247, 24096, 26006, 27813, 29629, 31308, 32966, 34742, 37101, 38962, 40790, 42969, 44775, 46582]}, "edge": {"target": [], "time": []}}, "mouseover": {"state": {"target": ["1", "12", "12", "23", "24", "24", "13", "14", "15", "16", "17", "18", "13", "19", "20", "21", "22", "7", "7", "2", "4", "6", "5", "9", "11", "8", "10", "2", "27", "29", "26", "28", "24", "25", "33", "32", "30", "31"], "time": [2146, 2875, 3225, 4558, 6392, 7545, 7826, 8582, 10108, 11924, 13843, 15529, 17326, 17408, 19208, 21156, 23142, 25007, 25257, 26560, 26825, 27124, 28425, 30359, 32058, 33540, 33858, 35408, 36924, 37591, 39425, 39607, 41174, 42513, 42760, 43875, 45224, 45541]}, "edge": {"target": [], "time": []}}, "mouseout": {"state": {"target": ["18", "0", "1", "12", "12", "23", "24", "24", "13", "14", "15", "16", "17", "15", "18", "13", "19", "20", "20", "21", "22", "7", "7", "2", "4", "6", "5", "9", "11", "11", "8", "10", "10", "2", "10", "27", "29", "29", "26", "28", "24", "25", "33", "32", "30", "31"], "time": [612, 922, 2809, 2991, 4358, 6273, 7008, 7611, 8526, 10058, 11775, 13739, 15326, 15457, 17276, 17340, 19158, 20633, 20842, 22875, 24858, 25090, 26441, 26675, 27008, 27860, 30024, 31792, 33135, 33475, 33557, 34883, 35241, 36638, 36672, 37499, 39082, 39375, 39557, 41108, 42495, 42557, 43391, 44944, 45241, 47109]}, "edge": {"target": [], "time": []}}}, "displayed_time": "51.76", "trialTime": 58342, "trial_type": "mouselab-mdp", "trial_index": 38, "time_elapsed": 2029466, "internal_node_id": "0.0-6.0-1.0-29.0"}}, {"uniqueid": "w48068842:a44424243", "current_trial": 39, "dateTime": 1693483148495, "trialdata": {"revealed_states": [], "clicked_states": ["9", "5", "6", "7", "10", "11", "27", "29", "28", "33", "32", "31", "21", "20", "22", "17", "16", "18"], "num_clicks_accrued": [0, 0, 0, 0, 0, 0, 0, 0, 0, 0, 0, 0, 0], "stateRewards": ["", 2, 4, 4, 9, -88, -10, 44, 16, -54, 64, 78, 1, 2, 5, 16, 80, 36, 7, -4, 9, -47, -70, -1, -3, 6, -16, 11, 80, 28, 8, -1, 34, -17], "withholdReward": false, "trial_id": "mdp_trial_31", "block": "test", "trialIndex": 32, "score": 40.80000000000001, "costs": -25.199999999999992, "simulationMode": [null, null, null, null, null], "rewards": [-1, -3, 6, -16, 80], "path": ["0", "0", "23", "24", "25", "26", "28"], "rt": [36222, 37, 95, 106, 80], "actions": ["left", "left", "left", "up", "right"], "actionTimes": [37908, 38457, 39063, 39691, 40266], "queries": {"click": {"state": {"target": ["9", "5", "6", "7", "10", "11", "27", "29", "28", "33", "32", "31", "21", "20", "22", "17", "16", "18"], "time": [2688, 4590, 6416, 8262, 10047, 11886, 14526, 16394, 18276, 20077, 21988, 23642, 25699, 27668, 29339, 31130, 33180, 35021]}, "edge": {"target": [], "time": []}}, "mouseover": {"state": {"target": ["8", "9", "5", "6", "7", "2", "10", "11", "27", "27", "29", "26", "28", "24", "25", "33", "32", "31", "22", "19", "21", "20", "19", "22", "14", "17", "16", "18", "18", "13", "22"], "time": [2272, 2519, 3234, 5069, 6970, 8602, 8853, 10485, 12953, 14303, 15084, 16819, 17302, 18716, 18830, 19098, 20615, 22565, 24564, 24630, 25115, 26381, 28598, 28749, 29915, 30248, 31582, 33650, 33898, 36048, 36198]}, "edge": {"target": [], "time": []}}, "mouseout": {"state": {"target": ["0", "8", "9", "5", "6", "7", "2", "10", "11", "27", "27", "29", "26", "28", "24", "25", "33", "32", "31", "22", "19", "21", "20", "19", "22", "14", "17", "16", "16", "18", "18", "13", "22"], "time": [709, 2438, 3101, 5002, 6803, 8584, 8652, 10269, 12436, 13989, 14902, 16769, 17152, 18666, 18735, 18847, 20499, 22315, 24215, 24613, 24732, 26114, 28581, 28649, 29765, 29948, 31465, 33308, 33531, 33697, 35996, 36132, 36281]}, "edge": {"target": [], "time": []}}}, "displayed_time": "40.77", "trialTime": 46432, "trial_type": "mouselab-mdp", "trial_index": 39, "time_elapsed": 2076211, "internal_node_id": "0.0-6.0-1.0-30.0"}}, {"uniqueid": "w48068842:a44424243", "current_trial": 40, "dateTime": 1693483235253, "trialdata": {"revealed_states": [], "clicked_states": ["1", "16", "6", "5", "9", "11", "10", "27", "29", "28", "31", "32", "33"], "num_clicks_accrued": [0, 0, 0, 0, 0, 0, 0, 0, 0, 0, 0, 0, 0], "stateRewards": ["", 1, 2, 3, 16, 63, -25, 16, -4, -14, 82, -66, -1, -3, -3, -11, -14, 19, 46, 3, -34, -82, 66, -2, -3, 4, -5, -63, 77, -37, -1, -45, -41, 84], "withholdReward": false, "trial_id": "mdp_trial_32", "block": "test", "trialIndex": 33, "score": 63.8, "costs": -18.2, "simulationMode": [null, null, null, null, null], "rewards": [-2, -3, 4, -1, 84], "path": ["0", "0", "23", "24", "25", "30", "33"], "rt": [26842, 52, 146, 105, 159], "actions": ["left", "left", "left", "down", "left"], "actionTimes": [77797, 78390, 79042, 79668, 80338], "queries": {"click": {"state": {"target": ["1", "16", "6", "5", "9", "11", "10", "27", "29", "28", "31", "32", "33"], "time": [51873, 54364, 56197, 57719, 59808, 61641, 63470, 65275, 67104, 68744, 70688, 72337, 74122]}, "edge": {"target": [], "time": []}}, "mouseover": {"state": {"target": ["0", "1", "1", "12", "18", "16", "16", "6", "5", "9", "11", "10", "27", "26", "29", "26", "28", "24", "31", "31", "32", "33", "30"], "time": [51125, 51375, 51660, 52290, 53806, 53840, 54156, 54707, 56508, 58107, 60247, 62974, 64091, 66292, 66723, 67558, 67959, 69225, 69307, 69642, 71097, 72924, 74675]}, "edge": {"target": [], "time": []}}, "mouseout": {"state": {"target": ["24", "8", "9", "2", "13", "12", "0", "1", "1", "12", "18", "16", "16", "6", "5", "9", "11", "10", "10", "27", "27", "26", "29", "26", "28", "28", "24", "31", "31", "32", "33", "30", "32"], "time": [49511, 49541, 49711, 49811, 50041, 50074, 51325, 51409, 52257, 53739, 53823, 53875, 54590, 56441, 58007, 60092, 62075, 63486, 63908, 65402, 66224, 66307, 67276, 67625, 68953, 69159, 69275, 69542, 71007, 72658, 74641, 74741, 74843]}, "edge": {"target": [], "time": []}}}, "displayed_time": "80.86", "trialTime": 86450, "trial_type": "mouselab-mdp", "trial_index": 40, "time_elapsed": 2162969, "internal_node_id": "0.0-6.0-1.0-31.0"}}, {"uniqueid": "w48068842:a44424243", "current_trial": 41, "dateTime": 1693483283442, "trialdata": {"revealed_states": [], "clicked_states": ["1", "5", "9", "11", "10", "7", "6", "27", "29", "28", "33", "32", "31", "22", "21", "20", "17", "16", "18"], "num_clicks_accrued": [0, 0, 0, 0, 0, 0, 0, 0, 0, 0, 0, 0, 0], "stateRewards": ["", 1, 2, -3, -6, 50, -7, 7, -7, -80, 21, -1, 2, 2, 4, -1, 33, 84, 1, 14, -53, 81, 6, -2, -2, -3, -9, -87, -38, -59, -5, -74, -3, -71], "withholdReward": false, "trial_id": "mdp_trial_33", "block": "test", "trialIndex": 34, "score": 64.4, "costs": -26.59999999999999, "simulationMode": [null, null, null, null, null], "rewards": [2, 2, 4, -1, 84], "path": ["0", "0", "12", "13", "14", "15", "17"], "rt": [35218, 5, 41, 380, 127], "actions": ["right", "right", "right", "up", "right"], "actionTimes": [37011, 37541, 38094, 38966, 39596], "queries": {"click": {"state": {"target": ["1", "5", "9", "11", "10", "7", "6", "27", "29", "28", "33", "32", "31", "22", "21", "20", "17", "16", "18"], "time": [2497, 4485, 6078, 7678, 9206, 11174, 13004, 14748, 16549, 18351, 20171, 21974, 23793, 25560, 27129, 28752, 30661, 32560, 34393]}, "edge": {"target": [], "time": []}}, "mouseover": {"state": {"target": ["1", "2", "3", "5", "9", "11", "10", "2", "7", "6", "4", "27", "27", "29", "26", "28", "24", "30", "33", "32", "31", "22", "22", "22", "21", "20", "14", "17", "16", "18", "12", "32"], "time": [2284, 2981, 3065, 3265, 5115, 6833, 8296, 9681, 9813, 11663, 13380, 13499, 13813, 15230, 16912, 17080, 18714, 18848, 18996, 20879, 22347, 24247, 24533, 24889, 25983, 27884, 29466, 30430, 31599, 33530, 35064, 35468]}, "edge": {"target": [], "time": []}}, "mouseout": {"state": {"target": ["30", "0", "1", "2", "3", "5", "9", "11", "10", "2", "7", "6", "6", "4", "27", "27", "29", "26", "28", "24", "30", "33", "32", "31", "22", "22", "22", "21", "20", "14", "17", "16", "18", "18", "12", "32"], "time": [498, 1472, 2915, 3031, 3132, 4924, 6698, 8079, 9648, 9748, 11257, 13112, 13347, 13398, 13631, 15165, 16585, 16962, 18698, 18763, 18965, 20497, 22164, 24099, 24299, 24715, 25850, 27531, 29133, 29532, 31384, 33382, 34414, 34998, 35115, 35485]}, "edge": {"target": [], "time": []}}}, "displayed_time": "40.12", "trialTime": 47629, "trial_type": "mouselab-mdp", "trial_index": 41, "time_elapsed": 2211157, "internal_node_id": "0.0-6.0-1.0-32.0"}}, {"uniqueid": "w48068842:a44424243", "current_trial": 42, "dateTime": 1693483314778, "trialdata": {"revealed_states": [], "clicked_states": ["1", "5", "6", "7", "9", "11", "10", "27", "29", "28", "33"], "num_clicks_accrued": [0, 0, 0, 0, 0, 0, 0, 0, 0, 0, 0, 0, 0], "stateRewards": ["", 2, -1, 8, -2, -16, 69, -39, -7, -13, -27, -86, 2, -2, 2, 13, -34, -16, -20, -5, 19, 81, 32, -2, -1, 2, -14, 20, 80, 58, 4, 70, 12, 73], "withholdReward": false, "trial_id": "mdp_trial_34", "block": "test", "trialIndex": 35, "score": 49.599999999999994, "costs": -15.400000000000002, "simulationMode": [null, null, null, null, null], "rewards": [-2, -1, 2, -14, 80], "path": ["0", "0", "23", "24", "25", "26", "28"], "rt": [20920, 5, 12, 278, 85], "actions": ["left", "left", "left", "up", "right"], "actionTimes": [22739, 23253, 23775, 24591, 25182], "queries": {"click": {"state": {"target": ["1", "5", "6", "7", "9", "11", "10", "27", "29", "28", "33"], "time": [2472, 4258, 5942, 7821, 9628, 11429, 12953, 14821, 16613, 18377, 20098]}, "edge": {"target": [], "time": []}}, "mouseover": {"state": {"target": ["1", "12", "4", "5", "6", "7", "3", "9", "11", "10", "27", "29", "26", "28", "24", "30", "33", "32"], "time": [2248, 3025, 3495, 3758, 4893, 6511, 8126, 8410, 10060, 12009, 13693, 15311, 16925, 17009, 18742, 18876, 19158, 21327]}, "edge": {"target": [], "time": []}}, "mouseout": {"state": {"target": ["29", "10", "1", "12", "4", "5", "6", "6", "7", "3", "9", "11", "10", "27", "29", "26", "28", "24", "30", "33", "33"], "time": [810, 1011, 2860, 3143, 3543, 4692, 6038, 6294, 8077, 8142, 9958, 11759, 13116, 15158, 16827, 16977, 18709, 18791, 19025, 20195, 20559]}, "edge": {"target": [], "time": []}}}, "displayed_time": "25.70", "trialTime": 31010, "trial_type": "mouselab-mdp", "trial_index": 42, "time_elapsed": 2242494, "internal_node_id": "0.0-6.0-1.0-33.0"}}, {"uniqueid": "w48068842:a44424243", "current_trial": 43, "dateTime": 1693483440840, "trialdata": {"revealed_states": [], "clicked_states": ["1", "16", "17", "18", "21", "20", "22", "5", "6", "7", "9", "11", "10", "27", "29", "28", "31", "32", "33"], "num_clicks_accrued": [0, 0, 0, 0, 0, 0, 0, 0, 0, 0, 0, 0, 0], "stateRewards": ["", -2, 1, -8, 12, -65, -79, 16, 7, -80, -17, -45, -2, 2, -5, -2, -85, 23, -4, -7, 48, 27, -76, 2, 3, 5, 2, 43, 71, -13, 7, -49, 59, -31], "withholdReward": false, "trial_id": "mdp_trial_35", "block": "test", "trialIndex": 36, "score": 56.400000000000006, "costs": -26.59999999999999, "simulationMode": [null, null, null, null, null], "rewards": [2, 3, 5, 2, 71], "path": ["0", "0", "23", "24", "25", "26", "28"], "rt": [36596, 27, 1199, 139, 39], "actions": ["left", "left", "left", "up", "right"], "actionTimes": [114125, 114668, 116391, 117046, 117582], "queries": {"click": {"state": {"target": ["1", "16", "17", "18", "21", "20", "22", "5", "6", "7", "9", "11", "10", "27", "29", "28", "31", "32", "33"], "time": [78252, 80143, 82077, 83850, 85485, 87251, 89052, 91499, 93195, 95003, 96772, 98572, 100332, 102098, 103880, 105773, 107621, 109419, 111433]}, "edge": {"target": [], "time": []}}, "mouseover": {"state": {"target": ["0", "1", "12", "18", "16", "17", "15", "18", "19", "21", "20", "19", "22", "32", "31", "24", "2", "3", "4", "5", "6", "7", "3", "9", "11", "10", "27", "29", "26", "28", "24", "31", "31", "32", "33"], "time": [77740, 78005, 78655, 79687, 79935, 80687, 82356, 82471, 84371, 84688, 86071, 87638, 87721, 89804, 90369, 90405, 90574, 90721, 90871, 91240, 92236, 93886, 95488, 95736, 97521, 99237, 100888, 102535, 104273, 104338, 106288, 106356, 106920, 108737, 109952]}, "edge": {"target": [], "time": []}}, "mouseout": {"state": {"target": ["32", "27", "26", "25", "31", "0", "0", "0", "1", "12", "18", "16", "17", "15", "18", "19", "21", "20", "19", "22", "32", "31", "24", "2", "3", "4", "5", "6", "7", "3", "9", "11", "10", "10", "27", "29", "26", "28", "24", "31", "31", "32", "33"], "time": [75331, 75736, 75787, 75853, 76039, 76719, 76939, 77756, 78413, 79653, 79776, 80505, 82341, 82438, 84272, 84403, 85755, 87586, 87670, 89420, 90319, 90386, 90423, 90638, 90738, 90940, 91888, 93655, 95133, 95523, 97221, 98886, 100462, 100636, 102453, 104240, 104302, 106271, 106320, 106372, 108336, 109444, 112205]}, "edge": {"target": [], "time": []}}}, "displayed_time": "118.09", "trialTime": 125736, "trial_type": "mouselab-mdp", "trial_index": 43, "time_elapsed": 2368556, "internal_node_id": "0.0-6.0-1.0-34.0"}}, {"uniqueid": "w48068842:a44424243", "current_trial": 44, "dateTime": 1693483471771, "trialdata": {"revealed_states": [], "clicked_states": ["16", "17", "18", "20", "21", "22", "32", "31", "33"], "num_clicks_accrued": [0, 0, 0, 0, 0, 0, 0, 0, 0, 0, 0, 0, 0], "stateRewards": ["", 1, 1, 4, 11, 83, -66, 18, -16, -23, 5, 25, 1, -3, 1, -12, 18, 24, -86, -11, -64, 36, 40, 2, 1, -6, 13, 55, 29, 72, -2, 81, -72, -41], "withholdReward": false, "trial_id": "mdp_trial_36", "block": "test", "trialIndex": 37, "score": 63.4, "costs": -12.600000000000001, "simulationMode": [null, null, null, null, null], "rewards": [2, 1, -6, -2, 81], "path": ["0", "0", "23", "24", "25", "30", "31"], "rt": [19275, 505, 301, 373, 496], "actions": ["left", "left", "left", "down", "right"], "actionTimes": [20524, 21552, 22348, 23221, 24210], "queries": {"click": {"state": {"target": ["16", "17", "18", "20", "21", "22", "32", "31", "33"], "time": [2520, 4189, 5957, 7882, 9768, 11524, 14315, 16172, 18076]}, "edge": {"target": [], "time": []}}, "mouseover": {"state": {"target": ["1", "18", "15", "17", "16", "17", "15", "18", "18", "14", "20", "21", "22", "32", "31", "30", "33", "30"], "time": [1615, 1947, 1973, 1995, 2295, 3010, 4659, 4728, 5011, 6464, 6693, 9630, 10361, 14144, 14942, 16641, 17010, 19913]}, "edge": {"target": [], "time": []}}, "mouseout": {"state": {"target": ["22", "12", "0", "1", "18", "15", "17", "16", "17", "15", "18", "18", "14", "20", "21", "22", "32", "31", "30", "33", "30"], "time": [427, 460, 1544, 1831, 1969, 1985, 2010, 2862, 4627, 4695, 4844, 6427, 6497, 8294, 10128, 12010, 14575, 16592, 16810, 19177, 19936]}, "edge": {"target": [], "time": []}}}, "displayed_time": "24.72", "trialTime": 30324, "trial_type": "mouselab-mdp", "trial_index": 44, "time_elapsed": 2399487, "internal_node_id": "0.0-6.0-1.0-35.0"}}, {"uniqueid": "w48068842:a44424243", "current_trial": 45, "dateTime": 1693483519733, "trialdata": {"revealed_states": [], "clicked_states": ["5", "9", "11", "6", "7", "10", "27", "28", "29", "33", "32", "31", "21", "22", "18", "16", "17", "20"], "num_clicks_accrued": [0, 0, 0, 0, 0, 0, 0, 0, 0, 0, 0, 0, 0], "stateRewards": ["", 2, 3, -1, 6, 44, -4, -59, -14, -3, 64, 16, 1, -3, 3, 6, 3, 49, 19, 3, -49, -14, -86, 1, 2, -3, -8, -33, 14, 32, -13, -77, -47, -67], "withholdReward": false, "trial_id": "mdp_trial_37", "block": "test", "trialIndex": 38, "score": 28.80000000000001, "costs": -25.199999999999992, "simulationMode": [null, null, null, null, null], "rewards": [2, 3, -1, -14, 64], "path": ["0", "0", "1", "2", "3", "8", "10"], "rt": [35912, 150, 92, 345, 214], "actions": ["up", "up", "up", "left", "down"], "actionTimes": [37755, 38394, 38990, 39844, 40560], "queries": {"click": {"state": {"target": ["5", "9", "11", "6", "7", "10", "27", "28", "29", "33", "32", "31", "21", "22", "18", "16", "17", "20"], "time": [2977, 5005, 6870, 8726, 10572, 12739, 15244, 17093, 19262, 21109, 23016, 24787, 26676, 28533, 30049, 31757, 33582, 35301]}, "edge": {"target": [], "time": []}}, "mouseover": {"state": {"target": ["7", "4", "5", "9", "11", "8", "3", "4", "6", "7", "2", "10", "27", "28", "26", "29", "33", "32", "31", "22", "21", "22", "13", "18", "16", "17", "20"], "time": [2489, 2547, 2814, 3528, 5565, 7178, 7249, 7295, 7663, 9413, 12087, 12566, 13979, 15713, 17463, 19032, 20147, 22612, 23495, 25263, 25797, 27295, 28846, 28946, 30863, 32464, 34195]}, "edge": {"target": [], "time": []}}, "mouseout": {"state": {"target": ["19", "13", "7", "4", "5", "9", "11", "8", "3", "4", "6", "6", "7", "2", "10", "27", "28", "26", "29", "33", "32", "31", "22", "21", "22", "13", "18", "16", "17", "20"], "time": [1198, 1229, 2530, 2630, 3378, 5395, 7151, 7231, 7278, 7564, 8855, 9112, 10738, 12316, 13347, 15616, 17413, 17645, 19697, 22364, 23263, 25149, 25281, 26853, 28796, 28912, 30498, 32195, 33944, 36094]}, "edge": {"target": [], "time": []}}}, "displayed_time": "41.06", "trialTime": 47622, "trial_type": "mouselab-mdp", "trial_index": 45, "time_elapsed": 2447448, "internal_node_id": "0.0-6.0-1.0-36.0"}}, {"uniqueid": "w48068842:a44424243", "current_trial": 46, "dateTime": 1693483558241, "trialdata": {"revealed_states": [], "clicked_states": ["5", "7", "6", "9", "11", "10", "27", "28", "29", "33", "32", "31"], "num_clicks_accrued": [0, 0, 0, 0, 0, 0, 0, 0, 0, 0, 0, 0, 0], "stateRewards": ["", 1, -2, -8, -3, 31, -84, -55, -14, 15, -58, 17, -2, -3, 7, 7, -12, 48, 67, 4, -44, -68, 46, 2, 3, -5, -7, 76, 27, 5, 11, 57, 52, 59], "withholdReward": false, "trial_id": "mdp_trial_38", "block": "test", "trialIndex": 39, "score": 52.2, "costs": -16.8, "simulationMode": [null, null, null, null, null], "rewards": [2, 3, -5, -7, 76], "path": ["0", "0", "23", "24", "25", "26", "27"], "rt": [23939, 4, 676, 152, 41], "actions": ["left", "left", "left", "up", "up"], "actionTimes": [25256, 25770, 26959, 27618, 28175], "queries": {"click": {"state": {"target": ["5", "7", "6", "9", "11", "10", "27", "28", "29", "33", "32", "31"], "time": [2153, 3975, 5775, 7679, 9568, 11392, 13223, 15008, 17356, 19752, 21570, 23407]}, "edge": {"target": [], "time": []}}, "mouseover": {"state": {"target": ["1", "2", "5", "4", "7", "6", "4", "9", "11", "10", "27", "26", "28", "26", "26", "29", "25", "30", "33", "33", "32", "31"], "time": [1582, 1633, 1963, 2745, 2929, 4481, 6128, 6389, 8161, 10079, 11995, 13578, 13962, 15562, 15770, 17200, 17799, 18045, 18228, 19545, 20362, 22098]}, "edge": {"target": [], "time": []}}, "mouseout": {"state": {"target": ["13", "12", "0", "1", "2", "5", "4", "7", "6", "4", "9", "11", "10", "27", "26", "28", "28", "26", "26", "29", "25", "30", "33", "33", "33", "32", "31"], "time": [679, 712, 1431, 1613, 1680, 2663, 2812, 4297, 6115, 6177, 7997, 9912, 11811, 13528, 13711, 15129, 15497, 15645, 16429, 17713, 17895, 18113, 18979, 19825, 20145, 21884, 23762]}, "edge": {"target": [], "time": []}}}, "displayed_time": "28.72", "trialTime": 38167, "trial_type": "mouselab-mdp", "trial_index": 46, "time_elapsed": 2485957, "internal_node_id": "0.0-6.0-1.0-37.0"}}, {"uniqueid": "w48068842:a44424243", "current_trial": 47, "dateTime": 1693483589224, "trialdata": {"revealed_states": [], "clicked_states": ["16", "17", "18", "20", "21", "22", "31", "32", "33"], "num_clicks_accrued": [0, 0, 0, 0, 0, 0, 0, 0, 0, 0, 0, 0, 0], "stateRewards": ["", -1, 4, -8, 12, 14, 69, -8, 5, -72, -14, 56, -1, -1, -1, 9, 67, 19, 11, -9, -88, -58, 3, 2, -4, -8, 4, 62, 77, -74, 5, -31, 65, 88], "withholdReward": false, "trial_id": "mdp_trial_39", "block": "test", "trialIndex": 40, "score": 70.4, "costs": -12.600000000000001, "simulationMode": [null, null, null, null, null], "rewards": [2, -4, -8, 5, 88], "path": ["0", "0", "23", "24", "25", "30", "33"], "rt": [19400, 38, 73, 82, 88], "actions": ["left", "left", "left", "down", "left"], "actionTimes": [21149, 21706, 22273, 22866, 23471], "queries": {"click": {"state": {"target": ["16", "17", "18", "20", "21", "22", "31", "32", "33"], "time": [2715, 4446, 6323, 8498, 10372, 12287, 14467, 16332, 18396]}, "edge": {"target": [], "time": []}}, "mouseover": {"state": {"target": ["15", "16", "17", "15", "18", "19", "20", "14", "19", "21", "22", "31", "30", "31", "32", "33", "25", "26", "29", "25", "30"], "time": [2249, 2529, 3111, 4913, 5028, 8030, 8195, 9212, 9462, 9629, 10995, 13479, 13662, 14299, 14979, 16814, 19713, 19946, 20378, 20480, 20563]}, "edge": {"target": [], "time": []}}, "mouseout": {"state": {"target": ["15", "16", "17", "15", "18", "19", "20", "14", "19", "21", "22", "31", "30", "31", "31", "32", "33", "25", "26", "29", "25", "30", "32"], "time": [2413, 3046, 4828, 4962, 7812, 8078, 8860, 9346, 9511, 10767, 12781, 13631, 14111, 14606, 14846, 16595, 19514, 19846, 20244, 20396, 20514, 20682, 20733]}, "edge": {"target": [], "time": []}}}, "displayed_time": "23.96", "trialTime": 30650, "trial_type": "mouselab-mdp", "trial_index": 47, "time_elapsed": 2516940, "internal_node_id": "0.0-6.0-1.0-38.0"}}, {"uniqueid": "w48068842:a44424243", "current_trial": 48, "dateTime": 1693483612172, "trialdata": {"revealed_states": [], "clicked_states": ["5", "9", "11"], "num_clicks_accrued": [0, 0, 0, 0, 0, 0, 0, 0, 0, 0, 0, 0, 0], "stateRewards": ["", -2, -1, -5, 10, -36, -70, 68, -9, 86, 71, -10, 2, -4, 7, -7, 66, 44, -66, -13, -69, 43, 15, -2, 2, 6, -13, 62, 57, 50, -10, -69, 42, -72], "withholdReward": false, "trial_id": "mdp_trial_40", "block": "test", "trialIndex": 41, "score": 64.8, "costs": -4.199999999999999, "simulationMode": [null, null, null, null, null], "rewards": [-2, -1, -5, -9, 86], "path": ["0", "0", "1", "2", "3", "8", "9"], "rt": [6434, 96, 144, 51, 100], "actions": ["up", "up", "up", "left", "up"], "actionTimes": [8069, 8675, 9326, 9899, 10533], "queries": {"click": {"state": {"target": ["5", "9", "11"], "time": [2461, 4260, 6099]}, "edge": {"target": [], "time": []}}, "mouseover": {"state": {"target": ["1", "2", "5", "9", "11", "11"], "time": [1765, 1878, 2243, 2945, 4911, 5344]}, "edge": {"target": [], "time": []}}, "mouseout": {"state": {"target": ["23", "1", "2", "5", "9", "11", "11"], "time": [713, 1846, 1929, 2796, 4727, 4995, 6271]}, "edge": {"target": [], "time": []}}}, "displayed_time": "15.64", "trialTime": 22613, "trial_type": "mouselab-mdp", "trial_index": 48, "time_elapsed": 2539887, "internal_node_id": "0.0-6.0-1.0-39.0"}}, {"uniqueid": "w48068842:a44424243", "current_trial": 49, "dateTime": 1693483692794, "trialdata": {"rt": 80611, "response": {"Q0": "$-2 to $2", "Q1": "$-32 to $32", "Q2": "$-88 to $88", "Q3": "The cost was always $1.4.", "Q4": "Very motivated"}, "question_order": [0, 1, 2, 3, 4], "trial_id": "final_quiz_control", "trial_type": "survey-multi-choice", "trial_index": 49, "time_elapsed": 2620510, "internal_node_id": "0.0-6.0-2.0"}}, {"uniqueid": "w48068842:a44424243", "current_trial": 50, "dateTime": 1693484161960, "trialdata": {"rt": 469133, "response": {"Q0": "I decided to find the best route by inspecting all nodes but keeping the final node's amount in mind (I didn't mind spending too much on nodes if the last node could at least be positive), however, I always tried to aim for a final node above 70 (preferably above 80, but if it cost me less and gave me a favourable final node, I chose it).", "Q1": "I realized that I didn't need to follow a set path/route when inspecting the nodes, so I simply checked the final nodes for the amount I desired and then followed any path leading to it because I knew that even if the majority of the route would be negative, the positive points in the final node would result in my score being positive.", "Q2": "I think with every new game the beginning is a little challenging while you get your feet wet, but overall, I don't think it was a difficult game and so my performance was solely based on figuring out that I didn't need to follow a set path when inspecting the nodes. When I realized that, my performance was better because I managed to reduce the amount I spent inspecting the nodes. The other thing was simply balancing inspecting nodes within the timeframe while remembering where I saw the positive/desired final nodes (the highest number)."}, "trial_id": "self_report_control", "trial_type": "survey-text", "trial_index": 50, "time_elapsed": 3089676, "internal_node_id": "0.0-6.0-3.0"}}, {"uniqueid": "w48068842:a44424243", "current_trial": 51, "dateTime": 1693484214942, "trialdata": {"rt": 52975, "response": {"gender": "female", "age": "28", "colorblind": "0", "effort": "0"}, "trial_type": "survey-html-form", "trial_index": 51, "time_elapsed": 3142659, "internal_node_id": "0.0-6.0-4.0"}}, {"uniqueid": "w48068842:a44424243", "current_trial": 52, "dateTime": 1693484394447, "trialdata": {"rt": 179495, "response": {"Q0": "No, everything was fine. All instructions were clear, however, they were a bit long (I had to reread them just to be sure I was getting it right).", "Q1": "No, I'm terrified of spiders so I would remember because the first thing I thought when I saw the instructions was how big or terrifying it would look and whether or not I'd be able to get through the study (it wasn't scary, thankfully). But I also haven't participated in anything similar to this before.", "Q2": ""}, "trial_type": "survey-text", "trial_index": 52, "time_elapsed": 3322163, "internal_node_id": "0.0-6.0-5.0"}}, {"uniqueid": "w48068842:a44424243", "current_trial": 53, "dateTime": 1693484430133, "trialdata": {"rt": 35679, "stimulus": "<h1>Completion Code Instructions (1/2)</h1>\n<br><br><br><br>\nYou have reached the end of the experiment! The completion code consists of two parts: (1) a code with 2 characters (2) a code with 6 characters. On this page, you will receive the second part of the code. The first part of the completion code will be on the next page.\n<br><br>\nThe second part of your completion code is: <b>EWEK22</b>\n<br><br>\nPlease note this down. Then, press 'Finish HIT' in order to find the first part of your completion code. Once the data has been saved, you will receive this code either in this window or in the original browser window where you started the experiment.\n", "response": 0, "trial_type": "html-button-response", "trial_index": 53, "time_elapsed": 3357849, "internal_node_id": "0.0-6.0-6.0"}}, {"uniqueid": "w48068842:a44424243", "current_trial": 54, "dateTime": 1693484431144, "trialdata": {"success": true, "trial_type": "fullscreen", "trial_index": 54, "time_elapsed": 3358861, "internal_node_id": "0.0-7.0"}}], "questiondata": {"params": {"CODE": "C6DMOQA6", "MIN_TIME": 14, "inspectCost": 1, "startTime": "Thu Aug 31 2023 13:24:29 GMT+0200 (South Africa Standard Time)", "bonusRate": 0.002, "variance": "1_2_4_8_44", "branching": "31123"}, "final_score": 2230.6}, "eventdata": [{"eventtype": "initialized", "value": null, "timestamp": 1693481068859, "interval": 0}, {"eventtype": "window_resize", "value": [1536, 758], "timestamp": 1693481068859, "interval": 0}, {"eventtype": "window_resize", "value": [1536, 758], "timestamp": 1693481069365, "interval": 506}, {"eventtype": "window_resize", "value": [1536, 864], "timestamp": 1693481077232, "interval": 7867}, {"eventtype": "window_resize", "value": [1536, 758], "timestamp": 1693484430570, "interval": 3353338}], "useragent": "Mozilla/5.0 (Windows NT 10.0; Win64; x64) AppleWebKit/537.36 (KHTML, like Gecko) Chrome/116.0.0.0 Safari/537.36", "mode": "live", "id": "w48068842:a44424243", "status": "user data saved", "Beginhit": "2023-08-31 11:24:25.564167", "Beginexp": "2023-08-31 11:24:39.25103", "Endhit": "2023-08-31 12:20:34.682609", "psiturkStatus": 3, "browser": "<redacted>", "platform": "windows", "language": "en-US"}