{"condition": 0, "counterbalance": 0, "assignmentId": "a29981492", "workerId": "w87673867", "hitId": "h93289426", "currenttrial": 55, "bonus": 0, "data": [{"uniqueid": "w87673867:a29981492", "current_trial": 0, "dateTime": 1691142450748, "trialdata": {"success": true, "trial_type": "fullscreen", "trial_index": 0, "time_elapsed": 11503, "internal_node_id": "0.0-0.0"}}, {"uniqueid": "w87673867:a29981492", "current_trial": 1, "dateTime": 1691142524606, "trialdata": {"view_history": [{"page_index": 0, "viewing_time": 73849}], "rt": 73849, "trial_id": "exp_instructions_control", "trial_type": "instructions", "trial_index": 1, "time_elapsed": 85362, "internal_node_id": "0.0-1.0"}}, {"uniqueid": "w87673867:a29981492", "current_trial": 2, "dateTime": 1691142529437, "trialdata": {"success": true, "trial_type": "fullscreen", "trial_index": 2, "time_elapsed": 90193, "internal_node_id": "0.0-2.0-0.0"}}, {"uniqueid": "w87673867:a29981492", "current_trial": 3, "dateTime": 1691142881176, "trialdata": {"view_history": [{"page_index": 0, "viewing_time": 160875}, {"page_index": 1, "viewing_time": 105214}, {"page_index": 2, "viewing_time": 35564}, {"page_index": 3, "viewing_time": 50050}], "rt": 351704, "trial_id": "mouselab_instructions_1_control", "trial_type": "instructions", "trial_index": 3, "time_elapsed": 441932, "internal_node_id": "0.0-2.0-1.0"}}, {"uniqueid": "w87673867:a29981492", "current_trial": 4, "dateTime": 1691142913879, "trialdata": {"revealed_states": [], "clicked_states": ["24", "13", "1", "12"], "num_clicks_accrued": [0, 0, 0, 0, 0, 0, 0, 0, 0, 0, 0, 0, 0], "stateRewards": ["", -10, -10, -10, 10, -10, 10, -10, 10, 10, 10, 10, -10, -10, -10, -10, -10, -10, -10, -10, -10, 10, 10, 10, -10, 10, 10, 10, -10, 10, 10, -10, -10, 10], "withholdReward": false, "trial_id": "practice_1", "block": "test", "trialIndex": 0, "score": -48.5, "costs": -2, "simulationMode": [null, null, null, null, null], "rewards": [-10, -10, -10, -10, -10], "path": ["0", "0", "12", "13", "14", "15", "17"], "rt": [15266, 1371, 623, 2467, 610], "actions": ["right", "right", "right", "up", "right"], "actionTimes": [18952, 20823, 21948, 24907, 26028], "queries": {"click": {"state": {"target": ["24", "13", "1", "12"], "time": [8441, 10603, 12477, 14581]}, "edge": {"target": [], "time": []}}, "mouseover": {"state": {"target": ["23", "24", "23", "12", "13", "12", "1", "12"], "time": [6600, 7321, 9359, 9557, 9823, 11765, 12030, 14120]}, "edge": {"target": [], "time": []}}, "mouseout": {"state": {"target": ["0", "23", "24", "23", "12", "13", "12", "1", "1"], "time": [6396, 7221, 9292, 9460, 9725, 11630, 11931, 12485, 13449]}, "edge": {"target": [], "time": []}}}, "displayed_time": "26.54", "trialTime": 31614, "trial_type": "mouselab-mdp", "trial_index": 4, "time_elapsed": 474634, "internal_node_id": "0.0-2.0-2.0-0.0"}}, {"uniqueid": "w87673867:a29981492", "current_trial": 5, "dateTime": 1691142930472, "trialdata": {"revealed_states": [], "clicked_states": ["1", "12", "23"], "num_clicks_accrued": [0, 0, 0, 0, 0, 0, 0, 0, 0, 0, 0, 0, 0], "stateRewards": ["", -10, 10, -10, 10, -10, -10, -10, 10, -10, -10, -10, 10, -10, 10, -10, -10, 10, -10, 10, -10, 10, -10, 10, 10, 10, -10, 10, -10, -10, 10, 10, 10, -10], "withholdReward": false, "trial_id": "practice_2", "block": "test", "trialIndex": 1, "score": 12, "costs": -1.5, "simulationMode": [null, null, null, null, null], "rewards": [10, -10, 10, 10, -10], "path": ["0", "0", "12", "13", "14", "19", "20"], "rt": [7307, 501, 411, 883, 71], "actions": ["right", "right", "right", "down", "right"], "actionTimes": [9944, 10946, 11860, 13252, 13828], "queries": {"click": {"state": {"target": ["1", "12", "23"], "time": [3570, 6276, 7729]}, "edge": {"target": [], "time": []}}, "mouseover": {"state": {"target": ["1", "23", "12", "12", "0", "23"], "time": [3141, 4125, 5243, 5847, 6903, 7103]}, "edge": {"target": [], "time": []}}, "mouseout": {"state": {"target": ["12", "1", "1", "23", "12", "12", "0", "23"], "time": [1952, 3578, 4026, 5075, 5645, 6872, 6967, 8685]}, "edge": {"target": [], "time": []}}}, "displayed_time": "14.32", "trialTime": 16171, "trial_type": "mouselab-mdp", "trial_index": 5, "time_elapsed": 491227, "internal_node_id": "0.0-2.0-2.0-1.0"}}, {"uniqueid": "w87673867:a29981492", "current_trial": 6, "dateTime": 1691142998644, "trialdata": {"view_history": [{"page_index": 0, "viewing_time": 52021}, {"page_index": 1, "viewing_time": 16145}], "rt": 68167, "trial_id": "mouselab_instructions_2_control", "trial_type": "instructions", "trial_index": 6, "time_elapsed": 559400, "internal_node_id": "0.0-2.0-3.0"}}, {"uniqueid": "w87673867:a29981492", "current_trial": 7, "dateTime": 1691143050736, "trialdata": {"rt": 52083, "response": {"Q0": "The cost for clicking on nodes may vary between nodes.", "Q1": "The better I perform the higher my bonus will be.", "Q2": "No, the amount of cash at each node of the web may be different each time.", "Q3": "To get the highest total score.", "Q4": "Only before moving the spider.", "Q5": "3 seconds"}, "question_order": [0, 1, 2, 3, 4, 5], "correct": {"Q0": "The cost for clicking on nodes may vary between nodes.", "Q1": "The better I perform the higher my bonus will be.", "Q2": "No, the amount of cash at each node of the web may be different each time.", "Q3": "To get the highest total score.", "Q4": "Only before moving the spider.", "Q5": "3 seconds"}, "trial_id": "mouselab_quiz_control", "trial_type": "survey-multi-choice", "trial_index": 7, "time_elapsed": 611492, "internal_node_id": "0.0-2.0-4.0"}}, {"uniqueid": "w87673867:a29981492", "current_trial": 8, "dateTime": 1691143079527, "trialdata": {"rt": 28781, "stimulus": "\n<h1> Get ready to start the game! </h1>\n\nThank you for reading the instructions. Get ready start with the 40 rounds of this game.\n<br><br>\nIf you need to take a break, feel free to take one after the end of a round, before continuing to the next one.\n<br><br>\nRemember, the more money the spider gets, the bigger your bonus will be!\n<br><br>\n<div style='text-align: center;'>Press <code>space</code> to begin.</div>\n\n<br><br>\n(If, at any point, the <code>space</code> key does not take you to the next page, click once on the text and try again.)", "response": " ", "trial_id": "mdp_ready", "trial_type": "html-keyboard-response", "trial_index": 8, "time_elapsed": 640283, "internal_node_id": "0.0-4.0-0.0"}}, {"uniqueid": "w87673867:a29981492", "current_trial": 9, "dateTime": 1691143098758, "trialdata": {"revealed_states": [], "clicked_states": ["12", "23", "1"], "num_clicks_accrued": [0, 0, 0, 0, 0, 0, 0, 0, 0, 0, 0, 0, 0], "stateRewards": ["", -2, -3, 4, 1, 33, -53, 15, 9, -12, 61, -6, -2, 4, 6, -11, 47, -43, -7, -11, 46, 23, -28, -1, -1, 3, -10, 11, 76, -76, 10, 18, -38, 87], "withholdReward": false, "trial_id": "mdp_trial_1", "block": "test", "trialIndex": 2, "score": -31.2, "costs": -4.199999999999999, "simulationMode": [null, null, null, null, null], "rewards": [-1, -1, 3, 10, -38], "path": ["0", "0", "23", "24", "25", "30", "32"], "rt": [8500, 496, 267, 353, 160], "actions": ["left", "left", "left", "down", "down"], "actionTimes": [11561, 12571, 13345, 14202, 14859], "queries": {"click": {"state": {"target": ["12", "23", "1"], "time": [4195, 6767, 9023]}, "edge": {"target": [], "time": []}}, "mouseover": {"state": {"target": ["12", "0", "23", "23", "1"], "time": [3716, 4684, 4749, 5054, 7376]}, "edge": {"target": [], "time": []}}, "mouseout": {"state": {"target": ["0", "12", "0", "23", "23"], "time": [2480, 4653, 4716, 4852, 7242]}, "edge": {"target": [], "time": []}}}, "displayed_time": "17.07", "trialTime": 18800, "trial_type": "mouselab-mdp", "trial_index": 9, "time_elapsed": 659513, "internal_node_id": "0.0-4.0-1.0-0.0"}}, {"uniqueid": "w87673867:a29981492", "current_trial": 10, "dateTime": 1691143116129, "trialdata": {"revealed_states": [], "clicked_states": ["1", "23", "12"], "num_clicks_accrued": [0, 0, 0, 0, 0, 0, 0, 0, 0, 0, 0, 0, 0], "stateRewards": ["", 2, -1, 5, 6, 10, 86, 55, 10, -45, 63, -71, 1, -2, 5, -8, -50, -72, 36, 15, 61, 12, 33, -1, -4, 6, 5, 79, -56, -21, -16, -87, 60, -81], "withholdReward": false, "trial_id": "mdp_trial_2", "block": "test", "trialIndex": 3, "score": -80.2, "costs": -4.199999999999999, "simulationMode": [null, null, null, null, null], "rewards": [1, -2, 5, -8, -72], "path": ["0", "0", "12", "13", "14", "15", "17"], "rt": [9676, 238, 681, 384, 2], "actions": ["right", "right", "right", "up", "right"], "actionTimes": [11124, 11871, 13047, 13939, 14439], "queries": {"click": {"state": {"target": ["1", "23", "12"], "time": [2400, 5223, 7712]}, "edge": {"target": [], "time": []}}, "mouseover": {"state": {"target": ["1", "23", "24", "23", "12", "12"], "time": [1970, 2877, 4328, 4711, 5849, 6216]}, "edge": {"target": [], "time": []}}, "mouseout": {"state": {"target": ["1", "0", "1", "23", "24", "23", "12"], "time": [582, 1836, 2807, 4258, 4546, 5714, 5985]}, "edge": {"target": [], "time": []}}}, "displayed_time": "15.45", "trialTime": 16828, "trial_type": "mouselab-mdp", "trial_index": 10, "time_elapsed": 676884, "internal_node_id": "0.0-4.0-1.0-1.0"}}, {"uniqueid": "w87673867:a29981492", "current_trial": 11, "dateTime": 1691143136658, "trialdata": {"revealed_states": [], "clicked_states": [], "num_clicks_accrued": [0, 0, 0, 0, 0, 0, 0, 0, 0, 0, 0, 0, 0], "stateRewards": ["", 2, -3, 5, 11, -79, 54, 11, -9, -78, 33, 22, -2, -1, 2, 14, 43, 34, 1, 10, 49, -65, 39, -1, 1, -1, 3, -16, -2, 11, 2, 12, 48, -65], "withholdReward": false, "trial_id": "mdp_trial_3", "block": "test", "trialIndex": 4, "score": 13, "costs": 0, "simulationMode": [null, null, null, null, null], "rewards": [-1, 1, -1, 2, 12], "path": ["0", "0", "23", "24", "25", "30", "31"], "rt": [910, 745, 714, 326, 1159], "actions": ["left", "left", "left", "down", "right"], "actionTimes": [5263, 6513, 7737, 8567, 10236], "queries": {"click": {"state": {"target": [], "time": []}, "edge": {"target": [], "time": []}}, "mouseover": {"state": {"target": [], "time": []}, "edge": {"target": [], "time": []}}, "mouseout": {"state": {"target": ["12"], "time": [3540]}, "edge": {"target": [], "time": []}}}, "displayed_time": "18.36", "trialTime": 20094, "trial_type": "mouselab-mdp", "trial_index": 11, "time_elapsed": 697413, "internal_node_id": "0.0-4.0-1.0-2.0"}}, {"uniqueid": "w87673867:a29981492", "current_trial": 12, "dateTime": 1691143153862, "trialdata": {"revealed_states": [], "clicked_states": ["1", "12", "23"], "num_clicks_accrued": [0, 0, 0, 0, 0, 0, 0, 0, 0, 0, 0, 0, 0], "stateRewards": ["", 2, -1, -1, 7, 11, -40, -22, -2, 69, 37, 8, -2, 4, -8, -12, -2, -72, -3, -12, 17, 63, 12, 1, 3, -7, 6, 25, 61, 61, -9, 28, -17, 27], "withholdReward": false, "trial_id": "mdp_trial_4", "block": "test", "trialIndex": 5, "score": -37.2, "costs": -4.199999999999999, "simulationMode": [null, null, null, null, null], "rewards": [2, -1, -1, 7, -40], "path": ["0", "0", "1", "2", "3", "4", "6"], "rt": [8105, 434, 264, 786, 309], "actions": ["up", "up", "up", "right", "right"], "actionTimes": [9654, 10592, 11360, 12649, 13457], "queries": {"click": {"state": {"target": ["1", "12", "23"], "time": [2914, 4601, 6956]}, "edge": {"target": [], "time": []}}, "mouseover": {"state": {"target": ["1", "12", "23", "23"], "time": [2067, 3706, 6131, 6531]}, "edge": {"target": [], "time": []}}, "mouseout": {"state": {"target": ["0", "1", "12", "23"], "time": [2002, 3471, 5928, 6295]}, "edge": {"target": [], "time": []}}}, "displayed_time": "15.56", "trialTime": 16723, "trial_type": "mouselab-mdp", "trial_index": 12, "time_elapsed": 714617, "internal_node_id": "0.0-4.0-1.0-3.0"}}, {"uniqueid": "w87673867:a29981492", "current_trial": 13, "dateTime": 1691143174799, "trialdata": {"revealed_states": [], "clicked_states": [], "num_clicks_accrued": [0, 0, 0, 0, 0, 0, 0, 0, 0, 0, 0, 0, 0], "stateRewards": ["", -1, 1, 8, -3, -24, 11, -65, -6, -77, 48, 44, -2, 1, -2, -7, -55, -35, 33, 8, -28, 19, -53, -1, -1, -5, -5, -70, 10, 44, 8, -58, -70, 51], "withholdReward": false, "trial_id": "mdp_trial_5", "block": "test", "trialIndex": 6, "score": -45, "costs": 0, "simulationMode": [null, null, null, null, null], "rewards": [-2, 1, -2, -7, -35], "path": ["0", "0", "12", "13", "14", "15", "17"], "rt": [6846, 285, 273, 666, 948], "actions": ["right", "right", "right", "up", "right"], "actionTimes": [8829, 9624, 10398, 11579, 13025], "queries": {"click": {"state": {"target": [], "time": []}, "edge": {"target": [], "time": []}}, "mouseover": {"state": {"target": ["23"], "time": [5792]}, "edge": {"target": [], "time": []}}, "mouseout": {"state": {"target": ["23", "0"], "time": [842, 5761]}, "edge": {"target": [], "time": []}}}, "displayed_time": "15.99", "trialTime": 20511, "trial_type": "mouselab-mdp", "trial_index": 13, "time_elapsed": 735554, "internal_node_id": "0.0-4.0-1.0-4.0"}}, {"uniqueid": "w87673867:a29981492", "current_trial": 14, "dateTime": 1691143194500, "trialdata": {"revealed_states": [], "clicked_states": ["14", "3", "25"], "num_clicks_accrued": [0, 0, 0, 0, 0, 0, 0, 0, 0, 0, 0, 0, 0], "stateRewards": ["", 2, -4, 4, 9, 69, 9, -75, 12, -86, 66, 25, -1, 3, 2, -13, -88, -3, 1, 4, -69, 49, -84, 2, -1, 4, 2, -18, -81, -52, -15, -69, -54, 25], "withholdReward": false, "trial_id": "mdp_trial_6", "block": "test", "trialIndex": 7, "score": 34.8, "costs": -4.199999999999999, "simulationMode": [null, null, null, null, null], "rewards": [2, -4, 4, 12, 25], "path": ["0", "0", "1", "2", "3", "8", "11"], "rt": [9377, 68, 127, 471, 258], "actions": ["up", "up", "up", "left", "left"], "actionTimes": [11269, 11843, 12468, 13449, 14203], "queries": {"click": {"state": {"target": ["14", "3", "25"], "time": [3443, 6517, 8723]}, "edge": {"target": [], "time": []}}, "mouseover": {"state": {"target": ["12", "13", "14", "3", "10", "28", "25"], "time": [2364, 2428, 3030, 4499, 7311, 7444, 7641]}, "edge": {"target": [], "time": []}}, "mouseout": {"state": {"target": ["23", "12", "13", "14", "3", "10", "28"], "time": [957, 2398, 2497, 3967, 7245, 7346, 7479]}, "edge": {"target": [], "time": []}}}, "displayed_time": "15.90", "trialTime": 19320, "trial_type": "mouselab-mdp", "trial_index": 14, "time_elapsed": 755255, "internal_node_id": "0.0-4.0-1.0-5.0"}}, {"uniqueid": "w87673867:a29981492", "current_trial": 15, "dateTime": 1691143214155, "trialdata": {"revealed_states": [], "clicked_states": ["2", "24", "13"], "num_clicks_accrued": [0, 0, 0, 0, 0, 0, 0, 0, 0, 0, 0, 0, 0], "stateRewards": ["", -1, 1, -6, -1, 80, 23, 2, -11, 73, -81, 59, 1, 3, 5, -1, -26, 28, -3, 16, -59, -13, -50, -2, -2, 2, 15, -50, 86, 17, -4, 37, 35, 44], "withholdReward": false, "trial_id": "mdp_trial_7", "block": "test", "trialIndex": 8, "score": -38.2, "costs": -4.199999999999999, "simulationMode": [null, null, null, null, null], "rewards": [1, 3, 5, 16, -59], "path": ["0", "0", "12", "13", "14", "19", "20"], "rt": [9811, 335, 197, 254, 485], "actions": ["right", "right", "right", "down", "right"], "actionTimes": [11531, 12383, 13084, 13839, 14827], "queries": {"click": {"state": {"target": ["2", "24", "13"], "time": [3920, 6276, 8477]}, "edge": {"target": [], "time": []}}, "mouseover": {"state": {"target": ["7", "4", "3", "2", "28", "24", "23", "12", "13", "13"], "time": [2304, 2575, 2905, 3441, 4442, 4779, 6804, 6865, 6918, 7402]}, "edge": {"target": [], "time": []}}, "mouseout": {"state": {"target": ["25", "24", "23", "0", "7", "4", "3", "2", "28", "24", "23", "12", "13"], "time": [581, 682, 749, 2070, 2373, 2772, 3376, 4342, 4644, 6800, 6834, 6913, 6936]}, "edge": {"target": [], "time": []}}}, "displayed_time": "15.72", "trialTime": 19147, "trial_type": "mouselab-mdp", "trial_index": 15, "time_elapsed": 774910, "internal_node_id": "0.0-4.0-1.0-6.0"}}, {"uniqueid": "w87673867:a29981492", "current_trial": 16, "dateTime": 1691143233733, "trialdata": {"revealed_states": [], "clicked_states": ["14", "4", "26"], "num_clicks_accrued": [0, 0, 0, 0, 0, 0, 0, 0, 0, 0, 0, 0, 0], "stateRewards": ["", 1, 4, -8, -13, -13, -87, -77, -10, -44, 54, 42, 2, -3, -4, 12, -9, -80, 52, 9, 84, -2, -65, 1, -4, -5, -6, 8, 80, 32, 13, -59, -5, -13], "withholdReward": false, "trial_id": "mdp_trial_8", "block": "test", "trialIndex": 9, "score": -2.1999999999999993, "costs": -4.199999999999999, "simulationMode": [null, null, null, null, null], "rewards": [2, -3, -4, 9, -2], "path": ["0", "0", "12", "13", "14", "19", "21"], "rt": [8723, 190, 264, 53, 162], "actions": ["right", "right", "right", "down", "down"], "actionTimes": [10602, 11288, 12050, 12606, 13285], "queries": {"click": {"state": {"target": ["14", "4", "26"], "time": [3821, 5441, 7563]}, "edge": {"target": [], "time": []}}, "mouseover": {"state": {"target": ["14", "14", "18", "3", "4", "3", "8", "11", "27", "26", "26"], "time": [3146, 3428, 4482, 4597, 5029, 6136, 6201, 6403, 6602, 6639, 7139]}, "edge": {"target": [], "time": []}}, "mouseout": {"state": {"target": ["13", "12", "14", "14", "18", "3", "4", "3", "8", "11", "27", "26"], "time": [919, 1020, 3211, 4446, 4516, 4962, 6099, 6169, 6338, 6572, 6635, 6900]}, "edge": {"target": [], "time": []}}}, "displayed_time": "15.88", "trialTime": 19157, "trial_type": "mouselab-mdp", "trial_index": 16, "time_elapsed": 794488, "internal_node_id": "0.0-4.0-1.0-7.0"}}, {"uniqueid": "w87673867:a29981492", "current_trial": 17, "dateTime": 1691143256919, "trialdata": {"revealed_states": [], "clicked_states": [], "num_clicks_accrued": [0, 0, 0, 0, 0, 0, 0, 0, 0, 0, 0, 0, 0], "stateRewards": ["", 2, 1, -3, 7, 46, 11, -36, 16, 71, 5, 1, 2, -2, -8, -3, -4, 6, 55, 7, 68, -54, 2, 1, 1, 6, -6, 42, -4, -84, -11, -65, 63, 25], "withholdReward": false, "trial_id": "mdp_trial_9", "block": "test", "trialIndex": 10, "score": -15, "costs": 0, "simulationMode": [null, null, null, null, null], "rewards": [2, -2, -8, -3, -4], "path": ["0", "0", "12", "13", "14", "15", "16"], "rt": [1183, 220, 210, 266, 92], "actions": ["right", "right", "right", "up", "up"], "actionTimes": [3261, 3990, 4697, 5473, 6068], "queries": {"click": {"state": {"target": [], "time": []}, "edge": {"target": [], "time": []}}, "mouseover": {"state": {"target": [], "time": []}, "edge": {"target": [], "time": []}}, "mouseout": {"state": {"target": ["26", "28"], "time": [1108, 1145]}, "edge": {"target": [], "time": []}}}, "displayed_time": "16.08", "trialTime": 22630, "trial_type": "mouselab-mdp", "trial_index": 17, "time_elapsed": 817675, "internal_node_id": "0.0-4.0-1.0-8.0"}}, {"uniqueid": "w87673867:a29981492", "current_trial": 18, "dateTime": 1691143276569, "trialdata": {"revealed_states": [], "clicked_states": [], "num_clicks_accrued": [0, 0, 0, 0, 0, 0, 0, 0, 0, 0, 0, 0, 0], "stateRewards": ["", 1, 2, 7, 13, 88, -71, 27, 3, 60, 5, -53, -2, 2, -6, -1, -30, 79, 47, -4, -14, 46, 68, 1, 1, 8, 10, -14, 86, 48, -11, -67, -44, 5], "withholdReward": false, "trial_id": "mdp_trial_10", "block": "test", "trialIndex": 11, "score": 111, "costs": 0, "simulationMode": [null, null, null, null, null], "rewards": [1, 2, 7, 13, 88], "path": ["0", "0", "1", "2", "3", "4", "5"], "rt": [1166, 3, 617, 325, 517], "actions": ["up", "up", "up", "right", "up"], "actionTimes": [2657, 3157, 4305, 5135, 6159], "queries": {"click": {"state": {"target": [], "time": []}, "edge": {"target": [], "time": []}}, "mouseover": {"state": {"target": [], "time": []}, "edge": {"target": [], "time": []}}, "mouseout": {"state": {"target": ["0"], "time": [1234]}, "edge": {"target": [], "time": []}}}, "displayed_time": "15.50", "trialTime": 19168, "trial_type": "mouselab-mdp", "trial_index": 18, "time_elapsed": 837324, "internal_node_id": "0.0-4.0-1.0-9.0"}}, {"uniqueid": "w87673867:a29981492", "current_trial": 19, "dateTime": 1691143295268, "trialdata": {"revealed_states": [], "clicked_states": [], "num_clicks_accrued": [0, 0, 0, 0, 0, 0, 0, 0, 0, 0, 0, 0, 0], "stateRewards": ["", -2, 2, 3, -7, -31, -33, 29, -8, -57, 50, -83, -1, -1, 5, 13, -23, -62, 25, 5, -66, -85, 14, 1, -2, -1, 16, 71, 33, -19, -14, 5, -43, 79], "withholdReward": false, "trial_id": "mdp_trial_11", "block": "test", "trialIndex": 12, "score": 63, "costs": 0, "simulationMode": [null, null, null, null, null], "rewards": [1, -2, -1, -14, 79], "path": ["0", "0", "23", "24", "25", "30", "33"], "rt": [787, 11, 200, 164, 755], "actions": ["left", "left", "left", "down", "left"], "actionTimes": [3054, 3569, 4292, 4959, 6217], "queries": {"click": {"state": {"target": [], "time": []}, "edge": {"target": [], "time": []}}, "mouseover": {"state": {"target": [], "time": []}, "edge": {"target": [], "time": []}}, "mouseout": {"state": {"target": ["0"], "time": [1989]}, "edge": {"target": [], "time": []}}}, "displayed_time": "16.27", "trialTime": 18134, "trial_type": "mouselab-mdp", "trial_index": 19, "time_elapsed": 856023, "internal_node_id": "0.0-4.0-1.0-10.0"}}, {"uniqueid": "w87673867:a29981492", "current_trial": 20, "dateTime": 1691143312051, "trialdata": {"revealed_states": [], "clicked_states": [], "num_clicks_accrued": [0, 0, 0, 0, 0, 0, 0, 0, 0, 0, 0, 0, 0], "stateRewards": ["", 2, 3, 3, 10, 19, -21, 6, 9, 54, 68, 16, 2, 2, -6, -8, 40, -2, -75, -2, -42, 55, 59, -1, 2, 4, -14, 11, -34, -30, -6, 61, -53, 13], "withholdReward": false, "trial_id": "mdp_trial_12", "block": "test", "trialIndex": 13, "score": -46, "costs": 0, "simulationMode": [null, null, null, null, null], "rewards": [2, 2, -6, -2, -42], "path": ["0", "0", "12", "13", "14", "19", "20"], "rt": [855, 807, 996, 460, 352], "actions": ["right", "right", "right", "down", "right"], "actionTimes": [2021, 3339, 4832, 5803, 6662], "queries": {"click": {"state": {"target": [], "time": []}, "edge": {"target": [], "time": []}}, "mouseover": {"state": {"target": [], "time": []}, "edge": {"target": [], "time": []}}, "mouseout": {"state": {"target": ["0"], "time": [846]}, "edge": {"target": [], "time": []}}}, "displayed_time": "15.17", "trialTime": 16278, "trial_type": "mouselab-mdp", "trial_index": 20, "time_elapsed": 872806, "internal_node_id": "0.0-4.0-1.0-11.0"}}, {"uniqueid": "w87673867:a29981492", "current_trial": 21, "dateTime": 1691143328720, "trialdata": {"revealed_states": [], "clicked_states": [], "num_clicks_accrued": [0, 0, 0, 0, 0, 0, 0, 0, 0, 0, 0, 0, 0], "stateRewards": ["", -2, -1, -6, -14, -55, 78, -13, 11, 14, -71, 59, 2, 2, 6, -6, 9, 38, 14, 7, 85, 11, 68, 1, -4, -1, -3, -63, -85, 9, -2, 63, -86, -10], "withholdReward": false, "trial_id": "mdp_trial_13", "block": "test", "trialIndex": 14, "score": -69, "costs": 0, "simulationMode": [null, null, null, null, null], "rewards": [-2, -1, -6, 11, -71], "path": ["0", "0", "1", "2", "3", "8", "10"], "rt": [723, 865, 180, 358, 18], "actions": ["up", "up", "up", "left", "down"], "actionTimes": [1919, 3296, 3981, 4845, 5382], "queries": {"click": {"state": {"target": [], "time": []}, "edge": {"target": [], "time": []}}, "mouseover": {"state": {"target": [], "time": []}, "edge": {"target": [], "time": []}}, "mouseout": {"state": {"target": ["0"], "time": [879]}, "edge": {"target": [], "time": []}}}, "displayed_time": "15.20", "trialTime": 16083, "trial_type": "mouselab-mdp", "trial_index": 21, "time_elapsed": 889475, "internal_node_id": "0.0-4.0-1.0-12.0"}}, {"uniqueid": "w87673867:a29981492", "current_trial": 22, "dateTime": 1691143345713, "trialdata": {"revealed_states": [], "clicked_states": [], "num_clicks_accrued": [0, 0, 0, 0, 0, 0, 0, 0, 0, 0, 0, 0, 0], "stateRewards": ["", -2, 2, -2, -7, -50, -62, -45, 7, 36, -24, -72, -1, -1, 8, -1, -67, 20, -52, 2, 35, -50, 80, -1, 1, 6, -6, -70, 6, 88, 8, -47, 74, -19], "withholdReward": false, "trial_id": "mdp_trial_14", "block": "test", "trialIndex": 15, "score": -59, "costs": 0, "simulationMode": [null, null, null, null, null], "rewards": [-2, 2, -2, -7, -50], "path": ["0", "0", "1", "2", "3", "4", "5"], "rt": [468, 145, 266, 673, 351], "actions": ["up", "up", "up", "right", "up"], "actionTimes": [1792, 2443, 3214, 4393, 5256], "queries": {"click": {"state": {"target": [], "time": []}, "edge": {"target": [], "time": []}}, "mouseover": {"state": {"target": [], "time": []}, "edge": {"target": [], "time": []}}, "mouseout": {"state": {"target": ["0"], "time": [1059]}, "edge": {"target": [], "time": []}}}, "displayed_time": "15.33", "trialTime": 16429, "trial_type": "mouselab-mdp", "trial_index": 22, "time_elapsed": 906468, "internal_node_id": "0.0-4.0-1.0-13.0"}}, {"uniqueid": "w87673867:a29981492", "current_trial": 23, "dateTime": 1691143365604, "trialdata": {"revealed_states": [], "clicked_states": [], "num_clicks_accrued": [0, 0, 0, 0, 0, 0, 0, 0, 0, 0, 0, 0, 0], "stateRewards": ["", 1, 4, 5, -5, 58, -80, 75, 6, 25, -39, 46, 2, -2, 4, 2, 59, 31, -22, -12, -61, 15, 72, 1, -2, -7, 8, 77, 76, -23, -7, 71, -15, -3], "withholdReward": false, "trial_id": "mdp_trial_15", "block": "test", "trialIndex": 16, "score": 64, "costs": 0, "simulationMode": [null, null, null, null, null], "rewards": [2, -2, 4, -12, 72], "path": ["0", "0", "12", "13", "14", "19", "22"], "rt": [1188, 527, 196, 364, 339], "actions": ["right", "right", "right", "down", "left"], "actionTimes": [2892, 3922, 4629, 5497, 6343], "queries": {"click": {"state": {"target": [], "time": []}, "edge": {"target": [], "time": []}}, "mouseover": {"state": {"target": [], "time": []}, "edge": {"target": [], "time": []}}, "mouseout": {"state": {"target": ["0"], "time": [1426]}, "edge": {"target": [], "time": []}}}, "displayed_time": "15.71", "trialTime": 19222, "trial_type": "mouselab-mdp", "trial_index": 23, "time_elapsed": 926359, "internal_node_id": "0.0-4.0-1.0-14.0"}}, {"uniqueid": "w87673867:a29981492", "current_trial": 24, "dateTime": 1691143382979, "trialdata": {"revealed_states": [], "clicked_states": [], "num_clicks_accrued": [0, 0, 0, 0, 0, 0, 0, 0, 0, 0, 0, 0, 0], "stateRewards": ["", -1, -3, 4, -10, -5, 79, -87, -2, 53, 29, -20, -2, -1, -5, 10, 27, 86, 46, -16, -29, 40, 3, 2, 4, -1, -6, 37, 79, -29, 7, 86, -62, 29], "withholdReward": false, "trial_id": "mdp_trial_16", "block": "test", "trialIndex": 17, "score": -30, "costs": 0, "simulationMode": [null, null, null, null, null], "rewards": [2, 4, -1, -6, -29], "path": ["0", "0", "23", "24", "25", "26", "29"], "rt": [1164, 213, 35, 658, 667], "actions": ["left", "left", "left", "up", "left"], "actionTimes": [3053, 3768, 4306, 5463, 6626], "queries": {"click": {"state": {"target": [], "time": []}, "edge": {"target": [], "time": []}}, "mouseover": {"state": {"target": [], "time": []}, "edge": {"target": [], "time": []}}, "mouseout": {"state": {"target": ["0"], "time": [1600]}, "edge": {"target": [], "time": []}}}, "displayed_time": "15.89", "trialTime": 16783, "trial_type": "mouselab-mdp", "trial_index": 24, "time_elapsed": 943734, "internal_node_id": "0.0-4.0-1.0-15.0"}}, {"uniqueid": "w87673867:a29981492", "current_trial": 25, "dateTime": 1691143400279, "trialdata": {"revealed_states": [], "clicked_states": [], "num_clicks_accrued": [0, 0, 0, 0, 0, 0, 0, 0, 0, 0, 0, 0, 0], "stateRewards": ["", 2, -4, 1, -12, -59, -53, -74, 16, -88, -66, 66, 1, -2, 8, -9, -14, 22, 25, -1, -39, 47, -14, -1, -1, -2, 1, -4, 52, -26, 15, -7, 46, 43], "withholdReward": false, "trial_id": "mdp_trial_17", "block": "test", "trialIndex": 18, "score": -87, "costs": 0, "simulationMode": [null, null, null, null, null], "rewards": [2, -4, 1, -12, -74], "path": ["0", "0", "1", "2", "3", "4", "7"], "rt": [1100, 477, 201, 380, 217], "actions": ["up", "up", "up", "right", "down"], "actionTimes": [3042, 4015, 4726, 5609, 6329], "queries": {"click": {"state": {"target": [], "time": []}, "edge": {"target": [], "time": []}}, "mouseover": {"state": {"target": [], "time": []}, "edge": {"target": [], "time": []}}, "mouseout": {"state": {"target": ["0"], "time": [1686]}, "edge": {"target": [], "time": []}}}, "displayed_time": "15.95", "trialTime": 16756, "trial_type": "mouselab-mdp", "trial_index": 25, "time_elapsed": 961034, "internal_node_id": "0.0-4.0-1.0-16.0"}}, {"uniqueid": "w87673867:a29981492", "current_trial": 26, "dateTime": 1691143417700, "trialdata": {"revealed_states": [], "clicked_states": [], "num_clicks_accrued": [0, 0, 0, 0, 0, 0, 0, 0, 0, 0, 0, 0, 0], "stateRewards": ["", -2, -1, 3, -3, 71, -58, -21, 7, -10, -75, -37, 2, 4, -1, -12, -79, -29, -48, 3, -41, -10, -30, -1, -2, 1, -15, 13, 66, 22, -1, -42, -86, -55], "withholdReward": false, "trial_id": "mdp_trial_18", "block": "test", "trialIndex": 19, "score": -2, "costs": 0, "simulationMode": [null, null, null, null, null], "rewards": [2, 4, -1, 3, -10], "path": ["0", "0", "12", "13", "14", "19", "21"], "rt": [785, 756, 317, 595, 216], "actions": ["right", "right", "right", "down", "down"], "actionTimes": [2257, 3514, 4331, 5427, 6152], "queries": {"click": {"state": {"target": [], "time": []}, "edge": {"target": [], "time": []}}, "mouseover": {"state": {"target": [], "time": []}, "edge": {"target": [], "time": []}}, "mouseout": {"state": {"target": ["0"], "time": [1158]}, "edge": {"target": [], "time": []}}}, "displayed_time": "15.47", "trialTime": 16838, "trial_type": "mouselab-mdp", "trial_index": 26, "time_elapsed": 978455, "internal_node_id": "0.0-4.0-1.0-17.0"}}, {"uniqueid": "w87673867:a29981492", "current_trial": 27, "dateTime": 1691143441501, "trialdata": {"revealed_states": [], "clicked_states": [], "num_clicks_accrued": [0, 0, 0, 0, 0, 0, 0, 0, 0, 0, 0, 0, 0], "stateRewards": ["", 2, -4, -4, 13, -80, 62, 13, -11, 57, -13, -44, 1, 4, 3, -4, -29, -88, 15, 16, -58, 68, -45, -1, -3, -1, -9, -44, -86, -19, -7, -36, 59, 66], "withholdReward": false, "trial_id": "mdp_trial_19", "block": "test", "trialIndex": 20, "score": -25, "costs": 0, "simulationMode": [null, null, null, null, null], "rewards": [1, 4, 3, -4, -29], "path": ["0", "0", "12", "13", "14", "15", "16"], "rt": [1541, 508, 435, 404, 26], "actions": ["right", "right", "right", "up", "up"], "actionTimes": [9057, 10071, 11001, 11908, 12431], "queries": {"click": {"state": {"target": [], "time": []}, "edge": {"target": [], "time": []}}, "mouseover": {"state": {"target": [], "time": []}, "edge": {"target": [], "time": []}}, "mouseout": {"state": {"target": ["0"], "time": [7230]}, "edge": {"target": [], "time": []}}}, "displayed_time": "21.52", "trialTime": 23195, "trial_type": "mouselab-mdp", "trial_index": 27, "time_elapsed": 1002257, "internal_node_id": "0.0-4.0-1.0-18.0"}}, {"uniqueid": "w87673867:a29981492", "current_trial": 28, "dateTime": 1691143458388, "trialdata": {"revealed_states": [], "clicked_states": [], "num_clicks_accrued": [0, 0, 0, 0, 0, 0, 0, 0, 0, 0, 0, 0, 0], "stateRewards": ["", 2, -1, 4, -9, -43, 7, 54, -13, 38, -40, -83, -1, 2, -8, -10, 34, -33, 11, -14, -79, 65, 26, 1, 2, 4, 10, 21, 1, 86, 4, -53, 28, -29], "withholdReward": false, "trial_id": "mdp_trial_20", "block": "test", "trialIndex": 21, "score": -18, "costs": 0, "simulationMode": [null, null, null, null, null], "rewards": [1, 2, 4, 4, -29], "path": ["0", "0", "23", "24", "25", "30", "33"], "rt": [1672, 296, 399, 162, 166], "actions": ["left", "left", "left", "down", "left"], "actionTimes": [3172, 3969, 4875, 5541, 6209], "queries": {"click": {"state": {"target": [], "time": []}, "edge": {"target": [], "time": []}}, "mouseover": {"state": {"target": [], "time": []}, "edge": {"target": [], "time": []}}, "mouseout": {"state": {"target": ["0"], "time": [1202]}, "edge": {"target": [], "time": []}}}, "displayed_time": "15.51", "trialTime": 16293, "trial_type": "mouselab-mdp", "trial_index": 28, "time_elapsed": 1019144, "internal_node_id": "0.0-4.0-1.0-19.0"}}, {"uniqueid": "w87673867:a29981492", "current_trial": 29, "dateTime": 1691143476419, "trialdata": {"revealed_states": [], "clicked_states": [], "num_clicks_accrued": [0, 0, 0, 0, 0, 0, 0, 0, 0, 0, 0, 0, 0], "stateRewards": ["", 1, 2, -3, 6, -88, 74, -45, 7, -46, 40, -77, 1, -4, 4, 3, 22, -25, -59, 8, -83, 19, -60, -1, -1, -1, -8, 26, -29, 64, -7, -88, -51, -55], "withholdReward": false, "trial_id": "mdp_trial_21", "block": "test", "trialIndex": 22, "score": 15, "costs": 0, "simulationMode": [null, null, null, null, null], "rewards": [-1, -1, -1, -8, 26], "path": ["0", "0", "23", "24", "25", "26", "27"], "rt": [1207, 274, 48, 149, 223], "actions": ["left", "left", "left", "up", "up"], "actionTimes": [2528, 3315, 3873, 4543, 5267], "queries": {"click": {"state": {"target": [], "time": []}, "edge": {"target": [], "time": []}}, "mouseover": {"state": {"target": [], "time": []}, "edge": {"target": [], "time": []}}, "mouseout": {"state": {"target": ["0"], "time": [1069]}, "edge": {"target": [], "time": []}}}, "displayed_time": "15.33", "trialTime": 17427, "trial_type": "mouselab-mdp", "trial_index": 29, "time_elapsed": 1037174, "internal_node_id": "0.0-4.0-1.0-20.0"}}, {"uniqueid": "w87673867:a29981492", "current_trial": 30, "dateTime": 1691143495079, "trialdata": {"revealed_states": [], "clicked_states": [], "num_clicks_accrued": [0, 0, 0, 0, 0, 0, 0, 0, 0, 0, 0, 0, 0], "stateRewards": ["", 1, 3, -2, 15, 51, 15, -19, 11, 67, -45, -73, 2, 4, -2, -13, 36, 9, -28, 10, -30, 31, 16, 1, 2, -1, -16, 14, -22, 36, -1, 88, -5, 45], "withholdReward": false, "trial_id": "mdp_trial_22", "block": "test", "trialIndex": 23, "score": 46, "costs": 0, "simulationMode": [null, null, null, null, null], "rewards": [1, 2, -1, -1, 45], "path": ["0", "0", "23", "24", "25", "30", "33"], "rt": [985, 281, 275, 55, 387], "actions": ["left", "left", "left", "down", "left"], "actionTimes": [2662, 3445, 4222, 4787, 5687], "queries": {"click": {"state": {"target": [], "time": []}, "edge": {"target": [], "time": []}}, "mouseover": {"state": {"target": [], "time": []}, "edge": {"target": [], "time": []}}, "mouseout": {"state": {"target": ["0"], "time": [1393]}, "edge": {"target": [], "time": []}}}, "displayed_time": "15.68", "trialTime": 18060, "trial_type": "mouselab-mdp", "trial_index": 30, "time_elapsed": 1055834, "internal_node_id": "0.0-4.0-1.0-21.0"}}, {"uniqueid": "w87673867:a29981492", "current_trial": 31, "dateTime": 1691143513131, "trialdata": {"revealed_states": [], "clicked_states": [], "num_clicks_accrued": [0, 0, 0, 0, 0, 0, 0, 0, 0, 0, 0, 0, 0], "stateRewards": ["", 1, 1, 7, -11, 80, -20, -53, -14, 3, 31, 27, 2, -1, -8, -10, 33, 41, 86, 9, 78, -37, -13, -1, -2, -6, -8, -80, 75, 4, -16, -49, -74, 24], "withholdReward": false, "trial_id": "mdp_trial_23", "block": "test", "trialIndex": 24, "score": -1, "costs": 0, "simulationMode": [null, null, null, null, null], "rewards": [-1, -2, -6, -16, 24], "path": ["0", "0", "23", "24", "25", "30", "33"], "rt": [547, 7, 1368, 593, 420], "actions": ["left", "left", "left", "down", "left"], "actionTimes": [2549, 3060, 4955, 6052, 6994], "queries": {"click": {"state": {"target": [], "time": []}, "edge": {"target": [], "time": []}}, "mouseover": {"state": {"target": [], "time": []}, "edge": {"target": [], "time": []}}, "mouseout": {"state": {"target": ["0"], "time": [1685]}, "edge": {"target": [], "time": []}}}, "displayed_time": "16.01", "trialTime": 17437, "trial_type": "mouselab-mdp", "trial_index": 31, "time_elapsed": 1073886, "internal_node_id": "0.0-4.0-1.0-22.0"}}, {"uniqueid": "w87673867:a29981492", "current_trial": 32, "dateTime": 1691143532665, "trialdata": {"revealed_states": [], "clicked_states": [], "num_clicks_accrued": [0, 0, 0, 0, 0, 0, 0, 0, 0, 0, 0, 0, 0], "stateRewards": ["", 1, -3, -1, 9, -34, -40, 22, -7, 45, 53, -11, 2, 4, 5, 15, 21, 37, -49, -3, 80, -28, -34, 1, -3, 1, 1, -40, -6, -5, -16, -85, -86, 59], "withholdReward": false, "trial_id": "mdp_trial_24", "block": "test", "trialIndex": 25, "score": 88, "costs": 0, "simulationMode": [null, null, null, null, null], "rewards": [2, 4, 5, -3, 80], "path": ["0", "0", "12", "13", "14", "19", "20"], "rt": [961, 543, 173, 198, 230], "actions": ["right", "right", "right", "down", "right"], "actionTimes": [2621, 3672, 4356, 5050, 5798], "queries": {"click": {"state": {"target": [], "time": []}, "edge": {"target": [], "time": []}}, "mouseover": {"state": {"target": [], "time": []}, "edge": {"target": [], "time": []}}, "mouseout": {"state": {"target": ["0"], "time": [1361]}, "edge": {"target": [], "time": []}}}, "displayed_time": "15.66", "trialTime": 18899, "trial_type": "mouselab-mdp", "trial_index": 32, "time_elapsed": 1093420, "internal_node_id": "0.0-4.0-1.0-23.0"}}, {"uniqueid": "w87673867:a29981492", "current_trial": 33, "dateTime": 1691143555003, "trialdata": {"revealed_states": [], "clicked_states": [], "num_clicks_accrued": [0, 0, 0, 0, 0, 0, 0, 0, 0, 0, 0, 0, 0], "stateRewards": ["", -1, 3, 2, 9, 41, 4, -46, -12, -54, -87, -25, 2, 3, -1, 11, -77, 12, -33, -9, -32, 35, 72, 1, 3, -7, 4, 37, 65, -73, 6, 77, -43, 8], "withholdReward": false, "trial_id": "mdp_trial_25", "block": "test", "trialIndex": 26, "score": 54, "costs": 0, "simulationMode": [null, null, null, null, null], "rewards": [-1, 3, 2, 9, 41], "path": ["0", "0", "1", "2", "3", "4", "5"], "rt": [1156, 13, 137, 21, 523], "actions": ["up", "up", "up", "right", "up"], "actionTimes": [3038, 3561, 4217, 4739, 5775], "queries": {"click": {"state": {"target": [], "time": []}, "edge": {"target": [], "time": []}}, "mouseover": {"state": {"target": [], "time": []}, "edge": {"target": [], "time": []}}, "mouseout": {"state": {"target": ["0"], "time": [1629]}, "edge": {"target": [], "time": []}}}, "displayed_time": "15.88", "trialTime": 21651, "trial_type": "mouselab-mdp", "trial_index": 33, "time_elapsed": 1115758, "internal_node_id": "0.0-4.0-1.0-24.0"}}, {"uniqueid": "w87673867:a29981492", "current_trial": 34, "dateTime": 1691143577421, "trialdata": {"revealed_states": [], "clicked_states": [], "num_clicks_accrued": [0, 0, 0, 0, 0, 0, 0, 0, 0, 0, 0, 0, 0], "stateRewards": ["", -2, -4, -2, -13, -15, 87, -19, -6, -80, 30, 12, 1, 1, -8, 2, 55, 56, 15, 11, -68, -7, 55, -2, 3, -3, -3, 48, 62, 4, 1, -3, 69, -33], "withholdReward": false, "trial_id": "mdp_trial_26", "block": "test", "trialIndex": 27, "score": -36, "costs": 0, "simulationMode": [null, null, null, null, null], "rewards": [-2, -4, -2, -13, -15], "path": ["0", "0", "1", "2", "3", "4", "5"], "rt": [668, 102, 173, 344, 16], "actions": ["up", "up", "up", "right", "up"], "actionTimes": [2393, 3007, 3682, 4552, 5077], "queries": {"click": {"state": {"target": [], "time": []}, "edge": {"target": [], "time": []}}, "mouseover": {"state": {"target": [], "time": []}, "edge": {"target": [], "time": []}}, "mouseout": {"state": {"target": ["0"], "time": [1404]}, "edge": {"target": [], "time": []}}}, "displayed_time": "15.73", "trialTime": 21767, "trial_type": "mouselab-mdp", "trial_index": 34, "time_elapsed": 1138176, "internal_node_id": "0.0-4.0-1.0-25.0"}}, {"uniqueid": "w87673867:a29981492", "current_trial": 35, "dateTime": 1691143651594, "trialdata": {"revealed_states": [], "clicked_states": [], "num_clicks_accrued": [0, 0, 0, 0, 0, 0, 0, 0, 0, 0, 0, 0, 0], "stateRewards": ["", -1, 4, -5, 9, 29, -75, -42, -16, 24, -28, -41, 2, -3, 1, 10, 60, 47, 55, -1, -53, 22, -40, 2, -3, -6, 4, -26, 44, 54, 15, -76, 42, 14], "withholdReward": false, "trial_id": "mdp_trial_27", "block": "test", "trialIndex": 28, "score": 41, "costs": 0, "simulationMode": [null, null, null, null, null], "rewards": [2, -3, -6, 4, 44], "path": ["0", "0", "23", "24", "25", "26", "28"], "rt": [591, 646, 120, 283, 793], "actions": ["left", "left", "left", "up", "right"], "actionTimes": [2208, 3351, 3979, 4763, 6057], "queries": {"click": {"state": {"target": [], "time": []}, "edge": {"target": [], "time": []}}, "mouseover": {"state": {"target": [], "time": []}, "edge": {"target": [], "time": []}}, "mouseout": {"state": {"target": ["0", "0"], "time": [169, 264]}, "edge": {"target": [], "time": []}}}, "displayed_time": "15.62", "trialTime": 73515, "trial_type": "mouselab-mdp", "trial_index": 35, "time_elapsed": 1212350, "internal_node_id": "0.0-4.0-1.0-26.0"}}, {"uniqueid": "w87673867:a29981492", "current_trial": 36, "dateTime": 1691143670734, "trialdata": {"revealed_states": [], "clicked_states": [], "num_clicks_accrued": [0, 0, 0, 0, 0, 0, 0, 0, 0, 0, 0, 0, 0], "stateRewards": ["", 1, -1, 8, 4, 76, -33, -17, -3, -1, -54, -74, -2, 2, -5, 13, -51, 63, 83, 1, 84, 29, -36, 2, -1, 7, -12, -10, -44, -43, -14, 8, -69, 19], "withholdReward": false, "trial_id": "mdp_trial_28", "block": "test", "trialIndex": 29, "score": 80, "costs": 0, "simulationMode": [null, null, null, null, null], "rewards": [-2, 2, -5, 1, 84], "path": ["0", "0", "12", "13", "14", "19", "20"], "rt": [902, 239, 103, 273, 106], "actions": ["right", "right", "right", "down", "right"], "actionTimes": [2784, 3526, 4124, 4899, 5516], "queries": {"click": {"state": {"target": [], "time": []}, "edge": {"target": [], "time": []}}, "mouseover": {"state": {"target": [], "time": []}, "edge": {"target": [], "time": []}}, "mouseout": {"state": {"target": [], "time": []}, "edge": {"target": [], "time": []}}}, "displayed_time": "15.89", "trialTime": 18470, "trial_type": "mouselab-mdp", "trial_index": 36, "time_elapsed": 1231490, "internal_node_id": "0.0-4.0-1.0-27.0"}}, {"uniqueid": "w87673867:a29981492", "current_trial": 37, "dateTime": 1691143689070, "trialdata": {"revealed_states": [], "clicked_states": [], "num_clicks_accrued": [0, 0, 0, 0, 0, 0, 0, 0, 0, 0, 0, 0, 0], "stateRewards": ["", -2, -4, 2, 10, -17, 18, 73, 11, -32, 23, -13, -2, -4, 7, 12, -25, 66, -23, 15, 40, -76, -9, 1, 2, -7, -5, -20, 24, 3, -5, 16, -73, 70], "withholdReward": false, "trial_id": "mdp_trial_29", "block": "test", "trialIndex": 30, "score": -11, "costs": 0, "simulationMode": [null, null, null, null, null], "rewards": [-2, -4, 2, 10, -17], "path": ["0", "0", "1", "2", "3", "4", "5"], "rt": [1836, 49, 80, 109, 88], "actions": ["up", "up", "up", "right", "up"], "actionTimes": [4229, 4775, 5375, 5990, 6586], "queries": {"click": {"state": {"target": [], "time": []}, "edge": {"target": [], "time": []}}, "mouseover": {"state": {"target": [], "time": []}, "edge": {"target": [], "time": []}}, "mouseout": {"state": {"target": [], "time": []}, "edge": {"target": [], "time": []}}}, "displayed_time": "16.40", "trialTime": 17738, "trial_type": "mouselab-mdp", "trial_index": 37, "time_elapsed": 1249826, "internal_node_id": "0.0-4.0-1.0-28.0"}}, {"uniqueid": "w87673867:a29981492", "current_trial": 38, "dateTime": 1691143706175, "trialdata": {"revealed_states": [], "clicked_states": [], "num_clicks_accrued": [0, 0, 0, 0, 0, 0, 0, 0, 0, 0, 0, 0, 0], "stateRewards": ["", 1, -2, 7, -14, 88, -56, -44, -14, 64, -51, -57, -2, 3, -4, -9, -11, 19, -77, -1, 68, 75, -67, -1, 1, -2, 5, -37, 70, -34, -10, -72, 63, -41], "withholdReward": false, "trial_id": "mdp_trial_30", "block": "test", "trialIndex": 31, "score": -59, "costs": 0, "simulationMode": [null, null, null, null, null], "rewards": [1, -2, 7, -14, -51], "path": ["0", "0", "1", "2", "3", "8", "10"], "rt": [1121, 264, 217, 444, 151], "actions": ["up", "up", "up", "left", "down"], "actionTimes": [2404, 3173, 3889, 4839, 5497], "queries": {"click": {"state": {"target": [], "time": []}, "edge": {"target": [], "time": []}}, "mouseover": {"state": {"target": [], "time": []}, "edge": {"target": [], "time": []}}, "mouseout": {"state": {"target": [], "time": []}, "edge": {"target": [], "time": []}}}, "displayed_time": "15.30", "trialTime": 16410, "trial_type": "mouselab-mdp", "trial_index": 38, "time_elapsed": 1266930, "internal_node_id": "0.0-4.0-1.0-29.0"}}, {"uniqueid": "w87673867:a29981492", "current_trial": 39, "dateTime": 1691143769654, "trialdata": {"revealed_states": [], "clicked_states": [], "num_clicks_accrued": [0, 0, 0, 0, 0, 0, 0, 0, 0, 0, 0, 0, 0], "stateRewards": ["", 2, 4, -6, -13, -75, -81, 30, 7, 5, 59, -65, -1, -1, 7, 14, -38, 36, -41, 1, -54, -5, 64, 2, -1, 5, 6, -19, 79, 11, 16, -33, -50, 58], "withholdReward": false, "trial_id": "mdp_trial_31", "block": "test", "trialIndex": 32, "score": 23, "costs": 0, "simulationMode": [null, null, null, null, null], "rewards": [2, -1, 5, 6, 11], "path": ["0", "0", "23", "24", "25", "26", "29"], "rt": [894, 88, 165, 831, 856], "actions": ["left", "left", "left", "up", "left"], "actionTimes": [2387, 2974, 3658, 4987, 6352], "queries": {"click": {"state": {"target": [], "time": []}, "edge": {"target": [], "time": []}}, "mouseover": {"state": {"target": [], "time": []}, "edge": {"target": [], "time": []}}, "mouseout": {"state": {"target": [], "time": []}, "edge": {"target": [], "time": []}}}, "displayed_time": "15.50", "trialTime": 62776, "trial_type": "mouselab-mdp", "trial_index": 39, "time_elapsed": 1330409, "internal_node_id": "0.0-4.0-1.0-30.0"}}, {"uniqueid": "w87673867:a29981492", "current_trial": 40, "dateTime": 1691143799678, "trialdata": {"revealed_states": [], "clicked_states": [], "num_clicks_accrued": [0, 0, 0, 0, 0, 0, 0, 0, 0, 0, 0, 0, 0], "stateRewards": ["", -1, 3, 1, -11, -22, -36, 19, -5, -70, -52, 50, -2, -4, 4, -2, -41, -83, 29, -2, 22, 10, -6, -2, 3, -2, 14, 54, 44, 77, -9, -65, -37, -40], "withholdReward": false, "trial_id": "mdp_trial_32", "block": "test", "trialIndex": 33, "score": 48, "costs": 0, "simulationMode": [null, null, null, null, null], "rewards": [-1, 3, 1, -5, 50], "path": ["0", "0", "1", "2", "3", "8", "11"], "rt": [742, 64, 890, 1092, 57], "actions": ["up", "up", "up", "left", "left"], "actionTimes": [2266, 2832, 4227, 5816, 6386], "queries": {"click": {"state": {"target": [], "time": []}, "edge": {"target": [], "time": []}}, "mouseover": {"state": {"target": [], "time": []}, "edge": {"target": [], "time": []}}, "mouseout": {"state": {"target": [], "time": []}, "edge": {"target": [], "time": []}}}, "displayed_time": "15.53", "trialTime": 29308, "trial_type": "mouselab-mdp", "trial_index": 40, "time_elapsed": 1360434, "internal_node_id": "0.0-4.0-1.0-31.0"}}, {"uniqueid": "w87673867:a29981492", "current_trial": 41, "dateTime": 1691143829485, "trialdata": {"revealed_states": [], "clicked_states": [], "num_clicks_accrued": [0, 0, 0, 0, 0, 0, 0, 0, 0, 0, 0, 0, 0], "stateRewards": ["", -1, 3, -5, -2, -13, -9, -34, -7, -81, 32, 35, -2, -2, 1, -14, -32, 81, 7, 4, 82, 56, -8, -1, 3, -8, 6, -24, -24, -53, 2, 38, 61, 54], "withholdReward": false, "trial_id": "mdp_trial_33", "block": "test", "trialIndex": 34, "score": -14, "costs": 0, "simulationMode": [null, null, null, null, null], "rewards": [-1, 3, -5, -2, -9], "path": ["0", "0", "1", "2", "3", "4", "6"], "rt": [1540, 258, 112, 450, 63], "actions": ["up", "up", "up", "right", "right"], "actionTimes": [3048, 3805, 4415, 5374, 5933], "queries": {"click": {"state": {"target": [], "time": []}, "edge": {"target": [], "time": []}}, "mouseover": {"state": {"target": [], "time": []}, "edge": {"target": [], "time": []}}, "mouseout": {"state": {"target": ["0"], "time": [741]}, "edge": {"target": [], "time": []}}}, "displayed_time": "15.51", "trialTime": 29064, "trial_type": "mouselab-mdp", "trial_index": 41, "time_elapsed": 1390240, "internal_node_id": "0.0-4.0-1.0-32.0"}}, {"uniqueid": "w87673867:a29981492", "current_trial": 42, "dateTime": 1691143855251, "trialdata": {"revealed_states": [], "clicked_states": [], "num_clicks_accrued": [0, 0, 0, 0, 0, 0, 0, 0, 0, 0, 0, 0, 0], "stateRewards": ["", 2, -3, -4, -1, 25, -16, 16, 10, -71, -20, -55, 1, 3, -4, -9, 1, 32, 11, -6, 32, -50, -41, -1, 4, 4, -8, 7, -81, 70, 2, -52, 45, -10], "withholdReward": false, "trial_id": "mdp_trial_34", "block": "test", "trialIndex": 35, "score": 54, "costs": 0, "simulationMode": [null, null, null, null, null], "rewards": [-1, 4, 4, 2, 45], "path": ["0", "0", "23", "24", "25", "30", "32"], "rt": [862, 202, 289, 613, 88], "actions": ["left", "left", "left", "down", "down"], "actionTimes": [2315, 3021, 3804, 4918, 5513], "queries": {"click": {"state": {"target": [], "time": []}, "edge": {"target": [], "time": []}}, "mouseover": {"state": {"target": [], "time": []}, "edge": {"target": [], "time": []}}, "mouseout": {"state": {"target": ["0"], "time": [1128]}, "edge": {"target": [], "time": []}}}, "displayed_time": "15.46", "trialTime": 25034, "trial_type": "mouselab-mdp", "trial_index": 42, "time_elapsed": 1416006, "internal_node_id": "0.0-4.0-1.0-33.0"}}, {"uniqueid": "w87673867:a29981492", "current_trial": 43, "dateTime": 1691143925854, "trialdata": {"revealed_states": [], "clicked_states": [], "num_clicks_accrued": [0, 0, 0, 0, 0, 0, 0, 0, 0, 0, 0, 0, 0], "stateRewards": ["", -2, -3, 8, -4, -30, 31, 69, 9, 66, 87, 64, -2, 2, 8, 5, 47, 16, -39, -8, -54, 51, -19, 1, -2, -2, -11, -25, -26, 43, -9, 19, -84, 86], "withholdReward": false, "trial_id": "mdp_trial_35", "block": "test", "trialIndex": 36, "score": 74, "costs": 0, "simulationMode": [null, null, null, null, null], "rewards": [1, -2, -2, -9, 86], "path": ["0", "0", "23", "24", "25", "30", "33"], "rt": [2793, 56, 693, 264, 118], "actions": ["left", "left", "left", "down", "left"], "actionTimes": [4661, 5220, 6424, 7198, 7820], "queries": {"click": {"state": {"target": [], "time": []}, "edge": {"target": [], "time": []}}, "mouseover": {"state": {"target": [], "time": []}, "edge": {"target": [], "time": []}}, "mouseout": {"state": {"target": ["0", "0"], "time": [361, 463]}, "edge": {"target": [], "time": []}}}, "displayed_time": "15.88", "trialTime": 69891, "trial_type": "mouselab-mdp", "trial_index": 43, "time_elapsed": 1486609, "internal_node_id": "0.0-4.0-1.0-34.0"}}, {"uniqueid": "w87673867:a29981492", "current_trial": 44, "dateTime": 1691144052085, "trialdata": {"revealed_states": [], "clicked_states": [], "num_clicks_accrued": [0, 0, 0, 0, 0, 0, 0, 0, 0, 0, 0, 0, 0], "stateRewards": ["", -1, -2, -1, -10, -57, 73, -72, -16, 75, -14, -46, -2, -3, -7, -1, -61, -60, 76, -4, 50, 4, 14, 2, 2, -7, 12, -65, -32, 15, -8, -76, -25, -61], "withholdReward": false, "trial_id": "mdp_trial_36", "block": "test", "trialIndex": 37, "score": -71, "costs": 0, "simulationMode": [null, null, null, null, null], "rewards": [-1, -2, -1, -10, -57], "path": ["0", "0", "1", "2", "3", "4", "5"], "rt": [1561, 261, 660, 5, 287], "actions": ["up", "up", "up", "right", "up"], "actionTimes": [5681, 6444, 7598, 8112, 8912], "queries": {"click": {"state": {"target": [], "time": []}, "edge": {"target": [], "time": []}}, "mouseover": {"state": {"target": [], "time": []}, "edge": {"target": [], "time": []}}, "mouseout": {"state": {"target": ["0"], "time": [1805]}, "edge": {"target": [], "time": []}}}, "displayed_time": "18.13", "trialTime": 125472, "trial_type": "mouselab-mdp", "trial_index": 44, "time_elapsed": 1612841, "internal_node_id": "0.0-4.0-1.0-35.0"}}, {"uniqueid": "w87673867:a29981492", "current_trial": 45, "dateTime": 1691144089053, "trialdata": {"revealed_states": [], "clicked_states": [], "num_clicks_accrued": [0, 0, 0, 0, 0, 0, 0, 0, 0, 0, 0, 0, 0], "stateRewards": ["", -1, -4, 8, 8, -68, 47, 24, -7, -61, 49, -69, -1, -1, 8, -7, 42, 1, -45, -11, 10, -63, -6, 1, 4, 6, -16, 79, -37, -58, -12, 81, 18, -53], "withholdReward": false, "trial_id": "mdp_trial_37", "block": "test", "trialIndex": 38, "score": 74, "costs": 0, "simulationMode": [null, null, null, null, null], "rewards": [1, 4, 6, -16, 79], "path": ["0", "0", "23", "24", "25", "26", "27"], "rt": [1026, 284, 826, 1793, 52], "actions": ["left", "left", "left", "up", "up"], "actionTimes": [4248, 5056, 6382, 8670, 9219], "queries": {"click": {"state": {"target": [], "time": []}, "edge": {"target": [], "time": []}}, "mouseover": {"state": {"target": [], "time": []}, "edge": {"target": [], "time": []}}, "mouseout": {"state": {"target": ["0"], "time": [2855]}, "edge": {"target": [], "time": []}}}, "displayed_time": "17.23", "trialTime": 36255, "trial_type": "mouselab-mdp", "trial_index": 45, "time_elapsed": 1649809, "internal_node_id": "0.0-4.0-1.0-36.0"}}, {"uniqueid": "w87673867:a29981492", "current_trial": 46, "dateTime": 1691144136610, "trialdata": {"revealed_states": [], "clicked_states": [], "num_clicks_accrued": [0, 0, 0, 0, 0, 0, 0, 0, 0, 0, 0, 0, 0], "stateRewards": ["", -1, 3, -7, 16, -32, -74, -48, 2, 10, 15, -30, 1, 1, -2, 10, 12, -83, 67, 13, -66, 47, 65, -2, 4, 2, -14, -8, -57, 24, 9, 65, 12, 46], "withholdReward": false, "trial_id": "mdp_trial_38", "block": "test", "trialIndex": 39, "score": 22, "costs": 0, "simulationMode": [null, null, null, null, null], "rewards": [1, 1, -2, 10, 12], "path": ["0", "0", "12", "13", "14", "15", "16"], "rt": [2256, 137, 434, 40, 85], "actions": ["right", "right", "right", "up", "up"], "actionTimes": [3629, 4259, 5191, 5735, 6314], "queries": {"click": {"state": {"target": [], "time": []}, "edge": {"target": [], "time": []}}, "mouseover": {"state": {"target": ["23"], "time": [2033]}, "edge": {"target": [], "time": []}}, "mouseout": {"state": {"target": ["0"], "time": [1085]}, "edge": {"target": [], "time": []}}}, "displayed_time": "15.38", "trialTime": 46798, "trial_type": "mouselab-mdp", "trial_index": 46, "time_elapsed": 1697365, "internal_node_id": "0.0-4.0-1.0-37.0"}}, {"uniqueid": "w87673867:a29981492", "current_trial": 47, "dateTime": 1691144184629, "trialdata": {"revealed_states": [], "clicked_states": [], "num_clicks_accrued": [0, 0, 0, 0, 0, 0, 0, 0, 0, 0, 0, 0, 0], "stateRewards": ["", -1, -3, 1, 13, -64, -29, 12, -4, -33, 50, 56, 2, -3, 4, 11, -64, -58, -55, 12, 47, 38, -25, -2, 2, 5, -15, 85, 7, 84, 10, 8, 57, 26], "withholdReward": false, "trial_id": "mdp_trial_39", "block": "test", "trialIndex": 40, "score": 62, "costs": 0, "simulationMode": [null, null, null, null, null], "rewards": [2, -3, 4, 12, 47], "path": ["0", "0", "12", "13", "14", "19", "20"], "rt": [2019, 89, 345, 142, 685], "actions": ["right", "right", "right", "down", "right"], "actionTimes": [14610, 15206, 16046, 16761, 17940], "queries": {"click": {"state": {"target": [], "time": []}, "edge": {"target": [], "time": []}}, "mouseover": {"state": {"target": [], "time": []}, "edge": {"target": [], "time": []}}, "mouseout": {"state": {"target": ["23"], "time": [11707]}, "edge": {"target": [], "time": []}}}, "displayed_time": "26.59", "trialTime": 47320, "trial_type": "mouselab-mdp", "trial_index": 47, "time_elapsed": 1745384, "internal_node_id": "0.0-4.0-1.0-38.0"}}, {"uniqueid": "w87673867:a29981492", "current_trial": 48, "dateTime": 1691144247402, "trialdata": {"revealed_states": [], "clicked_states": [], "num_clicks_accrued": [0, 0, 0, 0, 0, 0, 0, 0, 0, 0, 0, 0, 0], "stateRewards": ["", -2, 1, -3, -16, -39, -52, 30, -7, -41, -59, 11, 2, 1, 8, 2, -11, -26, -42, -13, 87, -59, -48, -1, -1, -1, 16, -79, 31, 50, -1, -84, 34, -82], "withholdReward": false, "trial_id": "mdp_trial_40", "block": "test", "trialIndex": 41, "score": 63, "costs": 0, "simulationMode": [null, null, null, null, null], "rewards": [-1, -1, -1, 16, 50], "path": ["0", "0", "23", "24", "25", "26", "29"], "rt": [1429, 483, 1031, 873, 87], "actions": ["left", "left", "left", "up", "left"], "actionTimes": [2494, 3480, 5016, 6407, 6995], "queries": {"click": {"state": {"target": [], "time": []}, "edge": {"target": [], "time": []}}, "mouseover": {"state": {"target": [], "time": []}, "edge": {"target": [], "time": []}}, "mouseout": {"state": {"target": ["0"], "time": [694]}, "edge": {"target": [], "time": []}}}, "displayed_time": "15.07", "trialTime": 61993, "trial_type": "mouselab-mdp", "trial_index": 48, "time_elapsed": 1808157, "internal_node_id": "0.0-4.0-1.0-39.0"}}, {"uniqueid": "w87673867:a29981492", "current_trial": 49, "dateTime": 1691144303282, "trialdata": {"rt": 55872, "response": {"Q0": "$-2 to $2", "Q1": "$-4 to $4", "Q2": "$-16 to $16", "Q3": "The cost for clicking on nodes varied between nodes.", "Q4": "Very motivated"}, "question_order": [0, 1, 2, 3, 4], "trial_id": "final_quiz_control", "trial_type": "survey-multi-choice", "trial_index": 49, "time_elapsed": 1864038, "internal_node_id": "0.0-4.0-2.0"}}, {"uniqueid": "w87673867:a29981492", "current_trial": 50, "dateTime": 1691144459624, "trialdata": {"rt": 156330, "response": {"Q0": "Tried to move to the same direction for two rounds in a row if I got a positive outcome and moved opposite direction after a negative outcome.", "Q1": "I don't think I did.", "Q2": "not knowing what the outcome will be made it difficult to make moves."}, "trial_id": "self_report_control", "trial_type": "survey-text", "trial_index": 50, "time_elapsed": 2020380, "internal_node_id": "0.0-4.0-3.0"}}, {"uniqueid": "w87673867:a29981492", "current_trial": 51, "dateTime": 1691144504091, "trialdata": {"rt": 44461, "response": {"gender": "female", "age": "29", "colorblind": "0", "effort": "0"}, "trial_type": "survey-html-form", "trial_index": 51, "time_elapsed": 2064846, "internal_node_id": "0.0-4.0-4.0"}}, {"uniqueid": "w87673867:a29981492", "current_trial": 52, "dateTime": 1691144526523, "trialdata": {"rt": 22422, "response": {"Q0": "No", "Q1": "No", "Q2": "N/A"}, "trial_type": "survey-text", "trial_index": 52, "time_elapsed": 2087279, "internal_node_id": "0.0-4.0-5.0"}}, {"uniqueid": "w87673867:a29981492", "current_trial": 53, "dateTime": 1691144532496, "trialdata": {"rt": 5965, "stimulus": "Press 'Finish HIT' in order to reach the completion code. Once the data has been saved, you will receive the code either in this window or in the original browser window where you started the experiment.\n", "response": 0, "trial_type": "html-button-response", "trial_index": 53, "time_elapsed": 2093251, "internal_node_id": "0.0-5.0"}}, {"uniqueid": "w87673867:a29981492", "current_trial": 54, "dateTime": 1691144533505, "trialdata": {"success": true, "trial_type": "fullscreen", "trial_index": 54, "time_elapsed": 2094261, "internal_node_id": "0.0-6.0"}}], "questiondata": {"params": {"CODE": "C6DMOQA6", "MIN_TIME": 14, "inspectCost": 1, "startTime": "Fri Aug 04 2023 11:47:17 GMT+0200 (South Africa Standard Time)", "bonusRate": 0.002, "variance": "1_2_4_8_44", "branching": "31123"}, "final_score": 252.8}, "eventdata": [{"eventtype": "initialized", "value": null, "timestamp": 1691142436350, "interval": 0}, {"eventtype": "window_resize", "value": [1440, 783], "timestamp": 1691142436350, "interval": 0}, {"eventtype": "window_resize", "value": [1440, 783], "timestamp": 1691142437225, "interval": 875}, {"eventtype": "window_resize", "value": [1440, 900], "timestamp": 1691142449971, "interval": 12746}, {"eventtype": "window_resize", "value": [1440, 783], "timestamp": 1691144532729, "interval": 2082758}], "useragent": "Mozilla/5.0 (Macintosh; Intel Mac OS X 10_15_7) AppleWebKit/537.36 (KHTML, like Gecko) Chrome/115.0.0.0 Safari/537.36", "mode": "live", "id": "w87673867:a29981492", "status": "user data saved", "Beginhit": "2023-08-04 09:47:12.975938", "Beginexp": "2023-08-04 09:47:31.001325", "Endhit": "2023-08-04 10:22:14.954523", "psiturkStatus": 3, "browser": "<redacted>", "platform": "macos", "language": "en-GB"}