{"condition": 0, "counterbalance": 0, "assignmentId": "a38903571", "workerId": "w27536521", "hitId": "h67472910", "currenttrial": 11, "bonus": 0, "data": [{"uniqueid": "w27536521:a38903571", "current_trial": 0, "dateTime": 1693481024661, "trialdata": {"success": true, "trial_type": "fullscreen", "trial_index": 0, "time_elapsed": 9976, "internal_node_id": "0.0-0.0"}}, {"uniqueid": "w27536521:a38903571", "current_trial": 1, "dateTime": 1693481070494, "trialdata": {"view_history": [{"page_index": 0, "viewing_time": 45822}], "rt": 45825, "trial_id": "exp_instructions_control", "trial_type": "instructions", "trial_index": 1, "time_elapsed": 55809, "internal_node_id": "0.0-1.0"}}, {"uniqueid": "w27536521:a38903571", "current_trial": 2, "dateTime": 1693481595808, "trialdata": {"view_history": [{"page_index": 0, "viewing_time": 238284}, {"page_index": 1, "viewing_time": 148135}, {"page_index": 2, "viewing_time": 66678}, {"page_index": 3, "viewing_time": 72212}], "rt": 525310, "trial_id": "mouselab_instructions_1_control", "trial_type": "instructions", "trial_index": 2, "time_elapsed": 581124, "internal_node_id": "0.0-2.0-1.0"}}, {"uniqueid": "w27536521:a38903571", "current_trial": 3, "dateTime": 1693481627292, "trialdata": {"revealed_states": [], "clicked_states": ["27"], "num_clicks_accrued": [0, 0, 0, 0, 0, 0, 0, 0, 0, 0, 0, 0, 0], "stateRewards": ["", -10, 10, 10, -10, -10, 10, 10, 10, 10, -10, -10, 10, 10, 10, 10, 10, 10, 10, 10, -10, 10, 10, -10, 10, 10, -10, 10, -10, -10, -10, 10, 10, 10], "withholdReward": false, "trial_id": "practice_1", "block": "test", "trialIndex": 0, "score": 13, "costs": -0.5, "simulationMode": [null, null, null, null, null], "rewards": [-10, 10, 10, -10, 10], "path": ["0", "0", "23", "24", "25", "26", "27"], "rt": [13244, 73, 223, 70, 718], "actions": ["left", "left", "left", "up", "up"], "actionTimes": [18010, 18596, 19333, 19925, 21155], "queries": {"click": {"state": {"target": ["27"], "time": [11064]}, "edge": {"target": [], "time": []}}, "mouseover": {"state": {"target": ["10", "27", "26", "28", "0"], "time": [10058, 10504, 12653, 14202, 16156]}, "edge": {"target": [], "time": []}}, "mouseout": {"state": {"target": ["0", "0", "1", "10", "10", "0", "10", "27", "26", "28", "0", "12"], "time": [1502, 1770, 2421, 2603, 3469, 9819, 10134, 12406, 13970, 14226, 28239, 28271]}, "edge": {"target": [], "time": []}}}, "displayed_time": "21.67", "trialTime": 30111, "trial_type": "mouselab-mdp", "trial_index": 3, "time_elapsed": 612601, "internal_node_id": "0.0-2.0-2.0-0.0"}}, {"uniqueid": "w27536521:a38903571", "current_trial": 4, "dateTime": 1693481655612, "trialdata": {"revealed_states": [], "clicked_states": ["4", "9"], "num_clicks_accrued": [0, 0, 0, 0, 0, 0, 0, 0, 0, 0, 0, 0, 0], "stateRewards": ["", 10, -10, 10, -10, -10, -10, 10, 10, 10, 10, -10, -10, -10, 10, 10, -10, 10, -10, 10, -10, -10, -10, -10, -10, 10, 10, -10, 10, -10, -10, -10, 10, 10], "withholdReward": false, "trial_id": "practice_2", "block": "test", "trialIndex": 1, "score": 32.5, "costs": -1, "simulationMode": [null, null, null, null, null], "rewards": [10, -10, 10, 10, 10], "path": ["0", "0", "1", "2", "3", "8", "9"], "rt": [14577, 144, 250, 537, 354], "actions": ["up", "up", "up", "left", "up"], "actionTimes": [19207, 19872, 20654, 21724, 22605], "queries": {"click": {"state": {"target": ["4", "9"], "time": [7649, 12252]}, "edge": {"target": [], "time": []}}, "mouseover": {"state": {"target": ["1", "2", "7", "4", "4", "3", "8", "9", "11", "10", "1"], "time": [6129, 6226, 6409, 6910, 7263, 10945, 11394, 11441, 13444, 15943, 18360]}, "edge": {"target": [], "time": []}}, "mouseout": {"state": {"target": ["10", "8", "3", "2", "1", "1", "2", "7", "4", "4", "4", "3", "8", "9", "11", "10", "1"], "time": [812, 1093, 2545, 3342, 3395, 6154, 6307, 6459, 7008, 8683, 10878, 11325, 11417, 13186, 15879, 15976, 26821]}, "edge": {"target": [], "time": []}}}, "displayed_time": "23.14", "trialTime": 27552, "trial_type": "mouselab-mdp", "trial_index": 4, "time_elapsed": 640919, "internal_node_id": "0.0-2.0-2.0-1.0"}}, {"uniqueid": "w27536521:a38903571", "current_trial": 5, "dateTime": 1693481745898, "trialdata": {"view_history": [{"page_index": 0, "viewing_time": 68692}, {"page_index": 1, "viewing_time": 21589}], "rt": 90281, "trial_id": "mouselab_instructions_2_control", "trial_type": "instructions", "trial_index": 5, "time_elapsed": 731214, "internal_node_id": "0.0-2.0-3.0"}}, {"uniqueid": "w27536521:a38903571", "current_trial": 6, "dateTime": 1693481872857, "trialdata": {"rt": 126899, "response": {"Q0": "The cost for clicking on nodes may vary between nodes.", "Q1": "The better I perform the higher my bonus will be.", "Q2": "No, the amount of cash at each node of the web may be different each time.", "Q3": "To get the highest total score.", "Q4": "Only before moving the spider.", "Q5": "3 seconds"}, "question_order": [0, 1, 2, 3, 4, 5], "correct": {"Q0": "The cost for clicking on nodes may vary between nodes.", "Q1": "The better I perform the higher my bonus will be.", "Q2": "No, the amount of cash at each node of the web may be different each time.", "Q3": "To get the highest total score.", "Q4": "Only before moving the spider.", "Q5": "3 seconds"}, "trial_id": "mouselab_quiz_control", "trial_type": "survey-multi-choice", "trial_index": 6, "time_elapsed": 858173, "internal_node_id": "0.0-2.0-4.0"}}, {"uniqueid": "w27536521:a38903571", "current_trial": 7, "dateTime": 1693481923268, "trialdata": {"rt": 50400, "response": {"Q0": "Yes"}, "question_order": [0], "trial_id": "repeat_check", "trial_type": "survey-multi-choice", "trial_index": 7, "time_elapsed": 908583, "internal_node_id": "0.0-4.0-0.0"}}, {"uniqueid": "w27536521:a38903571", "current_trial": 8, "dateTime": 1693481995657, "trialdata": {"rt": 72367, "response": {"Q0": "", "Q1": "23", "Q2": "Male ", "Q3": "No", "Q4": ""}, "trial_id": "finish_repeat", "trial_type": "survey-text", "trial_index": 8, "time_elapsed": 980973, "internal_node_id": "0.0-5.0-0.0"}}, {"uniqueid": "w27536521:a38903571", "current_trial": 9, "dateTime": 1693482003062, "trialdata": {"rt": 7399, "stimulus": "<h1>Completion Code Instructions (1/2)</h1>\n<br><br><br><br>\nYou have reached the end of the experiment! The completion code consists of two parts: (1) a code with 2 characters (2) a code with 6 characters. On this page, you will receive the second part of the code. The first part of the completion code will be on the next page.\n<br><br>\nThe second part of your completion code is: <b>6GR61H</b>\n<br><br>\nPlease note this down. Then, press 'Finish HIT' in order to find the first part of your completion code. Once the data has been saved, you will receive this code either in this window or in the original browser window where you started the experiment.\n", "response": 0, "trial_type": "html-button-response", "trial_index": 9, "time_elapsed": 988378, "internal_node_id": "0.0-5.0-1.0"}}, {"uniqueid": "w27536521:a38903571", "current_trial": 10, "dateTime": 1693482004073, "trialdata": {"success": true, "trial_type": "fullscreen", "trial_index": 10, "time_elapsed": 989389, "internal_node_id": "0.0-7.0"}}], "questiondata": {"params": {"CODE": "C6DMOQA6", "MIN_TIME": 14, "inspectCost": 1, "startTime": "Thu Aug 31 2023 13:23:31 GMT+0200 (South Africa Standard Time)", "bonusRate": 0.002, "variance": "1_2_4_8_44", "branching": "31123"}, "final_score": 0}, "eventdata": [{"eventtype": "initialized", "value": null, "timestamp": 1693481010423, "interval": 0}, {"eventtype": "window_resize", "value": [1366, 651], "timestamp": 1693481010423, "interval": 0}, {"eventtype": "window_resize", "value": [1366, 651], "timestamp": 1693481011206, "interval": 783}, {"eventtype": "window_resize", "value": [1366, 768], "timestamp": 1693481023876, "interval": 12670}, {"eventtype": "window_resize", "value": [1366, 651], "timestamp": 1693482003311, "interval": 979435}], "useragent": "Mozilla/5.0 (Macintosh; Intel Mac OS X 10_15_7) AppleWebKit/537.36 (KHTML, like Gecko) Chrome/116.0.0.0 Safari/537.36", "mode": "live", "id": "w27536521:a38903571", "status": "user data saved", "Beginhit": "2023-08-31 11:20:41.269043", "Beginexp": "2023-08-31 11:21:01.87486", "Endhit": "2023-08-31 11:37:22.048467", "psiturkStatus": 3, "browser": "<redacted>", "platform": "macos", "language": "en-US", "excludeReason": "quizfail"}