{"condition": 1, "counterbalance": 0, "assignmentId": "a61597126", "workerId": "w91001418", "hitId": "h61900686", "currenttrial": 56, "bonus": 0, "data": [{"uniqueid": "w91001418:a61597126", "current_trial": 0, "dateTime": 1693564867076, "trialdata": {"success": true, "trial_type": "fullscreen", "trial_index": 0, "time_elapsed": 8371, "internal_node_id": "0.0-0.0"}}, {"uniqueid": "w91001418:a61597126", "current_trial": 1, "dateTime": 1693564927302, "trialdata": {"view_history": [{"page_index": 0, "viewing_time": 60210}], "rt": 60212, "trial_id": "exp_instructions_misaligned", "trial_type": "instructions", "trial_index": 1, "time_elapsed": 68598, "internal_node_id": "0.0-1.0"}}, {"uniqueid": "w91001418:a61597126", "current_trial": 2, "dateTime": 1693565333330, "trialdata": {"view_history": [{"page_index": 0, "viewing_time": 125162}, {"page_index": 1, "viewing_time": 168611}, {"page_index": 2, "viewing_time": 63667}, {"page_index": 3, "viewing_time": 48583}], "rt": 406023, "trial_id": "mouselab_instructions_1_misaligned", "trial_type": "instructions", "trial_index": 2, "time_elapsed": 474626, "internal_node_id": "0.0-2.0-1.0"}}, {"uniqueid": "w91001418:a61597126", "current_trial": 3, "dateTime": 1693565379459, "trialdata": {"revealed_states": [], "clicked_states": ["12", "23", "1"], "num_clicks_accrued": [0, 0, 0, 0, 0, 0, 0, 0, 0, 0, 0, 0, 0], "stateRewards": ["", 10, 10, -10, -10, -10, 10, 10, -10, -10, 10, -10, -10, 10, 10, 10, 10, -10, -10, 10, -10, 10, -10, -10, -10, 10, -10, -10, -10, 10, 10, 10, 10, -10], "withholdReward": false, "trial_id": "practice_1", "block": "test", "trialIndex": 0, "score": -8, "costs": -1.5, "simulationMode": [null, null, null, null, null], "rewards": [10, 10, -10, -10, -10], "path": ["0", "0", "1", "2", "3", "8", "9"], "rt": [14802, 3222, 2650, 437, 103], "actions": ["up", "up", "up", "left", "up"], "actionTimes": [22032, 25746, 28914, 29866, 30482], "queries": {"click": {"state": {"target": ["12", "23", "1"], "time": [13517, 17509, 18864]}, "edge": {"target": [], "time": []}}, "mouseover": {"state": {"target": ["12", "23", "1"], "time": [12793, 16800, 18322]}, "edge": {"target": [], "time": []}}, "mouseout": {"state": {"target": ["0", "12", "23", "1", "1", "0", "22"], "time": [5189, 15963, 18144, 18991, 19786, 37090, 37185]}, "edge": {"target": [], "time": []}}}, "displayed_time": "31.00", "trialTime": 41819, "trial_type": "mouselab-mdp", "trial_index": 3, "time_elapsed": 520753, "internal_node_id": "0.0-2.0-2.0-0.0"}}, {"uniqueid": "w91001418:a61597126", "current_trial": 4, "dateTime": 1693565406425, "trialdata": {"revealed_states": [], "clicked_states": ["23"], "num_clicks_accrued": [0, 0, 0, 0, 0, 0, 0, 0, 0, 0, 0, 0, 0], "stateRewards": ["", -10, -10, -10, -10, -10, -10, -10, -10, 10, -10, 10, -10, 10, -10, 10, -10, -10, 10, -10, 10, -10, 10, -10, 10, 10, -10, 10, -10, 10, -10, 10, 10, 10], "withholdReward": false, "trial_id": "practice_2", "block": "test", "trialIndex": 1, "score": 13, "costs": -0.5, "simulationMode": [null, null, null, null, null], "rewards": [-10, 10, 10, -10, 10], "path": ["0", "0", "23", "24", "25", "26", "27"], "rt": [6312, 268, 495, 1078, 449], "actions": ["left", "left", "left", "up", "up"], "actionTimes": [12372, 13159, 14172, 15780, 16760], "queries": {"click": {"state": {"target": ["23"], "time": [9705]}, "edge": {"target": [], "time": []}}, "mouseover": {"state": {"target": ["23"], "time": [8790]}, "edge": {"target": [], "time": []}}, "mouseout": {"state": {"target": ["16", "7", "0", "0", "23", "21"], "time": [3831, 4264, 4682, 7489, 21042, 21159]}, "edge": {"target": [], "time": []}}}, "displayed_time": "17.29", "trialTime": 26286, "trial_type": "mouselab-mdp", "trial_index": 4, "time_elapsed": 547720, "internal_node_id": "0.0-2.0-2.0-1.0"}}, {"uniqueid": "w91001418:a61597126", "current_trial": 5, "dateTime": 1693565499974, "trialdata": {"view_history": [{"page_index": 0, "viewing_time": 73665}, {"page_index": 1, "viewing_time": 19877}], "rt": 93543, "trial_id": "mouselab_instructions_2_misaligned", "trial_type": "instructions", "trial_index": 5, "time_elapsed": 641270, "internal_node_id": "0.0-2.0-3.0"}}, {"uniqueid": "w91001418:a61597126", "current_trial": 6, "dateTime": 1693565568698, "trialdata": {"rt": 68519, "response": {"Q0": "The cost for clicking on nodes may vary between nodes.", "Q1": "The better I perform the higher my bonus will be.", "Q2": "No, the amount of cash at each node of the web may be different each time.", "Q3": "To get the highest total score.", "Q4": "Only before moving the spider.", "Q5": "3 seconds"}, "question_order": [0, 1, 2, 3, 4, 5], "correct": {"Q0": "The cost for clicking on nodes may vary between nodes.", "Q1": "The better I perform the higher my bonus will be.", "Q2": "No, the amount of cash at each node of the web may be different each time.", "Q3": "To get the highest total score.", "Q4": "Only before moving the spider.", "Q5": "3 seconds"}, "trial_id": "mouselab_quiz_misaligned", "trial_type": "survey-multi-choice", "trial_index": 6, "time_elapsed": 709994, "internal_node_id": "0.0-2.0-4.0"}}, {"uniqueid": "w91001418:a61597126", "current_trial": 7, "dateTime": 1693565581275, "trialdata": {"rt": 12559, "response": {"Q0": "No"}, "question_order": [0], "trial_id": "repeat_check", "trial_type": "survey-multi-choice", "trial_index": 7, "time_elapsed": 722570, "internal_node_id": "0.0-4.0-0.0"}}, {"uniqueid": "w91001418:a61597126", "current_trial": 8, "dateTime": 1693565608781, "trialdata": {"rt": 27447, "stimulus": "\n<h1> Get ready to start the game! </h1>\n\nThank you for reading the instructions. Get ready start with the 40 rounds of this game.\n<br><br>\nIf you need to take a break, feel free to take one after the end of a round, before continuing to the next one.\n<br><br>\nRemember, the more money the spider gets, the bigger your bonus will be!\n<br><br>\n<div style='text-align: center;'>Press <code>space</code> to begin.</div>\n\n<br><br>\n(If, at any point, the <code>space</code> key does not take you to the next page, click once on the text and try again.)", "response": " ", "trial_id": "mdp_ready", "trial_type": "html-keyboard-response", "trial_index": 8, "time_elapsed": 750077, "internal_node_id": "0.0-6.0-0.0"}}, {"uniqueid": "w91001418:a61597126", "current_trial": 9, "dateTime": 1693565643683, "trialdata": {"revealed_states": [], "clicked_states": ["23"], "num_clicks_accrued": [0, 0, 0, 0, 0, 0, 0, 0, 0, 0, 0, 0, 0], "stateRewards": ["", 1, 4, -8, -5, -15, -7, 21, 13, -30, 40, -65, 1, 1, 5, -14, 35, 27, -38, -11, 36, -58, -47, -2, 4, -3, 13, -16, -49, 22, 15, -56, -44, -10], "withholdReward": false, "trial_id": "mdp_trial_1", "block": "test", "trialIndex": 2, "score": 34.25, "costs": 0.25, "simulationMode": [null, null, null, null, null], "rewards": [-2, 4, -3, 13, 22], "path": ["0", "0", "23", "24", "25", "26", "29"], "rt": [3753, 229, 501, 813, 604], "actions": ["left", "left", "left", "up", "left"], "actionTimes": [8229, 8979, 9994, 11321, 12454], "queries": {"click": {"state": {"target": ["23"], "time": [6794]}, "edge": {"target": [], "time": []}}, "mouseover": {"state": {"target": ["23"], "time": [6173]}, "edge": {"target": [], "time": []}}, "mouseout": {"state": {"target": ["0", "23", "13", "14"], "time": [5842, 17873, 18028, 18059]}, "edge": {"target": [], "time": []}}}, "displayed_time": "18.48", "trialTime": 34252, "trial_type": "mouselab-mdp", "trial_index": 9, "time_elapsed": 784978, "internal_node_id": "0.0-6.0-1.0-0.0"}}, {"uniqueid": "w91001418:a61597126", "current_trial": 10, "dateTime": 1693565669521, "trialdata": {"revealed_states": [], "clicked_states": ["23"], "num_clicks_accrued": [0, 0, 0, 0, 0, 0, 0, 0, 0, 0, 0, 0, 0], "stateRewards": ["", 1, 4, 7, -16, -84, -6, -46, -12, -7, -49, -26, -1, 2, -4, 2, 22, 37, -64, 1, 88, -13, -10, 1, -4, -2, 5, 2, -10, -34, 9, 66, 55, 38], "withholdReward": false, "trial_id": "mdp_trial_2", "block": "test", "trialIndex": 3, "score": 42.25, "costs": 0.25, "simulationMode": [null, null, null, null, null], "rewards": [1, -4, -2, 9, 38], "path": ["0", "0", "23", "24", "25", "30", "33"], "rt": [3851, 296, 231, 857, 783], "actions": ["left", "left", "left", "down", "left"], "actionTimes": [7742, 8556, 9317, 10685, 11988], "queries": {"click": {"state": {"target": ["23"], "time": [6556]}, "edge": {"target": [], "time": []}}, "mouseover": {"state": {"target": ["0", "23"], "time": [5024, 5743]}, "edge": {"target": [], "time": []}}, "mouseout": {"state": {"target": ["21", "12", "1", "0", "0", "23", "12", "14"], "time": [1900, 2121, 2177, 2704, 5613, 19631, 19695, 19733]}, "edge": {"target": [], "time": []}}}, "displayed_time": "17.89", "trialTime": 25154, "trial_type": "mouselab-mdp", "trial_index": 10, "time_elapsed": 810815, "internal_node_id": "0.0-6.0-1.0-1.0"}}, {"uniqueid": "w91001418:a61597126", "current_trial": 11, "dateTime": 1693565691286, "trialdata": {"revealed_states": [], "clicked_states": ["12"], "num_clicks_accrued": [0, 0, 0, 0, 0, 0, 0, 0, 0, 0, 0, 0, 0], "stateRewards": ["", 2, 3, 3, 10, 19, -21, 6, 9, 54, 68, 16, 2, 2, -6, -8, 40, -2, -75, -2, -42, 55, 59, -1, 2, 4, -14, 11, -34, -30, -6, 61, -53, 13], "withholdReward": false, "trial_id": "mdp_trial_3", "block": "test", "trialIndex": 4, "score": 51.25, "costs": 0.25, "simulationMode": [null, null, null, null, null], "rewards": [2, 2, -6, -2, 55], "path": ["0", "0", "12", "13", "14", "19", "21"], "rt": [3380, 396, 3, 710, 713], "actions": ["right", "right", "right", "down", "down"], "actionTimes": [7892, 8798, 9324, 10572, 11814], "queries": {"click": {"state": {"target": ["12"], "time": [6782]}, "edge": {"target": [], "time": []}}, "mouseover": {"state": {"target": ["12"], "time": [6139]}, "edge": {"target": [], "time": []}}, "mouseout": {"state": {"target": ["18", "0", "0"], "time": [2147, 2528, 5720]}, "edge": {"target": [], "time": []}}}, "displayed_time": "18.52", "trialTime": 21019, "trial_type": "mouselab-mdp", "trial_index": 11, "time_elapsed": 832581, "internal_node_id": "0.0-6.0-1.0-2.0"}}, {"uniqueid": "w91001418:a61597126", "current_trial": 12, "dateTime": 1693565717618, "trialdata": {"revealed_states": [], "clicked_states": [], "num_clicks_accrued": [0, 0, 0, 0, 0, 0, 0, 0, 0, 0, 0, 0, 0], "stateRewards": ["", -1, 3, -4, -14, 78, 67, 2, 13, -32, 28, 39, -2, 1, -4, -4, -4, -42, -86, 11, 64, -29, -32, -1, -4, 2, -7, 5, 68, -61, 2, -21, 85, 50], "withholdReward": false, "trial_id": "mdp_trial_4", "block": "test", "trialIndex": 5, "score": -51, "costs": 0, "simulationMode": [null, null, null, null, null], "rewards": [-2, 1, -4, -4, -42], "path": ["0", "0", "12", "13", "14", "15", "17"], "rt": [8180, 1062, 359, 929, 971], "actions": ["right", "right", "right", "up", "right"], "actionTimes": [11386, 12971, 13856, 15318, 16817], "queries": {"click": {"state": {"target": [], "time": []}, "edge": {"target": [], "time": []}}, "mouseover": {"state": {"target": ["23", "0", "12"], "time": [4799, 5196, 6030]}, "edge": {"target": [], "time": []}}, "mouseout": {"state": {"target": ["12", "23", "23", "0", "12"], "time": [1487, 1858, 5149, 5296, 23041]}, "edge": {"target": [], "time": []}}}, "displayed_time": "17.34", "trialTime": 25479, "trial_type": "mouselab-mdp", "trial_index": 12, "time_elapsed": 858913, "internal_node_id": "0.0-6.0-1.0-3.0"}}, {"uniqueid": "w91001418:a61597126", "current_trial": 13, "dateTime": 1693565740310, "trialdata": {"revealed_states": [], "clicked_states": [], "num_clicks_accrued": [0, 0, 0, 0, 0, 0, 0, 0, 0, 0, 0, 0, 0], "stateRewards": ["", 1, -1, 1, -14, -10, 67, -28, -11, 72, 40, -65, -1, 1, 1, -2, 8, -55, 34, -10, 61, 33, -15, 2, -4, 7, 4, -75, 63, -21, -16, 61, 19, 21], "withholdReward": false, "trial_id": "mdp_trial_5", "block": "test", "trialIndex": 6, "score": 72, "costs": 0, "simulationMode": [null, null, null, null, null], "rewards": [2, -4, 7, 4, 63], "path": ["0", "0", "23", "24", "25", "26", "28"], "rt": [1473, 3153, 402, 600, 982], "actions": ["left", "left", "left", "up", "right"], "actionTimes": [6634, 10322, 11255, 12369, 13868], "queries": {"click": {"state": {"target": [], "time": []}, "edge": {"target": [], "time": []}}, "mouseover": {"state": {"target": [], "time": []}, "edge": {"target": [], "time": []}}, "mouseout": {"state": {"target": ["17", "15", "7", "0", "0", "23", "14"], "time": [2998, 3018, 3151, 3534, 8177, 15513, 15711]}, "edge": {"target": [], "time": []}}}, "displayed_time": "19.16", "trialTime": 21702, "trial_type": "mouselab-mdp", "trial_index": 13, "time_elapsed": 881605, "internal_node_id": "0.0-6.0-1.0-4.0"}}, {"uniqueid": "w91001418:a61597126", "current_trial": 14, "dateTime": 1693565760876, "trialdata": {"revealed_states": [], "clicked_states": ["12"], "num_clicks_accrued": [0, 0, 0, 0, 0, 0, 0, 0, 0, 0, 0, 0, 0], "stateRewards": ["", -2, 2, 5, -14, -56, 64, 84, -5, 52, 39, 85, -2, 1, 7, 8, 21, 29, -78, -9, -10, -69, 10, -2, -1, -7, 15, 72, 20, 41, -2, 52, 80, 22], "withholdReward": false, "trial_id": "mdp_trial_6", "block": "test", "trialIndex": 7, "score": -71.75, "costs": 0.25, "simulationMode": [null, null, null, null, null], "rewards": [-2, 1, 7, -9, -69], "path": ["0", "0", "12", "13", "14", "19", "21"], "rt": [4136, 633, 435, 1412, 14], "actions": ["right", "right", "right", "down", "down"], "actionTimes": [7516, 8665, 9623, 11545, 12087], "queries": {"click": {"state": {"target": ["12"], "time": [5518]}, "edge": {"target": [], "time": []}}, "mouseover": {"state": {"target": ["12", "13", "12"], "time": [4660, 4745, 5048]}, "edge": {"target": [], "time": []}}, "mouseout": {"state": {"target": ["19", "13", "1", "0", "12", "13", "12", "13"], "time": [1753, 1787, 2073, 4613, 4695, 4862, 6597, 14660]}, "edge": {"target": [], "time": []}}}, "displayed_time": "17.38", "trialTime": 19571, "trial_type": "mouselab-mdp", "trial_index": 14, "time_elapsed": 902172, "internal_node_id": "0.0-6.0-1.0-5.0"}}, {"uniqueid": "w91001418:a61597126", "current_trial": 15, "dateTime": 1693565784105, "trialdata": {"revealed_states": [], "clicked_states": [], "num_clicks_accrued": [0, 0, 0, 0, 0, 0, 0, 0, 0, 0, 0, 0, 0], "stateRewards": ["", -2, -3, 7, -13, 60, 9, 37, -6, 37, 20, 1, 2, -2, -8, 6, -80, -31, -10, -7, 70, -65, -44, -1, 1, 7, 6, -11, 73, -85, 16, -21, 47, 34], "withholdReward": false, "trial_id": "mdp_trial_7", "block": "test", "trialIndex": 8, "score": 2, "costs": 0, "simulationMode": [null, null, null, null, null], "rewards": [-1, 1, 7, 16, -21], "path": ["0", "0", "23", "24", "25", "30", "31"], "rt": [5245, 472, 573, 734, 1197], "actions": ["left", "left", "left", "down", "right"], "actionTimes": [10818, 11811, 12914, 14187, 15946], "queries": {"click": {"state": {"target": [], "time": []}, "edge": {"target": [], "time": []}}, "mouseover": {"state": {"target": ["12", "23"], "time": [7077, 8494]}, "edge": {"target": [], "time": []}}, "mouseout": {"state": {"target": ["18", "0", "12", "23", "13", "14"], "time": [3853, 7047, 7647, 17061, 17479, 17578]}, "edge": {"target": [], "time": []}}}, "displayed_time": "19.57", "trialTime": 22391, "trial_type": "mouselab-mdp", "trial_index": 15, "time_elapsed": 925400, "internal_node_id": "0.0-6.0-1.0-6.0"}}, {"uniqueid": "w91001418:a61597126", "current_trial": 16, "dateTime": 1693565812402, "trialdata": {"revealed_states": [], "clicked_states": ["12"], "num_clicks_accrued": [0, 0, 0, 0, 0, 0, 0, 0, 0, 0, 0, 0, 0], "stateRewards": ["", -2, -4, 2, 10, -17, 18, 73, 11, -32, 23, -13, -2, -4, 7, 12, -25, 66, -23, 15, 40, -76, -9, 1, 2, -7, -5, -20, 24, 3, -5, 16, -73, 70], "withholdReward": false, "trial_id": "mdp_trial_8", "block": "test", "trialIndex": 9, "score": -9.75, "costs": 0.25, "simulationMode": [null, null, null, null, null], "rewards": [-2, -4, 7, 12, -23], "path": ["0", "0", "12", "13", "14", "15", "18"], "rt": [2843, 566, 397, 642, 554], "actions": ["right", "right", "right", "up", "left"], "actionTimes": [11844, 12944, 13868, 15037, 16117], "queries": {"click": {"state": {"target": ["12"], "time": [11066]}, "edge": {"target": [], "time": []}}, "mouseover": {"state": {"target": ["12"], "time": [10574]}, "edge": {"target": [], "time": []}}, "mouseout": {"state": {"target": ["21", "0", "0", "12"], "time": [6615, 7368, 10541, 19171]}, "edge": {"target": [], "time": []}}}, "displayed_time": "23.44", "trialTime": 26899, "trial_type": "mouselab-mdp", "trial_index": 16, "time_elapsed": 953641, "internal_node_id": "0.0-6.0-1.0-7.0"}}, {"uniqueid": "w91001418:a61597126", "current_trial": 17, "dateTime": 1693565846535, "trialdata": {"revealed_states": [], "clicked_states": ["12"], "num_clicks_accrued": [0, 0, 0, 0, 0, 0, 0, 0, 0, 0, 0, 0, 0], "stateRewards": ["", -2, 3, 8, -9, 59, 41, -50, -1, 82, 66, 33, 2, -2, 7, 8, 1, -38, 12, -16, 24, -37, 67, 1, 4, -2, 5, 35, -83, 28, 8, -27, 69, -64], "withholdReward": false, "trial_id": "mdp_trial_9", "block": "test", "trialIndex": 10, "score": -45.75, "costs": 0.25, "simulationMode": [null, null, null, null, null], "rewards": [2, -2, 7, -16, -37], "path": ["0", "0", "12", "13", "14", "19", "21"], "rt": [2950, 395, 94, 233, 136], "actions": ["right", "right", "right", "down", "down"], "actionTimes": [13173, 14088, 14715, 15474, 16162], "queries": {"click": {"state": {"target": ["12"], "time": [12381]}, "edge": {"target": [], "time": []}}, "mouseover": {"state": {"target": ["12"], "time": [11862]}, "edge": {"target": [], "time": []}}, "mouseout": {"state": {"target": ["24", "0", "12", "13"], "time": [7407, 11841, 21023, 21147]}, "edge": {"target": [], "time": []}}}, "displayed_time": "24.25", "trialTime": 26133, "trial_type": "mouselab-mdp", "trial_index": 17, "time_elapsed": 987830, "internal_node_id": "0.0-6.0-1.0-8.0"}}, {"uniqueid": "w91001418:a61597126", "current_trial": 18, "dateTime": 1693565872197, "trialdata": {"revealed_states": [], "clicked_states": ["12"], "num_clicks_accrued": [0, 0, 0, 0, 0, 0, 0, 0, 0, 0, 0, 0, 0], "stateRewards": ["", 1, 2, -6, -13, -51, 22, -4, -12, -44, -12, 6, -2, -2, -2, -14, -46, -4, -77, -2, 36, -79, 41, 2, -4, 2, -6, -55, 59, 70, -5, 39, -19, 24], "withholdReward": false, "trial_id": "mdp_trial_10", "block": "test", "trialIndex": 11, "score": 28.25, "costs": 0.25, "simulationMode": [null, null, null, null, null], "rewards": [-2, -2, -2, -2, 36], "path": ["0", "0", "12", "13", "14", "19", "20"], "rt": [2855, 400, 11, 388, 714], "actions": ["right", "right", "right", "down", "right"], "actionTimes": [11252, 12188, 12726, 13639, 14875], "queries": {"click": {"state": {"target": ["12"], "time": [10706]}, "edge": {"target": [], "time": []}}, "mouseover": {"state": {"target": ["0", "12"], "time": [10100, 10369]}, "edge": {"target": [], "time": []}}, "mouseout": {"state": {"target": ["19", "22", "0", "0", "12", "15", "17"], "time": [5910, 5957, 6893, 10220, 16725, 16829, 17209]}, "edge": {"target": [], "time": []}}}, "displayed_time": "22.40", "trialTime": 24376, "trial_type": "mouselab-mdp", "trial_index": 18, "time_elapsed": 1013491, "internal_node_id": "0.0-6.0-1.0-9.0"}}, {"uniqueid": "w91001418:a61597126", "current_trial": 19, "dateTime": 1693565897676, "trialdata": {"revealed_states": [], "clicked_states": ["1"], "num_clicks_accrued": [0, 0, 0, 0, 0, 0, 0, 0, 0, 0, 0, 0, 0], "stateRewards": ["", 1, 1, 4, 11, 83, -66, 18, -16, -23, 5, 25, 1, -3, 1, -12, 18, 24, -86, -11, -64, 36, 40, 2, 1, -6, 13, 55, 29, 72, -2, 81, -72, -41], "withholdReward": false, "trial_id": "mdp_trial_11", "block": "test", "trialIndex": 12, "score": 35.25, "costs": 0.25, "simulationMode": [null, null, null, null, null], "rewards": [1, 1, 4, 11, 18], "path": ["0", "0", "1", "2", "3", "4", "7"], "rt": [2982, 516, 1610, 496, 1290], "actions": ["up", "up", "up", "right", "down"], "actionTimes": [11349, 12378, 14507, 15521, 17330], "queries": {"click": {"state": {"target": ["1"], "time": [10275]}, "edge": {"target": [], "time": []}}, "mouseover": {"state": {"target": ["1"], "time": [9425]}, "edge": {"target": [], "time": []}}, "mouseout": {"state": {"target": ["17", "15", "14", "12", "1", "1", "18"], "time": [6340, 6387, 6709, 7023, 10308, 18946, 18994]}, "edge": {"target": [], "time": []}}}, "displayed_time": "22.37", "trialTime": 24426, "trial_type": "mouselab-mdp", "trial_index": 19, "time_elapsed": 1038971, "internal_node_id": "0.0-6.0-1.0-10.0"}}, {"uniqueid": "w91001418:a61597126", "current_trial": 20, "dateTime": 1693565919664, "trialdata": {"revealed_states": [], "clicked_states": ["1"], "num_clicks_accrued": [0, 0, 0, 0, 0, 0, 0, 0, 0, 0, 0, 0, 0], "stateRewards": ["", 2, 3, -1, 16, -78, -11, 46, 2, -20, 79, -67, 2, 3, 2, 11, -83, -42, -58, -11, -67, -22, 55, 2, -1, -1, -16, -83, -82, 23, -11, -29, 13, 13], "withholdReward": false, "trial_id": "mdp_trial_12", "block": "test", "trialIndex": 13, "score": -13.75, "costs": 0.25, "simulationMode": [null, null, null, null, null], "rewards": [2, 3, -1, 2, -20], "path": ["0", "0", "1", "2", "3", "8", "9"], "rt": [1888, 721, 603, 442, 411], "actions": ["up", "up", "up", "left", "up"], "actionTimes": [6583, 7823, 8946, 9942, 10896], "queries": {"click": {"state": {"target": ["1"], "time": [5689]}, "edge": {"target": [], "time": []}}, "mouseover": {"state": {"target": ["1"], "time": [5262]}, "edge": {"target": [], "time": []}}, "mouseout": {"state": {"target": ["32", "0", "1"], "time": [2654, 3494, 12544]}, "edge": {"target": [], "time": []}}}, "displayed_time": "18.70", "trialTime": 20965, "trial_type": "mouselab-mdp", "trial_index": 20, "time_elapsed": 1060958, "internal_node_id": "0.0-6.0-1.0-11.0"}}, {"uniqueid": "w91001418:a61597126", "current_trial": 21, "dateTime": 1693565941928, "trialdata": {"revealed_states": [], "clicked_states": ["1"], "num_clicks_accrued": [0, 0, 0, 0, 0, 0, 0, 0, 0, 0, 0, 0, 0], "stateRewards": ["", 1, -1, 8, -3, 38, 85, -20, -4, 8, 23, 73, 2, -4, 6, -13, 44, 7, -28, -11, -77, 45, -69, 1, -1, -7, -11, 75, -51, -87, 7, 36, -53, -26], "withholdReward": false, "trial_id": "mdp_trial_13", "block": "test", "trialIndex": 14, "score": 77.25, "costs": 0.25, "simulationMode": [null, null, null, null, null], "rewards": [1, -1, 8, -4, 73], "path": ["0", "0", "1", "2", "3", "8", "11"], "rt": [1906, 505, 608, 1019, 615], "actions": ["up", "up", "up", "left", "left"], "actionTimes": [6863, 7971, 9141, 10666, 11848], "queries": {"click": {"state": {"target": ["1"], "time": [6241]}, "edge": {"target": [], "time": []}}, "mouseover": {"state": {"target": ["1"], "time": [5827]}, "edge": {"target": [], "time": []}}, "mouseout": {"state": {"target": ["32"], "time": [2886]}, "edge": {"target": [], "time": []}}}, "displayed_time": "18.96", "trialTime": 20762, "trial_type": "mouselab-mdp", "trial_index": 21, "time_elapsed": 1083223, "internal_node_id": "0.0-6.0-1.0-12.0"}}, {"uniqueid": "w91001418:a61597126", "current_trial": 22, "dateTime": 1693565962249, "trialdata": {"revealed_states": [], "clicked_states": ["23"], "num_clicks_accrued": [0, 0, 0, 0, 0, 0, 0, 0, 0, 0, 0, 0, 0], "stateRewards": ["", 2, -1, -2, -5, -47, -57, -33, -11, 31, -18, -72, -2, 1, -4, -8, -46, -53, -50, 15, -85, -9, 39, -2, -2, 1, 14, -1, -8, 53, -12, -41, -74, 62], "withholdReward": false, "trial_id": "mdp_trial_14", "block": "test", "trialIndex": 15, "score": 47.25, "costs": 0.25, "simulationMode": [null, null, null, null, null], "rewards": [-2, -2, 1, -12, 62], "path": ["0", "0", "23", "24", "25", "30", "33"], "rt": [2386, 166, 862, 507, 912], "actions": ["left", "left", "left", "down", "left"], "actionTimes": [5822, 6501, 7903, 8975, 10413], "queries": {"click": {"state": {"target": ["23"], "time": [4979]}, "edge": {"target": [], "time": []}}, "mouseover": {"state": {"target": ["23", "23"], "time": [4255, 4478]}, "edge": {"target": [], "time": []}}, "mouseout": {"state": {"target": ["1", "0", "23"], "time": [1181, 1867, 4339]}, "edge": {"target": [], "time": []}}}, "displayed_time": "17.44", "trialTime": 18988, "trial_type": "mouselab-mdp", "trial_index": 22, "time_elapsed": 1103544, "internal_node_id": "0.0-6.0-1.0-13.0"}}, {"uniqueid": "w91001418:a61597126", "current_trial": 23, "dateTime": 1693565985713, "trialdata": {"revealed_states": [], "clicked_states": ["12"], "num_clicks_accrued": [0, 0, 0, 0, 0, 0, 0, 0, 0, 0, 0, 0, 0], "stateRewards": ["", 1, 4, 5, -5, 58, -80, 75, 6, 25, -39, 46, 2, -2, 4, 2, 59, 31, -22, -12, -61, 15, 72, 1, -2, -7, 8, 77, 76, -23, -7, 71, -15, -3], "withholdReward": false, "trial_id": "mdp_trial_15", "block": "test", "trialIndex": 16, "score": 37.25, "costs": 0.25, "simulationMode": [null, null, null, null, null], "rewards": [2, -2, 4, 2, 31], "path": ["0", "0", "12", "13", "14", "15", "17"], "rt": [2285, 311, 408, 898, 325], "actions": ["right", "right", "right", "up", "right"], "actionTimes": [3814, 4636, 5580, 7017, 7882], "queries": {"click": {"state": {"target": ["12"], "time": [3201]}, "edge": {"target": [], "time": []}}, "mouseover": {"state": {"target": ["12"], "time": [2722]}, "edge": {"target": [], "time": []}}, "mouseout": {"state": {"target": ["23", "0", "12"], "time": [286, 2572, 3275]}, "edge": {"target": [], "time": []}}}, "displayed_time": "15.53", "trialTime": 19683, "trial_type": "mouselab-mdp", "trial_index": 23, "time_elapsed": 1127008, "internal_node_id": "0.0-6.0-1.0-14.0"}}, {"uniqueid": "w91001418:a61597126", "current_trial": 24, "dateTime": 1693566006510, "trialdata": {"revealed_states": [], "clicked_states": ["1"], "num_clicks_accrued": [0, 0, 0, 0, 0, 0, 0, 0, 0, 0, 0, 0, 0], "stateRewards": ["", -1, 2, -6, 6, 43, 78, 78, -2, 55, -29, -17, -2, -4, 1, -15, 13, 7, -79, 8, -28, -68, 36, -1, -3, 3, -16, 84, -18, 87, 10, 32, 13, -81], "withholdReward": false, "trial_id": "mdp_trial_16", "block": "test", "trialIndex": 17, "score": 79.25, "costs": 0.25, "simulationMode": [null, null, null, null, null], "rewards": [-1, 2, -6, 6, 78], "path": ["0", "0", "1", "2", "3", "4", "7"], "rt": [2358, 343, 54, 228, 355], "actions": ["up", "up", "up", "right", "down"], "actionTimes": [5696, 6556, 7138, 7884, 8758], "queries": {"click": {"state": {"target": ["1"], "time": [4369]}, "edge": {"target": [], "time": []}}, "mouseover": {"state": {"target": ["1"], "time": [3949]}, "edge": {"target": [], "time": []}}, "mouseout": {"state": {"target": ["12", "23", "0"], "time": [1606, 1777, 2126]}, "edge": {"target": [], "time": []}}}, "displayed_time": "17.34", "trialTime": 18885, "trial_type": "mouselab-mdp", "trial_index": 24, "time_elapsed": 1147805, "internal_node_id": "0.0-6.0-1.0-15.0"}}, {"uniqueid": "w91001418:a61597126", "current_trial": 25, "dateTime": 1693566029671, "trialdata": {"revealed_states": [], "clicked_states": ["23"], "num_clicks_accrued": [0, 0, 0, 0, 0, 0, 0, 0, 0, 0, 0, 0, 0], "stateRewards": ["", -1, -2, -8, 8, -27, -82, 19, -14, -62, 4, 1, -2, 2, 6, 10, 73, -51, -2, 2, 73, -48, 54, -1, 2, -4, 11, -25, 47, 86, 15, 33, 43, -42], "withholdReward": false, "trial_id": "mdp_trial_17", "block": "test", "trialIndex": 18, "score": 45.25, "costs": 0.25, "simulationMode": [null, null, null, null, null], "rewards": [-1, 2, -4, 15, 33], "path": ["0", "0", "23", "24", "25", "30", "31"], "rt": [2809, 387, 869, 779, 559], "actions": ["left", "left", "left", "down", "right"], "actionTimes": [9318, 10237, 11676, 12978, 14056], "queries": {"click": {"state": {"target": ["23"], "time": [8743]}, "edge": {"target": [], "time": []}}, "mouseover": {"state": {"target": ["23"], "time": [8372]}, "edge": {"target": [], "time": []}}, "mouseout": {"state": {"target": ["1", "0", "0", "23"], "time": [4791, 4911, 8151, 8859]}, "edge": {"target": [], "time": []}}}, "displayed_time": "20.52", "trialTime": 21654, "trial_type": "mouselab-mdp", "trial_index": 25, "time_elapsed": 1170964, "internal_node_id": "0.0-6.0-1.0-16.0"}}, {"uniqueid": "w91001418:a61597126", "current_trial": 26, "dateTime": 1693566050165, "trialdata": {"revealed_states": [], "clicked_states": ["12"], "num_clicks_accrued": [0, 0, 0, 0, 0, 0, 0, 0, 0, 0, 0, 0, 0], "stateRewards": ["", 1, -2, -2, 10, -31, -77, 35, 9, -47, 8, 48, -2, 1, -4, -3, -26, -50, 43, -11, 76, -38, 17, 1, -1, 6, 10, 15, -9, 12, -8, 85, 11, -55], "withholdReward": false, "trial_id": "mdp_trial_18", "block": "test", "trialIndex": 19, "score": 60.25, "costs": 0.25, "simulationMode": [null, null, null, null, null], "rewards": [-2, 1, -4, -11, 76], "path": ["0", "0", "12", "13", "14", "19", "20"], "rt": [1839, 445, 1630, 130, 1635], "actions": ["right", "right", "right", "down", "right"], "actionTimes": [5666, 6631, 8788, 9464, 11615], "queries": {"click": {"state": {"target": ["12"], "time": [5092]}, "edge": {"target": [], "time": []}}, "mouseover": {"state": {"target": ["12"], "time": [4592]}, "edge": {"target": [], "time": []}}, "mouseout": {"state": {"target": ["23", "0", "0", "12"], "time": [1384, 1482, 4456, 5247]}, "edge": {"target": [], "time": []}}}, "displayed_time": "17.83", "trialTime": 18959, "trial_type": "mouselab-mdp", "trial_index": 26, "time_elapsed": 1191460, "internal_node_id": "0.0-6.0-1.0-17.0"}}, {"uniqueid": "w91001418:a61597126", "current_trial": 27, "dateTime": 1693566071109, "trialdata": {"revealed_states": [], "clicked_states": ["1"], "num_clicks_accrued": [0, 0, 0, 0, 0, 0, 0, 0, 0, 0, 0, 0, 0], "stateRewards": ["", -1, 4, 3, 12, -27, 34, -33, 3, -63, 1, 6, 2, 2, -6, -11, -77, -85, 68, -6, 51, 81, -60, -2, -2, 1, 15, 20, 15, 68, -10, -14, 6, -4], "withholdReward": false, "trial_id": "mdp_trial_19", "block": "test", "trialIndex": 20, "score": -8.75, "costs": 0.25, "simulationMode": [null, null, null, null, null], "rewards": [-1, 4, 3, 12, -27], "path": ["0", "0", "1", "2", "3", "4", "5"], "rt": [1690, 401, 107, 451, 687], "actions": ["up", "up", "up", "right", "up"], "actionTimes": [4997, 5919, 6556, 7575, 8774], "queries": {"click": {"state": {"target": ["1"], "time": [4417]}, "edge": {"target": [], "time": []}}, "mouseover": {"state": {"target": ["1"], "time": [3934]}, "edge": {"target": [], "time": []}}, "mouseout": {"state": {"target": ["12", "0"], "time": [1548, 2059]}, "edge": {"target": [], "time": []}}}, "displayed_time": "17.31", "trialTime": 19428, "trial_type": "mouselab-mdp", "trial_index": 27, "time_elapsed": 1212404, "internal_node_id": "0.0-6.0-1.0-18.0"}}, {"uniqueid": "w91001418:a61597126", "current_trial": 28, "dateTime": 1693566092851, "trialdata": {"revealed_states": [], "clicked_states": ["23"], "num_clicks_accrued": [0, 0, 0, 0, 0, 0, 0, 0, 0, 0, 0, 0, 0], "stateRewards": ["", 1, -2, -3, 14, -42, -87, -37, -11, -50, 33, -44, -2, 4, -7, 13, 48, -75, -66, 12, 23, -2, 82, 1, -4, 3, 12, 51, -15, -26, -11, -52, -29, 82], "withholdReward": false, "trial_id": "mdp_trial_20", "block": "test", "trialIndex": 21, "score": 63.25, "costs": 0.25, "simulationMode": [null, null, null, null, null], "rewards": [1, -4, 3, 12, 51], "path": ["0", "0", "23", "24", "25", "26", "27"], "rt": [3233, 325, 426, 532, 820], "actions": ["left", "left", "left", "up", "up"], "actionTimes": [6459, 7317, 8262, 9309, 10672], "queries": {"click": {"state": {"target": ["23"], "time": [4914]}, "edge": {"target": [], "time": []}}, "mouseover": {"state": {"target": ["23"], "time": [4402]}, "edge": {"target": [], "time": []}}, "mouseout": {"state": {"target": ["1", "0", "0"], "time": [1590, 1707, 4014]}, "edge": {"target": [], "time": []}}}, "displayed_time": "17.23", "trialTime": 20602, "trial_type": "mouselab-mdp", "trial_index": 28, "time_elapsed": 1234145, "internal_node_id": "0.0-6.0-1.0-19.0"}}, {"uniqueid": "w91001418:a61597126", "current_trial": 29, "dateTime": 1693566120418, "trialdata": {"revealed_states": [], "clicked_states": ["12"], "num_clicks_accrued": [0, 0, 0, 0, 0, 0, 0, 0, 0, 0, 0, 0, 0], "stateRewards": ["", 2, 3, -2, -8, -8, -41, 74, 15, -23, -80, 1, 1, 3, 3, -15, -63, -78, 67, 13, 75, -41, 86, 2, -2, 6, -3, -8, -49, 50, -6, 83, 74, 80], "withholdReward": false, "trial_id": "mdp_trial_21", "block": "test", "trialIndex": 22, "score": -85.75, "costs": 0.25, "simulationMode": [null, null, null, null, null], "rewards": [1, 3, 3, -15, -78], "path": ["0", "0", "12", "13", "14", "15", "17"], "rt": [2449, 428, 409, 145, 793], "actions": ["right", "right", "right", "up", "right"], "actionTimes": [13442, 14386, 15341, 16004, 17319], "queries": {"click": {"state": {"target": ["12"], "time": [12193]}, "edge": {"target": [], "time": []}}, "mouseover": {"state": {"target": ["0", "12"], "time": [11601, 11802]}, "edge": {"target": [], "time": []}}, "mouseout": {"state": {"target": ["23", "0", "0", "0", "0"], "time": [3875, 7637, 7892, 9628, 11647]}, "edge": {"target": [], "time": []}}}, "displayed_time": "25.00", "trialTime": 26322, "trial_type": "mouselab-mdp", "trial_index": 29, "time_elapsed": 1261713, "internal_node_id": "0.0-6.0-1.0-20.0"}}, {"uniqueid": "w91001418:a61597126", "current_trial": 30, "dateTime": 1693566140382, "trialdata": {"revealed_states": [], "clicked_states": ["12"], "num_clicks_accrued": [0, 0, 0, 0, 0, 0, 0, 0, 0, 0, 0, 0, 0], "stateRewards": ["", -2, 2, -4, -4, -59, 88, 62, -3, 69, -15, -34, 1, -2, -5, 7, -54, -20, 78, -16, -74, -53, -21, 2, -4, 2, 13, -8, -44, 26, 9, 72, 4, 17], "withholdReward": false, "trial_id": "mdp_trial_22", "block": "test", "trialIndex": 23, "score": 79.25, "costs": 0.25, "simulationMode": [null, null, null, null, null], "rewards": [1, -2, -5, 7, 78], "path": ["0", "0", "12", "13", "14", "15", "18"], "rt": [2790, 240, 618, 42, 139], "actions": ["right", "right", "right", "up", "left"], "actionTimes": [5933, 6719, 7862, 8472, 9150], "queries": {"click": {"state": {"target": ["12"], "time": [4916]}, "edge": {"target": [], "time": []}}, "mouseover": {"state": {"target": ["12"], "time": [4217]}, "edge": {"target": [], "time": []}}, "mouseout": {"state": {"target": ["12"], "time": [1442]}, "edge": {"target": [], "time": []}}}, "displayed_time": "17.14", "trialTime": 18568, "trial_type": "mouselab-mdp", "trial_index": 30, "time_elapsed": 1281677, "internal_node_id": "0.0-6.0-1.0-21.0"}}, {"uniqueid": "w91001418:a61597126", "current_trial": 31, "dateTime": 1693566160378, "trialdata": {"revealed_states": [], "clicked_states": ["23"], "num_clicks_accrued": [0, 0, 0, 0, 0, 0, 0, 0, 0, 0, 0, 0, 0], "stateRewards": ["", -2, 4, -3, -13, 63, -36, 62, 11, 78, 34, -51, 2, -2, 8, -6, -40, -18, 31, 9, 64, 39, 79, 1, 4, -4, 15, -12, 76, 73, -10, -77, 86, -4], "withholdReward": false, "trial_id": "mdp_trial_23", "block": "test", "trialIndex": 24, "score": 89.25, "costs": 0.25, "simulationMode": [null, null, null, null, null], "rewards": [1, 4, -4, 15, 73], "path": ["0", "0", "23", "24", "25", "26", "29"], "rt": [2834, 206, 2172, 175, 1524], "actions": ["left", "left", "left", "up", "left"], "actionTimes": [6001, 6753, 9473, 10164, 12198], "queries": {"click": {"state": {"target": ["23"], "time": [4952]}, "edge": {"target": [], "time": []}}, "mouseover": {"state": {"target": ["23"], "time": [4365]}, "edge": {"target": [], "time": []}}, "mouseout": {"state": {"target": ["12", "0", "23"], "time": [1541, 1991, 5023]}, "edge": {"target": [], "time": []}}}, "displayed_time": "17.17", "trialTime": 18813, "trial_type": "mouselab-mdp", "trial_index": 31, "time_elapsed": 1301673, "internal_node_id": "0.0-6.0-1.0-22.0"}}, {"uniqueid": "w91001418:a61597126", "current_trial": 32, "dateTime": 1693566179914, "trialdata": {"revealed_states": [], "clicked_states": ["23"], "num_clicks_accrued": [0, 0, 0, 0, 0, 0, 0, 0, 0, 0, 0, 0, 0], "stateRewards": ["", -1, 1, -6, -1, 80, 23, 2, -11, 73, -81, 59, 1, 3, 5, -1, -26, 28, -3, 16, -59, -13, -50, -2, -2, 2, 15, -50, 86, 17, -4, 37, 35, 44], "withholdReward": false, "trial_id": "mdp_trial_24", "block": "test", "trialIndex": 25, "score": 42.25, "costs": 0.25, "simulationMode": [null, null, null, null, null], "rewards": [-1, 1, -6, -11, 59], "path": ["0", "0", "1", "2", "3", "8", "11"], "rt": [2930, 1107, 422, 2186, 55], "actions": ["up", "up", "up", "left", "left"], "actionTimes": [5873, 7507, 8450, 11160, 11763], "queries": {"click": {"state": {"target": ["23"], "time": [4567]}, "edge": {"target": [], "time": []}}, "mouseover": {"state": {"target": ["23"], "time": [4067]}, "edge": {"target": [], "time": []}}, "mouseout": {"state": {"target": ["23", "0", "23"], "time": [1542, 3815, 4710]}, "edge": {"target": [], "time": []}}}, "displayed_time": "16.95", "trialTime": 18417, "trial_type": "mouselab-mdp", "trial_index": 32, "time_elapsed": 1321209, "internal_node_id": "0.0-6.0-1.0-23.0"}}, {"uniqueid": "w91001418:a61597126", "current_trial": 33, "dateTime": 1693566199647, "trialdata": {"revealed_states": [], "clicked_states": ["12"], "num_clicks_accrued": [0, 0, 0, 0, 0, 0, 0, 0, 0, 0, 0, 0, 0], "stateRewards": ["", 1, 2, 7, 13, 88, -71, 27, 3, 60, 5, -53, -2, 2, -6, -1, -30, 79, 47, -4, -14, 46, 68, 1, 1, 8, 10, -14, 86, 48, -11, -67, -44, 5], "withholdReward": false, "trial_id": "mdp_trial_25", "block": "test", "trialIndex": 26, "score": 4.25, "costs": 0.25, "simulationMode": [null, null, null, null, null], "rewards": [1, 1, 8, -11, 5], "path": ["0", "0", "23", "24", "25", "30", "33"], "rt": [4737, 398, 596, 191, 980], "actions": ["left", "left", "left", "down", "left"], "actionTimes": [7355, 8280, 9407, 10124, 11643], "queries": {"click": {"state": {"target": ["12"], "time": [3981]}, "edge": {"target": [], "time": []}}, "mouseover": {"state": {"target": ["12"], "time": [3565]}, "edge": {"target": [], "time": []}}, "mouseout": {"state": {"target": ["23", "0"], "time": [1068, 3530]}, "edge": {"target": [], "time": []}}}, "displayed_time": "16.62", "trialTime": 18539, "trial_type": "mouselab-mdp", "trial_index": 33, "time_elapsed": 1340942, "internal_node_id": "0.0-6.0-1.0-24.0"}}, {"uniqueid": "w91001418:a61597126", "current_trial": 34, "dateTime": 1693566225016, "trialdata": {"revealed_states": [], "clicked_states": ["1"], "num_clicks_accrued": [0, 0, 0, 0, 0, 0, 0, 0, 0, 0, 0, 0, 0], "stateRewards": ["", -2, -3, 1, -14, 48, -49, 67, -1, -35, -48, 3, -2, 1, -4, -5, 86, -84, 39, 1, 48, 41, -42, -1, -4, 2, -7, 18, -86, 17, 7, -9, 57, -69], "withholdReward": false, "trial_id": "mdp_trial_26", "block": "test", "trialIndex": 27, "score": -4.75, "costs": 0.25, "simulationMode": [null, null, null, null, null], "rewards": [-1, -4, 2, 7, -9], "path": ["0", "0", "23", "24", "25", "30", "31"], "rt": [3098, 381, 124, 619, 837], "actions": ["left", "left", "left", "down", "right"], "actionTimes": [6724, 7624, 8278, 9432, 10826], "queries": {"click": {"state": {"target": ["1"], "time": [5351]}, "edge": {"target": [], "time": []}}, "mouseover": {"state": {"target": ["0", "12", "1"], "time": [4226, 4479, 4758]}, "edge": {"target": [], "time": []}}, "mouseout": {"state": {"target": ["12", "0", "0", "12", "1"], "time": [1986, 2521, 4409, 4648, 5501]}, "edge": {"target": [], "time": []}}}, "displayed_time": "17.63", "trialTime": 24048, "trial_type": "mouselab-mdp", "trial_index": 34, "time_elapsed": 1366311, "internal_node_id": "0.0-6.0-1.0-25.0"}}, {"uniqueid": "w91001418:a61597126", "current_trial": 35, "dateTime": 1693566245152, "trialdata": {"revealed_states": [], "clicked_states": ["1"], "num_clicks_accrued": [0, 0, 0, 0, 0, 0, 0, 0, 0, 0, 0, 0, 0], "stateRewards": ["", 1, 3, 3, -10, 52, 68, 59, 12, 7, 49, 21, -2, -3, -4, -2, -2, 63, 63, -4, 44, 43, -76, -2, -3, -6, 13, 48, 36, 12, -5, -36, -33, -11], "withholdReward": false, "trial_id": "mdp_trial_27", "block": "test", "trialIndex": 28, "score": 65.25, "costs": 0.25, "simulationMode": [null, null, null, null, null], "rewards": [1, 3, 3, -10, 68], "path": ["0", "0", "1", "2", "3", "4", "6"], "rt": [2609, 520, 406, 330, 260], "actions": ["up", "up", "up", "right", "right"], "actionTimes": [6046, 7089, 8049, 8914, 9692], "queries": {"click": {"state": {"target": ["1"], "time": [5289]}, "edge": {"target": [], "time": []}}, "mouseover": {"state": {"target": ["1"], "time": [4537]}, "edge": {"target": [], "time": []}}, "mouseout": {"state": {"target": ["1", "0"], "time": [1584, 2153]}, "edge": {"target": [], "time": []}}}, "displayed_time": "17.44", "trialTime": 18575, "trial_type": "mouselab-mdp", "trial_index": 35, "time_elapsed": 1386446, "internal_node_id": "0.0-6.0-1.0-26.0"}}, {"uniqueid": "w91001418:a61597126", "current_trial": 36, "dateTime": 1693566265712, "trialdata": {"revealed_states": [], "clicked_states": ["12"], "num_clicks_accrued": [0, 0, 0, 0, 0, 0, 0, 0, 0, 0, 0, 0, 0], "stateRewards": ["", 2, 3, -3, 12, -43, 81, -82, -15, 58, -7, -75, -1, -1, 3, -5, 50, -25, -8, 4, 66, 65, -66, 2, -4, 2, -1, -10, 10, 37, 11, 88, -37, 8], "withholdReward": false, "trial_id": "mdp_trial_28", "block": "test", "trialIndex": 29, "score": -10.75, "costs": 0.25, "simulationMode": [null, null, null, null, null], "rewards": [2, -4, 2, -1, -10], "path": ["0", "0", "23", "24", "25", "26", "27"], "rt": [2784, 770, 297, 367, 309], "actions": ["left", "left", "left", "up", "up"], "actionTimes": [6607, 7889, 8706, 9599, 10431], "queries": {"click": {"state": {"target": ["12"], "time": [5262]}, "edge": {"target": [], "time": []}}, "mouseover": {"state": {"target": ["12"], "time": [4813]}, "edge": {"target": [], "time": []}}, "mouseout": {"state": {"target": ["1", "0"], "time": [2162, 2458]}, "edge": {"target": [], "time": []}}}, "displayed_time": "17.82", "trialTime": 18973, "trial_type": "mouselab-mdp", "trial_index": 36, "time_elapsed": 1407006, "internal_node_id": "0.0-6.0-1.0-27.0"}}, {"uniqueid": "w91001418:a61597126", "current_trial": 37, "dateTime": 1693566284879, "trialdata": {"revealed_states": [], "clicked_states": ["1"], "num_clicks_accrued": [0, 0, 0, 0, 0, 0, 0, 0, 0, 0, 0, 0, 0], "stateRewards": ["", -1, 3, -5, -2, -13, -9, -34, -7, -81, 32, 35, -2, -2, 1, -14, -32, 81, 7, 4, 82, 56, -8, -1, 3, -8, 6, -24, -24, -53, 2, 38, 61, 54], "withholdReward": false, "trial_id": "mdp_trial_29", "block": "test", "trialIndex": 30, "score": -38.75, "costs": 0.25, "simulationMode": [null, null, null, null, null], "rewards": [-1, 3, -5, -2, -34], "path": ["0", "0", "1", "2", "3", "4", "7"], "rt": [3328, 347, 208, 377, 127], "actions": ["up", "up", "up", "right", "down"], "actionTimes": [6167, 7024, 7748, 8733, 9391], "queries": {"click": {"state": {"target": ["1"], "time": [5371]}, "edge": {"target": [], "time": []}}, "mouseover": {"state": {"target": ["1", "1"], "time": [3663, 5067]}, "edge": {"target": [], "time": []}}, "mouseout": {"state": {"target": ["12", "1", "0", "1"], "time": [1158, 1259, 3501, 3731]}, "edge": {"target": [], "time": []}}}, "displayed_time": "16.84", "trialTime": 17776, "trial_type": "mouselab-mdp", "trial_index": 37, "time_elapsed": 1426174, "internal_node_id": "0.0-6.0-1.0-28.0"}}, {"uniqueid": "w91001418:a61597126", "current_trial": 38, "dateTime": 1693566309245, "trialdata": {"revealed_states": [], "clicked_states": ["12"], "num_clicks_accrued": [0, 0, 0, 0, 0, 0, 0, 0, 0, 0, 0, 0, 0], "stateRewards": ["", -1, 1, -1, 2, 19, 85, -18, 2, -3, -26, 36, 2, 4, 7, -9, -18, 70, 72, -5, 35, -20, -28, 1, -2, -4, -3, -59, -11, -63, -2, -72, 59, -69], "withholdReward": false, "trial_id": "mdp_trial_30", "block": "test", "trialIndex": 31, "score": -11.75, "costs": 0.25, "simulationMode": [null, null, null, null, null], "rewards": [2, 4, 7, -5, -20], "path": ["0", "0", "12", "13", "14", "19", "21"], "rt": [1766, 345, 419, 579, 306], "actions": ["right", "right", "right", "down", "down"], "actionTimes": [9599, 10450, 11390, 12533, 13367], "queries": {"click": {"state": {"target": ["12"], "time": [9153]}, "edge": {"target": [], "time": []}}, "mouseover": {"state": {"target": ["12"], "time": [8708]}, "edge": {"target": [], "time": []}}, "mouseout": {"state": {"target": ["1", "0"], "time": [4187, 6980]}, "edge": {"target": [], "time": []}}}, "displayed_time": "21.83", "trialTime": 22943, "trial_type": "mouselab-mdp", "trial_index": 38, "time_elapsed": 1450541, "internal_node_id": "0.0-6.0-1.0-29.0"}}, {"uniqueid": "w91001418:a61597126", "current_trial": 39, "dateTime": 1693566335234, "trialdata": {"revealed_states": [], "clicked_states": ["1"], "num_clicks_accrued": [0, 0, 0, 0, 0, 0, 0, 0, 0, 0, 0, 0, 0], "stateRewards": ["", -2, -1, 3, -3, 71, -58, -21, 7, -10, -75, -37, 2, 4, -1, -12, -79, -29, -48, 3, -41, -10, -30, -1, -2, 1, -15, 13, 66, 22, -1, -42, -86, -55], "withholdReward": false, "trial_id": "mdp_trial_31", "block": "test", "trialIndex": 32, "score": -35.75, "costs": 0.25, "simulationMode": [null, null, null, null, null], "rewards": [2, 4, -1, -12, -29], "path": ["0", "0", "12", "13", "14", "15", "17"], "rt": [2584, 273, 658, 358, 460], "actions": ["right", "right", "right", "up", "right"], "actionTimes": [7245, 8045, 9265, 10145, 11129], "queries": {"click": {"state": {"target": ["1"], "time": [6001]}, "edge": {"target": [], "time": []}}, "mouseover": {"state": {"target": ["1", "1"], "time": [5291, 5543]}, "edge": {"target": [], "time": []}}, "mouseout": {"state": {"target": ["12", "1"], "time": [3039, 5406]}, "edge": {"target": [], "time": []}}}, "displayed_time": "18.66", "trialTime": 24616, "trial_type": "mouselab-mdp", "trial_index": 39, "time_elapsed": 1476529, "internal_node_id": "0.0-6.0-1.0-30.0"}}, {"uniqueid": "w91001418:a61597126", "current_trial": 40, "dateTime": 1693566354694, "trialdata": {"revealed_states": [], "clicked_states": ["12"], "num_clicks_accrued": [0, 0, 0, 0, 0, 0, 0, 0, 0, 0, 0, 0, 0], "stateRewards": ["", 2, -1, -4, -13, 74, 77, 3, 2, -43, -2, -11, 2, 3, 7, 11, -26, -29, -33, -3, -3, -13, -3, 1, 3, -7, 14, -59, 33, 9, -5, 34, 79, 68], "withholdReward": false, "trial_id": "mdp_trial_32", "block": "test", "trialIndex": 33, "score": 6.25, "costs": 0.25, "simulationMode": [null, null, null, null, null], "rewards": [2, 3, 7, -3, -3], "path": ["0", "0", "12", "13", "14", "19", "20"], "rt": [2832, 9, 496, 733, 734], "actions": ["right", "right", "right", "down", "right"], "actionTimes": [5542, 6053, 7083, 8336, 9609], "queries": {"click": {"state": {"target": ["12"], "time": [4949]}, "edge": {"target": [], "time": []}}, "mouseover": {"state": {"target": ["12"], "time": [4148]}, "edge": {"target": [], "time": []}}, "mouseout": {"state": {"target": ["1", "0"], "time": [908, 4080]}, "edge": {"target": [], "time": []}}}, "displayed_time": "16.71", "trialTime": 17941, "trial_type": "mouselab-mdp", "trial_index": 40, "time_elapsed": 1495988, "internal_node_id": "0.0-6.0-1.0-31.0"}}, {"uniqueid": "w91001418:a61597126", "current_trial": 41, "dateTime": 1693566380405, "trialdata": {"revealed_states": [], "clicked_states": [], "num_clicks_accrued": [0, 0, 0, 0, 0, 0, 0, 0, 0, 0, 0, 0, 0], "stateRewards": ["", -2, 2, 2, -6, 9, 37, 50, -13, -7, -18, -75, -2, -4, 4, 7, 23, -57, -66, -7, -81, -48, -76, 1, 1, -8, 1, 51, -2, 70, 14, 59, 71, -37], "withholdReward": false, "trial_id": "mdp_trial_33", "block": "test", "trialIndex": 34, "score": 5, "costs": 0, "simulationMode": [null, null, null, null, null], "rewards": [-2, 2, 2, -6, 9], "path": ["0", "0", "1", "2", "3", "4", "5"], "rt": [7286, 114, 425, 176, 552], "actions": ["up", "up", "up", "right", "up"], "actionTimes": [14325, 14968, 15918, 16639, 17719], "queries": {"click": {"state": {"target": [], "time": []}, "edge": {"target": [], "time": []}}, "mouseover": {"state": {"target": ["0", "1"], "time": [9863, 11321]}, "edge": {"target": [], "time": []}}, "mouseout": {"state": {"target": ["12", "22", "0"], "time": [3303, 5766, 11209]}, "edge": {"target": [], "time": []}}}, "displayed_time": "21.04", "trialTime": 24311, "trial_type": "mouselab-mdp", "trial_index": 41, "time_elapsed": 1521699, "internal_node_id": "0.0-6.0-1.0-32.0"}}, {"uniqueid": "w91001418:a61597126", "current_trial": 42, "dateTime": 1693566413870, "trialdata": {"revealed_states": [], "clicked_states": ["12"], "num_clicks_accrued": [0, 0, 0, 0, 0, 0, 0, 0, 0, 0, 0, 0, 0], "stateRewards": ["", 1, 1, 6, -14, -40, 37, 16, -13, 33, -68, 49, 2, 4, 3, 6, 55, 27, 32, 10, -65, 20, -87, 2, 1, -6, -5, -42, 12, 29, -8, 16, 76, -33], "withholdReward": false, "trial_id": "mdp_trial_34", "block": "test", "trialIndex": 35, "score": 39.25, "costs": 0.25, "simulationMode": [null, null, null, null, null], "rewards": [2, 4, 3, 10, 20], "path": ["0", "0", "12", "13", "14", "19", "21"], "rt": [3624, 691, 466, 201, 42], "actions": ["right", "right", "right", "down", "down"], "actionTimes": [20539, 21792, 22781, 23489, 24087], "queries": {"click": {"state": {"target": ["12"], "time": [19644]}, "edge": {"target": [], "time": []}}, "mouseover": {"state": {"target": ["0", "12"], "time": [18986, 19150]}, "edge": {"target": [], "time": []}}, "mouseout": {"state": {"target": ["1", "0", "12"], "time": [14901, 19084, 19765]}, "edge": {"target": [], "time": []}}}, "displayed_time": "30.92", "trialTime": 31972, "trial_type": "mouselab-mdp", "trial_index": 42, "time_elapsed": 1555165, "internal_node_id": "0.0-6.0-1.0-33.0"}}, {"uniqueid": "w91001418:a61597126", "current_trial": 43, "dateTime": 1693566433761, "trialdata": {"revealed_states": [], "clicked_states": ["12"], "num_clicks_accrued": [0, 0, 0, 0, 0, 0, 0, 0, 0, 0, 0, 0, 0], "stateRewards": ["", 1, 2, -3, -6, 50, -7, 7, -7, -80, 21, -1, 2, 2, 4, -1, 33, 84, 1, 14, -53, 81, 6, -2, -2, -3, -9, -87, -38, -59, -5, -74, -3, -71], "withholdReward": false, "trial_id": "mdp_trial_35", "block": "test", "trialIndex": 36, "score": 28.25, "costs": 0.25, "simulationMode": [null, null, null, null, null], "rewards": [2, 2, 4, 14, 6], "path": ["0", "0", "12", "13", "14", "19", "22"], "rt": [2327, 200, 377, 256, 341], "actions": ["right", "right", "right", "down", "left"], "actionTimes": [5200, 5901, 6840, 7614, 8485], "queries": {"click": {"state": {"target": ["12"], "time": [4649]}, "edge": {"target": [], "time": []}}, "mouseover": {"state": {"target": ["12"], "time": [4229]}, "edge": {"target": [], "time": []}}, "mouseout": {"state": {"target": ["12", "0", "0"], "time": [1115, 1282, 4020]}, "edge": {"target": [], "time": []}}}, "displayed_time": "16.88", "trialTime": 18337, "trial_type": "mouselab-mdp", "trial_index": 43, "time_elapsed": 1575016, "internal_node_id": "0.0-6.0-1.0-34.0"}}, {"uniqueid": "w91001418:a61597126", "current_trial": 44, "dateTime": 1693566454477, "trialdata": {"revealed_states": [], "clicked_states": ["1"], "num_clicks_accrued": [0, 0, 0, 0, 0, 0, 0, 0, 0, 0, 0, 0, 0], "stateRewards": ["", -1, 3, 1, -7, 56, 76, 57, 3, 11, -9, 14, 1, -2, 2, 8, -77, -3, 79, -5, 88, 24, -66, -2, -1, 7, -7, -30, 14, -76, 11, -36, 28, -6], "withholdReward": false, "trial_id": "mdp_trial_36", "block": "test", "trialIndex": 37, "score": 72.25, "costs": 0.25, "simulationMode": [null, null, null, null, null], "rewards": [-1, 3, 1, -7, 76], "path": ["0", "0", "1", "2", "3", "4", "6"], "rt": [2775, 561, 216, 1066, 25], "actions": ["up", "up", "up", "right", "right"], "actionTimes": [5925, 7009, 7740, 9341, 9895], "queries": {"click": {"state": {"target": ["1"], "time": [5130]}, "edge": {"target": [], "time": []}}, "mouseover": {"state": {"target": ["12", "1"], "time": [4420, 4645]}, "edge": {"target": [], "time": []}}, "mouseout": {"state": {"target": ["12", "0", "12", "1"], "time": [1344, 4130, 4532, 5264]}, "edge": {"target": [], "time": []}}}, "displayed_time": "17.15", "trialTime": 18478, "trial_type": "mouselab-mdp", "trial_index": 44, "time_elapsed": 1595772, "internal_node_id": "0.0-6.0-1.0-35.0"}}, {"uniqueid": "w91001418:a61597126", "current_trial": 45, "dateTime": 1693566474296, "trialdata": {"revealed_states": [], "clicked_states": [], "num_clicks_accrued": [0, 0, 0, 0, 0, 0, 0, 0, 0, 0, 0, 0, 0], "stateRewards": ["", 1, 2, -3, 6, -88, 74, -45, 7, -46, 40, -77, 1, -4, 4, 3, 22, -25, -59, 8, -83, 19, -60, -1, -1, -1, -8, 26, -29, 64, -7, -88, -51, -55], "withholdReward": false, "trial_id": "mdp_trial_37", "block": "test", "trialIndex": 38, "score": -40, "costs": 0, "simulationMode": [null, null, null, null, null], "rewards": [-1, -1, -1, -8, -29], "path": ["0", "0", "23", "24", "25", "26", "28"], "rt": [2863, 36, 330, 181, 302], "actions": ["left", "left", "left", "up", "right"], "actionTimes": [5462, 6061, 6938, 7639, 8492], "queries": {"click": {"state": {"target": [], "time": []}, "edge": {"target": [], "time": []}}, "mouseover": {"state": {"target": [], "time": []}, "edge": {"target": [], "time": []}}, "mouseout": {"state": {"target": ["1", "0"], "time": [832, 3521]}, "edge": {"target": [], "time": []}}}, "displayed_time": "16.60", "trialTime": 18353, "trial_type": "mouselab-mdp", "trial_index": 45, "time_elapsed": 1615591, "internal_node_id": "0.0-6.0-1.0-36.0"}}, {"uniqueid": "w91001418:a61597126", "current_trial": 46, "dateTime": 1693566495830, "trialdata": {"revealed_states": [], "clicked_states": ["23"], "num_clicks_accrued": [0, 0, 0, 0, 0, 0, 0, 0, 0, 0, 0, 0, 0], "stateRewards": ["", -2, -3, 1, -7, 39, -67, 16, 5, -20, 73, 66, -1, 4, 5, -3, 23, -68, -87, -8, 3, -3, 17, 1, -4, -2, -13, -32, 34, 61, -5, -11, -18, 12], "withholdReward": false, "trial_id": "mdp_trial_38", "block": "test", "trialIndex": 39, "score": -20.75, "costs": 0.25, "simulationMode": [null, null, null, null, null], "rewards": [1, -4, -2, -5, -11], "path": ["0", "0", "23", "24", "25", "30", "31"], "rt": [1832, 67, 868, 8, 635], "actions": ["left", "left", "left", "down", "right"], "actionTimes": [5259, 5856, 7267, 7795, 9070], "queries": {"click": {"state": {"target": ["23"], "time": [4681]}, "edge": {"target": [], "time": []}}, "mouseover": {"state": {"target": ["23"], "time": [4221]}, "edge": {"target": [], "time": []}}, "mouseout": {"state": {"target": ["0", "0"], "time": [1868, 4112]}, "edge": {"target": [], "time": []}}}, "displayed_time": "17.43", "trialTime": 19708, "trial_type": "mouselab-mdp", "trial_index": 46, "time_elapsed": 1637124, "internal_node_id": "0.0-6.0-1.0-37.0"}}, {"uniqueid": "w91001418:a61597126", "current_trial": 47, "dateTime": 1693566520507, "trialdata": {"revealed_states": [], "clicked_states": ["12"], "num_clicks_accrued": [0, 0, 0, 0, 0, 0, 0, 0, 0, 0, 0, 0, 0], "stateRewards": ["", 1, 1, 1, -3, -7, -1, -41, -10, 20, -72, -63, 1, -4, -2, 2, -66, 30, -84, -2, 49, 23, 71, -1, -4, 4, -12, 67, 5, 18, -16, 88, 56, -5], "withholdReward": false, "trial_id": "mdp_trial_39", "block": "test", "trialIndex": 40, "score": -68.75, "costs": 0.25, "simulationMode": [null, null, null, null, null], "rewards": [1, -4, -2, 2, -66], "path": ["0", "0", "12", "13", "14", "15", "16"], "rt": [1751, 356, 68, 648, 66], "actions": ["right", "right", "right", "up", "up"], "actionTimes": [9417, 10549, 11140, 12307, 12923], "queries": {"click": {"state": {"target": ["12"], "time": [8820]}, "edge": {"target": [], "time": []}}, "mouseover": {"state": {"target": ["12"], "time": [8393]}, "edge": {"target": [], "time": []}}, "mouseout": {"state": {"target": ["23", "0", "0", "0", "12"], "time": [849, 5416, 5804, 8243, 8959]}, "edge": {"target": [], "time": []}}}, "displayed_time": "21.67", "trialTime": 22845, "trial_type": "mouselab-mdp", "trial_index": 47, "time_elapsed": 1661802, "internal_node_id": "0.0-6.0-1.0-38.0"}}, {"uniqueid": "w91001418:a61597126", "current_trial": 48, "dateTime": 1693566539881, "trialdata": {"revealed_states": [], "clicked_states": ["1"], "num_clicks_accrued": [0, 0, 0, 0, 0, 0, 0, 0, 0, 0, 0, 0, 0], "stateRewards": ["", -1, -4, -1, -11, 43, 69, 39, 4, 17, -20, -82, -2, -1, 4, 8, -79, 24, -79, 11, 36, 64, 41, 2, 4, -1, 11, -79, -47, 75, -3, 63, -36, -19], "withholdReward": false, "trial_id": "mdp_trial_40", "block": "test", "trialIndex": 41, "score": 76.25, "costs": 0.25, "simulationMode": [null, null, null, null, null], "rewards": [-2, -1, 4, 11, 64], "path": ["0", "0", "12", "13", "14", "19", "21"], "rt": [3941, 116, 549, 462, 233], "actions": ["right", "right", "right", "down", "down"], "actionTimes": [6688, 7336, 8417, 9415, 10209], "queries": {"click": {"state": {"target": ["1"], "time": [4532]}, "edge": {"target": [], "time": []}}, "mouseover": {"state": {"target": ["1"], "time": [3964]}, "edge": {"target": [], "time": []}}, "mouseout": {"state": {"target": ["12", "0"], "time": [906, 3837]}, "edge": {"target": [], "time": []}}}, "displayed_time": "16.75", "trialTime": 17707, "trial_type": "mouselab-mdp", "trial_index": 48, "time_elapsed": 1681176, "internal_node_id": "0.0-6.0-1.0-39.0"}}, {"uniqueid": "w91001418:a61597126", "current_trial": 49, "dateTime": 1693566616733, "trialdata": {"rt": 75539, "response": {"Q0": "$-88 to $88", "Q1": "$-16 to $16", "Q2": "$-88 to $88", "Q3": "There was no cost for clicking on nodes.", "Q4": "Very motivated"}, "question_order": [0, 1, 2, 3, 4], "trial_id": "final_quiz_control", "trial_type": "survey-multi-choice", "trial_index": 49, "time_elapsed": 1758028, "internal_node_id": "0.0-6.0-2.0"}}, {"uniqueid": "w91001418:a61597126", "current_trial": 50, "dateTime": 1693566835152, "trialdata": {"rt": 217373, "response": {"Q0": "It was like gambling because you do not know the outcomes of the game.", "Q1": "No, there was no way of improving because it was random.", "Q2": "Very difficult. Because it was random."}, "trial_id": "self_report_control", "trial_type": "survey-text", "trial_index": 50, "time_elapsed": 1976447, "internal_node_id": "0.0-6.0-3.0"}}, {"uniqueid": "w91001418:a61597126", "current_trial": 51, "dateTime": 1693566909766, "trialdata": {"rt": 74605, "response": {"Q0": "Agree", "Q1": "Disagree", "Q2": "Agree", "Q3": "Disagree", "Q4": "Disagree", "Q5": "Agree", "Q6": "Disagree"}, "question_order": [0, 1, 2, 3, 4, 5, 6], "trial_id": "self_report_2", "trial_type": "survey-multi-choice", "trial_index": 51, "time_elapsed": 2051062, "internal_node_id": "0.0-6.0-4.0"}}, {"uniqueid": "w91001418:a61597126", "current_trial": 52, "dateTime": 1693566956365, "trialdata": {"rt": 46202, "response": {"gender": "female", "age": "24", "colorblind": "0", "effort": "0"}, "trial_type": "survey-html-form", "trial_index": 52, "time_elapsed": 2097661, "internal_node_id": "0.0-6.0-5.0"}}, {"uniqueid": "w91001418:a61597126", "current_trial": 53, "dateTime": 1693567037639, "trialdata": {"rt": 81238, "response": {"Q0": "No.", "Q1": "No.", "Q2": "Overall, it was nice to participate in the Web of Cash game."}, "trial_type": "survey-text", "trial_index": 53, "time_elapsed": 2178935, "internal_node_id": "0.0-6.0-6.0"}}, {"uniqueid": "w91001418:a61597126", "current_trial": 54, "dateTime": 1693567102756, "trialdata": {"rt": 64979, "stimulus": "<h1>Completion Code Instructions (1/2)</h1>\n<br><br><br><br>\nYou have reached the end of the experiment! The completion code consists of two parts: (1) a code with 2 characters (2) a code with 6 characters. On this page, you will receive the second part of the code. The first part of the completion code will be on the next page.\n<br><br>\nThe second part of your completion code is: <b>EWEK22</b>\n<br><br>\nPlease note this down. Then, press 'Finish HIT' in order to find the first part of your completion code. Once the data has been saved, you will receive this code either in this window or in the original browser window where you started the experiment.\n", "response": 0, "trial_type": "html-button-response", "trial_index": 54, "time_elapsed": 2244052, "internal_node_id": "0.0-6.0-7.0"}}, {"uniqueid": "w91001418:a61597126", "current_trial": 55, "dateTime": 1693567103901, "trialdata": {"success": true, "trial_type": "fullscreen", "trial_index": 55, "time_elapsed": 2245197, "internal_node_id": "0.0-7.0"}}], "questiondata": {"params": {"CODE": "C6DMOQA6", "MIN_TIME": 14, "inspectCost": 1, "startTime": "Fri Sep 01 2023 12:40:56 GMT+0200 (South Africa Standard Time)", "bonusRate": 0.002, "variance": "1_2_4_8_44", "branching": "31123"}, "final_score": 664.75}, "eventdata": [{"eventtype": "initialized", "value": null, "timestamp": 1693564855111, "interval": 0}, {"eventtype": "window_resize", "value": [1079, 654], "timestamp": 1693564855111, "interval": 0}, {"eventtype": "window_resize", "value": [1079, 654], "timestamp": 1693564855900, "interval": 789}, {"eventtype": "window_resize", "value": [1366, 768], "timestamp": 1693564866919, "interval": 11019}, {"eventtype": "focus", "value": "off", "timestamp": 1693565037070, "interval": 170151}, {"eventtype": "focus", "value": "on", "timestamp": 1693565037650, "interval": 580}, {"eventtype": "focus", "value": "off", "timestamp": 1693565171994, "interval": 134344}, {"eventtype": "focus", "value": "on", "timestamp": 1693565173435, "interval": 1441}, {"eventtype": "focus", "value": "off", "timestamp": 1693565194872, "interval": 21437}, {"eventtype": "window_resize", "value": [1366, 767], "timestamp": 1693565195075, "interval": 203}, {"eventtype": "focus", "value": "on", "timestamp": 1693565204124, "interval": 9049}, {"eventtype": "window_resize", "value": [1366, 768], "timestamp": 1693565204334, "interval": 210}, {"eventtype": "focus", "value": "off", "timestamp": 1693565226095, "interval": 21761}, {"eventtype": "window_resize", "value": [1366, 767], "timestamp": 1693565226331, "interval": 236}, {"eventtype": "focus", "value": "on", "timestamp": 1693565232524, "interval": 6193}, {"eventtype": "window_resize", "value": [1366, 768], "timestamp": 1693565232766, "interval": 242}, {"eventtype": "focus", "value": "off", "timestamp": 1693566688486, "interval": 1455720}, {"eventtype": "focus", "value": "on", "timestamp": 1693566697444, "interval": 8958}], "useragent": "Mozilla/5.0 (Windows NT 10.0; Win64; x64) AppleWebKit/537.36 (KHTML, like Gecko) Chrome/115.0.0.0 Safari/537.36", "mode": "live", "id": "w91001418:a61597126", "status": "user data saved", "Beginhit": "2023-09-01 10:40:50.869668", "Beginexp": "2023-09-01 10:41:08.144426", "Endhit": "2023-09-01 11:18:34.735588", "psiturkStatus": 3, "browser": "<redacted>", "platform": "windows", "language": "en-ZA"}