{"condition": 0, "counterbalance": 0, "assignmentId": "a63870376", "workerId": "w37956666", "hitId": "h46344217", "currenttrial": 55, "bonus": 0, "data": [{"uniqueid": "w37956666:a63870376", "current_trial": 0, "dateTime": 1693564829649, "trialdata": {"success": true, "trial_type": "fullscreen", "trial_index": 0, "time_elapsed": 12003, "internal_node_id": "0.0-0.0"}}, {"uniqueid": "w37956666:a63870376", "current_trial": 1, "dateTime": 1693564868306, "trialdata": {"view_history": [{"page_index": 0, "viewing_time": 38648}], "rt": 38648, "trial_id": "exp_instructions_control", "trial_type": "instructions", "trial_index": 1, "time_elapsed": 50661, "internal_node_id": "0.0-1.0"}}, {"uniqueid": "w37956666:a63870376", "current_trial": 2, "dateTime": 1693565240915, "trialdata": {"view_history": [{"page_index": 0, "viewing_time": 142191}, {"page_index": 1, "viewing_time": 101688}, {"page_index": 2, "viewing_time": 45320}, {"page_index": 3, "viewing_time": 83408}], "rt": 372607, "trial_id": "mouselab_instructions_1_control", "trial_type": "instructions", "trial_index": 2, "time_elapsed": 423270, "internal_node_id": "0.0-2.0-1.0"}}, {"uniqueid": "w37956666:a63870376", "current_trial": 3, "dateTime": 1693565265241, "trialdata": {"revealed_states": [], "clicked_states": [], "num_clicks_accrued": [0, 0, 0, 0, 0, 0, 0, 0, 0, 0, 0, 0, 0], "stateRewards": ["", -10, -10, 10, 10, 10, 10, -10, -10, 10, 10, 10, -10, -10, -10, 10, -10, 10, -10, -10, -10, -10, -10, 10, -10, 10, -10, -10, 10, 10, 10, -10, 10, -10], "withholdReward": false, "trial_id": "practice_1", "block": "test", "trialIndex": 0, "score": -6.5, "costs": 0, "simulationMode": [null, null, null, null, null], "rewards": [-10, -10, 10, -10, 10], "path": ["0", "0", "1", "2", "3", "8", "9"], "rt": [2189, 2003, 1984, 559, 1050], "actions": ["up", "up", "up", "left", "up"], "actionTimes": [9591, 12092, 14580, 15635, 17188], "queries": {"click": {"state": {"target": [], "time": []}, "edge": {"target": [], "time": []}}, "mouseover": {"state": {"target": [], "time": []}, "edge": {"target": [], "time": []}}, "mouseout": {"state": {"target": ["2", "1", "0", "1", "0"], "time": [5667, 5745, 6133, 6969, 8037]}, "edge": {"target": [], "time": []}}}, "displayed_time": "17.68", "trialTime": 23548, "trial_type": "mouselab-mdp", "trial_index": 3, "time_elapsed": 447594, "internal_node_id": "0.0-2.0-2.0-0.0"}}, {"uniqueid": "w37956666:a63870376", "current_trial": 4, "dateTime": 1693565280960, "trialdata": {"revealed_states": [], "clicked_states": [], "num_clicks_accrued": [0, 0, 0, 0, 0, 0, 0, 0, 0, 0, 0, 0, 0], "stateRewards": ["", -10, -10, 10, -10, -10, -10, 10, 10, -10, 10, 10, -10, -10, 10, 10, -10, -10, 10, -10, 10, 10, -10, -10, 10, -10, -10, 10, -10, -10, -10, 10, 10, -10], "withholdReward": false, "trial_id": "practice_2", "block": "test", "trialIndex": 1, "score": -6.5, "costs": 0, "simulationMode": [null, null, null, null, null], "rewards": [-10, -10, 10, -10, 10], "path": ["0", "0", "12", "13", "14", "19", "20"], "rt": [1236, 677, 507, 151, 401], "actions": ["right", "right", "right", "down", "right"], "actionTimes": [4172, 5354, 6353, 7001, 7898], "queries": {"click": {"state": {"target": [], "time": []}, "edge": {"target": [], "time": []}}, "mouseover": {"state": {"target": ["13"], "time": [3139]}, "edge": {"target": [], "time": []}}, "mouseout": {"state": {"target": ["14", "13", "12", "0", "13", "14", "22", "22", "19", "20", "20", "20"], "time": [2041, 2074, 2090, 2950, 3345, 13193, 13242, 14009, 14043, 14093, 14360, 15061]}, "edge": {"target": [], "time": []}}}, "displayed_time": "8.40", "trialTime": 15498, "trial_type": "mouselab-mdp", "trial_index": 4, "time_elapsed": 463314, "internal_node_id": "0.0-2.0-2.0-1.0"}}, {"uniqueid": "w37956666:a63870376", "current_trial": 5, "dateTime": 1693565347331, "trialdata": {"view_history": [{"page_index": 0, "viewing_time": 47178}, {"page_index": 1, "viewing_time": 19183}], "rt": 66362, "trial_id": "mouselab_instructions_2_control", "trial_type": "instructions", "trial_index": 5, "time_elapsed": 529686, "internal_node_id": "0.0-2.0-3.0"}}, {"uniqueid": "w37956666:a63870376", "current_trial": 6, "dateTime": 1693565402579, "trialdata": {"rt": 55246, "response": {"Q0": "The cost for clicking on nodes may vary between nodes.", "Q1": "The better I perform the higher my bonus will be.", "Q2": "No, the amount of cash at each node of the web may be different each time.", "Q3": "To get the highest total score.", "Q4": "Only before moving the spider.", "Q5": "3 seconds"}, "question_order": [0, 1, 2, 3, 4, 5], "correct": {"Q0": "The cost for clicking on nodes may vary between nodes.", "Q1": "The better I perform the higher my bonus will be.", "Q2": "No, the amount of cash at each node of the web may be different each time.", "Q3": "To get the highest total score.", "Q4": "Only before moving the spider.", "Q5": "3 seconds"}, "trial_id": "mouselab_quiz_control", "trial_type": "survey-multi-choice", "trial_index": 6, "time_elapsed": 584934, "internal_node_id": "0.0-2.0-4.0"}}, {"uniqueid": "w37956666:a63870376", "current_trial": 7, "dateTime": 1693565416019, "trialdata": {"rt": 13435, "response": {"Q0": "No"}, "question_order": [0], "trial_id": "repeat_check", "trial_type": "survey-multi-choice", "trial_index": 7, "time_elapsed": 598374, "internal_node_id": "0.0-4.0-0.0"}}, {"uniqueid": "w37956666:a63870376", "current_trial": 8, "dateTime": 1693565442422, "trialdata": {"rt": 26398, "stimulus": "\n<h1> Get ready to start the game! </h1>\n\nThank you for reading the instructions. Get ready start with the 40 rounds of this game.\n<br><br>\nIf you need to take a break, feel free to take one after the end of a round, before continuing to the next one.\n<br><br>\nRemember, the more money the spider gets, the bigger your bonus will be!\n<br><br>\n<div style='text-align: center;'>Press <code>space</code> to begin.</div>\n\n<br><br>\n(If, at any point, the <code>space</code> key does not take you to the next page, click once on the text and try again.)", "response": " ", "trial_id": "mdp_ready", "trial_type": "html-keyboard-response", "trial_index": 8, "time_elapsed": 624777, "internal_node_id": "0.0-6.0-0.0"}}, {"uniqueid": "w37956666:a63870376", "current_trial": 9, "dateTime": 1693565466857, "trialdata": {"revealed_states": [], "clicked_states": [], "num_clicks_accrued": [0, 0, 0, 0, 0, 0, 0, 0, 0, 0, 0, 0, 0], "stateRewards": ["", -1, 3, 1, -7, 56, 76, 57, 3, 11, -9, 14, 1, -2, 2, 8, -77, -3, 79, -5, 88, 24, -66, -2, -1, 7, -7, -30, 14, -76, 11, -36, 28, -6], "withholdReward": false, "trial_id": "mdp_trial_1", "block": "test", "trialIndex": 2, "score": 52, "costs": 0, "simulationMode": [null, null, null, null, null], "rewards": [-1, 3, 1, -7, 56], "path": ["0", "0", "1", "2", "3", "4", "5"], "rt": [2201, 807, 489, 328, 885], "actions": ["up", "up", "up", "right", "up"], "actionTimes": [8841, 10145, 11137, 11969, 13345], "queries": {"click": {"state": {"target": [], "time": []}, "edge": {"target": [], "time": []}}, "mouseover": {"state": {"target": [], "time": []}, "edge": {"target": [], "time": []}}, "mouseout": {"state": {"target": ["16", "18", "23", "12", "12", "0"], "time": [1377, 1427, 1811, 2259, 2862, 8273]}, "edge": {"target": [], "time": []}}}, "displayed_time": "20.64", "trialTime": 24210, "trial_type": "mouselab-mdp", "trial_index": 9, "time_elapsed": 649211, "internal_node_id": "0.0-6.0-1.0-0.0"}}, {"uniqueid": "w37956666:a63870376", "current_trial": 10, "dateTime": 1693565488544, "trialdata": {"revealed_states": [], "clicked_states": [], "num_clicks_accrued": [0, 0, 0, 0, 0, 0, 0, 0, 0, 0, 0, 0, 0], "stateRewards": ["", 1, 4, 5, 8, -55, -11, 8, 16, -37, 77, -22, -2, 3, -8, -10, 45, 87, -67, 4, 17, -33, -22, -1, -3, 7, 6, -39, -85, 75, -1, 7, -48, 45], "withholdReward": false, "trial_id": "mdp_trial_2", "block": "test", "trialIndex": 3, "score": 103, "costs": 0, "simulationMode": [null, null, null, null, null], "rewards": [1, 4, 5, 16, 77], "path": ["0", "0", "1", "2", "3", "8", "10"], "rt": [1429, 100, 92, 155, 464], "actions": ["up", "up", "up", "left", "down"], "actionTimes": [5686, 6293, 6886, 7534, 8494], "queries": {"click": {"state": {"target": [], "time": []}, "edge": {"target": [], "time": []}}, "mouseover": {"state": {"target": ["12", "13", "14"], "time": [4312, 4338, 4388]}, "edge": {"target": [], "time": []}}, "mouseout": {"state": {"target": ["17", "15", "18", "0", "12", "13", "14"], "time": [3090, 3156, 3190, 3890, 4321, 4371, 4421]}, "edge": {"target": [], "time": []}}}, "displayed_time": "18.26", "trialTime": 21454, "trial_type": "mouselab-mdp", "trial_index": 10, "time_elapsed": 670898, "internal_node_id": "0.0-6.0-1.0-1.0"}}, {"uniqueid": "w37956666:a63870376", "current_trial": 11, "dateTime": 1693565506593, "trialdata": {"revealed_states": [], "clicked_states": [], "num_clicks_accrued": [0, 0, 0, 0, 0, 0, 0, 0, 0, 0, 0, 0, 0], "stateRewards": ["", 2, -1, 5, 8, 75, -35, -77, 1, -9, -81, -58, 1, 2, -7, 5, 77, -16, 19, 16, -10, -18, 40, -2, 3, 7, -5, 64, 1, -62, 10, 27, 10, 65], "withholdReward": false, "trial_id": "mdp_trial_3", "block": "test", "trialIndex": 4, "score": 67, "costs": 0, "simulationMode": [null, null, null, null, null], "rewards": [-2, 3, 7, -5, 64], "path": ["0", "0", "23", "24", "25", "26", "27"], "rt": [755, 222, 823, 256, 1747], "actions": ["left", "left", "left", "up", "up"], "actionTimes": [2725, 3445, 4765, 5517, 7757], "queries": {"click": {"state": {"target": [], "time": []}, "edge": {"target": [], "time": []}}, "mouseover": {"state": {"target": ["12", "13", "14"], "time": [2208, 2255, 2289]}, "edge": {"target": [], "time": []}}, "mouseout": {"state": {"target": ["17", "15", "18", "0", "0", "12", "13", "14"], "time": [1004, 1204, 1238, 1305, 1588, 2238, 2272, 2305]}, "edge": {"target": [], "time": []}}}, "displayed_time": "15.97", "trialTime": 17805, "trial_type": "mouselab-mdp", "trial_index": 11, "time_elapsed": 688947, "internal_node_id": "0.0-6.0-1.0-2.0"}}, {"uniqueid": "w37956666:a63870376", "current_trial": 12, "dateTime": 1693565526776, "trialdata": {"revealed_states": [], "clicked_states": [], "num_clicks_accrued": [0, 0, 0, 0, 0, 0, 0, 0, 0, 0, 0, 0, 0], "stateRewards": ["", 2, -1, 8, -2, -16, 69, -39, -7, -13, -27, -86, 2, -2, 2, 13, -34, -16, -20, -5, 19, 81, 32, -2, -1, 2, -14, 20, 80, 58, 4, 70, 12, 73], "withholdReward": false, "trial_id": "mdp_trial_4", "block": "test", "trialIndex": 5, "score": 76, "costs": 0, "simulationMode": [null, null, null, null, null], "rewards": [2, -1, 8, -2, 69], "path": ["0", "0", "1", "2", "3", "4", "6"], "rt": [1693, 146, 386, 84, 108], "actions": ["up", "up", "up", "right", "right"], "actionTimes": [4272, 4912, 5800, 6384, 6992], "queries": {"click": {"state": {"target": [], "time": []}, "edge": {"target": [], "time": []}}, "mouseover": {"state": {"target": ["12", "13", "14"], "time": [2587, 2626, 2659]}, "edge": {"target": [], "time": []}}, "mouseout": {"state": {"target": ["17", "15", "18", "12", "12", "13", "14"], "time": [793, 1091, 1224, 1678, 2609, 2643, 2708]}, "edge": {"target": [], "time": []}}}, "displayed_time": "16.58", "trialTime": 19952, "trial_type": "mouselab-mdp", "trial_index": 12, "time_elapsed": 709130, "internal_node_id": "0.0-6.0-1.0-3.0"}}, {"uniqueid": "w37956666:a63870376", "current_trial": 13, "dateTime": 1693565545161, "trialdata": {"revealed_states": [], "clicked_states": [], "num_clicks_accrued": [0, 0, 0, 0, 0, 0, 0, 0, 0, 0, 0, 0, 0], "stateRewards": ["", -2, -1, -1, 5, -54, -87, 35, 2, -8, 20, -22, 1, 3, 6, 13, -75, -32, -55, -3, 56, 62, -22, -1, -4, -1, -7, -51, 84, 70, 7, -15, 5, 55], "withholdReward": false, "trial_id": "mdp_trial_5", "block": "test", "trialIndex": 6, "score": -15, "costs": 0, "simulationMode": [null, null, null, null, null], "rewards": [1, 3, 6, -3, -22], "path": ["0", "0", "12", "13", "14", "19", "22"], "rt": [923, 586, 119, 134, 564], "actions": ["right", "right", "right", "down", "left"], "actionTimes": [2980, 4067, 4683, 5315, 6379], "queries": {"click": {"state": {"target": [], "time": []}, "edge": {"target": [], "time": []}}, "mouseover": {"state": {"target": ["12", "13"], "time": [2124, 2143]}, "edge": {"target": [], "time": []}}, "mouseout": {"state": {"target": ["13", "12", "12", "13"], "time": [1261, 1410, 2141, 2158]}, "edge": {"target": [], "time": []}}}, "displayed_time": "16.06", "trialTime": 18123, "trial_type": "mouselab-mdp", "trial_index": 13, "time_elapsed": 727514, "internal_node_id": "0.0-6.0-1.0-4.0"}}, {"uniqueid": "w37956666:a63870376", "current_trial": 14, "dateTime": 1693565563617, "trialdata": {"revealed_states": [], "clicked_states": [], "num_clicks_accrued": [0, 0, 0, 0, 0, 0, 0, 0, 0, 0, 0, 0, 0], "stateRewards": ["", 2, 3, -1, 6, 44, -4, -59, -14, -3, 64, 16, 1, -3, 3, 6, 3, 49, 19, 3, -49, -14, -86, 1, 2, -3, -8, -33, 14, 32, -13, -77, -47, -67], "withholdReward": false, "trial_id": "mdp_trial_6", "block": "test", "trialIndex": 7, "score": 6, "costs": 0, "simulationMode": [null, null, null, null, null], "rewards": [1, 2, -3, -8, 14], "path": ["0", "0", "23", "24", "25", "26", "28"], "rt": [1926, 616, 443, 149, 50], "actions": ["left", "left", "left", "up", "right"], "actionTimes": [3980, 5091, 6035, 6675, 7250], "queries": {"click": {"state": {"target": [], "time": []}, "edge": {"target": [], "time": []}}, "mouseover": {"state": {"target": [], "time": []}, "edge": {"target": [], "time": []}}, "mouseout": {"state": {"target": ["17", "15", "12", "0", "0", "12", "13", "14"], "time": [853, 885, 1253, 1386, 8015, 8066, 8099, 8115]}, "edge": {"target": [], "time": []}}}, "displayed_time": "16.06", "trialTime": 18179, "trial_type": "mouselab-mdp", "trial_index": 14, "time_elapsed": 745970, "internal_node_id": "0.0-6.0-1.0-5.0"}}, {"uniqueid": "w37956666:a63870376", "current_trial": 15, "dateTime": 1693565582320, "trialdata": {"revealed_states": [], "clicked_states": [], "num_clicks_accrued": [0, 0, 0, 0, 0, 0, 0, 0, 0, 0, 0, 0, 0], "stateRewards": ["", -1, 3, 8, 10, -86, 61, -36, 10, 17, -60, 24, -1, -3, 3, 11, 50, 60, 33, -3, -20, 58, -6, 1, -4, -4, 13, -70, -71, 43, 14, 52, 82, -11], "withholdReward": false, "trial_id": "mdp_trial_7", "block": "test", "trialIndex": 8, "score": -4, "costs": 0, "simulationMode": [null, null, null, null, null], "rewards": [1, -4, -4, 14, -11], "path": ["0", "0", "23", "24", "25", "30", "33"], "rt": [1945, 675, 619, 179, 560], "actions": ["left", "left", "left", "down", "left"], "actionTimes": [4849, 6016, 7128, 7808, 8872], "queries": {"click": {"state": {"target": [], "time": []}, "edge": {"target": [], "time": []}}, "mouseover": {"state": {"target": ["13"], "time": [2916]}, "edge": {"target": [], "time": []}}, "mouseout": {"state": {"target": ["17", "12", "0", "23", "0", "0", "13"], "time": [1722, 1955, 1972, 2189, 2255, 2912, 2949]}, "edge": {"target": [], "time": []}}}, "displayed_time": "16.91", "trialTime": 18440, "trial_type": "mouselab-mdp", "trial_index": 15, "time_elapsed": 764673, "internal_node_id": "0.0-6.0-1.0-6.0"}}, {"uniqueid": "w37956666:a63870376", "current_trial": 16, "dateTime": 1693565600008, "trialdata": {"revealed_states": [], "clicked_states": [], "num_clicks_accrued": [0, 0, 0, 0, 0, 0, 0, 0, 0, 0, 0, 0, 0], "stateRewards": ["", 2, -2, 7, -11, -76, -65, -23, 16, -58, 30, 81, 1, 2, 7, 14, 9, 55, -2, 6, 11, -15, 31, -1, -1, -3, 2, 15, 2, 46, 15, 18, 45, -34], "withholdReward": false, "trial_id": "mdp_trial_8", "block": "test", "trialIndex": 9, "score": -1, "costs": 0, "simulationMode": [null, null, null, null, null], "rewards": [-1, -1, -3, 2, 2], "path": ["0", "0", "23", "24", "25", "26", "28"], "rt": [3816, 158, 852, 613, 647], "actions": ["left", "left", "left", "up", "right"], "actionTimes": [6127, 6780, 8124, 9238, 10388], "queries": {"click": {"state": {"target": [], "time": []}, "edge": {"target": [], "time": []}}, "mouseover": {"state": {"target": ["12", "13", "14"], "time": [2331, 2380, 2430]}, "edge": {"target": [], "time": []}}, "mouseout": {"state": {"target": ["16", "0", "12", "13", "14"], "time": [1282, 2325, 2366, 2413, 2447]}, "edge": {"target": [], "time": []}}}, "displayed_time": "16.31", "trialTime": 17412, "trial_type": "mouselab-mdp", "trial_index": 16, "time_elapsed": 782361, "internal_node_id": "0.0-6.0-1.0-7.0"}}, {"uniqueid": "w37956666:a63870376", "current_trial": 17, "dateTime": 1693565620936, "trialdata": {"revealed_states": [], "clicked_states": [], "num_clicks_accrued": [0, 0, 0, 0, 0, 0, 0, 0, 0, 0, 0, 0, 0], "stateRewards": ["", 1, -1, 1, -14, -10, 67, -28, -11, 72, 40, -65, -1, 1, 1, -2, 8, -55, 34, -10, 61, 33, -15, 2, -4, 7, 4, -75, 63, -21, -16, 61, 19, 21], "withholdReward": false, "trial_id": "mdp_trial_9", "block": "test", "trialIndex": 10, "score": -75, "costs": 0, "simulationMode": [null, null, null, null, null], "rewards": [1, -1, 1, -11, -65], "path": ["0", "0", "1", "2", "3", "8", "11"], "rt": [531, 33, 107, 40, 620], "actions": ["up", "up", "up", "left", "left"], "actionTimes": [3427, 3961, 4586, 5122, 6234], "queries": {"click": {"state": {"target": [], "time": []}, "edge": {"target": [], "time": []}}, "mouseover": {"state": {"target": [], "time": []}, "edge": {"target": [], "time": []}}, "mouseout": {"state": {"target": ["17", "14", "12", "0"], "time": [725, 775, 942, 3008]}, "edge": {"target": [], "time": []}}}, "displayed_time": "16.90", "trialTime": 20643, "trial_type": "mouselab-mdp", "trial_index": 17, "time_elapsed": 803290, "internal_node_id": "0.0-6.0-1.0-8.0"}}, {"uniqueid": "w37956666:a63870376", "current_trial": 18, "dateTime": 1693565639840, "trialdata": {"revealed_states": [], "clicked_states": [], "num_clicks_accrued": [0, 0, 0, 0, 0, 0, 0, 0, 0, 0, 0, 0, 0], "stateRewards": ["", 2, -3, 5, 11, -79, 54, 11, -9, -78, 33, 22, -2, -1, 2, 14, 43, 34, 1, 10, 49, -65, 39, -1, 1, -1, 3, -16, -2, 11, 2, 12, 48, -65], "withholdReward": false, "trial_id": "mdp_trial_10", "block": "test", "trialIndex": 11, "score": 69, "costs": 0, "simulationMode": [null, null, null, null, null], "rewards": [2, -3, 5, 11, 54], "path": ["0", "0", "1", "2", "3", "4", "6"], "rt": [838, 559, 88, 39, 2], "actions": ["up", "up", "up", "right", "right"], "actionTimes": [2928, 3999, 4591, 5126, 5623], "queries": {"click": {"state": {"target": [], "time": []}, "edge": {"target": [], "time": []}}, "mouseover": {"state": {"target": ["12", "13", "14"], "time": [2453, 2471, 2501]}, "edge": {"target": [], "time": []}}, "mouseout": {"state": {"target": ["17", "15", "18", "1", "23", "0", "12", "13", "14"], "time": [849, 866, 880, 913, 1150, 2436, 2468, 2484, 2517]}, "edge": {"target": [], "time": []}}}, "displayed_time": "16.09", "trialTime": 18624, "trial_type": "mouselab-mdp", "trial_index": 18, "time_elapsed": 822194, "internal_node_id": "0.0-6.0-1.0-9.0"}}, {"uniqueid": "w37956666:a63870376", "current_trial": 19, "dateTime": 1693565657744, "trialdata": {"revealed_states": [], "clicked_states": [], "num_clicks_accrued": [0, 0, 0, 0, 0, 0, 0, 0, 0, 0, 0, 0, 0], "stateRewards": ["", 1, -1, -7, -7, -22, 15, -13, 13, 26, -32, 38, -1, 1, -7, -4, 16, -62, 86, 12, -54, 56, 64, -2, -1, 6, 14, -57, 37, 62, -6, -25, 50, -70], "withholdReward": false, "trial_id": "mdp_trial_11", "block": "test", "trialIndex": 12, "score": -36, "costs": 0, "simulationMode": [null, null, null, null, null], "rewards": [1, -1, -7, -7, -22], "path": ["0", "0", "1", "2", "3", "4", "5"], "rt": [427, 27, 166, 507, 256], "actions": ["up", "up", "up", "right", "up"], "actionTimes": [2203, 2721, 3394, 4402, 5155], "queries": {"click": {"state": {"target": [], "time": []}, "edge": {"target": [], "time": []}}, "mouseover": {"state": {"target": ["12", "14"], "time": [1784, 1828]}, "edge": {"target": [], "time": []}}, "mouseout": {"state": {"target": ["12", "14"], "time": [1796, 1858]}, "edge": {"target": [], "time": []}}}, "displayed_time": "15.78", "trialTime": 17611, "trial_type": "mouselab-mdp", "trial_index": 19, "time_elapsed": 840098, "internal_node_id": "0.0-6.0-1.0-10.0"}}, {"uniqueid": "w37956666:a63870376", "current_trial": 20, "dateTime": 1693565678105, "trialdata": {"revealed_states": [], "clicked_states": [], "num_clicks_accrued": [0, 0, 0, 0, 0, 0, 0, 0, 0, 0, 0, 0, 0], "stateRewards": ["", 1, 1, 5, 6, -29, -7, 3, -16, 9, -46, 65, -1, 4, -1, -16, -63, -77, -87, 8, 80, -50, 43, -1, -1, -5, 5, -38, -71, -62, 9, 81, -50, -52], "withholdReward": false, "trial_id": "mdp_trial_12", "block": "test", "trialIndex": 13, "score": 56, "costs": 0, "simulationMode": [null, null, null, null, null], "rewards": [1, 1, 5, -16, 65], "path": ["0", "0", "1", "2", "3", "8", "11"], "rt": [521, 492, 228, 231, 329], "actions": ["up", "up", "up", "left", "left"], "actionTimes": [2539, 3538, 4275, 5010, 5842], "queries": {"click": {"state": {"target": [], "time": []}, "edge": {"target": [], "time": []}}, "mouseover": {"state": {"target": ["12", "13", "14"], "time": [2030, 2073, 2106]}, "edge": {"target": [], "time": []}}, "mouseout": {"state": {"target": ["14", "12", "13", "14"], "time": [1124, 2071, 2104, 2121]}, "edge": {"target": [], "time": []}}}, "displayed_time": "16.02", "trialTime": 20076, "trial_type": "mouselab-mdp", "trial_index": 20, "time_elapsed": 860459, "internal_node_id": "0.0-6.0-1.0-11.0"}}, {"uniqueid": "w37956666:a63870376", "current_trial": 21, "dateTime": 1693565696168, "trialdata": {"revealed_states": [], "clicked_states": [], "num_clicks_accrued": [0, 0, 0, 0, 0, 0, 0, 0, 0, 0, 0, 0, 0], "stateRewards": ["", -2, -1, 3, -3, 71, -58, -21, 7, -10, -75, -37, 2, 4, -1, -12, -79, -29, -48, 3, -41, -10, -30, -1, -2, 1, -15, 13, 66, 22, -1, -42, -86, -55], "withholdReward": false, "trial_id": "mdp_trial_13", "block": "test", "trialIndex": 14, "score": 49, "costs": 0, "simulationMode": [null, null, null, null, null], "rewards": [-1, -2, 1, -15, 66], "path": ["0", "0", "23", "24", "25", "26", "28"], "rt": [1065, 364, 232, 17, 225], "actions": ["left", "left", "left", "up", "right"], "actionTimes": [2589, 3453, 4188, 4707, 5453], "queries": {"click": {"state": {"target": [], "time": []}, "edge": {"target": [], "time": []}}, "mouseover": {"state": {"target": [], "time": []}, "edge": {"target": [], "time": []}}, "mouseout": {"state": {"target": ["15", "18", "0"], "time": [854, 886, 1668]}, "edge": {"target": [], "time": []}}}, "displayed_time": "15.53", "trialTime": 17773, "trial_type": "mouselab-mdp", "trial_index": 21, "time_elapsed": 878522, "internal_node_id": "0.0-6.0-1.0-12.0"}}, {"uniqueid": "w37956666:a63870376", "current_trial": 22, "dateTime": 1693565715193, "trialdata": {"revealed_states": [], "clicked_states": [], "num_clicks_accrued": [0, 0, 0, 0, 0, 0, 0, 0, 0, 0, 0, 0, 0], "stateRewards": ["", -2, 2, 5, -14, -56, 64, 84, -5, 52, 39, 85, -2, 1, 7, 8, 21, 29, -78, -9, -10, -69, 10, -2, -1, -7, 15, 72, 20, 41, -2, 52, 80, 22], "withholdReward": false, "trial_id": "mdp_trial_14", "block": "test", "trialIndex": 15, "score": 35, "costs": 0, "simulationMode": [null, null, null, null, null], "rewards": [-2, 1, 7, 8, 21], "path": ["0", "0", "12", "13", "14", "15", "16"], "rt": [1120, 139, 257, 210, 103], "actions": ["right", "right", "right", "up", "up"], "actionTimes": [2860, 3500, 4252, 4956, 5564], "queries": {"click": {"state": {"target": [], "time": []}, "edge": {"target": [], "time": []}}, "mouseover": {"state": {"target": ["12"], "time": [1751]}, "edge": {"target": [], "time": []}}, "mouseout": {"state": {"target": ["13", "12", "0", "12"], "time": [974, 1073, 1749, 1791]}, "edge": {"target": [], "time": []}}}, "displayed_time": "15.74", "trialTime": 18724, "trial_type": "mouselab-mdp", "trial_index": 22, "time_elapsed": 897546, "internal_node_id": "0.0-6.0-1.0-13.0"}}, {"uniqueid": "w37956666:a63870376", "current_trial": 23, "dateTime": 1693565734073, "trialdata": {"revealed_states": [], "clicked_states": [], "num_clicks_accrued": [0, 0, 0, 0, 0, 0, 0, 0, 0, 0, 0, 0, 0], "stateRewards": ["", -2, 3, 3, -14, 62, 36, 49, 16, 11, 17, -84, 2, -1, 6, 2, -82, -73, 49, -6, -87, 48, 50, -1, -2, -1, -16, -11, 37, -44, 4, 55, 73, -10], "withholdReward": false, "trial_id": "mdp_trial_15", "block": "test", "trialIndex": 16, "score": 37, "costs": 0, "simulationMode": [null, null, null, null, null], "rewards": [-2, 3, 3, 16, 17], "path": ["0", "0", "1", "2", "3", "8", "10"], "rt": [1578, 436, 11, 71, 63], "actions": ["up", "up", "up", "left", "down"], "actionTimes": [4169, 5105, 5616, 6208, 6768], "queries": {"click": {"state": {"target": [], "time": []}, "edge": {"target": [], "time": []}}, "mouseover": {"state": {"target": ["12", "13", "14"], "time": [2600, 2643, 2666]}, "edge": {"target": [], "time": []}}, "mouseout": {"state": {"target": ["17", "13", "12", "12", "13", "14"], "time": [1262, 1750, 1816, 2642, 2664, 2681]}, "edge": {"target": [], "time": []}}}, "displayed_time": "16.59", "trialTime": 18585, "trial_type": "mouselab-mdp", "trial_index": 23, "time_elapsed": 916426, "internal_node_id": "0.0-6.0-1.0-14.0"}}, {"uniqueid": "w37956666:a63870376", "current_trial": 24, "dateTime": 1693565752137, "trialdata": {"revealed_states": [], "clicked_states": [], "num_clicks_accrued": [0, 0, 0, 0, 0, 0, 0, 0, 0, 0, 0, 0, 0], "stateRewards": ["", -1, 4, 3, 12, -27, 34, -33, 3, -63, 1, 6, 2, 2, -6, -11, -77, -85, 68, -6, 51, 81, -60, -2, -2, 1, 15, 20, 15, 68, -10, -14, 6, -4], "withholdReward": false, "trial_id": "mdp_trial_16", "block": "test", "trialIndex": 17, "score": 73, "costs": 0, "simulationMode": [null, null, null, null, null], "rewards": [2, 2, -6, -6, 81], "path": ["0", "0", "12", "13", "14", "19", "21"], "rt": [776, 398, 424, 26, 553], "actions": ["right", "right", "right", "down", "down"], "actionTimes": [2655, 3551, 4479, 4998, 6063], "queries": {"click": {"state": {"target": [], "time": []}, "edge": {"target": [], "time": []}}, "mouseover": {"state": {"target": ["12", "13"], "time": [1999, 2018]}, "edge": {"target": [], "time": []}}, "mouseout": {"state": {"target": ["17", "15", "12", "23", "0", "12", "13"], "time": [869, 915, 1001, 1386, 1966, 2016, 2033]}, "edge": {"target": [], "time": []}}}, "displayed_time": "15.88", "trialTime": 17775, "trial_type": "mouselab-mdp", "trial_index": 24, "time_elapsed": 934490, "internal_node_id": "0.0-6.0-1.0-15.0"}}, {"uniqueid": "w37956666:a63870376", "current_trial": 25, "dateTime": 1693565770537, "trialdata": {"revealed_states": [], "clicked_states": [], "num_clicks_accrued": [0, 0, 0, 0, 0, 0, 0, 0, 0, 0, 0, 0, 0], "stateRewards": ["", -1, 2, 5, -6, 13, -64, -47, 8, -79, -80, -33, 1, 2, -2, -16, 56, -71, -10, 3, 29, 44, 85, -1, 4, 5, 4, -36, -56, 19, 8, 52, -13, -2], "withholdReward": false, "trial_id": "mdp_trial_17", "block": "test", "trialIndex": 18, "score": 31, "costs": 0, "simulationMode": [null, null, null, null, null], "rewards": [-1, 4, 5, 4, 19], "path": ["0", "0", "23", "24", "25", "26", "29"], "rt": [839, 250, 506, 257, 71], "actions": ["left", "left", "left", "up", "left"], "actionTimes": [3251, 3994, 5002, 5754, 6322], "queries": {"click": {"state": {"target": [], "time": []}, "edge": {"target": [], "time": []}}, "mouseover": {"state": {"target": ["12", "13", "14"], "time": [2541, 2559, 2592]}, "edge": {"target": [], "time": []}}, "mouseout": {"state": {"target": ["14", "13", "12", "23", "24", "25", "24", "23", "0", "12", "13", "14"], "time": [1359, 1376, 1391, 1440, 1473, 1660, 1760, 1877, 2507, 2557, 2591, 2607]}, "edge": {"target": [], "time": []}}}, "displayed_time": "16.41", "trialTime": 18106, "trial_type": "mouselab-mdp", "trial_index": 25, "time_elapsed": 952890, "internal_node_id": "0.0-6.0-1.0-16.0"}}, {"uniqueid": "w37956666:a63870376", "current_trial": 26, "dateTime": 1693565791353, "trialdata": {"revealed_states": [], "clicked_states": [], "num_clicks_accrued": [0, 0, 0, 0, 0, 0, 0, 0, 0, 0, 0, 0, 0], "stateRewards": ["", -1, -4, -6, -15, 21, -67, -63, 9, 51, 69, -14, -1, 3, 8, -8, 39, 72, 63, 15, 19, 47, 15, 1, 4, 5, 16, -18, 34, 35, -14, -80, 40, 1], "withholdReward": false, "trial_id": "mdp_trial_18", "block": "test", "trialIndex": 19, "score": -93, "costs": 0, "simulationMode": [null, null, null, null, null], "rewards": [-1, -4, -6, -15, -67], "path": ["0", "0", "1", "2", "3", "4", "6"], "rt": [1246, 351, 227, 280, 225], "actions": ["up", "up", "up", "right", "right"], "actionTimes": [2375, 3230, 3958, 4742, 5470], "queries": {"click": {"state": {"target": [], "time": []}, "edge": {"target": [], "time": []}}, "mouseover": {"state": {"target": ["13", "14"], "time": [1154, 1178]}, "edge": {"target": [], "time": []}}, "mouseout": {"state": {"target": ["14", "13", "0", "13", "14"], "time": [506, 539, 1138, 1176, 1187]}, "edge": {"target": [], "time": []}}}, "displayed_time": "15.13", "trialTime": 20511, "trial_type": "mouselab-mdp", "trial_index": 26, "time_elapsed": 973707, "internal_node_id": "0.0-6.0-1.0-17.0"}}, {"uniqueid": "w37956666:a63870376", "current_trial": 27, "dateTime": 1693565809937, "trialdata": {"revealed_states": [], "clicked_states": [], "num_clicks_accrued": [0, 0, 0, 0, 0, 0, 0, 0, 0, 0, 0, 0, 0], "stateRewards": ["", -1, 1, 6, -6, 70, 66, 67, -16, -75, -35, 37, -1, 4, 4, -6, 47, -9, 63, 15, 21, -63, 13, 1, 3, -6, 10, 79, -29, 18, -15, 9, -67, -19], "withholdReward": false, "trial_id": "mdp_trial_19", "block": "test", "trialIndex": 20, "score": -84, "costs": 0, "simulationMode": [null, null, null, null, null], "rewards": [1, 3, -6, -15, -67], "path": ["0", "0", "23", "24", "25", "30", "32"], "rt": [718, 32, 49, 9, 386], "actions": ["left", "left", "left", "down", "down"], "actionTimes": [3068, 3603, 4155, 4667, 5564], "queries": {"click": {"state": {"target": [], "time": []}, "edge": {"target": [], "time": []}}, "mouseover": {"state": {"target": ["22", "19", "20"], "time": [2451, 2484, 2524]}, "edge": {"target": [], "time": []}}, "mouseout": {"state": {"target": ["14", "13", "12", "0", "22", "19", "20"], "time": [970, 1102, 1453, 2360, 2468, 2520, 2552]}, "edge": {"target": [], "time": []}}}, "displayed_time": "16.35", "trialTime": 18276, "trial_type": "mouselab-mdp", "trial_index": 27, "time_elapsed": 992290, "internal_node_id": "0.0-6.0-1.0-18.0"}}, {"uniqueid": "w37956666:a63870376", "current_trial": 28, "dateTime": 1693565828337, "trialdata": {"revealed_states": [], "clicked_states": [], "num_clicks_accrued": [0, 0, 0, 0, 0, 0, 0, 0, 0, 0, 0, 0, 0], "stateRewards": ["", -2, 2, 3, -7, -31, -33, 29, -8, -57, 50, -83, -1, -1, 5, 13, -23, -62, 25, 5, -66, -85, 14, 1, -2, -1, 16, 71, 33, -19, -14, 5, -43, 79], "withholdReward": false, "trial_id": "mdp_trial_20", "block": "test", "trialIndex": 21, "score": 47, "costs": 0, "simulationMode": [null, null, null, null, null], "rewards": [1, -2, -1, 16, 33], "path": ["0", "0", "23", "24", "25", "26", "28"], "rt": [909, 202, 261, 254, 335], "actions": ["left", "left", "left", "up", "right"], "actionTimes": [2819, 3522, 4282, 5026, 5858], "queries": {"click": {"state": {"target": [], "time": []}, "edge": {"target": [], "time": []}}, "mouseover": {"state": {"target": ["12", "13", "14"], "time": [1933, 1983, 2001]}, "edge": {"target": [], "time": []}}, "mouseout": {"state": {"target": ["13", "12", "0", "0", "12", "13", "14"], "time": [1035, 1068, 1135, 1919, 1966, 1999, 2033]}, "edge": {"target": [], "time": []}}}, "displayed_time": "15.91", "trialTime": 18082, "trial_type": "mouselab-mdp", "trial_index": 28, "time_elapsed": 1010690, "internal_node_id": "0.0-6.0-1.0-19.0"}}, {"uniqueid": "w37956666:a63870376", "current_trial": 29, "dateTime": 1693565855569, "trialdata": {"revealed_states": [], "clicked_states": ["22", "21", "14", "20"], "num_clicks_accrued": [0, 0, 0, 0, 0, 0, 0, 0, 0, 0, 0, 0, 0], "stateRewards": ["", 2, -2, -8, 9, -20, 55, -58, 14, 42, 2, 36, 1, -3, -5, 5, -58, 57, 60, 16, 57, 30, -70, -2, 1, 3, 10, 59, 23, 77, -13, -26, 88, -72], "withholdReward": false, "trial_id": "mdp_trial_21", "block": "test", "trialIndex": 22, "score": 60.4, "costs": -5.6, "simulationMode": [null, null, null, null, null], "rewards": [1, -3, -5, 16, 57], "path": ["0", "0", "12", "13", "14", "19", "20"], "rt": [17361, 369, 375, 285, 103], "actions": ["right", "right", "right", "down", "right"], "actionTimes": [18547, 19417, 20289, 21065, 21673], "queries": {"click": {"state": {"target": ["22", "21", "14", "20"], "time": [3210, 5501, 8138, 11699]}, "edge": {"target": [], "time": []}}, "mouseover": {"state": {"target": ["12", "13", "13", "22", "21", "20", "14", "19", "20", "14", "13", "14"], "time": [1606, 1671, 2073, 2958, 3538, 6425, 6558, 8545, 10118, 14225, 14521, 15543]}, "edge": {"target": [], "time": []}}, "mouseout": {"state": {"target": ["14", "13", "12", "12", "13", "13", "22", "21", "20", "14", "19", "20", "14", "13", "14"], "time": [453, 486, 503, 1640, 1806, 2205, 3454, 5824, 6475, 8494, 8594, 11949, 14458, 15510, 15560]}, "edge": {"target": [], "time": []}}}, "displayed_time": "22.17", "trialTime": 26889, "trial_type": "mouselab-mdp", "trial_index": 29, "time_elapsed": 1037922, "internal_node_id": "0.0-6.0-1.0-20.0"}}, {"uniqueid": "w37956666:a63870376", "current_trial": 30, "dateTime": 1693565874393, "trialdata": {"revealed_states": [], "clicked_states": [], "num_clicks_accrued": [0, 0, 0, 0, 0, 0, 0, 0, 0, 0, 0, 0, 0], "stateRewards": ["", 1, 1, 7, -11, 80, -20, -53, -14, 3, 31, 27, 2, -1, -8, -10, 33, 41, 86, 9, 78, -37, -13, -1, -2, -6, -8, -80, 75, 4, -16, -49, -74, 24], "withholdReward": false, "trial_id": "mdp_trial_22", "block": "test", "trialIndex": 23, "score": -1, "costs": 0, "simulationMode": [null, null, null, null, null], "rewards": [-1, -2, -6, -16, 24], "path": ["0", "0", "23", "24", "25", "30", "33"], "rt": [2369, 399, 246, 60, 123], "actions": ["left", "left", "left", "down", "left"], "actionTimes": [4239, 5142, 5894, 6461, 7086], "queries": {"click": {"state": {"target": [], "time": []}, "edge": {"target": [], "time": []}}, "mouseover": {"state": {"target": ["12", "13", "14"], "time": [3663, 3708, 3740]}, "edge": {"target": [], "time": []}}, "mouseout": {"state": {"target": ["18", "0", "12", "13", "14"], "time": [1072, 3645, 3692, 3725, 3756]}, "edge": {"target": [], "time": []}}}, "displayed_time": "15.87", "trialTime": 18526, "trial_type": "mouselab-mdp", "trial_index": 30, "time_elapsed": 1056746, "internal_node_id": "0.0-6.0-1.0-21.0"}}, {"uniqueid": "w37956666:a63870376", "current_trial": 31, "dateTime": 1693565892401, "trialdata": {"revealed_states": [], "clicked_states": [], "num_clicks_accrued": [0, 0, 0, 0, 0, 0, 0, 0, 0, 0, 0, 0, 0], "stateRewards": ["", -1, 2, 7, 8, 75, 67, -11, 6, 52, -17, 38, -1, 4, -8, 14, 74, -37, -17, -12, 52, 55, 71, -2, -1, -5, 2, 21, 6, -88, -14, 64, -61, -47], "withholdReward": false, "trial_id": "mdp_trial_23", "block": "test", "trialIndex": 24, "score": 52, "costs": 0, "simulationMode": [null, null, null, null, null], "rewards": [-1, 2, 7, 6, 38], "path": ["0", "0", "1", "2", "3", "8", "11"], "rt": [1451, 142, 230, 112, 42], "actions": ["up", "up", "up", "left", "left"], "actionTimes": [3139, 3786, 4506, 5122, 5657], "queries": {"click": {"state": {"target": [], "time": []}, "edge": {"target": [], "time": []}}, "mouseover": {"state": {"target": ["12", "13", "14"], "time": [1839, 1889, 1906]}, "edge": {"target": [], "time": []}}, "mouseout": {"state": {"target": ["14", "13", "12", "0", "12", "13", "14"], "time": [855, 905, 956, 1822, 1872, 1904, 1921]}, "edge": {"target": [], "time": []}}}, "displayed_time": "15.69", "trialTime": 17690, "trial_type": "mouselab-mdp", "trial_index": 31, "time_elapsed": 1074755, "internal_node_id": "0.0-6.0-1.0-22.0"}}, {"uniqueid": "w37956666:a63870376", "current_trial": 32, "dateTime": 1693565910441, "trialdata": {"revealed_states": [], "clicked_states": [], "num_clicks_accrued": [0, 0, 0, 0, 0, 0, 0, 0, 0, 0, 0, 0, 0], "stateRewards": ["", -2, -3, -7, 7, -54, -69, -4, -14, -77, 22, 40, -2, -1, 5, 6, -35, 50, -60, 10, -28, 75, 57, 1, -4, -2, 2, 68, 34, -18, 12, 3, -21, -43], "withholdReward": false, "trial_id": "mdp_trial_24", "block": "test", "trialIndex": 25, "score": -52, "costs": 0, "simulationMode": [null, null, null, null, null], "rewards": [-2, -1, 5, 6, -60], "path": ["0", "0", "12", "13", "14", "15", "18"], "rt": [1315, 28, 328, 110, 189], "actions": ["right", "right", "right", "up", "left"], "actionTimes": [2774, 3308, 4141, 4741, 5421], "queries": {"click": {"state": {"target": [], "time": []}, "edge": {"target": [], "time": []}}, "mouseover": {"state": {"target": ["12", "13"], "time": [1514, 1542]}, "edge": {"target": [], "time": []}}, "mouseout": {"state": {"target": ["13", "12", "12", "13"], "time": [794, 978, 1525, 1558]}, "edge": {"target": [], "time": []}}}, "displayed_time": "15.46", "trialTime": 17709, "trial_type": "mouselab-mdp", "trial_index": 32, "time_elapsed": 1092795, "internal_node_id": "0.0-6.0-1.0-23.0"}}, {"uniqueid": "w37956666:a63870376", "current_trial": 33, "dateTime": 1693565930121, "trialdata": {"revealed_states": [], "clicked_states": [], "num_clicks_accrued": [0, 0, 0, 0, 0, 0, 0, 0, 0, 0, 0, 0, 0], "stateRewards": ["", 1, 4, -4, 14, 35, 51, 19, -13, 54, 78, -74, -2, -1, -3, 13, -11, -42, -73, -15, -24, -3, -69, 2, -1, 5, 16, -27, 73, 58, 9, -60, 5, -60], "withholdReward": false, "trial_id": "mdp_trial_25", "block": "test", "trialIndex": 26, "score": -5, "costs": 0, "simulationMode": [null, null, null, null, null], "rewards": [2, -1, 5, 16, -27], "path": ["0", "0", "23", "24", "25", "26", "27"], "rt": [1134, 202, 227, 189, 484], "actions": ["left", "left", "left", "up", "up"], "actionTimes": [2556, 3259, 3987, 4683, 5659], "queries": {"click": {"state": {"target": [], "time": []}, "edge": {"target": [], "time": []}}, "mouseover": {"state": {"target": ["12", "13", "14"], "time": [1587, 1624, 1687]}, "edge": {"target": [], "time": []}}, "mouseout": {"state": {"target": ["12", "12", "13", "14"], "time": [636, 1620, 1670, 2019]}, "edge": {"target": [], "time": []}}}, "displayed_time": "15.43", "trialTime": 19356, "trial_type": "mouselab-mdp", "trial_index": 33, "time_elapsed": 1112475, "internal_node_id": "0.0-6.0-1.0-24.0"}}, {"uniqueid": "w37956666:a63870376", "current_trial": 34, "dateTime": 1693565947521, "trialdata": {"revealed_states": [], "clicked_states": [], "num_clicks_accrued": [0, 0, 0, 0, 0, 0, 0, 0, 0, 0, 0, 0, 0], "stateRewards": ["", 1, 2, 7, 13, 88, -71, 27, 3, 60, 5, -53, -2, 2, -6, -1, -30, 79, 47, -4, -14, 46, 68, 1, 1, 8, 10, -14, 86, 48, -11, -67, -44, 5], "withholdReward": false, "trial_id": "mdp_trial_26", "block": "test", "trialIndex": 27, "score": 58, "costs": 0, "simulationMode": [null, null, null, null, null], "rewards": [-2, 2, -6, -4, 68], "path": ["0", "0", "12", "13", "14", "19", "22"], "rt": [1564, 258, 155, 129, 29], "actions": ["right", "right", "right", "down", "left"], "actionTimes": [2813, 3573, 4220, 4844, 5380], "queries": {"click": {"state": {"target": [], "time": []}, "edge": {"target": [], "time": []}}, "mouseover": {"state": {"target": ["12"], "time": [1260]}, "edge": {"target": [], "time": []}}, "mouseout": {"state": {"target": ["17", "12", "12"], "time": [394, 678, 1275]}, "edge": {"target": [], "time": []}}}, "displayed_time": "15.25", "trialTime": 17069, "trial_type": "mouselab-mdp", "trial_index": 34, "time_elapsed": 1129875, "internal_node_id": "0.0-6.0-1.0-25.0"}}, {"uniqueid": "w37956666:a63870376", "current_trial": 35, "dateTime": 1693565964924, "trialdata": {"revealed_states": [], "clicked_states": [], "num_clicks_accrued": [0, 0, 0, 0, 0, 0, 0, 0, 0, 0, 0, 0, 0], "stateRewards": ["", 2, -4, -4, 13, -80, 62, 13, -11, 57, -13, -44, 1, 4, 3, -4, -29, -88, 15, 16, -58, 68, -45, -1, -3, -1, -9, -44, -86, -19, -7, -36, 59, 66], "withholdReward": false, "trial_id": "mdp_trial_27", "block": "test", "trialIndex": 28, "score": 20, "costs": 0, "simulationMode": [null, null, null, null, null], "rewards": [2, -4, -4, 13, 13], "path": ["0", "0", "1", "2", "3", "4", "7"], "rt": [908, 155, 278, 264, 305], "actions": ["up", "up", "up", "right", "down"], "actionTimes": [2143, 2821, 3598, 4365, 5174], "queries": {"click": {"state": {"target": [], "time": []}, "edge": {"target": [], "time": []}}, "mouseover": {"state": {"target": ["12", "13"], "time": [1327, 1383]}, "edge": {"target": [], "time": []}}, "mouseout": {"state": {"target": ["15", "18", "1", "12", "13"], "time": [463, 480, 510, 1361, 1401]}, "edge": {"target": [], "time": []}}}, "displayed_time": "15.24", "trialTime": 17048, "trial_type": "mouselab-mdp", "trial_index": 35, "time_elapsed": 1147277, "internal_node_id": "0.0-6.0-1.0-26.0"}}, {"uniqueid": "w37956666:a63870376", "current_trial": 36, "dateTime": 1693565982313, "trialdata": {"revealed_states": [], "clicked_states": [], "num_clicks_accrued": [0, 0, 0, 0, 0, 0, 0, 0, 0, 0, 0, 0, 0], "stateRewards": ["", 1, -4, 6, -3, 40, 76, -51, 5, -24, -63, 44, -2, -2, 8, 1, 76, -85, -58, 10, 59, 20, 11, -2, 3, -3, 3, -82, -10, 54, -7, -57, -6, -32], "withholdReward": false, "trial_id": "mdp_trial_28", "block": "test", "trialIndex": 29, "score": -51, "costs": 0, "simulationMode": [null, null, null, null, null], "rewards": [1, -4, 6, -3, -51], "path": ["0", "0", "1", "2", "3", "4", "7"], "rt": [1109, 112, 165, 201, 239], "actions": ["up", "up", "up", "right", "down"], "actionTimes": [2490, 3097, 3770, 4474, 5210], "queries": {"click": {"state": {"target": [], "time": []}, "edge": {"target": [], "time": []}}, "mouseover": {"state": {"target": ["15", "17"], "time": [1753, 1777]}, "edge": {"target": [], "time": []}}, "mouseout": {"state": {"target": ["17", "15", "18", "12", "0", "15", "17"], "time": [216, 266, 314, 416, 1653, 1771, 1800]}, "edge": {"target": [], "time": []}}}, "displayed_time": "15.38", "trialTime": 17066, "trial_type": "mouselab-mdp", "trial_index": 36, "time_elapsed": 1164667, "internal_node_id": "0.0-6.0-1.0-27.0"}}, {"uniqueid": "w37956666:a63870376", "current_trial": 37, "dateTime": 1693566000001, "trialdata": {"revealed_states": [], "clicked_states": [], "num_clicks_accrued": [0, 0, 0, 0, 0, 0, 0, 0, 0, 0, 0, 0, 0], "stateRewards": ["", 1, -4, -6, -1, -21, 17, -72, 10, 77, 67, -46, -1, 4, -2, 14, -66, -49, -45, -15, -52, 23, -67, 2, -2, -2, 15, -3, 45, -64, 5, -44, 83, 61], "withholdReward": false, "trial_id": "mdp_trial_29", "block": "test", "trialIndex": 30, "score": -82, "costs": 0, "simulationMode": [null, null, null, null, null], "rewards": [1, -4, -6, -1, -72], "path": ["0", "0", "1", "2", "3", "4", "7"], "rt": [719, 121, 260, 259, 321], "actions": ["up", "up", "up", "right", "down"], "actionTimes": [2245, 2860, 3621, 4389, 5213], "queries": {"click": {"state": {"target": [], "time": []}, "edge": {"target": [], "time": []}}, "mouseover": {"state": {"target": ["12"], "time": [1601]}, "edge": {"target": [], "time": []}}, "mouseout": {"state": {"target": ["18", "0", "12"], "time": [670, 1171, 1634]}, "edge": {"target": [], "time": []}}}, "displayed_time": "15.53", "trialTime": 17348, "trial_type": "mouselab-mdp", "trial_index": 37, "time_elapsed": 1182354, "internal_node_id": "0.0-6.0-1.0-28.0"}}, {"uniqueid": "w37956666:a63870376", "current_trial": 38, "dateTime": 1693566021145, "trialdata": {"revealed_states": [], "clicked_states": [], "num_clicks_accrued": [0, 0, 0, 0, 0, 0, 0, 0, 0, 0, 0, 0, 0], "stateRewards": ["", -1, -4, -1, -11, 43, 69, 39, 4, 17, -20, -82, -2, -1, 4, 8, -79, 24, -79, 11, 36, 64, 41, 2, 4, -1, 11, -79, -47, 75, -3, 63, -36, -19], "withholdReward": false, "trial_id": "mdp_trial_30", "block": "test", "trialIndex": 31, "score": -84, "costs": 0, "simulationMode": [null, null, null, null, null], "rewards": [-1, -4, -1, 4, -82], "path": ["0", "0", "1", "2", "3", "8", "11"], "rt": [659, 122, 202, 141, 83], "actions": ["up", "up", "up", "left", "left"], "actionTimes": [2058, 2681, 3393, 4033, 4609], "queries": {"click": {"state": {"target": [], "time": []}, "edge": {"target": [], "time": []}}, "mouseover": {"state": {"target": ["12", "13"], "time": [1409, 1452]}, "edge": {"target": [], "time": []}}, "mouseout": {"state": {"target": ["13", "0", "12", "13"], "time": [538, 1022, 1450, 1458]}, "edge": {"target": [], "time": []}}}, "displayed_time": "15.40", "trialTime": 20770, "trial_type": "mouselab-mdp", "trial_index": 38, "time_elapsed": 1203499, "internal_node_id": "0.0-6.0-1.0-29.0"}}, {"uniqueid": "w37956666:a63870376", "current_trial": 39, "dateTime": 1693566038697, "trialdata": {"revealed_states": [], "clicked_states": [], "num_clicks_accrued": [0, 0, 0, 0, 0, 0, 0, 0, 0, 0, 0, 0, 0], "stateRewards": ["", -1, -4, 8, 8, -68, 47, 24, -7, -61, 49, -69, -1, -1, 8, -7, 42, 1, -45, -11, 10, -63, -6, 1, 4, 6, -16, 79, -37, -58, -12, 81, 18, -53], "withholdReward": false, "trial_id": "mdp_trial_31", "block": "test", "trialIndex": 32, "score": 17, "costs": 0, "simulationMode": [null, null, null, null, null], "rewards": [1, 4, 6, -12, 18], "path": ["0", "0", "23", "24", "25", "30", "32"], "rt": [559, 648, 191, 181, 240], "actions": ["left", "left", "left", "down", "down"], "actionTimes": [2332, 3483, 4179, 4851, 5595], "queries": {"click": {"state": {"target": [], "time": []}, "edge": {"target": [], "time": []}}, "mouseover": {"state": {"target": ["12", "13", "14"], "time": [1803, 1833, 1865]}, "edge": {"target": [], "time": []}}, "mouseout": {"state": {"target": ["14", "13", "12", "0", "12", "13", "14"], "time": [466, 499, 566, 966, 1831, 1848, 1882]}, "edge": {"target": [], "time": []}}}, "displayed_time": "15.78", "trialTime": 17235, "trial_type": "mouselab-mdp", "trial_index": 39, "time_elapsed": 1221050, "internal_node_id": "0.0-6.0-1.0-30.0"}}, {"uniqueid": "w37956666:a63870376", "current_trial": 40, "dateTime": 1693566055505, "trialdata": {"revealed_states": [], "clicked_states": [], "num_clicks_accrued": [0, 0, 0, 0, 0, 0, 0, 0, 0, 0, 0, 0, 0], "stateRewards": ["", 1, -3, -4, -11, -56, 61, -47, -16, -28, -9, 69, -2, -3, -4, -8, 40, -86, 59, -4, 80, 27, 54, -1, 3, -1, 8, 67, 23, 50, 6, 83, -43, -29], "withholdReward": false, "trial_id": "mdp_trial_32", "block": "test", "trialIndex": 33, "score": 32, "costs": 0, "simulationMode": [null, null, null, null, null], "rewards": [-1, 3, -1, 8, 23], "path": ["0", "0", "23", "24", "25", "26", "28"], "rt": [859, 189, 144, 193, 160], "actions": ["left", "left", "left", "up", "right"], "actionTimes": [1853, 2540, 3180, 3883, 4547], "queries": {"click": {"state": {"target": [], "time": []}, "edge": {"target": [], "time": []}}, "mouseover": {"state": {"target": ["14"], "time": [1015]}, "edge": {"target": [], "time": []}}, "mouseout": {"state": {"target": ["12", "0", "14"], "time": [398, 1006, 1043]}, "edge": {"target": [], "time": []}}}, "displayed_time": "14.99", "trialTime": 16469, "trial_type": "mouselab-mdp", "trial_index": 40, "time_elapsed": 1237859, "internal_node_id": "0.0-6.0-1.0-31.0"}}, {"uniqueid": "w37956666:a63870376", "current_trial": 41, "dateTime": 1693566072345, "trialdata": {"revealed_states": [], "clicked_states": [], "num_clicks_accrued": [0, 0, 0, 0, 0, 0, 0, 0, 0, 0, 0, 0, 0], "stateRewards": ["", -2, -3, 8, -4, -30, 31, 69, 9, 66, 87, 64, -2, 2, 8, 5, 47, 16, -39, -8, -54, 51, -19, 1, -2, -2, -11, -25, -26, 43, -9, 19, -84, 86], "withholdReward": false, "trial_id": "mdp_trial_33", "block": "test", "trialIndex": 34, "score": 60, "costs": 0, "simulationMode": [null, null, null, null, null], "rewards": [-2, 2, 8, 5, 47], "path": ["0", "0", "12", "13", "14", "15", "16"], "rt": [1050, 181, 211, 195, 162], "actions": ["right", "right", "right", "up", "up"], "actionTimes": [2152, 2832, 3544, 4248, 4912], "queries": {"click": {"state": {"target": [], "time": []}, "edge": {"target": [], "time": []}}, "mouseover": {"state": {"target": ["12", "13", "14"], "time": [1112, 1159, 1194]}, "edge": {"target": [], "time": []}}, "mouseout": {"state": {"target": ["16", "18", "12", "12", "13", "14"], "time": [345, 412, 612, 1149, 1192, 1209]}, "edge": {"target": [], "time": []}}}, "displayed_time": "15.10", "trialTime": 16496, "trial_type": "mouselab-mdp", "trial_index": 41, "time_elapsed": 1254699, "internal_node_id": "0.0-6.0-1.0-32.0"}}, {"uniqueid": "w37956666:a63870376", "current_trial": 42, "dateTime": 1693566090002, "trialdata": {"revealed_states": [], "clicked_states": [], "num_clicks_accrued": [0, 0, 0, 0, 0, 0, 0, 0, 0, 0, 0, 0, 0], "stateRewards": ["", -2, -4, -2, 10, -8, -15, -47, 7, -84, 53, 5, -1, 2, -7, 3, 83, 31, 47, -1, 30, -8, 69, 2, -4, -1, 8, -7, 12, -8, -8, -13, 30, -84], "withholdReward": false, "trial_id": "mdp_trial_34", "block": "test", "trialIndex": 35, "score": -15, "costs": 0, "simulationMode": [null, null, null, null, null], "rewards": [-1, 2, -7, -1, -8], "path": ["0", "0", "12", "13", "14", "19", "21"], "rt": [797, 638, 208, 232, 130], "actions": ["right", "right", "right", "down", "down"], "actionTimes": [2176, 3320, 4024, 4752, 5384], "queries": {"click": {"state": {"target": [], "time": []}, "edge": {"target": [], "time": []}}, "mouseover": {"state": {"target": ["12", "13"], "time": [1444, 1494]}, "edge": {"target": [], "time": []}}, "mouseout": {"state": {"target": ["14", "12", "0", "12", "13"], "time": [396, 429, 1426, 1477, 1511]}, "edge": {"target": [], "time": []}}}, "displayed_time": "15.38", "trialTime": 17312, "trial_type": "mouselab-mdp", "trial_index": 42, "time_elapsed": 1272355, "internal_node_id": "0.0-6.0-1.0-33.0"}}, {"uniqueid": "w37956666:a63870376", "current_trial": 43, "dateTime": 1693566107353, "trialdata": {"revealed_states": [], "clicked_states": [], "num_clicks_accrued": [0, 0, 0, 0, 0, 0, 0, 0, 0, 0, 0, 0, 0], "stateRewards": ["", -2, -2, -7, -13, -10, 49, -68, -1, 84, 70, 88, 1, 4, 4, 12, -57, 25, 30, 8, -1, -77, 57, 2, 3, 2, 3, -18, -80, 23, -15, -41, 70, 11], "withholdReward": false, "trial_id": "mdp_trial_35", "block": "test", "trialIndex": 36, "score": 51, "costs": 0, "simulationMode": [null, null, null, null, null], "rewards": [1, 4, 4, 12, 30], "path": ["0", "0", "12", "13", "14", "15", "18"], "rt": [1514, 4, 97, 615, 290], "actions": ["right", "right", "right", "up", "left"], "actionTimes": [3072, 3581, 4191, 5312, 6104], "queries": {"click": {"state": {"target": [], "time": []}, "edge": {"target": [], "time": []}}, "mouseover": {"state": {"target": ["12", "13", "14"], "time": [1608, 1692, 1827]}, "edge": {"target": [], "time": []}}, "mouseout": {"state": {"target": ["14", "13", "12", "0", "12", "13", "14"], "time": [774, 805, 821, 990, 1658, 1741, 1878]}, "edge": {"target": [], "time": []}}}, "displayed_time": "15.56", "trialTime": 17016, "trial_type": "mouselab-mdp", "trial_index": 43, "time_elapsed": 1289707, "internal_node_id": "0.0-6.0-1.0-34.0"}}, {"uniqueid": "w37956666:a63870376", "current_trial": 44, "dateTime": 1693566124082, "trialdata": {"revealed_states": [], "clicked_states": [], "num_clicks_accrued": [0, 0, 0, 0, 0, 0, 0, 0, 0, 0, 0, 0, 0], "stateRewards": ["", 2, -4, 4, 9, 69, 9, -75, 12, -86, 66, 25, -1, 3, 2, -13, -88, -3, 1, 4, -69, 49, -84, 2, -1, 4, 2, -18, -81, -52, -15, -69, -54, 25], "withholdReward": false, "trial_id": "mdp_trial_36", "block": "test", "trialIndex": 37, "score": 20, "costs": 0, "simulationMode": [null, null, null, null, null], "rewards": [2, -4, 4, 9, 9], "path": ["0", "0", "1", "2", "3", "4", "6"], "rt": [493, 53, 215, 32, 146], "actions": ["up", "up", "up", "right", "right"], "actionTimes": [1404, 1963, 2692, 3227, 3876], "queries": {"click": {"state": {"target": [], "time": []}, "edge": {"target": [], "time": []}}, "mouseover": {"state": {"target": ["0", "12", "13", "14"], "time": [928, 935, 974, 1007]}, "edge": {"target": [], "time": []}}, "mouseout": {"state": {"target": ["0", "12", "13", "14", "17"], "time": [933, 973, 981, 4462, 4965]}, "edge": {"target": [], "time": []}}}, "displayed_time": "14.91", "trialTime": 16388, "trial_type": "mouselab-mdp", "trial_index": 44, "time_elapsed": 1306435, "internal_node_id": "0.0-6.0-1.0-35.0"}}, {"uniqueid": "w37956666:a63870376", "current_trial": 45, "dateTime": 1693566141618, "trialdata": {"revealed_states": [], "clicked_states": [], "num_clicks_accrued": [0, 0, 0, 0, 0, 0, 0, 0, 0, 0, 0, 0, 0], "stateRewards": ["", -1, 4, -8, 12, 14, 69, -8, 5, -72, -14, 56, -1, -1, -1, 9, 67, 19, 11, -9, -88, -58, 3, 2, -4, -8, 4, 62, 77, -74, 5, -31, 65, 88], "withholdReward": false, "trial_id": "mdp_trial_37", "block": "test", "trialIndex": 38, "score": -72, "costs": 0, "simulationMode": [null, null, null, null, null], "rewards": [-1, 4, -8, 5, -72], "path": ["0", "0", "1", "2", "3", "8", "9"], "rt": [771, 172, 173, 119, 192], "actions": ["up", "up", "up", "left", "up"], "actionTimes": [2323, 3003, 3667, 4283, 4971], "queries": {"click": {"state": {"target": [], "time": []}, "edge": {"target": [], "time": []}}, "mouseover": {"state": {"target": ["13", "14"], "time": [1576, 1614]}, "edge": {"target": [], "time": []}}, "mouseout": {"state": {"target": ["15", "18", "0", "13", "14"], "time": [523, 690, 1574, 1612, 1638]}, "edge": {"target": [], "time": []}}}, "displayed_time": "15.55", "trialTime": 17163, "trial_type": "mouselab-mdp", "trial_index": 45, "time_elapsed": 1323971, "internal_node_id": "0.0-6.0-1.0-36.0"}}, {"uniqueid": "w37956666:a63870376", "current_trial": 46, "dateTime": 1693566159513, "trialdata": {"revealed_states": [], "clicked_states": [], "num_clicks_accrued": [0, 0, 0, 0, 0, 0, 0, 0, 0, 0, 0, 0, 0], "stateRewards": ["", 1, 2, 2, -15, -84, 28, -26, 13, 31, 86, 30, -2, 1, -1, -8, 66, -40, -1, -10, -32, 57, -17, 1, 2, -2, 9, -23, 77, 85, 12, -32, -62, -35], "withholdReward": false, "trial_id": "mdp_trial_38", "block": "test", "trialIndex": 39, "score": -94, "costs": 0, "simulationMode": [null, null, null, null, null], "rewards": [1, 2, 2, -15, -84], "path": ["0", "0", "1", "2", "3", "4", "5"], "rt": [768, 398, 320, 159, 202], "actions": ["up", "up", "up", "right", "up"], "actionTimes": [2292, 3195, 4019, 4675, 5371], "queries": {"click": {"state": {"target": [], "time": []}, "edge": {"target": [], "time": []}}, "mouseover": {"state": {"target": ["14"], "time": [1538]}, "edge": {"target": [], "time": []}}, "mouseout": {"state": {"target": ["23", "0", "14"], "time": [808, 1536, 1543]}, "edge": {"target": [], "time": []}}}, "displayed_time": "15.53", "trialTime": 17539, "trial_type": "mouselab-mdp", "trial_index": 46, "time_elapsed": 1341867, "internal_node_id": "0.0-6.0-1.0-37.0"}}, {"uniqueid": "w37956666:a63870376", "current_trial": 47, "dateTime": 1693566177802, "trialdata": {"revealed_states": [], "clicked_states": [], "num_clicks_accrued": [0, 0, 0, 0, 0, 0, 0, 0, 0, 0, 0, 0, 0], "stateRewards": ["", -1, -1, 7, -15, -43, -21, -84, -9, -45, -66, 2, 1, -2, 2, 8, -27, 44, -52, -5, -84, 11, 53, 1, 4, -4, 16, 83, -82, -15, -16, 68, -43, 81], "withholdReward": false, "trial_id": "mdp_trial_39", "block": "test", "trialIndex": 40, "score": -88, "costs": 0, "simulationMode": [null, null, null, null, null], "rewards": [1, -2, 2, -5, -84], "path": ["0", "0", "12", "13", "14", "19", "20"], "rt": [927, 374, 289, 176, 199], "actions": ["right", "right", "right", "down", "right"], "actionTimes": [2717, 3596, 4380, 5052, 5740], "queries": {"click": {"state": {"target": [], "time": []}, "edge": {"target": [], "time": []}}, "mouseover": {"state": {"target": ["19"], "time": [1989]}, "edge": {"target": [], "time": []}}, "mouseout": {"state": {"target": ["12", "0", "19"], "time": [1102, 1883, 2406]}, "edge": {"target": [], "time": []}}}, "displayed_time": "15.79", "trialTime": 17908, "trial_type": "mouselab-mdp", "trial_index": 47, "time_elapsed": 1360155, "internal_node_id": "0.0-6.0-1.0-38.0"}}, {"uniqueid": "w37956666:a63870376", "current_trial": 48, "dateTime": 1693566195513, "trialdata": {"revealed_states": [], "clicked_states": [], "num_clicks_accrued": [0, 0, 0, 0, 0, 0, 0, 0, 0, 0, 0, 0, 0], "stateRewards": ["", -2, -3, -6, -7, 9, 16, 65, 5, -41, 20, -25, -1, -4, 1, -11, -49, -4, 71, 1, 39, -62, 52, -2, -3, 7, -9, -28, -70, 84, 8, 24, -58, 82], "withholdReward": false, "trial_id": "mdp_trial_40", "block": "test", "trialIndex": 41, "score": 49, "costs": 0, "simulationMode": [null, null, null, null, null], "rewards": [-1, -4, 1, 1, 52], "path": ["0", "0", "12", "13", "14", "19", "22"], "rt": [689, 438, 197, 114, 181], "actions": ["right", "right", "right", "down", "left"], "actionTimes": [2459, 3399, 4095, 4711, 5399], "queries": {"click": {"state": {"target": [], "time": []}, "edge": {"target": [], "time": []}}, "mouseover": {"state": {"target": ["13"], "time": [1789]}, "edge": {"target": [], "time": []}}, "mouseout": {"state": {"target": ["14", "13", "12", "0", "23", "0", "13"], "time": [743, 761, 780, 794, 1127, 1786, 1805]}, "edge": {"target": [], "time": []}}}, "displayed_time": "15.77", "trialTime": 17352, "trial_type": "mouselab-mdp", "trial_index": 48, "time_elapsed": 1377867, "internal_node_id": "0.0-6.0-1.0-39.0"}}, {"uniqueid": "w37956666:a63870376", "current_trial": 49, "dateTime": 1693566343709, "trialdata": {"rt": 148185, "response": {"Q0": "$-2 to $2", "Q1": "$-32 to $32", "Q2": "$-88 to $88", "Q3": "The cost was always $1.4.", "Q4": "Slightly motivated"}, "question_order": [0, 1, 2, 3, 4], "trial_id": "final_quiz_control", "trial_type": "survey-multi-choice", "trial_index": 49, "time_elapsed": 1526064, "internal_node_id": "0.0-6.0-2.0"}}, {"uniqueid": "w37956666:a63870376", "current_trial": 50, "dateTime": 1693566690293, "trialdata": {"rt": 346577, "response": {"Q0": "the strategy i used was change the direction to try and get the highest score.", "Q1": "yes i had used the node inspector.", "Q2": "it was quite difficult to know where the best place to move the spider was for the higher score."}, "trial_id": "self_report_control", "trial_type": "survey-text", "trial_index": 50, "time_elapsed": 1872648, "internal_node_id": "0.0-6.0-3.0"}}, {"uniqueid": "w37956666:a63870376", "current_trial": 51, "dateTime": 1693566723693, "trialdata": {"rt": 33397, "response": {"gender": "female", "age": "27", "colorblind": "0", "effort": "0"}, "trial_type": "survey-html-form", "trial_index": 51, "time_elapsed": 1906048, "internal_node_id": "0.0-6.0-4.0"}}, {"uniqueid": "w37956666:a63870376", "current_trial": 52, "dateTime": 1693566747548, "trialdata": {"rt": 23852, "response": {"Q0": "no", "Q1": "no", "Q2": ""}, "trial_type": "survey-text", "trial_index": 52, "time_elapsed": 1929903, "internal_node_id": "0.0-6.0-5.0"}}, {"uniqueid": "w37956666:a63870376", "current_trial": 53, "dateTime": 1693566812270, "trialdata": {"rt": 64717, "stimulus": "<h1>Completion Code Instructions (1/2)</h1>\n<br><br><br><br>\nYou have reached the end of the experiment! The completion code consists of two parts: (1) a code with 2 characters (2) a code with 6 characters. On this page, you will receive the second part of the code. The first part of the completion code will be on the next page.\n<br><br>\nThe second part of your completion code is: <b>EWEK22</b>\n<br><br>\nPlease note this down. Then, press 'Finish HIT' in order to find the first part of your completion code. Once the data has been saved, you will receive this code either in this window or in the original browser window where you started the experiment.\n", "response": 0, "trial_type": "html-button-response", "trial_index": 53, "time_elapsed": 1994625, "internal_node_id": "0.0-6.0-6.0"}}, {"uniqueid": "w37956666:a63870376", "current_trial": 54, "dateTime": 1693566813290, "trialdata": {"success": true, "trial_type": "fullscreen", "trial_index": 54, "time_elapsed": 1995645, "internal_node_id": "0.0-7.0"}}], "questiondata": {"params": {"CODE": "C6DMOQA6", "MIN_TIME": 14, "inspectCost": 1, "startTime": "Fri Sep 01 2023 11:40:16 GMT+0100 (British Summer Time)", "bonusRate": 0.002, "variance": "1_2_4_8_44", "branching": "31123"}, "final_score": 268.4}, "eventdata": [{"eventtype": "initialized", "value": null, "timestamp": 1693564815867, "interval": 0}, {"eventtype": "window_resize", "value": [1024, 654], "timestamp": 1693564815867, "interval": 0}, {"eventtype": "window_resize", "value": [1024, 654], "timestamp": 1693564816223, "interval": 356}, {"eventtype": "window_resize", "value": [1360, 670], "timestamp": 1693564820877, "interval": 4654}, {"eventtype": "window_resize", "value": [1360, 768], "timestamp": 1693564828892, "interval": 8015}, {"eventtype": "window_resize", "value": [1360, 670], "timestamp": 1693566812511, "interval": 1983619}], "useragent": "Mozilla/5.0 (Windows NT 10.0; Win64; x64) AppleWebKit/537.36 (KHTML, like Gecko) Chrome/116.0.0.0 Safari/537.36", "mode": "live", "id": "w37956666:a63870376", "status": "user data saved", "Beginhit": "2023-09-01 10:40:14.345919", "Beginexp": "2023-09-01 10:40:29.888506", "Endhit": "2023-09-01 11:13:34.315187", "psiturkStatus": 3, "browser": "<redacted>", "platform": "windows", "language": "en-GB"}