{"condition": 0, "counterbalance": 0, "assignmentId": "a65558758", "workerId": "w43101644", "hitId": "h14822779", "currenttrial": 67, "bonus": 0, "data": [{"uniqueid": "w43101644:a65558758", "current_trial": 0, "dateTime": 1693564903088, "trialdata": {"success": true, "trial_type": "fullscreen", "trial_index": 0, "time_elapsed": 13458, "internal_node_id": "0.0-0.0"}}, {"uniqueid": "w43101644:a65558758", "current_trial": 1, "dateTime": 1693564927682, "trialdata": {"view_history": [{"page_index": 0, "viewing_time": 24582}], "rt": 24583, "trial_id": "exp_instructions_control", "trial_type": "instructions", "trial_index": 1, "time_elapsed": 38051, "internal_node_id": "0.0-1.0"}}, {"uniqueid": "w43101644:a65558758", "current_trial": 2, "dateTime": 1693565223832, "trialdata": {"view_history": [{"page_index": 0, "viewing_time": 62847}, {"page_index": 1, "viewing_time": 166348}, {"page_index": 2, "viewing_time": 28021}, {"page_index": 3, "viewing_time": 38918}], "rt": 296134, "trial_id": "mouselab_instructions_1_control", "trial_type": "instructions", "trial_index": 2, "time_elapsed": 334202, "internal_node_id": "0.0-2.0-1.0"}}, {"uniqueid": "w43101644:a65558758", "current_trial": 3, "dateTime": 1693565347431, "trialdata": {"revealed_states": [], "clicked_states": ["23", "12", "13", "1", "24", "25", "26", "28", "29", "27", "2", "3", "4", "5", "7", "14", "15", "16", "19", "22", "20", "21"], "num_clicks_accrued": [0, 0, 0, 0, 0, 0, 0, 0, 0, 0, 0, 0, 0], "stateRewards": ["", -10, 10, 10, -10, 10, -10, 10, -10, -10, 10, 10, -10, -10, 10, -10, 10, -10, 10, 10, -10, -10, 10, -10, 10, -10, -10, 10, 10, -10, -10, 10, -10, 10], "withholdReward": false, "trial_id": "practice_1", "block": "test", "trialIndex": 0, "score": -17.5, "costs": -11, "simulationMode": [null, null, null, null, null], "rewards": [-10, -10, 10, 10, -10], "path": ["0", "0", "12", "13", "14", "19", "21"], "rt": [106251, 1485, 583, 2305, 724], "actions": ["right", "right", "right", "down", "down"], "actionTimes": [109666, 111679, 112775, 115626, 116897], "queries": {"click": {"state": {"target": ["23", "12", "13", "1", "24", "25", "26", "28", "29", "27", "2", "3", "4", "5", "7", "14", "15", "16", "19", "22", "20", "21"], "time": [8789, 13565, 16043, 19428, 23718, 25426, 29313, 30785, 32457, 34346, 38949, 42170, 44543, 47975, 49583, 54147, 56604, 58017, 59545, 62100, 63429, 72955]}, "edge": {"target": [], "time": []}}, "mouseover": {"state": {"target": ["23", "24", "24", "12", "13", "14", "14", "1", "1", "23", "24", "25", "26", "28", "29", "27", "0", "13", "2", "2", "3", "4", "6", "5", "5", "4", "7", "0", "14", "15", "16", "19", "19", "21", "22", "20", "20", "19", "22", "21", "21", "17", "13", "0"], "time": [8111, 9958, 11691, 13094, 15660, 16987, 17356, 18620, 18953, 21991, 23003, 25079, 28395, 30398, 31570, 33944, 36164, 36277, 36700, 38504, 41773, 43330, 45155, 47108, 47598, 48820, 49480, 51571, 53820, 55731, 57682, 58849, 59390, 60025, 61504, 62418, 63050, 68117, 69367, 71321, 71988, 84727, 85327, 90663]}, "edge": {"target": [], "time": []}}, "mouseout": {"state": {"target": ["0", "0", "23", "24", "23", "23", "24", "23", "12", "13", "14", "14", "1", "1", "1", "23", "24", "25", "25", "26", "28", "26", "29", "27", "0", "13", "2", "2", "3", "4", "6", "4", "5", "5", "4", "7", "7", "0", "14", "15", "16", "15", "19", "19", "21", "22", "20", "20", "19", "22", "21", "21", "17", "13", "0"], "time": [1155, 7894, 9448, 10277, 10415, 11307, 12292, 12395, 15081, 16933, 17115, 18169, 18690, 20889, 21891, 22794, 24638, 26735, 27531, 30126, 31425, 31564, 33162, 35629, 36223, 36571, 37169, 39158, 43275, 45062, 46465, 47047, 47159, 48360, 48919, 49766, 50381, 52875, 55550, 56765, 58305, 58395, 59098, 59893, 61157, 62371, 62467, 64252, 68201, 71203, 71413, 77497, 84784, 85743, 95932]}, "edge": {"target": [], "time": []}}}, "displayed_time": "117.44", "trialTime": 121893, "trial_type": "mouselab-mdp", "trial_index": 3, "time_elapsed": 457798, "internal_node_id": "0.0-2.0-2.0-0.0"}}, {"uniqueid": "w43101644:a65558758", "current_trial": 4, "dateTime": 1693565389648, "trialdata": {"revealed_states": [], "clicked_states": [], "num_clicks_accrued": [0, 0, 0, 0, 0, 0, 0, 0, 0, 0, 0, 0, 0], "stateRewards": ["", -10, 10, -10, -10, -10, -10, -10, -10, -10, 10, 10, 10, 10, 10, -10, -10, -10, 10, -10, -10, -10, -10, -10, 10, 10, 10, -10, 10, 10, 10, -10, 10, -10], "withholdReward": false, "trial_id": "practice_2", "block": "test", "trialIndex": 1, "score": 13.5, "costs": 0, "simulationMode": [null, null, null, null, null], "rewards": [-10, 10, 10, 10, -10], "path": ["0", "0", "23", "24", "25", "26", "27"], "rt": [3937, 736, 1013, 3528, 380], "actions": ["left", "left", "left", "up", "up"], "actionTimes": [18878, 20153, 21703, 25767, 26704], "queries": {"click": {"state": {"target": [], "time": []}, "edge": {"target": [], "time": []}}, "mouseover": {"state": {"target": [], "time": []}, "edge": {"target": [], "time": []}}, "mouseout": {"state": {"target": ["21", "0"], "time": [12408, 13294]}, "edge": {"target": [], "time": []}}}, "displayed_time": "27.25", "trialTime": 40982, "trial_type": "mouselab-mdp", "trial_index": 4, "time_elapsed": 500016, "internal_node_id": "0.0-2.0-2.0-1.0"}}, {"uniqueid": "w43101644:a65558758", "current_trial": 5, "dateTime": 1693565436645, "trialdata": {"view_history": [{"page_index": 0, "viewing_time": 35203}, {"page_index": 1, "viewing_time": 11780}], "rt": 46984, "trial_id": "mouselab_instructions_2_control", "trial_type": "instructions", "trial_index": 5, "time_elapsed": 547015, "internal_node_id": "0.0-2.0-3.0"}}, {"uniqueid": "w43101644:a65558758", "current_trial": 6, "dateTime": 1693565519858, "trialdata": {"rt": 83204, "response": {"Q0": "There is no cost for clicking on nodes.", "Q1": "The better I perform the higher my bonus will be.", "Q2": "No, the structure of the web will be different each time.", "Q3": "To finish the game in the shortest amount of time.", "Q4": "Only before moving the spider.", "Q5": "3 seconds"}, "question_order": [0, 1, 2, 3, 4, 5], "correct": {"Q0": "The cost for clicking on nodes may vary between nodes.", "Q1": "The better I perform the higher my bonus will be.", "Q2": "No, the amount of cash at each node of the web may be different each time.", "Q3": "To get the highest total score.", "Q4": "Only before moving the spider.", "Q5": "3 seconds"}, "trial_id": "mouselab_quiz_control", "trial_type": "survey-multi-choice", "trial_index": 6, "time_elapsed": 630228, "internal_node_id": "0.0-2.0-4.0"}}, {"uniqueid": "w43101644:a65558758", "current_trial": 7, "dateTime": 1693565534007, "trialdata": {"success": true, "trial_type": "fullscreen", "trial_index": 7, "time_elapsed": 644377, "internal_node_id": "0.0-2.1-0.1-0.1"}}, {"uniqueid": "w43101644:a65558758", "current_trial": 8, "dateTime": 1693565635334, "trialdata": {"view_history": [{"page_index": 0, "viewing_time": 56536}, {"page_index": 1, "viewing_time": 13442}, {"page_index": 2, "viewing_time": 14894}, {"page_index": 3, "viewing_time": 16442}], "rt": 101315, "trial_id": "mouselab_instructions_1_control", "trial_type": "instructions", "trial_index": 8, "time_elapsed": 745704, "internal_node_id": "0.0-2.1-1.1"}}, {"uniqueid": "w43101644:a65558758", "current_trial": 9, "dateTime": 1693565656079, "trialdata": {"revealed_states": [], "clicked_states": [], "num_clicks_accrued": [0, 0, 0, 0, 0, 0, 0, 0, 0, 0, 0, 0, 0], "stateRewards": ["", -10, 10, 10, -10, 10, -10, 10, -10, -10, 10, 10, -10, -10, 10, -10, 10, -10, 10, 10, -10, -10, 10, -10, 10, -10, -10, 10, 10, -10, -10, 10, -10, 10], "withholdReward": false, "trial_id": "practice_1", "block": "test", "trialIndex": 2, "score": -6.5, "costs": 0, "simulationMode": [null, null, null, null, null], "rewards": [-10, -10, 10, -10, 10], "path": ["0", "0", "12", "13", "14", "15", "16"], "rt": [3160, 244, 425, 2348, 532], "actions": ["right", "right", "right", "up", "up"], "actionTimes": [6774, 7528, 8480, 11358, 12410], "queries": {"click": {"state": {"target": [], "time": []}, "edge": {"target": [], "time": []}}, "mouseover": {"state": {"target": [], "time": []}, "edge": {"target": [], "time": []}}, "mouseout": {"state": {"target": ["0"], "time": [2348]}, "edge": {"target": [], "time": []}}}, "displayed_time": "12.93", "trialTime": 19638, "trial_type": "mouselab-mdp", "trial_index": 9, "time_elapsed": 766447, "internal_node_id": "0.0-2.1-2.1-0.1"}}, {"uniqueid": "w43101644:a65558758", "current_trial": 10, "dateTime": 1693565692231, "trialdata": {"revealed_states": [], "clicked_states": [], "num_clicks_accrued": [0, 0, 0, 0, 0, 0, 0, 0, 0, 0, 0, 0, 0], "stateRewards": ["", -10, 10, -10, -10, -10, -10, -10, -10, -10, 10, 10, 10, 10, 10, -10, -10, -10, 10, -10, -10, -10, -10, -10, 10, 10, 10, -10, 10, 10, 10, -10, 10, -10], "withholdReward": false, "trial_id": "practice_2", "block": "test", "trialIndex": 3, "score": 13.5, "costs": 0, "simulationMode": [null, null, null, null, null], "rewards": [10, 10, 10, -10, -10], "path": ["0", "0", "12", "13", "14", "15", "16"], "rt": [3817, 362, 183, 1327, 472], "actions": ["right", "right", "right", "up", "up"], "actionTimes": [10224, 11122, 11835, 13700, 14682], "queries": {"click": {"state": {"target": [], "time": []}, "edge": {"target": [], "time": []}}, "mouseover": {"state": {"target": [], "time": []}, "edge": {"target": [], "time": []}}, "mouseout": {"state": {"target": ["0"], "time": [5566]}, "edge": {"target": [], "time": []}}}, "displayed_time": "15.20", "trialTime": 34863, "trial_type": "mouselab-mdp", "trial_index": 10, "time_elapsed": 802599, "internal_node_id": "0.0-2.1-2.1-1.1"}}, {"uniqueid": "w43101644:a65558758", "current_trial": 11, "dateTime": 1693565799714, "trialdata": {"view_history": [{"page_index": 0, "viewing_time": 102478}, {"page_index": 1, "viewing_time": 4992}], "rt": 107471, "trial_id": "mouselab_instructions_2_control", "trial_type": "instructions", "trial_index": 11, "time_elapsed": 910084, "internal_node_id": "0.0-2.1-3.1"}}, {"uniqueid": "w43101644:a65558758", "current_trial": 12, "dateTime": 1693565944070, "trialdata": {"rt": 144349, "response": {"Q0": "The cost for clicking on nodes may vary between nodes.", "Q1": "The better I perform the higher my bonus will be.", "Q2": "No, the structure of the web will be different each time.", "Q3": "To get the highest total score.", "Q4": "Only before moving the spider.", "Q5": "3 seconds"}, "question_order": [0, 1, 2, 3, 4, 5], "correct": {"Q0": "The cost for clicking on nodes may vary between nodes.", "Q1": "The better I perform the higher my bonus will be.", "Q2": "No, the amount of cash at each node of the web may be different each time.", "Q3": "To get the highest total score.", "Q4": "Only before moving the spider.", "Q5": "3 seconds"}, "trial_id": "mouselab_quiz_control", "trial_type": "survey-multi-choice", "trial_index": 12, "time_elapsed": 1054440, "internal_node_id": "0.0-2.1-4.1"}}, {"uniqueid": "w43101644:a65558758", "current_trial": 13, "dateTime": 1693565956881, "trialdata": {"success": true, "trial_type": "fullscreen", "trial_index": 13, "time_elapsed": 1067251, "internal_node_id": "0.0-2.2-0.2-0.2"}}, {"uniqueid": "w43101644:a65558758", "current_trial": 14, "dateTime": 1693566108923, "trialdata": {"view_history": [{"page_index": 0, "viewing_time": 45071}, {"page_index": 1, "viewing_time": 83075}, {"page_index": 2, "viewing_time": 13015}, {"page_index": 3, "viewing_time": 10871}], "rt": 152033, "trial_id": "mouselab_instructions_1_control", "trial_type": "instructions", "trial_index": 14, "time_elapsed": 1219293, "internal_node_id": "0.0-2.2-1.2"}}, {"uniqueid": "w43101644:a65558758", "current_trial": 15, "dateTime": 1693566127153, "trialdata": {"revealed_states": [], "clicked_states": [], "num_clicks_accrued": [0, 0, 0, 0, 0, 0, 0, 0, 0, 0, 0, 0, 0], "stateRewards": ["", -10, 10, 10, -10, 10, -10, 10, -10, -10, 10, 10, -10, -10, 10, -10, 10, -10, 10, 10, -10, -10, 10, -10, 10, -10, -10, 10, 10, -10, -10, 10, -10, 10], "withholdReward": false, "trial_id": "practice_1", "block": "test", "trialIndex": 4, "score": -6.5, "costs": 0, "simulationMode": [null, null, null, null, null], "rewards": [-10, -10, 10, -10, 10], "path": ["0", "0", "12", "13", "14", "15", "16"], "rt": [2205, 191, 233, 1767, 967], "actions": ["right", "right", "right", "up", "up"], "actionTimes": [7431, 8165, 8924, 11203, 12704], "queries": {"click": {"state": {"target": [], "time": []}, "edge": {"target": [], "time": []}}, "mouseover": {"state": {"target": [], "time": []}, "edge": {"target": [], "time": []}}, "mouseout": {"state": {"target": [], "time": []}, "edge": {"target": [], "time": []}}}, "displayed_time": "13.22", "trialTime": 17030, "trial_type": "mouselab-mdp", "trial_index": 15, "time_elapsed": 1237521, "internal_node_id": "0.0-2.2-2.2-0.2"}}, {"uniqueid": "w43101644:a65558758", "current_trial": 16, "dateTime": 1693566146404, "trialdata": {"revealed_states": [], "clicked_states": [], "num_clicks_accrued": [0, 0, 0, 0, 0, 0, 0, 0, 0, 0, 0, 0, 0], "stateRewards": ["", -10, 10, -10, -10, -10, -10, -10, -10, -10, 10, 10, 10, 10, 10, -10, -10, -10, 10, -10, -10, -10, -10, -10, 10, 10, 10, -10, 10, 10, 10, -10, 10, -10], "withholdReward": false, "trial_id": "practice_2", "block": "test", "trialIndex": 5, "score": 13.5, "costs": 0, "simulationMode": [null, null, null, null, null], "rewards": [-10, 10, 10, 10, -10], "path": ["0", "0", "23", "24", "25", "26", "27"], "rt": [5899, 998, 251, 1587, 694], "actions": ["left", "left", "left", "up", "up"], "actionTimes": [8568, 10107, 10890, 13011, 14233], "queries": {"click": {"state": {"target": [], "time": []}, "edge": {"target": [], "time": []}}, "mouseover": {"state": {"target": [], "time": []}, "edge": {"target": [], "time": []}}, "mouseout": {"state": {"target": [], "time": []}, "edge": {"target": [], "time": []}}}, "displayed_time": "14.74", "trialTime": 17925, "trial_type": "mouselab-mdp", "trial_index": 16, "time_elapsed": 1256772, "internal_node_id": "0.0-2.2-2.2-1.2"}}, {"uniqueid": "w43101644:a65558758", "current_trial": 17, "dateTime": 1693566184218, "trialdata": {"view_history": [{"page_index": 0, "viewing_time": 31531}, {"page_index": 1, "viewing_time": 6272}], "rt": 37803, "trial_id": "mouselab_instructions_2_control", "trial_type": "instructions", "trial_index": 17, "time_elapsed": 1294588, "internal_node_id": "0.0-2.2-3.2"}}, {"uniqueid": "w43101644:a65558758", "current_trial": 18, "dateTime": 1693566560619, "trialdata": {"rt": 376394, "response": {"Q0": "The cost for clicking on nodes may vary between nodes.", "Q1": "The better I perform the higher my bonus will be.", "Q2": "No, the amount of cash at each node of the web may be different each time.", "Q3": "To get the highest total score.", "Q4": "Only before moving the spider.", "Q5": "3 seconds"}, "question_order": [0, 1, 2, 3, 4, 5], "correct": {"Q0": "The cost for clicking on nodes may vary between nodes.", "Q1": "The better I perform the higher my bonus will be.", "Q2": "No, the amount of cash at each node of the web may be different each time.", "Q3": "To get the highest total score.", "Q4": "Only before moving the spider.", "Q5": "3 seconds"}, "trial_id": "mouselab_quiz_control", "trial_type": "survey-multi-choice", "trial_index": 18, "time_elapsed": 1670989, "internal_node_id": "0.0-2.2-4.2"}}, {"uniqueid": "w43101644:a65558758", "current_trial": 19, "dateTime": 1693566574955, "trialdata": {"rt": 14322, "response": {"Q0": "No"}, "question_order": [0], "trial_id": "repeat_check", "trial_type": "survey-multi-choice", "trial_index": 19, "time_elapsed": 1685324, "internal_node_id": "0.0-4.0-0.0"}}, {"uniqueid": "w43101644:a65558758", "current_trial": 20, "dateTime": 1693566649245, "trialdata": {"rt": 74277, "stimulus": "\n<h1> Get ready to start the game! </h1>\n\nThank you for reading the instructions. Get ready start with the 40 rounds of this game.\n<br><br>\nIf you need to take a break, feel free to take one after the end of a round, before continuing to the next one.\n<br><br>\nRemember, the more money the spider gets, the bigger your bonus will be!\n<br><br>\n<div style='text-align: center;'>Press <code>space</code> to begin.</div>\n\n<br><br>\n(If, at any point, the <code>space</code> key does not take you to the next page, click once on the text and try again.)", "response": " ", "trial_id": "mdp_ready", "trial_type": "html-keyboard-response", "trial_index": 20, "time_elapsed": 1759615, "internal_node_id": "0.0-6.0-0.0"}}, {"uniqueid": "w43101644:a65558758", "current_trial": 21, "dateTime": 1693566674078, "trialdata": {"revealed_states": [], "clicked_states": [], "num_clicks_accrued": [0, 0, 0, 0, 0, 0, 0, 0, 0, 0, 0, 0, 0], "stateRewards": ["", -2, -3, 4, 1, 33, -53, 15, 9, -12, 61, -6, -2, 4, 6, -11, 47, -43, -7, -11, 46, 23, -28, -1, -1, 3, -10, 11, 76, -76, 10, 18, -38, 87], "withholdReward": false, "trial_id": "mdp_trial_1", "block": "test", "trialIndex": 6, "score": 44, "costs": 0, "simulationMode": [null, null, null, null, null], "rewards": [-2, 4, 6, -11, 47], "path": ["0", "0", "12", "13", "14", "15", "16"], "rt": [3403, 498, 29, 1595, 47], "actions": ["right", "right", "right", "up", "up"], "actionTimes": [8520, 9540, 10100, 12229, 12817], "queries": {"click": {"state": {"target": [], "time": []}, "edge": {"target": [], "time": []}}, "mouseover": {"state": {"target": [], "time": []}, "edge": {"target": [], "time": []}}, "mouseout": {"state": {"target": ["12", "0"], "time": [3514, 21269]}, "edge": {"target": [], "time": []}}}, "displayed_time": "19.14", "trialTime": 23426, "trial_type": "mouselab-mdp", "trial_index": 21, "time_elapsed": 1784446, "internal_node_id": "0.0-6.0-1.0-0.0"}}, {"uniqueid": "w43101644:a65558758", "current_trial": 22, "dateTime": 1693566714787, "trialdata": {"revealed_states": [], "clicked_states": [], "num_clicks_accrued": [0, 0, 0, 0, 0, 0, 0, 0, 0, 0, 0, 0, 0], "stateRewards": ["", 2, 3, -6, -5, -3, 55, 40, 11, 61, 11, 51, 2, -4, -6, 9, -25, 29, -15, -6, 7, -77, -2, -2, -4, 1, 14, -43, -1, 56, -12, -54, 41, -74], "withholdReward": false, "trial_id": "mdp_trial_2", "block": "test", "trialIndex": 7, "score": 24, "costs": 0, "simulationMode": [null, null, null, null, null], "rewards": [-2, -4, 1, -12, 41], "path": ["0", "0", "23", "24", "25", "30", "32"], "rt": [5962, 404, 455, 1359, 50], "actions": ["left", "left", "left", "down", "down"], "actionTimes": [10283, 11233, 12204, 14086, 14663], "queries": {"click": {"state": {"target": [], "time": []}, "edge": {"target": [], "time": []}}, "mouseover": {"state": {"target": [], "time": []}, "edge": {"target": [], "time": []}}, "mouseout": {"state": {"target": ["0"], "time": [38161]}, "edge": {"target": [], "time": []}}}, "displayed_time": "18.34", "trialTime": 39207, "trial_type": "mouselab-mdp", "trial_index": 22, "time_elapsed": 1825156, "internal_node_id": "0.0-6.0-1.0-1.0"}}, {"uniqueid": "w43101644:a65558758", "current_trial": 23, "dateTime": 1693566745227, "trialdata": {"revealed_states": [], "clicked_states": [], "num_clicks_accrued": [0, 0, 0, 0, 0, 0, 0, 0, 0, 0, 0, 0, 0], "stateRewards": ["", 2, -1, 3, -12, -83, 6, -33, 9, 28, 24, -50, -2, -1, -2, -5, -87, 37, 82, 12, 80, -5, 10, -2, -3, -6, 9, 22, -1, 16, 9, 77, -62, 58], "withholdReward": false, "trial_id": "mdp_trial_3", "block": "test", "trialIndex": 8, "score": -37, "costs": 0, "simulationMode": [null, null, null, null, null], "rewards": [2, -1, 3, 9, -50], "path": ["0", "0", "1", "2", "3", "8", "11"], "rt": [5738, 509, 33, 1328, 388], "actions": ["up", "up", "up", "left", "left"], "actionTimes": [11049, 12102, 12644, 14500, 15401], "queries": {"click": {"state": {"target": [], "time": []}, "edge": {"target": [], "time": []}}, "mouseover": {"state": {"target": [], "time": []}, "edge": {"target": [], "time": []}}, "mouseout": {"state": {"target": ["0"], "time": [3535]}, "edge": {"target": [], "time": []}}}, "displayed_time": "19.34", "trialTime": 28852, "trial_type": "mouselab-mdp", "trial_index": 23, "time_elapsed": 1855595, "internal_node_id": "0.0-6.0-1.0-2.0"}}, {"uniqueid": "w43101644:a65558758", "current_trial": 24, "dateTime": 1693566769062, "trialdata": {"revealed_states": [], "clicked_states": [], "num_clicks_accrued": [0, 0, 0, 0, 0, 0, 0, 0, 0, 0, 0, 0, 0], "stateRewards": ["", 1, 2, -5, 14, 54, -14, -25, 16, -5, -87, 78, -1, 1, 3, -3, 52, 53, 53, -10, 73, -69, -48, 2, 3, 1, 8, -62, -7, 85, 7, 82, 52, -28], "withholdReward": false, "trial_id": "mdp_trial_4", "block": "test", "trialIndex": 9, "score": 52, "costs": 0, "simulationMode": [null, null, null, null, null], "rewards": [-1, 1, 3, -3, 52], "path": ["0", "0", "12", "13", "14", "15", "16"], "rt": [4109, 369, 331, 1300, 642], "actions": ["right", "right", "right", "up", "up"], "actionTimes": [7560, 8448, 9320, 11154, 12336], "queries": {"click": {"state": {"target": [], "time": []}, "edge": {"target": [], "time": []}}, "mouseover": {"state": {"target": [], "time": []}, "edge": {"target": [], "time": []}}, "mouseout": {"state": {"target": ["0"], "time": [2539]}, "edge": {"target": [], "time": []}}}, "displayed_time": "17.46", "trialTime": 22163, "trial_type": "mouselab-mdp", "trial_index": 24, "time_elapsed": 1879430, "internal_node_id": "0.0-6.0-1.0-3.0"}}, {"uniqueid": "w43101644:a65558758", "current_trial": 25, "dateTime": 1693566819271, "trialdata": {"revealed_states": [], "clicked_states": [], "num_clicks_accrued": [0, 0, 0, 0, 0, 0, 0, 0, 0, 0, 0, 0, 0], "stateRewards": ["", -2, 3, 8, -9, 59, 41, -50, -1, 82, 66, 33, 2, -2, 7, 8, 1, -38, 12, -16, 24, -37, 67, 1, 4, -2, 5, 35, -83, 28, 8, -27, 69, -64], "withholdReward": false, "trial_id": "mdp_trial_5", "block": "test", "trialIndex": 10, "score": 16, "costs": 0, "simulationMode": [null, null, null, null, null], "rewards": [2, -2, 7, 8, 1], "path": ["0", "0", "12", "13", "14", "15", "16"], "rt": [5547, 452, 38, 1932, 231], "actions": ["right", "right", "right", "up", "up"], "actionTimes": [8622, 9620, 10167, 12682, 13455], "queries": {"click": {"state": {"target": [], "time": []}, "edge": {"target": [], "time": []}}, "mouseover": {"state": {"target": [], "time": []}, "edge": {"target": [], "time": []}}, "mouseout": {"state": {"target": ["0", "0"], "time": [2229, 47532]}, "edge": {"target": [], "time": []}}}, "displayed_time": "17.09", "trialTime": 48585, "trial_type": "mouselab-mdp", "trial_index": 25, "time_elapsed": 1929639, "internal_node_id": "0.0-6.0-1.0-4.0"}}, {"uniqueid": "w43101644:a65558758", "current_trial": 26, "dateTime": 1693566853359, "trialdata": {"revealed_states": [], "clicked_states": [], "num_clicks_accrued": [0, 0, 0, 0, 0, 0, 0, 0, 0, 0, 0, 0, 0], "stateRewards": ["", -2, -4, 2, 10, -17, 18, 73, 11, -32, 23, -13, -2, -4, 7, 12, -25, 66, -23, 15, 40, -76, -9, 1, 2, -7, -5, -20, 24, 3, -5, 16, -73, 70], "withholdReward": false, "trial_id": "mdp_trial_6", "block": "test", "trialIndex": 11, "score": 24, "costs": 0, "simulationMode": [null, null, null, null, null], "rewards": [-2, -4, 2, 10, 18], "path": ["0", "0", "1", "2", "3", "4", "6"], "rt": [3422, 501, 35, 1162, 37], "actions": ["up", "up", "up", "right", "right"], "actionTimes": [7252, 8301, 8881, 10573, 11135], "queries": {"click": {"state": {"target": [], "time": []}, "edge": {"target": [], "time": []}}, "mouseover": {"state": {"target": [], "time": []}, "edge": {"target": [], "time": []}}, "mouseout": {"state": {"target": ["0"], "time": [20614]}, "edge": {"target": [], "time": []}}}, "displayed_time": "17.87", "trialTime": 32404, "trial_type": "mouselab-mdp", "trial_index": 26, "time_elapsed": 1963726, "internal_node_id": "0.0-6.0-1.0-5.0"}}, {"uniqueid": "w43101644:a65558758", "current_trial": 27, "dateTime": 1693566885748, "trialdata": {"revealed_states": [], "clicked_states": [], "num_clicks_accrued": [0, 0, 0, 0, 0, 0, 0, 0, 0, 0, 0, 0, 0], "stateRewards": ["", -1, 3, -7, 16, -32, -74, -48, 2, 10, 15, -30, 1, 1, -2, 10, 12, -83, 67, 13, -66, 47, 65, -2, 4, 2, -14, -8, -57, 24, 9, 65, 12, 46], "withholdReward": false, "trial_id": "mdp_trial_7", "block": "test", "trialIndex": 12, "score": 22, "costs": 0, "simulationMode": [null, null, null, null, null], "rewards": [1, 1, -2, 10, 12], "path": ["0", "0", "12", "13", "14", "15", "16"], "rt": [3123, 435, 34, 1948, 332], "actions": ["right", "right", "right", "up", "up"], "actionTimes": [6792, 7759, 8348, 10829, 11707], "queries": {"click": {"state": {"target": [], "time": []}, "edge": {"target": [], "time": []}}, "mouseover": {"state": {"target": [], "time": []}, "edge": {"target": [], "time": []}}, "mouseout": {"state": {"target": ["0", "0"], "time": [1420, 28286]}, "edge": {"target": [], "time": []}}}, "displayed_time": "17.70", "trialTime": 30790, "trial_type": "mouselab-mdp", "trial_index": 27, "time_elapsed": 1996116, "internal_node_id": "0.0-6.0-1.0-6.0"}}, {"uniqueid": "w43101644:a65558758", "current_trial": 28, "dateTime": 1693566912347, "trialdata": {"revealed_states": [], "clicked_states": [], "num_clicks_accrued": [0, 0, 0, 0, 0, 0, 0, 0, 0, 0, 0, 0, 0], "stateRewards": ["", 1, 4, -4, 14, 35, 51, 19, -13, 54, 78, -74, -2, -1, -3, 13, -11, -42, -73, -15, -24, -3, -69, 2, -1, 5, 16, -27, 73, 58, 9, -60, 5, -60], "withholdReward": false, "trial_id": "mdp_trial_8", "block": "test", "trialIndex": 13, "score": -24, "costs": 0, "simulationMode": [null, null, null, null, null], "rewards": [-2, -1, -3, -15, -3], "path": ["0", "0", "12", "13", "14", "19", "21"], "rt": [4471, 182, 32, 1910, 167], "actions": ["right", "right", "right", "down", "down"], "actionTimes": [9950, 10654, 11245, 13675, 14374], "queries": {"click": {"state": {"target": [], "time": []}, "edge": {"target": [], "time": []}}, "mouseover": {"state": {"target": [], "time": []}, "edge": {"target": [], "time": []}}, "mouseout": {"state": {"target": [], "time": []}, "edge": {"target": [], "time": []}}}, "displayed_time": "19.48", "trialTime": 24992, "trial_type": "mouselab-mdp", "trial_index": 28, "time_elapsed": 2022715, "internal_node_id": "0.0-6.0-1.0-7.0"}}, {"uniqueid": "w43101644:a65558758", "current_trial": 29, "dateTime": 1693566936973, "trialdata": {"revealed_states": [], "clicked_states": [], "num_clicks_accrued": [0, 0, 0, 0, 0, 0, 0, 0, 0, 0, 0, 0, 0], "stateRewards": ["", -2, -4, 6, 14, -34, 49, 36, -8, -3, 32, -4, 1, -2, 1, -8, -20, -71, -57, -7, -86, -62, -16, -2, -3, -5, 11, 23, -21, 53, 5, -5, 85, 73], "withholdReward": false, "trial_id": "mdp_trial_9", "block": "test", "trialIndex": 14, "score": -28, "costs": 0, "simulationMode": [null, null, null, null, null], "rewards": [1, -2, 1, -8, -20], "path": ["0", "0", "12", "13", "14", "15", "16"], "rt": [3690, 70, 451, 1187, 454], "actions": ["right", "right", "right", "up", "up"], "actionTimes": [6002, 6613, 7586, 9308, 10285], "queries": {"click": {"state": {"target": [], "time": []}, "edge": {"target": [], "time": []}}, "mouseover": {"state": {"target": [], "time": []}, "edge": {"target": [], "time": []}}, "mouseout": {"state": {"target": ["0", "0", "30", "33", "30"], "time": [1338, 21208, 21323, 21883, 21983]}, "edge": {"target": [], "time": []}}}, "displayed_time": "16.33", "trialTime": 22778, "trial_type": "mouselab-mdp", "trial_index": 29, "time_elapsed": 2047341, "internal_node_id": "0.0-6.0-1.0-8.0"}}, {"uniqueid": "w43101644:a65558758", "current_trial": 30, "dateTime": 1693566963075, "trialdata": {"revealed_states": [], "clicked_states": [], "num_clicks_accrued": [0, 0, 0, 0, 0, 0, 0, 0, 0, 0, 0, 0, 0], "stateRewards": ["", -2, 3, -1, 2, -72, 63, 20, -1, 62, -66, 39, -2, 3, -6, 14, 22, 47, 1, 8, -49, -1, -41, 2, 2, -6, -16, -64, -60, -34, 16, 54, 22, -7], "withholdReward": false, "trial_id": "mdp_trial_10", "block": "test", "trialIndex": 15, "score": -82, "costs": 0, "simulationMode": [null, null, null, null, null], "rewards": [2, 2, -6, -16, -64], "path": ["0", "0", "23", "24", "25", "26", "27"], "rt": [2316, 254, 290, 1595, 284], "actions": ["left", "left", "left", "up", "up"], "actionTimes": [6679, 7459, 8307, 10434, 11248], "queries": {"click": {"state": {"target": [], "time": []}, "edge": {"target": [], "time": []}}, "mouseover": {"state": {"target": [], "time": []}, "edge": {"target": [], "time": []}}, "mouseout": {"state": {"target": ["31", "0", "12", "13", "12"], "time": [1139, 20853, 20943, 21775, 22994]}, "edge": {"target": [], "time": []}}}, "displayed_time": "18.40", "trialTime": 24331, "trial_type": "mouselab-mdp", "trial_index": 30, "time_elapsed": 2073443, "internal_node_id": "0.0-6.0-1.0-9.0"}}, {"uniqueid": "w43101644:a65558758", "current_trial": 31, "dateTime": 1693566986115, "trialdata": {"revealed_states": [], "clicked_states": [], "num_clicks_accrued": [0, 0, 0, 0, 0, 0, 0, 0, 0, 0, 0, 0, 0], "stateRewards": ["", 2, 3, 6, -12, -29, 12, 87, 4, 35, -30, 67, 2, 3, -5, -9, 44, 69, -8, 1, 45, -8, 28, -2, -1, -8, 11, -12, -5, 81, 9, 87, 82, 88], "withholdReward": false, "trial_id": "mdp_trial_11", "block": "test", "trialIndex": 16, "score": 11, "costs": 0, "simulationMode": [null, null, null, null, null], "rewards": [2, 3, 6, -12, 12], "path": ["0", "0", "1", "2", "3", "4", "6"], "rt": [5039, 777, 34, 1099, 374], "actions": ["up", "up", "up", "right", "right"], "actionTimes": [9390, 10708, 11266, 12911, 13798], "queries": {"click": {"state": {"target": [], "time": []}, "edge": {"target": [], "time": []}}, "mouseover": {"state": {"target": [], "time": []}, "edge": {"target": [], "time": []}}, "mouseout": {"state": {"target": ["0", "0", "0"], "time": [1777, 2253, 2585]}, "edge": {"target": [], "time": []}}}, "displayed_time": "18.36", "trialTime": 21291, "trial_type": "mouselab-mdp", "trial_index": 31, "time_elapsed": 2096483, "internal_node_id": "0.0-6.0-1.0-10.0"}}, {"uniqueid": "w43101644:a65558758", "current_trial": 32, "dateTime": 1693567009805, "trialdata": {"revealed_states": [], "clicked_states": [], "num_clicks_accrued": [0, 0, 0, 0, 0, 0, 0, 0, 0, 0, 0, 0, 0], "stateRewards": ["", 2, -1, -1, 7, 11, -40, -22, -2, 69, 37, 8, -2, 4, -8, -12, -2, -72, -3, -12, 17, 63, 12, 1, 3, -7, 6, 25, 61, 61, -9, 28, -17, 27], "withholdReward": false, "trial_id": "mdp_trial_12", "block": "test", "trialIndex": 17, "score": -33, "costs": 0, "simulationMode": [null, null, null, null, null], "rewards": [2, -1, -1, 7, -40], "path": ["0", "0", "1", "2", "3", "4", "6"], "rt": [4642, 259, 507, 1261, 192], "actions": ["up", "up", "up", "right", "right"], "actionTimes": [8006, 8797, 9818, 11614, 12352], "queries": {"click": {"state": {"target": [], "time": []}, "edge": {"target": [], "time": []}}, "mouseover": {"state": {"target": [], "time": []}, "edge": {"target": [], "time": []}}, "mouseout": {"state": {"target": [], "time": []}, "edge": {"target": [], "time": []}}}, "displayed_time": "17.38", "trialTime": 21805, "trial_type": "mouselab-mdp", "trial_index": 32, "time_elapsed": 2120173, "internal_node_id": "0.0-6.0-1.0-11.0"}}, {"uniqueid": "w43101644:a65558758", "current_trial": 33, "dateTime": 1693567033347, "trialdata": {"revealed_states": [], "clicked_states": [], "num_clicks_accrued": [0, 0, 0, 0, 0, 0, 0, 0, 0, 0, 0, 0, 0], "stateRewards": ["", 1, 2, -3, -6, 50, -7, 7, -7, -80, 21, -1, 2, 2, 4, -1, 33, 84, 1, 14, -53, 81, 6, -2, -2, -3, -9, -87, -38, -59, -5, -74, -3, -71], "withholdReward": false, "trial_id": "mdp_trial_13", "block": "test", "trialIndex": 18, "score": -103, "costs": 0, "simulationMode": [null, null, null, null, null], "rewards": [-2, -2, -3, -9, -87], "path": ["0", "0", "23", "24", "25", "26", "27"], "rt": [4598, 160, 295, 1266, 731], "actions": ["left", "left", "left", "up", "up"], "actionTimes": [6930, 7634, 8447, 10241, 11511], "queries": {"click": {"state": {"target": [], "time": []}, "edge": {"target": [], "time": []}}, "mouseover": {"state": {"target": [], "time": []}, "edge": {"target": [], "time": []}}, "mouseout": {"state": {"target": [], "time": []}, "edge": {"target": [], "time": []}}}, "displayed_time": "16.36", "trialTime": 21709, "trial_type": "mouselab-mdp", "trial_index": 33, "time_elapsed": 2143715, "internal_node_id": "0.0-6.0-1.0-12.0"}}, {"uniqueid": "w43101644:a65558758", "current_trial": 34, "dateTime": 1693567057454, "trialdata": {"revealed_states": [], "clicked_states": [], "num_clicks_accrued": [0, 0, 0, 0, 0, 0, 0, 0, 0, 0, 0, 0, 0], "stateRewards": ["", 2, 1, -3, 7, 46, 11, -36, 16, 71, 5, 1, 2, -2, -8, -3, -4, 6, 55, 7, 68, -54, 2, 1, 1, 6, -6, 42, -4, -84, -11, -65, 63, 25], "withholdReward": false, "trial_id": "mdp_trial_14", "block": "test", "trialIndex": 19, "score": -15, "costs": 0, "simulationMode": [null, null, null, null, null], "rewards": [2, -2, -8, -3, -4], "path": ["0", "0", "12", "13", "14", "15", "16"], "rt": [2119, 167, 171, 1223, 182], "actions": ["right", "right", "right", "up", "up"], "actionTimes": [6009, 6688, 7388, 9147, 9844], "queries": {"click": {"state": {"target": [], "time": []}, "edge": {"target": [], "time": []}}, "mouseover": {"state": {"target": [], "time": []}, "edge": {"target": [], "time": []}}, "mouseout": {"state": {"target": ["0"], "time": [20299]}, "edge": {"target": [], "time": []}}}, "displayed_time": "17.92", "trialTime": 22201, "trial_type": "mouselab-mdp", "trial_index": 34, "time_elapsed": 2167822, "internal_node_id": "0.0-6.0-1.0-13.0"}}, {"uniqueid": "w43101644:a65558758", "current_trial": 35, "dateTime": 1693567082414, "trialdata": {"revealed_states": [], "clicked_states": [], "num_clicks_accrued": [0, 0, 0, 0, 0, 0, 0, 0, 0, 0, 0, 0, 0], "stateRewards": ["", 2, -1, -3, 16, -3, -16, -62, -1, 13, -26, 43, -1, 4, 3, -9, -54, -37, -3, -12, -71, -68, -57, 1, -3, 2, -9, 2, -2, -9, -11, 84, -52, 55], "withholdReward": false, "trial_id": "mdp_trial_15", "block": "test", "trialIndex": 20, "score": -74, "costs": 0, "simulationMode": [null, null, null, null, null], "rewards": [-1, 4, 3, -12, -68], "path": ["0", "0", "12", "13", "14", "19", "21"], "rt": [5310, 132, 221, 1135, 260], "actions": ["right", "right", "right", "down", "down"], "actionTimes": [8192, 8868, 9615, 11302, 12091], "queries": {"click": {"state": {"target": [], "time": []}, "edge": {"target": [], "time": []}}, "mouseover": {"state": {"target": [], "time": []}, "edge": {"target": [], "time": []}}, "mouseout": {"state": {"target": ["0"], "time": [1826]}, "edge": {"target": [], "time": []}}}, "displayed_time": "16.92", "trialTime": 23034, "trial_type": "mouselab-mdp", "trial_index": 35, "time_elapsed": 2192782, "internal_node_id": "0.0-6.0-1.0-14.0"}}, {"uniqueid": "w43101644:a65558758", "current_trial": 36, "dateTime": 1693567108403, "trialdata": {"revealed_states": [], "clicked_states": [], "num_clicks_accrued": [0, 0, 0, 0, 0, 0, 0, 0, 0, 0, 0, 0, 0], "stateRewards": ["", -1, -1, 4, -16, -75, 81, -51, -7, -84, 73, -30, -2, 1, -3, -16, -77, 33, 14, 1, 45, 87, -66, 2, 2, -5, -7, -19, -17, 79, -3, 8, 49, 47], "withholdReward": false, "trial_id": "mdp_trial_16", "block": "test", "trialIndex": 21, "score": -35, "costs": 0, "simulationMode": [null, null, null, null, null], "rewards": [-1, -1, 4, -7, -30], "path": ["0", "0", "1", "2", "3", "8", "11"], "rt": [4202, 198, 321, 768, 177], "actions": ["up", "up", "up", "left", "left"], "actionTimes": [11068, 11795, 12654, 13993, 14686], "queries": {"click": {"state": {"target": [], "time": []}, "edge": {"target": [], "time": []}}, "mouseover": {"state": {"target": [], "time": []}, "edge": {"target": [], "time": []}}, "mouseout": {"state": {"target": ["0"], "time": [5781]}, "edge": {"target": [], "time": []}}}, "displayed_time": "20.87", "trialTime": 24005, "trial_type": "mouselab-mdp", "trial_index": 36, "time_elapsed": 2218771, "internal_node_id": "0.0-6.0-1.0-15.0"}}, {"uniqueid": "w43101644:a65558758", "current_trial": 37, "dateTime": 1693567131109, "trialdata": {"revealed_states": [], "clicked_states": [], "num_clicks_accrued": [0, 0, 0, 0, 0, 0, 0, 0, 0, 0, 0, 0, 0], "stateRewards": ["", -2, 2, 3, -7, 76, 63, 21, 15, 35, -8, -44, 1, 1, -2, -12, 23, 24, 76, -9, 46, 66, -49, -2, -1, 7, 12, 40, -71, -45, -6, 38, -49, 46], "withholdReward": false, "trial_id": "mdp_trial_17", "block": "test", "trialIndex": 22, "score": 11, "costs": 0, "simulationMode": [null, null, null, null, null], "rewards": [1, 1, -2, -12, 23], "path": ["0", "0", "12", "13", "14", "15", "16"], "rt": [3316, 299, 282, 1744, 490], "actions": ["right", "right", "right", "up", "up"], "actionTimes": [5958, 6798, 7624, 9912, 10943], "queries": {"click": {"state": {"target": [], "time": []}, "edge": {"target": [], "time": []}}, "mouseover": {"state": {"target": [], "time": []}, "edge": {"target": [], "time": []}}, "mouseout": {"state": {"target": ["0"], "time": [1548]}, "edge": {"target": [], "time": []}}}, "displayed_time": "16.65", "trialTime": 20885, "trial_type": "mouselab-mdp", "trial_index": 37, "time_elapsed": 2241477, "internal_node_id": "0.0-6.0-1.0-16.0"}}, {"uniqueid": "w43101644:a65558758", "current_trial": 38, "dateTime": 1693567153485, "trialdata": {"revealed_states": [], "clicked_states": [], "num_clicks_accrued": [0, 0, 0, 0, 0, 0, 0, 0, 0, 0, 0, 0, 0], "stateRewards": ["", 1, 1, -7, -9, -44, 24, -83, -15, 44, -24, 72, -2, -3, 4, -5, 57, 55, 29, -11, 22, 12, -25, -1, 2, 7, 12, 33, -8, 47, -4, 8, 50, -4], "withholdReward": false, "trial_id": "mdp_trial_18", "block": "test", "trialIndex": 23, "score": 51, "costs": 0, "simulationMode": [null, null, null, null, null], "rewards": [-2, -3, 4, -5, 57], "path": ["0", "0", "12", "13", "14", "15", "16"], "rt": [2575, 231, 288, 1200, 603], "actions": ["right", "right", "right", "up", "up"], "actionTimes": [5245, 6006, 6800, 8526, 9647], "queries": {"click": {"state": {"target": [], "time": []}, "edge": {"target": [], "time": []}}, "mouseover": {"state": {"target": [], "time": []}, "edge": {"target": [], "time": []}}, "mouseout": {"state": {"target": ["0"], "time": [1550]}, "edge": {"target": [], "time": []}}}, "displayed_time": "16.68", "trialTime": 20490, "trial_type": "mouselab-mdp", "trial_index": 38, "time_elapsed": 2263854, "internal_node_id": "0.0-6.0-1.0-17.0"}}, {"uniqueid": "w43101644:a65558758", "current_trial": 39, "dateTime": 1693567438808, "trialdata": {"revealed_states": [], "clicked_states": [], "num_clicks_accrued": [0, 0, 0, 0, 0, 0, 0, 0, 0, 0, 0, 0, 0], "stateRewards": ["", 2, -4, 1, -12, -59, -53, -74, 16, -88, -66, 66, 1, -2, 8, -9, -14, 22, 25, -1, -39, 47, -14, -1, -1, -2, 1, -4, 52, -26, 15, -7, 46, 43], "withholdReward": false, "trial_id": "mdp_trial_19", "block": "test", "trialIndex": 24, "score": -16, "costs": 0, "simulationMode": [null, null, null, null, null], "rewards": [1, -2, 8, -9, -14], "path": ["0", "0", "12", "13", "14", "15", "16"], "rt": [1145, 571, 232, 1216, 383], "actions": ["right", "right", "right", "up", "up"], "actionTimes": [3509, 4623, 5381, 7127, 8027], "queries": {"click": {"state": {"target": [], "time": []}, "edge": {"target": [], "time": []}}, "mouseover": {"state": {"target": [], "time": []}, "edge": {"target": [], "time": []}}, "mouseout": {"state": {"target": ["0", "0"], "time": [1241, 282427]}, "edge": {"target": [], "time": []}}}, "displayed_time": "16.39", "trialTime": 283316, "trial_type": "mouselab-mdp", "trial_index": 39, "time_elapsed": 2549177, "internal_node_id": "0.0-6.0-1.0-18.0"}}, {"uniqueid": "w43101644:a65558758", "current_trial": 40, "dateTime": 1693567463544, "trialdata": {"revealed_states": [], "clicked_states": [], "num_clicks_accrued": [0, 0, 0, 0, 0, 0, 0, 0, 0, 0, 0, 0, 0], "stateRewards": ["", 1, 4, -8, -13, -13, -87, -77, -10, -44, 54, 42, 2, -3, -4, 12, -9, -80, 52, 9, 84, -2, -65, 1, -4, -5, -6, 8, 80, 32, 13, -59, -5, -13], "withholdReward": false, "trial_id": "mdp_trial_20", "block": "test", "trialIndex": 25, "score": -2, "costs": 0, "simulationMode": [null, null, null, null, null], "rewards": [2, -3, -4, 12, -9], "path": ["0", "0", "12", "13", "14", "15", "16"], "rt": [2646, 36, 172, 794, 202], "actions": ["right", "right", "right", "up", "up"], "actionTimes": [7277, 7830, 8547, 9840, 10559], "queries": {"click": {"state": {"target": [], "time": []}, "edge": {"target": [], "time": []}}, "mouseover": {"state": {"target": ["0"], "time": [5395]}, "edge": {"target": [], "time": []}}, "mouseout": {"state": {"target": ["0", "0"], "time": [2372, 21095]}, "edge": {"target": [], "time": []}}}, "displayed_time": "18.63", "trialTime": 21957, "trial_type": "mouselab-mdp", "trial_index": 40, "time_elapsed": 2573913, "internal_node_id": "0.0-6.0-1.0-19.0"}}, {"uniqueid": "w43101644:a65558758", "current_trial": 41, "dateTime": 1693567486837, "trialdata": {"revealed_states": [], "clicked_states": [], "num_clicks_accrued": [0, 0, 0, 0, 0, 0, 0, 0, 0, 0, 0, 0, 0], "stateRewards": ["", 1, 1, -3, 2, 22, -25, -11, -5, 50, 49, 3, 1, -1, 8, 14, -85, -30, 57, -6, -39, -16, 59, -2, -1, 5, 5, 59, -16, 8, 4, 67, 56, -9], "withholdReward": false, "trial_id": "mdp_trial_21", "block": "test", "trialIndex": 26, "score": -14, "costs": 0, "simulationMode": [null, null, null, null, null], "rewards": [1, -1, 8, -6, -16], "path": ["0", "0", "12", "13", "14", "19", "21"], "rt": [1844, 62, 36, 1045, 136], "actions": ["right", "right", "right", "down", "down"], "actionTimes": [5120, 5713, 6289, 7883, 8566], "queries": {"click": {"state": {"target": [], "time": []}, "edge": {"target": [], "time": []}}, "mouseover": {"state": {"target": [], "time": []}, "edge": {"target": [], "time": []}}, "mouseout": {"state": {"target": ["0"], "time": [19434]}, "edge": {"target": [], "time": []}}}, "displayed_time": "17.30", "trialTime": 21032, "trial_type": "mouselab-mdp", "trial_index": 41, "time_elapsed": 2597206, "internal_node_id": "0.0-6.0-1.0-20.0"}}, {"uniqueid": "w43101644:a65558758", "current_trial": 42, "dateTime": 1693567509513, "trialdata": {"revealed_states": [], "clicked_states": [], "num_clicks_accrued": [0, 0, 0, 0, 0, 0, 0, 0, 0, 0, 0, 0, 0], "stateRewards": ["", -1, 1, -2, 5, 73, 15, 61, 8, 7, 38, 76, 2, 2, -4, -6, -6, -26, 43, -5, -45, -85, -35, -2, 1, -4, 15, -10, 69, 72, -11, 84, -49, -38], "withholdReward": false, "trial_id": "mdp_trial_22", "block": "test", "trialIndex": 27, "score": -12, "costs": 0, "simulationMode": [null, null, null, null, null], "rewards": [2, 2, -4, -6, -6], "path": ["0", "0", "12", "13", "14", "15", "16"], "rt": [2079, 381, 325, 1536, 181], "actions": ["right", "right", "right", "up", "up"], "actionTimes": [5366, 6269, 7141, 9195, 9908], "queries": {"click": {"state": {"target": [], "time": []}, "edge": {"target": [], "time": []}}, "mouseover": {"state": {"target": [], "time": []}, "edge": {"target": [], "time": []}}, "mouseout": {"state": {"target": ["0"], "time": [19089]}, "edge": {"target": [], "time": []}}}, "displayed_time": "17.30", "trialTime": 20276, "trial_type": "mouselab-mdp", "trial_index": 42, "time_elapsed": 2619883, "internal_node_id": "0.0-6.0-1.0-21.0"}}, {"uniqueid": "w43101644:a65558758", "current_trial": 43, "dateTime": 1693567538239, "trialdata": {"revealed_states": [], "clicked_states": [], "num_clicks_accrued": [0, 0, 0, 0, 0, 0, 0, 0, 0, 0, 0, 0, 0], "stateRewards": ["", 2, 3, 8, 14, 69, -27, 17, 2, -71, -65, -10, 2, -3, 7, 8, 65, -10, 65, -12, 73, -12, 13, -2, -2, 6, 10, -79, -69, -18, 10, -85, 67, 74], "withholdReward": false, "trial_id": "mdp_trial_23", "block": "test", "trialIndex": 28, "score": 4, "costs": 0, "simulationMode": [null, null, null, null, null], "rewards": [2, -3, 7, 8, -10], "path": ["0", "0", "12", "13", "14", "15", "17"], "rt": [3019, 127, 408, 1206, 936], "actions": ["right", "right", "right", "up", "right"], "actionTimes": [6593, 7265, 8192, 9927, 11402], "queries": {"click": {"state": {"target": [], "time": []}, "edge": {"target": [], "time": []}}, "mouseover": {"state": {"target": [], "time": []}, "edge": {"target": [], "time": []}}, "mouseout": {"state": {"target": ["0"], "time": [21291]}, "edge": {"target": [], "time": []}}}, "displayed_time": "17.58", "trialTime": 26614, "trial_type": "mouselab-mdp", "trial_index": 43, "time_elapsed": 2648607, "internal_node_id": "0.0-6.0-1.0-22.0"}}, {"uniqueid": "w43101644:a65558758", "current_trial": 44, "dateTime": 1693567562444, "trialdata": {"revealed_states": [], "clicked_states": [], "num_clicks_accrued": [0, 0, 0, 0, 0, 0, 0, 0, 0, 0, 0, 0, 0], "stateRewards": ["", 1, -1, 1, -14, -10, 67, -28, -11, 72, 40, -65, -1, 1, 1, -2, 8, -55, 34, -10, 61, 33, -15, 2, -4, 7, 4, -75, 63, -21, -16, 61, 19, 21], "withholdReward": false, "trial_id": "mdp_trial_24", "block": "test", "trialIndex": 29, "score": 54, "costs": 0, "simulationMode": [null, null, null, null, null], "rewards": [1, -1, 1, -14, 67], "path": ["0", "0", "1", "2", "3", "4", "6"], "rt": [3390, 217, 216, 1966, 258], "actions": ["up", "up", "up", "right", "right"], "actionTimes": [7090, 7821, 8573, 11082, 11869], "queries": {"click": {"state": {"target": [], "time": []}, "edge": {"target": [], "time": []}}, "mouseover": {"state": {"target": [], "time": []}, "edge": {"target": [], "time": []}}, "mouseout": {"state": {"target": [], "time": []}, "edge": {"target": [], "time": []}}}, "displayed_time": "17.74", "trialTime": 22253, "trial_type": "mouselab-mdp", "trial_index": 44, "time_elapsed": 2672813, "internal_node_id": "0.0-6.0-1.0-23.0"}}, {"uniqueid": "w43101644:a65558758", "current_trial": 45, "dateTime": 1693567599733, "trialdata": {"revealed_states": [], "clicked_states": [], "num_clicks_accrued": [0, 0, 0, 0, 0, 0, 0, 0, 0, 0, 0, 0, 0], "stateRewards": ["", -2, -3, -5, 8, 27, 11, 43, -6, -24, -87, 69, -2, 1, 1, 9, 19, 48, -37, 9, -14, 45, 62, 1, 2, 1, 16, -81, -41, 22, 4, -6, -63, 47], "withholdReward": false, "trial_id": "mdp_trial_25", "block": "test", "trialIndex": 30, "score": -28, "costs": 0, "simulationMode": [null, null, null, null, null], "rewards": [-2, 1, 1, 9, -37], "path": ["0", "0", "12", "13", "14", "15", "18"], "rt": [3239, 272, 424, 2023, 740], "actions": ["right", "right", "right", "up", "left"], "actionTimes": [20846, 21636, 22608, 25169, 26448], "queries": {"click": {"state": {"target": [], "time": []}, "edge": {"target": [], "time": []}}, "mouseover": {"state": {"target": [], "time": []}, "edge": {"target": [], "time": []}}, "mouseout": {"state": {"target": ["0"], "time": [34080]}, "edge": {"target": [], "time": []}}}, "displayed_time": "31.61", "trialTime": 34971, "trial_type": "mouselab-mdp", "trial_index": 45, "time_elapsed": 2710101, "internal_node_id": "0.0-6.0-1.0-24.0"}}, {"uniqueid": "w43101644:a65558758", "current_trial": 46, "dateTime": 1693567623731, "trialdata": {"revealed_states": [], "clicked_states": [], "num_clicks_accrued": [0, 0, 0, 0, 0, 0, 0, 0, 0, 0, 0, 0, 0], "stateRewards": ["", -1, 3, 1, -7, 56, 76, 57, 3, 11, -9, 14, 1, -2, 2, 8, -77, -3, 79, -5, 88, 24, -66, -2, -1, 7, -7, -30, 14, -76, 11, -36, 28, -6], "withholdReward": false, "trial_id": "mdp_trial_26", "block": "test", "trialIndex": 31, "score": 20, "costs": 0, "simulationMode": [null, null, null, null, null], "rewards": [-1, 3, 1, 3, 14], "path": ["0", "0", "1", "2", "3", "8", "11"], "rt": [5310, 254, 1230, 1021, 862], "actions": ["up", "up", "up", "left", "left"], "actionTimes": [9641, 10422, 12179, 13722, 15107], "queries": {"click": {"state": {"target": [], "time": []}, "edge": {"target": [], "time": []}}, "mouseover": {"state": {"target": [], "time": []}, "edge": {"target": [], "time": []}}, "mouseout": {"state": {"target": [], "time": []}, "edge": {"target": [], "time": []}}}, "displayed_time": "18.34", "trialTime": 21828, "trial_type": "mouselab-mdp", "trial_index": 46, "time_elapsed": 2734099, "internal_node_id": "0.0-6.0-1.0-25.0"}}, {"uniqueid": "w43101644:a65558758", "current_trial": 47, "dateTime": 1693567646596, "trialdata": {"revealed_states": [], "clicked_states": [], "num_clicks_accrued": [0, 0, 0, 0, 0, 0, 0, 0, 0, 0, 0, 0, 0], "stateRewards": ["", -1, 4, -6, -5, -22, -38, -38, -2, -56, 88, 14, -1, -1, -7, -6, 61, -60, 21, 11, 57, 31, -30, -2, -2, 6, -9, -44, -70, -44, -15, 34, 16, -78], "withholdReward": false, "trial_id": "mdp_trial_27", "block": "test", "trialIndex": 32, "score": 46, "costs": 0, "simulationMode": [null, null, null, null, null], "rewards": [-1, -1, -7, -6, 61], "path": ["0", "0", "12", "13", "14", "15", "16"], "rt": [3198, 249, 240, 1117, 303], "actions": ["right", "right", "right", "up", "up"], "actionTimes": [6244, 7018, 7777, 9464, 10286], "queries": {"click": {"state": {"target": [], "time": []}, "edge": {"target": [], "time": []}}, "mouseover": {"state": {"target": [], "time": []}, "edge": {"target": [], "time": []}}, "mouseout": {"state": {"target": ["0"], "time": [19720]}, "edge": {"target": [], "time": []}}}, "displayed_time": "17.07", "trialTime": 20768, "trial_type": "mouselab-mdp", "trial_index": 47, "time_elapsed": 2756964, "internal_node_id": "0.0-6.0-1.0-26.0"}}, {"uniqueid": "w43101644:a65558758", "current_trial": 48, "dateTime": 1693567670099, "trialdata": {"revealed_states": [], "clicked_states": [], "num_clicks_accrued": [0, 0, 0, 0, 0, 0, 0, 0, 0, 0, 0, 0, 0], "stateRewards": ["", 1, 2, -8, 9, 18, -83, -11, 6, -64, -48, 17, -2, -2, -5, -3, -24, -3, -86, -2, 48, -41, -22, -2, 4, 7, 8, 81, 13, -48, 10, 61, 19, 57], "withholdReward": false, "trial_id": "mdp_trial_28", "block": "test", "trialIndex": 33, "score": -98, "costs": 0, "simulationMode": [null, null, null, null, null], "rewards": [-2, -2, -5, -3, -86], "path": ["0", "0", "12", "13", "14", "15", "18"], "rt": [4599, 211, 345, 2576, 932], "actions": ["right", "right", "right", "up", "left"], "actionTimes": [8636, 9378, 10255, 13379, 14823], "queries": {"click": {"state": {"target": [], "time": []}, "edge": {"target": [], "time": []}}, "mouseover": {"state": {"target": [], "time": []}, "edge": {"target": [], "time": []}}, "mouseout": {"state": {"target": [], "time": []}, "edge": {"target": [], "time": []}}}, "displayed_time": "18.04", "trialTime": 21292, "trial_type": "mouselab-mdp", "trial_index": 48, "time_elapsed": 2780467, "internal_node_id": "0.0-6.0-1.0-27.0"}}, {"uniqueid": "w43101644:a65558758", "current_trial": 49, "dateTime": 1693567694166, "trialdata": {"revealed_states": [], "clicked_states": [], "num_clicks_accrued": [0, 0, 0, 0, 0, 0, 0, 0, 0, 0, 0, 0, 0], "stateRewards": ["", -1, -4, -1, -5, -28, -23, -15, -15, -38, 59, -87, 2, 2, -5, 9, -55, -39, -71, -6, 85, -85, -11, -1, -2, 5, -10, 1, 25, 41, -4, 69, -35, 86], "withholdReward": false, "trial_id": "mdp_trial_29", "block": "test", "trialIndex": 34, "score": -108, "costs": 0, "simulationMode": [null, null, null, null, null], "rewards": [-1, -4, -1, -15, -87], "path": ["0", "0", "1", "2", "3", "8", "11"], "rt": [5092, 219, 438, 1066, 59], "actions": ["up", "up", "up", "left", "left"], "actionTimes": [8046, 8805, 9781, 11378, 11962], "queries": {"click": {"state": {"target": [], "time": []}, "edge": {"target": [], "time": []}}, "mouseover": {"state": {"target": [], "time": []}, "edge": {"target": [], "time": []}}, "mouseout": {"state": {"target": [], "time": []}, "edge": {"target": [], "time": []}}}, "displayed_time": "16.98", "trialTime": 21830, "trial_type": "mouselab-mdp", "trial_index": 49, "time_elapsed": 2804534, "internal_node_id": "0.0-6.0-1.0-28.0"}}, {"uniqueid": "w43101644:a65558758", "current_trial": 50, "dateTime": 1693567715752, "trialdata": {"revealed_states": [], "clicked_states": [], "num_clicks_accrued": [0, 0, 0, 0, 0, 0, 0, 0, 0, 0, 0, 0, 0], "stateRewards": ["", 2, -1, 1, 10, -52, 86, -22, -2, -14, -63, 38, 1, 3, 7, -8, 11, -32, -27, 9, -71, 40, -87, -2, -1, 5, -7, 12, 31, -57, 13, 86, -58, 29], "withholdReward": false, "trial_id": "mdp_trial_30", "block": "test", "trialIndex": 35, "score": 60, "costs": 0, "simulationMode": [null, null, null, null, null], "rewards": [1, 3, 7, 9, 40], "path": ["0", "0", "12", "13", "14", "19", "21"], "rt": [3406, 124, 296, 834, 435], "actions": ["right", "right", "right", "down", "down"], "actionTimes": [6101, 6762, 7597, 8954, 9944], "queries": {"click": {"state": {"target": [], "time": []}, "edge": {"target": [], "time": []}}, "mouseover": {"state": {"target": [], "time": []}, "edge": {"target": [], "time": []}}, "mouseout": {"state": {"target": [], "time": []}, "edge": {"target": [], "time": []}}}, "displayed_time": "16.73", "trialTime": 19467, "trial_type": "mouselab-mdp", "trial_index": 50, "time_elapsed": 2826121, "internal_node_id": "0.0-6.0-1.0-29.0"}}, {"uniqueid": "w43101644:a65558758", "current_trial": 51, "dateTime": 1693567741949, "trialdata": {"revealed_states": [], "clicked_states": [], "num_clicks_accrued": [0, 0, 0, 0, 0, 0, 0, 0, 0, 0, 0, 0, 0], "stateRewards": ["", -1, -2, 8, -6, -79, -6, 87, 9, -5, -66, -38, 2, 2, 5, -6, -82, 74, 85, -8, 67, -30, -15, 1, -2, -2, -2, 87, 64, 49, 7, 2, -38, -9], "withholdReward": false, "trial_id": "mdp_trial_31", "block": "test", "trialIndex": 36, "score": 77, "costs": 0, "simulationMode": [null, null, null, null, null], "rewards": [2, 2, 5, -6, 74], "path": ["0", "0", "12", "13", "14", "15", "17"], "rt": [3127, 226, 345, 1197, 1318], "actions": ["right", "right", "right", "up", "right"], "actionTimes": [5818, 6585, 7472, 9193, 11032], "queries": {"click": {"state": {"target": [], "time": []}, "edge": {"target": [], "time": []}}, "mouseover": {"state": {"target": [], "time": []}, "edge": {"target": [], "time": []}}, "mouseout": {"state": {"target": ["0"], "time": [19829]}, "edge": {"target": [], "time": []}}}, "displayed_time": "16.70", "trialTime": 23914, "trial_type": "mouselab-mdp", "trial_index": 51, "time_elapsed": 2852317, "internal_node_id": "0.0-6.0-1.0-30.0"}}, {"uniqueid": "w43101644:a65558758", "current_trial": 52, "dateTime": 1693567767172, "trialdata": {"revealed_states": [], "clicked_states": [], "num_clicks_accrued": [0, 0, 0, 0, 0, 0, 0, 0, 0, 0, 0, 0, 0], "stateRewards": ["", 1, -1, 4, -2, -75, -75, 84, -9, -60, -79, 59, 2, -4, 8, 9, -17, -82, 80, 14, -4, 49, 49, -1, 3, 6, -11, -33, 34, 55, 9, -57, 5, 59], "withholdReward": false, "trial_id": "mdp_trial_32", "block": "test", "trialIndex": 37, "score": -2, "costs": 0, "simulationMode": [null, null, null, null, null], "rewards": [2, -4, 8, 9, -17], "path": ["0", "0", "12", "13", "14", "15", "16"], "rt": [2106, 56, 176, 1223, 273], "actions": ["right", "right", "right", "up", "up"], "actionTimes": [5506, 6092, 6773, 8533, 9339], "queries": {"click": {"state": {"target": [], "time": []}, "edge": {"target": [], "time": []}}, "mouseover": {"state": {"target": [], "time": []}, "edge": {"target": [], "time": []}}, "mouseout": {"state": {"target": ["19", "22", "0", "21"], "time": [851, 912, 19301, 21604]}, "edge": {"target": [], "time": []}}}, "displayed_time": "17.42", "trialTime": 22947, "trial_type": "mouselab-mdp", "trial_index": 52, "time_elapsed": 2877540, "internal_node_id": "0.0-6.0-1.0-31.0"}}, {"uniqueid": "w43101644:a65558758", "current_trial": 53, "dateTime": 1693567791186, "trialdata": {"revealed_states": [], "clicked_states": [], "num_clicks_accrued": [0, 0, 0, 0, 0, 0, 0, 0, 0, 0, 0, 0, 0], "stateRewards": ["", -2, -1, -1, 5, -54, -87, 35, 2, -8, 20, -22, 1, 3, 6, 13, -75, -32, -55, -3, 56, 62, -22, -1, -4, -1, -7, -51, 84, 70, 7, -15, 5, 55], "withholdReward": false, "trial_id": "mdp_trial_33", "block": "test", "trialIndex": 38, "score": 69, "costs": 0, "simulationMode": [null, null, null, null, null], "rewards": [1, 3, 6, -3, 62], "path": ["0", "0", "12", "13", "14", "19", "21"], "rt": [3501, 197, 298, 1124, 169], "actions": ["right", "right", "right", "down", "down"], "actionTimes": [7419, 8139, 8962, 10628, 11340], "queries": {"click": {"state": {"target": [], "time": []}, "edge": {"target": [], "time": []}}, "mouseover": {"state": {"target": [], "time": []}, "edge": {"target": [], "time": []}}, "mouseout": {"state": {"target": ["0"], "time": [5196]}, "edge": {"target": [], "time": []}}}, "displayed_time": "17.93", "trialTime": 21640, "trial_type": "mouselab-mdp", "trial_index": 53, "time_elapsed": 2901555, "internal_node_id": "0.0-6.0-1.0-32.0"}}, {"uniqueid": "w43101644:a65558758", "current_trial": 54, "dateTime": 1693567815139, "trialdata": {"revealed_states": [], "clicked_states": [], "num_clicks_accrued": [0, 0, 0, 0, 0, 0, 0, 0, 0, 0, 0, 0, 0], "stateRewards": ["", -2, 3, 3, -14, 62, 36, 49, 16, 11, 17, -84, 2, -1, 6, 2, -82, -73, 49, -6, -87, 48, 50, -1, -2, -1, -16, -11, 37, -44, 4, 55, 73, -10], "withholdReward": false, "trial_id": "mdp_trial_34", "block": "test", "trialIndex": 39, "score": -73, "costs": 0, "simulationMode": [null, null, null, null, null], "rewards": [2, -1, 6, 2, -82], "path": ["0", "0", "12", "13", "14", "15", "16"], "rt": [2839, 152, 552, 1075, 387], "actions": ["right", "right", "right", "up", "up"], "actionTimes": [5465, 6176, 7270, 8885, 9793], "queries": {"click": {"state": {"target": [], "time": []}, "edge": {"target": [], "time": []}}, "mouseover": {"state": {"target": [], "time": []}, "edge": {"target": [], "time": []}}, "mouseout": {"state": {"target": ["0", "0"], "time": [1442, 18288]}, "edge": {"target": [], "time": []}}}, "displayed_time": "16.65", "trialTime": 21655, "trial_type": "mouselab-mdp", "trial_index": 54, "time_elapsed": 2925506, "internal_node_id": "0.0-6.0-1.0-33.0"}}, {"uniqueid": "w43101644:a65558758", "current_trial": 55, "dateTime": 1693567841625, "trialdata": {"revealed_states": [], "clicked_states": [], "num_clicks_accrued": [0, 0, 0, 0, 0, 0, 0, 0, 0, 0, 0, 0, 0], "stateRewards": ["", 2, -1, -4, -13, 74, 77, 3, 2, -43, -2, -11, 2, 3, 7, 11, -26, -29, -33, -3, -3, -13, -3, 1, 3, -7, 14, -59, 33, 9, -5, 34, 79, 68], "withholdReward": false, "trial_id": "mdp_trial_35", "block": "test", "trialIndex": 40, "score": -48, "costs": 0, "simulationMode": [null, null, null, null, null], "rewards": [1, 3, -7, 14, -59], "path": ["0", "0", "23", "24", "25", "26", "27"], "rt": [2757, 37, 38, 1101, 76], "actions": ["left", "left", "left", "up", "up"], "actionTimes": [7324, 7899, 8506, 10148, 10738], "queries": {"click": {"state": {"target": [], "time": []}, "edge": {"target": [], "time": []}}, "mouseover": {"state": {"target": [], "time": []}, "edge": {"target": [], "time": []}}, "mouseout": {"state": {"target": ["14", "12", "0"], "time": [1901, 2283, 20613]}, "edge": {"target": [], "time": []}}}, "displayed_time": "18.61", "trialTime": 24211, "trial_type": "mouselab-mdp", "trial_index": 55, "time_elapsed": 2951994, "internal_node_id": "0.0-6.0-1.0-34.0"}}, {"uniqueid": "w43101644:a65558758", "current_trial": 56, "dateTime": 1693567865797, "trialdata": {"revealed_states": [], "clicked_states": [], "num_clicks_accrued": [0, 0, 0, 0, 0, 0, 0, 0, 0, 0, 0, 0, 0], "stateRewards": ["", -1, 2, 6, 11, 21, -21, -21, -6, 48, -71, 88, -1, -3, 3, 7, 64, 2, 9, -4, 37, -67, 72, 2, 2, -8, -8, -10, 71, -40, -3, 73, 80, 47], "withholdReward": false, "trial_id": "mdp_trial_36", "block": "test", "trialIndex": 41, "score": 70, "costs": 0, "simulationMode": [null, null, null, null, null], "rewards": [-1, -3, 3, 7, 64], "path": ["0", "0", "12", "13", "14", "15", "16"], "rt": [3374, 64, 184, 1441, 307], "actions": ["right", "right", "right", "up", "up"], "actionTimes": [6930, 7537, 8272, 10221, 11076], "queries": {"click": {"state": {"target": [], "time": []}, "edge": {"target": [], "time": []}}, "mouseover": {"state": {"target": [], "time": []}, "edge": {"target": [], "time": []}}, "mouseout": {"state": {"target": ["12", "0"], "time": [1129, 20711]}, "edge": {"target": [], "time": []}}}, "displayed_time": "17.57", "trialTime": 21855, "trial_type": "mouselab-mdp", "trial_index": 56, "time_elapsed": 2976165, "internal_node_id": "0.0-6.0-1.0-35.0"}}, {"uniqueid": "w43101644:a65558758", "current_trial": 57, "dateTime": 1693567889178, "trialdata": {"revealed_states": [], "clicked_states": [], "num_clicks_accrued": [0, 0, 0, 0, 0, 0, 0, 0, 0, 0, 0, 0, 0], "stateRewards": ["", -1, -3, 1, 13, -64, -29, 12, -4, -33, 50, 56, 2, -3, 4, 11, -64, -58, -55, 12, 47, 38, -25, -2, 2, 5, -15, 85, 7, 84, 10, 8, 57, 26], "withholdReward": false, "trial_id": "mdp_trial_37", "block": "test", "trialIndex": 42, "score": -44, "costs": 0, "simulationMode": [null, null, null, null, null], "rewards": [2, -3, 4, 11, -58], "path": ["0", "0", "12", "13", "14", "15", "17"], "rt": [2081, 39, 445, 2123, 440], "actions": ["right", "right", "right", "up", "right"], "actionTimes": [6398, 6965, 7966, 10633, 11600], "queries": {"click": {"state": {"target": [], "time": []}, "edge": {"target": [], "time": []}}, "mouseover": {"state": {"target": [], "time": []}, "edge": {"target": [], "time": []}}, "mouseout": {"state": {"target": [], "time": []}, "edge": {"target": [], "time": []}}}, "displayed_time": "18.33", "trialTime": 21034, "trial_type": "mouselab-mdp", "trial_index": 57, "time_elapsed": 2999546, "internal_node_id": "0.0-6.0-1.0-36.0"}}, {"uniqueid": "w43101644:a65558758", "current_trial": 58, "dateTime": 1693567912315, "trialdata": {"revealed_states": [], "clicked_states": [], "num_clicks_accrued": [0, 0, 0, 0, 0, 0, 0, 0, 0, 0, 0, 0, 0], "stateRewards": ["", 1, -2, -8, -13, 4, 34, -84, -4, -49, 88, -70, -1, 3, -4, 10, -77, 13, -34, 15, -21, -16, 27, 1, -2, 8, -8, -6, 38, -26, 6, -15, 66, -3], "withholdReward": false, "trial_id": "mdp_trial_38", "block": "test", "trialIndex": 43, "score": 12, "costs": 0, "simulationMode": [null, null, null, null, null], "rewards": [1, -2, -8, -13, 34], "path": ["0", "0", "1", "2", "3", "4", "6"], "rt": [2602, 593, 92, 1536, 136], "actions": ["up", "up", "up", "right", "right"], "actionTimes": [6948, 8091, 8703, 10796, 11467], "queries": {"click": {"state": {"target": [], "time": []}, "edge": {"target": [], "time": []}}, "mouseover": {"state": {"target": [], "time": []}, "edge": {"target": [], "time": []}}, "mouseout": {"state": {"target": [], "time": []}, "edge": {"target": [], "time": []}}}, "displayed_time": "18.37", "trialTime": 20834, "trial_type": "mouselab-mdp", "trial_index": 58, "time_elapsed": 3022683, "internal_node_id": "0.0-6.0-1.0-37.0"}}, {"uniqueid": "w43101644:a65558758", "current_trial": 59, "dateTime": 1693567935240, "trialdata": {"revealed_states": [], "clicked_states": [], "num_clicks_accrued": [0, 0, 0, 0, 0, 0, 0, 0, 0, 0, 0, 0, 0], "stateRewards": ["", 1, -4, -6, 11, -20, 8, -30, 1, -38, 88, 42, 2, 3, 5, -12, -8, -74, 30, -8, 67, -19, 42, 2, -1, 4, 13, 50, -68, 2, -8, -15, 87, -46], "withholdReward": false, "trial_id": "mdp_trial_39", "block": "test", "trialIndex": 44, "score": -10, "costs": 0, "simulationMode": [null, null, null, null, null], "rewards": [2, 3, 5, -12, -8], "path": ["0", "0", "12", "13", "14", "15", "16"], "rt": [1939, 337, 59, 895, 981], "actions": ["right", "right", "right", "up", "up"], "actionTimes": [5200, 6084, 6701, 8161, 9687], "queries": {"click": {"state": {"target": [], "time": []}, "edge": {"target": [], "time": []}}, "mouseover": {"state": {"target": [], "time": []}, "edge": {"target": [], "time": []}}, "mouseout": {"state": {"target": ["0", "0"], "time": [734, 19715]}, "edge": {"target": [], "time": []}}}, "displayed_time": "17.30", "trialTime": 20489, "trial_type": "mouselab-mdp", "trial_index": 59, "time_elapsed": 3045608, "internal_node_id": "0.0-6.0-1.0-38.0"}}, {"uniqueid": "w43101644:a65558758", "current_trial": 60, "dateTime": 1693567957739, "trialdata": {"revealed_states": [], "clicked_states": [], "num_clicks_accrued": [0, 0, 0, 0, 0, 0, 0, 0, 0, 0, 0, 0, 0], "stateRewards": ["", -1, -4, -1, -11, 43, 69, 39, 4, 17, -20, -82, -2, -1, 4, 8, -79, 24, -79, 11, 36, 64, 41, 2, 4, -1, 11, -79, -47, 75, -3, 63, -36, -19], "withholdReward": false, "trial_id": "mdp_trial_40", "block": "test", "trialIndex": 45, "score": -70, "costs": 0, "simulationMode": [null, null, null, null, null], "rewards": [-2, -1, 4, 8, -79], "path": ["0", "0", "12", "13", "14", "15", "16"], "rt": [2545, 123, 75, 1186, 91], "actions": ["right", "right", "right", "up", "up"], "actionTimes": [5988, 6638, 7223, 8956, 9579], "queries": {"click": {"state": {"target": [], "time": []}, "edge": {"target": [], "time": []}}, "mouseover": {"state": {"target": [], "time": []}, "edge": {"target": [], "time": []}}, "mouseout": {"state": {"target": ["0"], "time": [19210]}, "edge": {"target": [], "time": []}}}, "displayed_time": "17.46", "trialTime": 19962, "trial_type": "mouselab-mdp", "trial_index": 60, "time_elapsed": 3068107, "internal_node_id": "0.0-6.0-1.0-39.0"}}, {"uniqueid": "w43101644:a65558758", "current_trial": 61, "dateTime": 1693568053579, "trialdata": {"rt": 95824, "response": {"Q0": "$-2 to $2", "Q1": "$-4 to $4", "Q2": "$-16 to $16", "Q3": "The cost for clicking on nodes varied between nodes.", "Q4": "Very motivated"}, "question_order": [0, 1, 2, 3, 4], "trial_id": "final_quiz_control", "trial_type": "survey-multi-choice", "trial_index": 61, "time_elapsed": 3163948, "internal_node_id": "0.0-6.0-2.0"}}, {"uniqueid": "w43101644:a65558758", "current_trial": 62, "dateTime": 1693568398127, "trialdata": {"rt": 344521, "response": {"Q0": "I did not use any strategy,I was just trusting my gut feeling", "Q1": "Not that much", "Q2": "It was difficult because the numbers kept on changing"}, "trial_id": "self_report_control", "trial_type": "survey-text", "trial_index": 62, "time_elapsed": 3508497, "internal_node_id": "0.0-6.0-3.0"}}, {"uniqueid": "w43101644:a65558758", "current_trial": 63, "dateTime": 1693568438588, "trialdata": {"rt": 40448, "response": {"gender": "female", "age": "28", "colorblind": "0", "effort": "0"}, "trial_type": "survey-html-form", "trial_index": 63, "time_elapsed": 3548958, "internal_node_id": "0.0-6.0-4.0"}}, {"uniqueid": "w43101644:a65558758", "current_trial": 64, "dateTime": 1693568525861, "trialdata": {"rt": 87259, "response": {"Q0": "NO", "Q1": "It was my first time", "Q2": "None"}, "trial_type": "survey-text", "trial_index": 64, "time_elapsed": 3636231, "internal_node_id": "0.0-6.0-5.0"}}, {"uniqueid": "w43101644:a65558758", "current_trial": 65, "dateTime": 1693568579388, "trialdata": {"rt": 53515, "stimulus": "<h1>Completion Code Instructions (1/2)</h1>\n<br><br><br><br>\nYou have reached the end of the experiment! The completion code consists of two parts: (1) a code with 2 characters (2) a code with 6 characters. On this page, you will receive the second part of the code. The first part of the completion code will be on the next page.\n<br><br>\nThe second part of your completion code is: <b>EWEK22</b>\n<br><br>\nPlease note this down. Then, press 'Finish HIT' in order to find the first part of your completion code. Once the data has been saved, you will receive this code either in this window or in the original browser window where you started the experiment.\n", "response": 0, "trial_type": "html-button-response", "trial_index": 65, "time_elapsed": 3689758, "internal_node_id": "0.0-6.0-6.0"}}, {"uniqueid": "w43101644:a65558758", "current_trial": 66, "dateTime": 1693568580407, "trialdata": {"success": true, "trial_type": "fullscreen", "trial_index": 66, "time_elapsed": 3690777, "internal_node_id": "0.0-7.0"}}], "questiondata": {"params": {"CODE": "C6DMOQA6", "MIN_TIME": 14, "inspectCost": 1, "startTime": "Fri Sep 01 2023 12:41:25 GMT+0200 (South Africa Standard Time)", "bonusRate": 0.002, "variance": "1_2_4_8_44", "branching": "31123"}, "final_score": -289}, "eventdata": [{"eventtype": "initialized", "value": null, "timestamp": 1693564885071, "interval": 0}, {"eventtype": "window_resize", "value": [1024, 658], "timestamp": 1693564885072, "interval": 1}, {"eventtype": "window_resize", "value": [1024, 658], "timestamp": 1693564885646, "interval": 574}, {"eventtype": "window_resize", "value": [1366, 768], "timestamp": 1693564902387, "interval": 16741}, {"eventtype": "focus", "value": "off", "timestamp": 1693565530023, "interval": 627636}, {"eventtype": "focus", "value": "on", "timestamp": 1693565530023, "interval": 0}, {"eventtype": "window_resize", "value": [1024, 658], "timestamp": 1693565530274, "interval": 251}, {"eventtype": "window_resize", "value": [1366, 768], "timestamp": 1693565533303, "interval": 3029}, {"eventtype": "focus", "value": "off", "timestamp": 1693565953618, "interval": 420315}, {"eventtype": "focus", "value": "on", "timestamp": 1693565953619, "interval": 1}, {"eventtype": "window_resize", "value": [1024, 658], "timestamp": 1693565953856, "interval": 237}, {"eventtype": "window_resize", "value": [1366, 768], "timestamp": 1693565956147, "interval": 2291}, {"eventtype": "window_resize", "value": [1024, 658], "timestamp": 1693568579674, "interval": 2623527}], "useragent": "Mozilla/5.0 (Windows NT 10.0; Win64; x64) AppleWebKit/537.36 (KHTML, like Gecko) Chrome/116.0.0.0 Safari/537.36 Edg/116.0.1938.54", "mode": "live", "id": "w43101644:a65558758", "status": "user data saved", "Beginhit": "2023-09-01 10:41:20.865186", "Beginexp": "2023-09-01 10:41:43.923899", "Endhit": "2023-09-01 11:43:02.506164", "psiturkStatus": 3, "browser": "<redacted>", "platform": "windows", "language": "en-US"}