{"condition": 1, "counterbalance": 0, "assignmentId": "a27790164", "workerId": "w96602360", "hitId": "h89173236", "currenttrial": 56, "bonus": 0, "data": [{"uniqueid": "w96602360:a27790164", "current_trial": 0, "dateTime": 1691159883674, "trialdata": {"success": true, "trial_type": "fullscreen", "trial_index": 0, "time_elapsed": 3542, "internal_node_id": "0.0-0.0"}}, {"uniqueid": "w96602360:a27790164", "current_trial": 1, "dateTime": 1691159910492, "trialdata": {"view_history": [{"page_index": 0, "viewing_time": 26815}], "rt": 26816, "trial_id": "exp_instructions_misaligned", "trial_type": "instructions", "trial_index": 1, "time_elapsed": 30360, "internal_node_id": "0.0-1.0"}}, {"uniqueid": "w96602360:a27790164", "current_trial": 2, "dateTime": 1691159915750, "trialdata": {"success": true, "trial_type": "fullscreen", "trial_index": 2, "time_elapsed": 35618, "internal_node_id": "0.0-2.0-0.0"}}, {"uniqueid": "w96602360:a27790164", "current_trial": 3, "dateTime": 1691160199050, "trialdata": {"view_history": [{"page_index": 0, "viewing_time": 95124}, {"page_index": 1, "viewing_time": 104945}, {"page_index": 2, "viewing_time": 33000}, {"page_index": 3, "viewing_time": 50229}], "rt": 283299, "trial_id": "mouselab_instructions_1_misaligned", "trial_type": "instructions", "trial_index": 3, "time_elapsed": 318918, "internal_node_id": "0.0-2.0-1.0"}}, {"uniqueid": "w96602360:a27790164", "current_trial": 4, "dateTime": 1691160235919, "trialdata": {"revealed_states": [], "clicked_states": ["24", "23", "25", "26", "29", "28", "30", "33"], "num_clicks_accrued": [0, 0, 0, 0, 0, 0, 0, 0, 0, 0, 0, 0, 0], "stateRewards": ["", 10, -10, 10, -10, 10, 10, 10, -10, 10, -10, 10, -10, 10, -10, -10, 10, 10, -10, -10, 10, -10, -10, -10, 10, 10, -10, -10, 10, -10, 10, 10, -10, 10], "withholdReward": false, "trial_id": "practice_1", "block": "test", "trialIndex": 0, "score": -30.5, "costs": -4, "simulationMode": [null, null, null, null, null], "rewards": [-10, 10, -10, -10, -10], "path": ["0", "0", "12", "13", "14", "19", "21"], "rt": [25143, 2771, 821, 496, 260], "actions": ["right", "right", "right", "down", "down"], "actionTimes": [26557, 29826, 31150, 32146, 32904], "queries": {"click": {"state": {"target": ["24", "23", "25", "26", "29", "28", "30", "33"], "time": [3865, 5073, 7081, 13141, 15305, 17429, 19124, 20821]}, "edge": {"target": [], "time": []}}, "mouseover": {"state": {"target": ["0", "23", "24", "25", "24", "25", "23", "1", "25", "26", "29", "25", "24", "23", "24", "28", "25", "30", "33", "25", "24", "23", "24", "25", "23"], "time": [2061, 2154, 2362, 3426, 3732, 4125, 4548, 6021, 6915, 7583, 14472, 15993, 16162, 16369, 16619, 17197, 18119, 18320, 19881, 22306, 22632, 22751, 23203, 23293, 24947]}, "edge": {"target": [], "time": []}}, "mouseout": {"state": {"target": ["0", "23", "26", "29", "24", "23", "0", "0", "23", "24", "25", "24", "25", "24", "23", "1", "25", "26", "29", "25", "24", "23", "24", "26", "28", "25", "30", "33", "25", "24", "23", "24", "25", "23"], "time": [null, null, null, null, 8, 152, 610, 2112, 2307, 3014, 3690, 4069, 4485, 4533, 5489, 6505, 7154, 14416, 15919, 16051, 16231, 16591, 16662, 17154, 17976, 18212, 19791, 22257, 22340, 22695, 23168, 23251, 23453, 26032]}, "edge": {"target": [], "time": []}}}, "displayed_time": "33.40", "trialTime": 35949, "trial_type": "mouselab-mdp", "trial_index": 4, "time_elapsed": 355787, "internal_node_id": "0.0-2.0-2.0-0.0"}}, {"uniqueid": "w96602360:a27790164", "current_trial": 5, "dateTime": 1691160253011, "trialdata": {"revealed_states": [], "clicked_states": ["23", "24", "25", "26", "29"], "num_clicks_accrued": [0, 0, 0, 0, 0, 0, 0, 0, 0, 0, 0, 0, 0], "stateRewards": ["", 10, 10, -10, -10, 10, 10, -10, 10, 10, -10, 10, -10, 10, -10, 10, -10, 10, 10, -10, -10, 10, -10, 10, 10, 10, -10, -10, 10, 10, -10, 10, -10, 10], "withholdReward": false, "trial_id": "practice_2", "block": "test", "trialIndex": 1, "score": 31, "costs": -2.5, "simulationMode": [null, null, null, null, null], "rewards": [10, 10, 10, -10, 10], "path": ["0", "0", "23", "24", "25", "26", "29"], "rt": [9638, 371, 274, 271, 153], "actions": ["left", "left", "left", "up", "left"], "actionTimes": [11097, 11970, 12747, 13521, 14175], "queries": {"click": {"state": {"target": ["23", "24", "25", "26", "29"], "time": [2029, 3165, 4452, 6150, 7622]}, "edge": {"target": [], "time": []}}, "mouseover": {"state": {"target": ["23", "24", "23", "24", "25", "24", "25", "26", "29", "25"], "time": [1599, 1661, 1870, 2372, 2790, 3031, 3428, 4987, 6512, 8848]}, "edge": {"target": [], "time": []}}, "mouseout": {"state": {"target": ["0", "23", "24", "23", "24", "25", "24", "25", "26", "29", "25"], "time": [1571, 1640, 1828, 2336, 2733, 2988, 3349, 4761, 6228, 7935, 9029]}, "edge": {"target": [], "time": []}}}, "displayed_time": "14.68", "trialTime": 16957, "trial_type": "mouselab-mdp", "trial_index": 5, "time_elapsed": 372879, "internal_node_id": "0.0-2.0-2.0-1.0"}}, {"uniqueid": "w96602360:a27790164", "current_trial": 6, "dateTime": 1691160306162, "trialdata": {"view_history": [{"page_index": 0, "viewing_time": 37384}, {"page_index": 1, "viewing_time": 15766}], "rt": 53150, "trial_id": "mouselab_instructions_2_misaligned", "trial_type": "instructions", "trial_index": 6, "time_elapsed": 426030, "internal_node_id": "0.0-2.0-3.0"}}, {"uniqueid": "w96602360:a27790164", "current_trial": 7, "dateTime": 1691160367877, "trialdata": {"rt": 61712, "response": {"Q0": "The cost for clicking on nodes may vary between nodes.", "Q1": "The better I perform the higher my bonus will be.", "Q2": "No, the amount of cash at each node of the web may be different each time.", "Q3": "To get the highest total score.", "Q4": "Only before moving the spider.", "Q5": "3 seconds"}, "question_order": [0, 1, 2, 3, 4, 5], "correct": {"Q0": "The cost for clicking on nodes may vary between nodes.", "Q1": "The better I perform the higher my bonus will be.", "Q2": "No, the amount of cash at each node of the web may be different each time.", "Q3": "To get the highest total score.", "Q4": "Only before moving the spider.", "Q5": "3 seconds"}, "trial_id": "mouselab_quiz_misaligned", "trial_type": "survey-multi-choice", "trial_index": 7, "time_elapsed": 487745, "internal_node_id": "0.0-2.0-4.0"}}, {"uniqueid": "w96602360:a27790164", "current_trial": 8, "dateTime": 1691160373603, "trialdata": {"rt": 5721, "stimulus": "\n<h1> Get ready to start the game! </h1>\n\nThank you for reading the instructions. Get ready start with the 40 rounds of this game.\n<br><br>\nIf you need to take a break, feel free to take one after the end of a round, before continuing to the next one.\n<br><br>\nRemember, the more money the spider gets, the bigger your bonus will be!\n<br><br>\n<div style='text-align: center;'>Press <code>space</code> to begin.</div>\n\n<br><br>\n(If, at any point, the <code>space</code> key does not take you to the next page, click once on the text and try again.)", "response": " ", "trial_id": "mdp_ready", "trial_type": "html-keyboard-response", "trial_index": 8, "time_elapsed": 493471, "internal_node_id": "0.0-4.0-0.0"}}, {"uniqueid": "w96602360:a27790164", "current_trial": 9, "dateTime": 1691160390755, "trialdata": {"revealed_states": [], "clicked_states": ["23", "24", "25", "26", "29"], "num_clicks_accrued": [0, 0, 0, 0, 0, 0, 0, 0, 0, 0, 0, 0, 0], "stateRewards": ["", -1, 1, -2, 5, 73, 15, 61, 8, 7, 38, 76, 2, 2, -4, -6, -6, -26, 43, -5, -45, -85, -35, -2, 1, -4, 15, -10, 69, 72, -11, 84, -49, -38], "withholdReward": false, "trial_id": "mdp_trial_1", "block": "test", "trialIndex": 2, "score": 63.25, "costs": -4.75, "simulationMode": [null, null, null, null, null], "rewards": [-2, 1, -4, -11, 84], "path": ["0", "0", "23", "24", "25", "30", "31"], "rt": [5949, 368, 644, 220, 933], "actions": ["left", "left", "left", "down", "right"], "actionTimes": [7169, 8037, 9182, 9912, 11348], "queries": {"click": {"state": {"target": ["23", "24", "25", "26", "29"], "time": [2547, 2887, 3414, 3855, 4215]}, "edge": {"target": [], "time": []}}, "mouseover": {"state": {"target": ["23", "24", "25", "26", "29", "30", "30", "31"], "time": [1767, 2717, 3158, 3700, 4119, 5074, 5982, 6078]}, "edge": {"target": [], "time": []}}, "mouseout": {"state": {"target": ["6", "7", "1", "0", "23", "24", "25", "26", "29", "26", "30", "30", "31"], "time": [361, 452, 542, 1696, 2686, 3082, 3612, 4066, 4543, 4695, 5512, 6012, 12504]}, "edge": {"target": [], "time": []}}}, "displayed_time": "15.22", "trialTime": 17016, "trial_type": "mouselab-mdp", "trial_index": 9, "time_elapsed": 510623, "internal_node_id": "0.0-4.0-1.0-0.0"}}, {"uniqueid": "w96602360:a27790164", "current_trial": 10, "dateTime": 1691160409693, "trialdata": {"revealed_states": [], "clicked_states": ["12", "13", "14", "15", "18"], "num_clicks_accrued": [0, 0, 0, 0, 0, 0, 0, 0, 0, 0, 0, 0, 0], "stateRewards": ["", -1, 2, -2, 5, 80, -61, -27, 12, 44, -26, -75, -2, -4, 1, -16, 42, -49, -50, 4, -44, 2, 80, -2, -2, 5, -2, 59, 10, 24, 7, -48, -86, -44], "withholdReward": false, "trial_id": "mdp_trial_2", "block": "test", "trialIndex": 3, "score": -3.75, "costs": -4.75, "simulationMode": [null, null, null, null, null], "rewards": [-2, -4, 1, 4, 2], "path": ["0", "0", "12", "13", "14", "19", "21"], "rt": [8550, 287, 311, 184, 728], "actions": ["right", "right", "right", "down", "down"], "actionTimes": [10595, 11383, 12197, 12887, 14120], "queries": {"click": {"state": {"target": ["12", "13", "14", "15", "18"], "time": [2651, 3137, 4029, 4713, 4971]}, "edge": {"target": [], "time": []}}, "mouseover": {"state": {"target": ["12", "13", "18", "14", "15", "18", "16", "17", "19", "22"], "time": [2383, 2921, 3468, 3928, 4262, 4870, 5195, 5652, 6259, 7718]}, "edge": {"target": [], "time": []}}, "mouseout": {"state": {"target": ["23", "0", "12", "13", "18", "14", "15", "18", "16", "17", "14", "19", "22"], "time": [686, 2341, 2882, 3326, 3791, 4110, 4843, 5058, 5497, 6052, 6169, 7520, 15029]}, "edge": {"target": [], "time": []}}}, "displayed_time": "16.05", "trialTime": 18810, "trial_type": "mouselab-mdp", "trial_index": 10, "time_elapsed": 529561, "internal_node_id": "0.0-4.0-1.0-1.0"}}, {"uniqueid": "w96602360:a27790164", "current_trial": 11, "dateTime": 1691160426423, "trialdata": {"revealed_states": [], "clicked_states": ["23", "24", "25", "26", "29"], "num_clicks_accrued": [0, 0, 0, 0, 0, 0, 0, 0, 0, 0, 0, 0, 0], "stateRewards": ["", -2, 1, -5, 2, -68, 80, 33, 10, 67, -59, 20, -1, -3, 3, 14, 74, -2, 24, -16, 63, 80, 46, -1, 4, 6, 12, 83, -38, -43, -4, 43, 14, -79], "withholdReward": false, "trial_id": "mdp_trial_3", "block": "test", "trialIndex": 4, "score": -78.75, "costs": -4.75, "simulationMode": [null, null, null, null, null], "rewards": [-1, 4, 6, -4, -79], "path": ["0", "0", "23", "24", "25", "30", "33"], "rt": [5504, 521, 338, 1462, 1684], "actions": ["left", "left", "left", "down", "left"], "actionTimes": [6335, 7359, 8197, 10163, 12352], "queries": {"click": {"state": {"target": ["23", "24", "25", "26", "29"], "time": [1325, 2005, 2286, 2597, 2944]}, "edge": {"target": [], "time": []}}, "mouseover": {"state": {"target": ["23", "24", "25", "26", "29", "27", "30", "31"], "time": [1185, 1545, 2158, 2455, 2815, 3170, 3651, 4827]}, "edge": {"target": [], "time": []}}, "mouseout": {"state": {"target": ["0", "23", "24", "25", "26", "29", "27", "26", "25", "30", "31"], "time": [1151, 1493, 2122, 2349, 2772, 2952, 3306, 3427, 3579, 4664, 4867]}, "edge": {"target": [], "time": []}}}, "displayed_time": "14.83", "trialTime": 16602, "trial_type": "mouselab-mdp", "trial_index": 11, "time_elapsed": 546291, "internal_node_id": "0.0-4.0-1.0-2.0"}}, {"uniqueid": "w96602360:a27790164", "current_trial": 12, "dateTime": 1691160443319, "trialdata": {"revealed_states": [], "clicked_states": ["1", "2", "10"], "num_clicks_accrued": [0, 0, 0, 0, 0, 0, 0, 0, 0, 0, 0, 0, 0], "stateRewards": ["", 2, -4, -8, -15, 71, -43, -41, 7, -17, 20, 67, -1, -1, -4, 6, 37, -24, -47, 9, 34, 57, 45, 1, 2, -4, -5, -23, 88, -5, 13, -40, 43, 44], "withholdReward": false, "trial_id": "mdp_trial_4", "block": "test", "trialIndex": 5, "score": 14.75, "costs": -2.25, "simulationMode": [null, null, null, null, null], "rewards": [2, -4, -8, 7, 20], "path": ["0", "0", "1", "2", "3", "8", "10"], "rt": [5473, 377, 3115, 1595, 207], "actions": ["up", "up", "up", "left", "down"], "actionTimes": [6346, 7230, 10848, 12950, 13660], "queries": {"click": {"state": {"target": ["1", "2", "10"], "time": [1844, 2165, 2628]}, "edge": {"target": [], "time": []}}, "mouseover": {"state": {"target": ["23", "23", "1", "2", "10", "10", "8", "9", "8", "3"], "time": [1030, 1349, 1767, 2069, 2393, 2438, 2831, 3278, 3448, 4064]}, "edge": {"target": [], "time": []}}, "mouseout": {"state": {"target": ["24", "23", "0", "23", "23", "1", "2", "10", "10", "8", "9", "8", "3", "2", "1", "0"], "time": [438, 474, 982, 1099, 1670, 1994, 2281, 2403, 2730, 3124, 3388, 3845, 4676, 5026, 6788, 14751]}, "edge": {"target": [], "time": []}}}, "displayed_time": "14.87", "trialTime": 16764, "trial_type": "mouselab-mdp", "trial_index": 12, "time_elapsed": 563187, "internal_node_id": "0.0-4.0-1.0-3.0"}}, {"uniqueid": "w96602360:a27790164", "current_trial": 13, "dateTime": 1691160460144, "trialdata": {"revealed_states": [], "clicked_states": ["1", "2", "7"], "num_clicks_accrued": [0, 0, 0, 0, 0, 0, 0, 0, 0, 0, 0, 0, 0], "stateRewards": ["", -2, 4, 3, 5, -61, 4, 30, 1, -47, 83, 10, 1, 4, 7, -14, 19, -74, -83, 6, -2, -2, -65, -1, -2, 4, -11, 12, -1, -68, 11, -38, -28, 66], "withholdReward": false, "trial_id": "mdp_trial_5", "block": "test", "trialIndex": 6, "score": 37.75, "costs": -2.25, "simulationMode": [null, null, null, null, null, null], "rewards": [-2, 4, 3, 5, 30], "path": ["0", "0", "1", "2", "3", "4", "7"], "rt": [3936, 1871, 560, 2280, 562, 258], "actions": ["up", "up", "up", "up", "right", "down"], "actionTimes": [4761, 6634, 7699, 10482, 11548, 12313], "queries": {"click": {"state": {"target": ["1", "2", "7"], "time": [1331, 2001, 2360]}, "edge": {"target": [], "time": []}}, "mouseover": {"state": {"target": ["1", "2", "7", "4", "3", "1", "1"], "time": [1207, 1740, 2237, 2538, 2903, 5399, 6285]}, "edge": {"target": [], "time": []}}, "mouseout": {"state": {"target": ["0", "0", "1", "2", "7", "4", "3", "2", "1", "1"], "time": [220, 1117, 1566, 2195, 2444, 2882, 3475, 3790, 5483, 7084]}, "edge": {"target": [], "time": []}}}, "displayed_time": "14.83", "trialTime": 16694, "trial_type": "mouselab-mdp", "trial_index": 13, "time_elapsed": 580012, "internal_node_id": "0.0-4.0-1.0-4.0"}}, {"uniqueid": "w96602360:a27790164", "current_trial": 14, "dateTime": 1691160477192, "trialdata": {"revealed_states": [], "clicked_states": ["23", "24", "25", "26", "29"], "num_clicks_accrued": [0, 0, 0, 0, 0, 0, 0, 0, 0, 0, 0, 0, 0], "stateRewards": ["", 1, -1, 8, 4, 76, -33, -17, -3, -1, -54, -74, -2, 2, -5, 13, -51, 63, 83, 1, 84, 29, -36, 2, -1, 7, -12, -10, -44, -43, -14, 8, -69, 19], "withholdReward": false, "trial_id": "mdp_trial_6", "block": "test", "trialIndex": 7, "score": -2.75, "costs": -4.75, "simulationMode": [null, null, null, null, null, null], "rewards": [2, -1, 7, -14, 8], "path": ["0", "0", "23", "24", "25", "30", "31"], "rt": [3965, 5021, 497, 350, 114, 335], "actions": ["left", "left", "left", "left", "down", "right"], "actionTimes": [4899, 9922, 10919, 11772, 12387, 13228], "queries": {"click": {"state": {"target": ["23", "24", "25", "26", "29"], "time": [1245, 1474, 1775, 2058, 2366]}, "edge": {"target": [], "time": []}}, "mouseover": {"state": {"target": ["23", "24", "25", "26", "29", "27", "28"], "time": [1042, 1366, 1677, 1966, 2297, 2594, 3200]}, "edge": {"target": [], "time": []}}, "mouseout": {"state": {"target": ["1", "0", "23", "24", "25", "26", "29", "27", "28", "23"], "time": [465, 812, 1343, 1491, 1862, 2211, 2477, 2814, 3248, 3904]}, "edge": {"target": [], "time": []}}}, "displayed_time": "14.93", "trialTime": 16915, "trial_type": "mouselab-mdp", "trial_index": 14, "time_elapsed": 597059, "internal_node_id": "0.0-4.0-1.0-5.0"}}, {"uniqueid": "w96602360:a27790164", "current_trial": 15, "dateTime": 1691160493466, "trialdata": {"revealed_states": [], "clicked_states": ["1", "2", "10", "4", "3", "8"], "num_clicks_accrued": [0, 0, 0, 0, 0, 0, 0, 0, 0, 0, 0, 0, 0], "stateRewards": ["", 1, 1, 1, 15, -76, 52, -32, 14, -57, 37, 49, 1, -4, -3, 6, 83, -76, 25, 9, 36, -1, -17, -1, 4, 4, -2, -22, -21, 58, -15, -57, 49, -24], "withholdReward": false, "trial_id": "mdp_trial_7", "block": "test", "trialIndex": 8, "score": 47.7, "costs": -6.3, "simulationMode": [null, null, null, null, null], "rewards": [1, 1, 1, 14, 37], "path": ["0", "0", "1", "2", "3", "8", "10"], "rt": [8842, 312, 1445, 233, 195], "actions": ["up", "up", "up", "left", "down"], "actionTimes": [9567, 10380, 12326, 13060, 13763], "queries": {"click": {"state": {"target": ["1", "2", "10", "4", "3", "8"], "time": [1255, 1623, 1873, 5073, 6420, 7225]}, "edge": {"target": [], "time": []}}, "mouseover": {"state": {"target": ["1", "2", "10", "8", "9", "8", "3", "4", "3", "3", "8", "2", "1"], "time": [1043, 1511, 1760, 2106, 2472, 2933, 3253, 4769, 5321, 5804, 6861, 8641, 8926]}, "edge": {"target": [], "time": []}}, "mouseout": {"state": {"target": ["0", "1", "2", "10", "8", "9", "8", "3", "4", "3", "3", "8", "2"], "time": [869, 1400, 1742, 1986, 2398, 2866, 3142, 4734, 5253, 5576, 6764, 7604, 8683]}, "edge": {"target": [], "time": []}}}, "displayed_time": "14.73", "trialTime": 16145, "trial_type": "mouselab-mdp", "trial_index": 15, "time_elapsed": 613333, "internal_node_id": "0.0-4.0-1.0-6.0"}}, {"uniqueid": "w96602360:a27790164", "current_trial": 16, "dateTime": 1691160515786, "trialdata": {"revealed_states": [], "clicked_states": ["10", "1", "2", "7", "3", "8", "9", "5"], "num_clicks_accrued": [0, 0, 0, 0, 0, 0, 0, 0, 0, 0, 0, 0, 0], "stateRewards": ["", 1, 2, -8, 9, 18, -83, -11, 6, -64, -48, 17, -2, -2, -5, -3, -24, -3, -86, -2, 48, -41, -22, -2, 4, 7, 8, 81, 13, -48, 10, 61, 19, 57], "withholdReward": false, "trial_id": "mdp_trial_8", "block": "test", "trialIndex": 9, "score": 68.8, "costs": -11.200000000000001, "simulationMode": [null, null, null, null, null], "rewards": [-2, 4, 7, 10, 61], "path": ["0", "0", "23", "24", "25", "30", "31"], "rt": [16374, 157, 257, 152, 170], "actions": ["left", "left", "left", "down", "right"], "actionTimes": [17465, 18127, 18885, 19535, 20206], "queries": {"click": {"state": {"target": ["10", "1", "2", "7", "3", "8", "9", "5"], "time": [1998, 4847, 5231, 5638, 8587, 9126, 9494, 12684]}, "edge": {"target": [], "time": []}}, "mouseover": {"state": {"target": ["1", "10", "10", "8", "3", "2", "1", "1", "2", "7", "4", "3", "8", "3", "8", "9", "11", "4", "5", "6", "4", "5", "4", "1", "0", "1"], "time": [1391, 1509, 1838, 2219, 2556, 2963, 3396, 4725, 5043, 5495, 5869, 6292, 7965, 8482, 9045, 9393, 9762, 10363, 11035, 11646, 12010, 12423, 12969, 14323, 15493, 15879]}, "edge": {"target": [], "time": []}}, "mouseout": {"state": {"target": ["1", "1", "10", "10", "8", "3", "2", "1", "1", "2", "7", "4", "3", "8", "3", "8", "9", "11", "8", "3", "4", "5", "6", "4", "5", "4", "1", "0"], "time": [333, 1419, 1628, 2123, 2512, 2899, 3315, 4534, 4967, 5262, 5692, 6137, 7887, 8446, 8999, 9268, 9688, 10183, 10268, 10329, 10987, 11423, 11963, 12381, 12870, 13972, 14872, 15627]}, "edge": {"target": [], "time": []}}}, "displayed_time": "20.72", "trialTime": 22185, "trial_type": "mouselab-mdp", "trial_index": 16, "time_elapsed": 635654, "internal_node_id": "0.0-4.0-1.0-7.0"}}, {"uniqueid": "w96602360:a27790164", "current_trial": 17, "dateTime": 1691160532404, "trialdata": {"revealed_states": [], "clicked_states": ["2", "1", "7", "4", "5", "3"], "num_clicks_accrued": [0, 0, 0, 0, 0, 0, 0, 0, 0, 0, 0, 0, 0], "stateRewards": ["", 1, -1, 1, 13, 31, -56, 72, 2, 41, 5, 63, -2, -3, -2, 3, -71, -26, 52, 13, -31, 24, -67, 2, -2, 5, 4, 66, 43, 72, 9, 86, -26, 44], "withholdReward": false, "trial_id": "mdp_trial_9", "block": "test", "trialIndex": 10, "score": 79.1, "costs": -6.8999999999999995, "simulationMode": [null, null, null, null, null], "rewards": [1, -1, 1, 13, 72], "path": ["0", "0", "1", "2", "3", "4", "7"], "rt": [8862, 169, 126, 352, 210], "actions": ["up", "up", "up", "right", "down"], "actionTimes": [9817, 10491, 11117, 11972, 12685], "queries": {"click": {"state": {"target": ["2", "1", "7", "4", "5", "3"], "time": [1388, 1803, 2471, 5280, 5806, 8729]}, "edge": {"target": [], "time": []}}, "mouseover": {"state": {"target": ["1", "2", "1", "7", "4", "4", "4", "6", "4", "5", "4", "5", "6", "3", "3"], "time": [1140, 1299, 1691, 2381, 2689, 2899, 3031, 3525, 4479, 4864, 5190, 5716, 6112, 7503, 8383]}, "edge": {"target": [], "time": []}}, "mouseout": {"state": {"target": ["1", "1", "2", "1", "2", "7", "4", "4", "4", "6", "4", "5", "4", "5", "6", "7", "7", "3", "3"], "time": [577, 1216, 1637, 1904, 2346, 2574, 2788, 2977, 3478, 4251, 4804, 5091, 5366, 5926, 7068, 7274, 7462, 8077, 9042]}, "edge": {"target": [], "time": []}}}, "displayed_time": "14.96", "trialTime": 16488, "trial_type": "mouselab-mdp", "trial_index": 17, "time_elapsed": 652272, "internal_node_id": "0.0-4.0-1.0-8.0"}}, {"uniqueid": "w96602360:a27790164", "current_trial": 18, "dateTime": 1691160549910, "trialdata": {"revealed_states": [], "clicked_states": ["1", "2", "7", "3", "4"], "num_clicks_accrued": [0, 0, 0, 0, 0, 0, 0, 0, 0, 0, 0, 0, 0], "stateRewards": ["", -2, -1, -5, 10, -36, -70, 68, -9, 86, 71, -10, 2, -4, 7, -7, 66, 44, -66, -13, -69, 43, 15, -2, 2, 6, -13, 62, 57, 50, -10, -69, 42, -72], "withholdReward": false, "trial_id": "mdp_trial_10", "block": "test", "trialIndex": 11, "score": 65.25, "costs": -4.75, "simulationMode": [null, null, null, null, null], "rewards": [-2, -1, -5, 10, 68], "path": ["0", "0", "1", "2", "3", "4", "7"], "rt": [7830, 218, 253, 133, 190], "actions": ["up", "up", "up", "right", "down"], "actionTimes": [9761, 10483, 11236, 11867, 12557], "queries": {"click": {"state": {"target": ["1", "2", "7", "3", "4"], "time": [2516, 2788, 3210, 7114, 7612]}, "edge": {"target": [], "time": []}}, "mouseover": {"state": {"target": ["1", "2", "1", "2", "7", "4", "3", "4"], "time": [2063, 2348, 2439, 2657, 3055, 3472, 3932, 7410]}, "edge": {"target": [], "time": []}}, "mouseout": {"state": {"target": ["2", "0", "0", "23", "1", "1", "2", "1", "2", "7", "4", "3", "4", "4", "7", "4", "1"], "time": [291, 672, 811, 902, 1679, 2202, 2376, 2601, 2952, 3352, 3886, 7332, 7693, 7924, 8454, 8611, 17106]}, "edge": {"target": [], "time": []}}}, "displayed_time": "15.93", "trialTime": 17372, "trial_type": "mouselab-mdp", "trial_index": 18, "time_elapsed": 669778, "internal_node_id": "0.0-4.0-1.0-9.0"}}, {"uniqueid": "w96602360:a27790164", "current_trial": 19, "dateTime": 1691160565766, "trialdata": {"revealed_states": [], "clicked_states": ["1", "2", "10", "3", "8"], "num_clicks_accrued": [0, 0, 0, 0, 0, 0, 0, 0, 0, 0, 0, 0, 0], "stateRewards": ["", 1, 2, 3, 16, 63, -25, 16, -4, -14, 82, -66, -1, -3, -3, -11, -14, 19, 46, 3, -34, -82, 66, -2, -3, 4, -5, -63, 77, -37, -1, -45, -41, 84], "withholdReward": false, "trial_id": "mdp_trial_11", "block": "test", "trialIndex": 12, "score": 79.25, "costs": -4.75, "simulationMode": [null, null, null, null, null], "rewards": [1, 2, 3, -4, 82], "path": ["0", "0", "1", "2", "3", "8", "10"], "rt": [7945, 137, 156, 119, 153], "actions": ["up", "up", "up", "left", "down"], "actionTimes": [8611, 9249, 9907, 10530, 11188], "queries": {"click": {"state": {"target": ["1", "2", "10", "3", "8"], "time": [1113, 1647, 2151, 6344, 7270]}, "edge": {"target": [], "time": []}}, "mouseover": {"state": {"target": ["1", "2", "10", "8", "3", "7", "7", "3", "8", "2"], "time": [977, 1365, 1881, 2496, 3201, 3307, 4047, 6121, 6640, 8099]}, "edge": {"target": [], "time": []}}, "mouseout": {"state": {"target": ["1", "1", "2", "10", "8", "3", "7", "7", "3", "8", "2"], "time": [351, 1234, 1836, 2311, 3145, 3257, 3774, 6017, 6590, 7777, 8805]}, "edge": {"target": [], "time": []}}}, "displayed_time": "14.67", "trialTime": 15716, "trial_type": "mouselab-mdp", "trial_index": 19, "time_elapsed": 685634, "internal_node_id": "0.0-4.0-1.0-10.0"}}, {"uniqueid": "w96602360:a27790164", "current_trial": 20, "dateTime": 1691160594251, "trialdata": {"revealed_states": [], "clicked_states": ["1", "12", "13", "2", "3", "4", "7", "14", "19", "22", "21", "20"], "num_clicks_accrued": [0, 0, 0, 0, 0, 0, 0, 0, 0, 0, 0, 0, 0], "stateRewards": ["", -1, -3, 1, -4, -48, -63, -49, -2, -84, -19, 65, 2, -2, -2, -12, -4, 59, 9, 6, 75, 69, -13, -1, -3, -3, -2, -37, -68, -36, 13, 32, 18, -14], "withholdReward": false, "trial_id": "mdp_trial_12", "block": "test", "trialIndex": 13, "score": 65.2, "costs": -13.8, "simulationMode": [null, null, null, null, null, null], "rewards": [2, -2, -2, 6, 75], "path": ["0", "0", "12", "13", "14", "19", "20"], "rt": [20524, 1140, 185, 193, 183, 183], "actions": ["right", "right", "right", "right", "down", "right"], "actionTimes": [22267, 23409, 24095, 24792, 25486, 26172], "queries": {"click": {"state": {"target": ["1", "12", "13", "2", "3", "4", "7", "14", "19", "22", "21", "20"], "time": [2334, 3014, 3981, 5381, 6091, 6821, 7285, 10981, 11698, 12552, 15868, 19562]}, "edge": {"target": [], "time": []}}, "mouseover": {"state": {"target": ["1", "1", "12", "7", "18", "13", "2", "2", "3", "4", "7", "13", "14", "19", "22", "21", "20", "13"], "time": [1943, 2179, 2728, 3512, 3790, 3839, 4559, 5245, 5816, 6513, 7080, 7931, 8318, 11531, 12258, 13000, 16311, 20368]}, "edge": {"target": [], "time": []}}, "mouseout": {"state": {"target": ["7", "2", "1", "1", "1", "12", "7", "18", "13", "2", "2", "3", "4", "7", "13", "14", "19", "22", "21", "20", "13"], "time": [267, 677, 1295, 2005, 2590, 3108, 3728, 3799, 4079, 5092, 5475, 6442, 6992, 7813, 8144, 11414, 12077, 12899, 16133, 20121, 22562]}, "edge": {"target": [], "time": []}}}, "displayed_time": "26.67", "trialTime": 28351, "trial_type": "mouselab-mdp", "trial_index": 20, "time_elapsed": 714119, "internal_node_id": "0.0-4.0-1.0-11.0"}}, {"uniqueid": "w96602360:a27790164", "current_trial": 21, "dateTime": 1691160614725, "trialdata": {"revealed_states": [], "clicked_states": ["18", "16", "15"], "num_clicks_accrued": [0, 0, 0, 0, 0, 0, 0, 0, 0, 0, 0, 0, 0], "stateRewards": ["", -2, -3, 4, 1, 33, -53, 15, 9, -12, 61, -6, -2, 4, 6, -11, 47, -43, -7, -11, 46, 23, -28, -1, -1, 3, -10, 11, 76, -76, 10, 18, -38, 87], "withholdReward": false, "trial_id": "mdp_trial_13", "block": "test", "trialIndex": 14, "score": 38.15, "costs": -5.85, "simulationMode": [null, null, null, null, null], "rewards": [-2, 4, 6, -11, 47], "path": ["0", "0", "12", "13", "14", "15", "16"], "rt": [14468, 175, 217, 440, 211], "actions": ["right", "right", "right", "up", "up"], "actionTimes": [15281, 15962, 16687, 17631, 18345], "queries": {"click": {"state": {"target": ["18", "16", "15"], "time": [1362, 4487, 8055]}, "edge": {"target": [], "time": []}}, "mouseover": {"state": {"target": ["12", "18", "13", "15", "16", "15", "14"], "time": [1052, 1157, 1565, 1987, 2521, 4865, 8502]}, "edge": {"target": [], "time": []}}, "mouseout": {"state": {"target": ["0", "0", "12", "18", "13", "15", "16", "15"], "time": [489, 1025, 1074, 1517, 1868, 2457, 4764, 8416]}, "edge": {"target": [], "time": []}}}, "displayed_time": "18.85", "trialTime": 20338, "trial_type": "mouselab-mdp", "trial_index": 21, "time_elapsed": 734593, "internal_node_id": "0.0-4.0-1.0-12.0"}}, {"uniqueid": "w96602360:a27790164", "current_trial": 22, "dateTime": 1691160631897, "trialdata": {"revealed_states": [], "clicked_states": ["23", "24", "25", "30", "31", "33", "32"], "num_clicks_accrued": [0, 0, 0, 0, 0, 0, 0, 0, 0, 0, 0, 0, 0], "stateRewards": ["", -2, -3, 8, -4, -30, 31, 69, 9, 66, 87, 64, -2, 2, 8, 5, 47, 16, -39, -8, -54, 51, -19, 1, -2, -2, -11, -25, -26, 43, -9, 19, -84, 86], "withholdReward": false, "trial_id": "mdp_trial_14", "block": "test", "trialIndex": 15, "score": 64.95, "costs": -9.05, "simulationMode": [null, null, null, null, null, null], "rewards": [1, -2, -2, -9, 86], "path": ["0", "0", "23", "24", "25", "30", "33"], "rt": [10513, 1461, 101, 99, 204, 236], "actions": ["left", "left", "left", "left", "down", "left"], "actionTimes": [11403, 12865, 13467, 14069, 14772, 15509], "queries": {"click": {"state": {"target": ["23", "24", "25", "30", "31", "33", "32"], "time": [1418, 1779, 2192, 2758, 3434, 6275, 9256]}, "edge": {"target": [], "time": []}}, "mouseover": {"state": {"target": ["23", "24", "25", "30", "31", "32", "33", "32", "30", "25", "26", "23"], "time": [1269, 1633, 2034, 2468, 3166, 3832, 4358, 6710, 9611, 9660, 9816, 11927]}, "edge": {"target": [], "time": []}}, "mouseout": {"state": {"target": ["14", "13", "12", "0", "23", "24", "25", "30", "31", "32", "33", "32", "30", "25", "26", "23"], "time": [115, 385, 455, 1088, 1577, 1979, 2399, 3127, 3628, 4125, 6646, 9533, 9628, 9692, 10428, 13012]}, "edge": {"target": [], "time": []}}}, "displayed_time": "16.01", "trialTime": 17039, "trial_type": "mouselab-mdp", "trial_index": 22, "time_elapsed": 751765, "internal_node_id": "0.0-4.0-1.0-13.0"}}, {"uniqueid": "w96602360:a27790164", "current_trial": 23, "dateTime": 1691160652215, "trialdata": {"revealed_states": [], "clicked_states": ["1", "2", "10", "8", "11", "3", "4", "7", "5"], "num_clicks_accrued": [0, 0, 0, 0, 0, 0, 0, 0, 0, 0, 0, 0, 0], "stateRewards": ["", -1, -3, -7, -4, -85, -70, 79, 8, 84, -66, 42, 2, -2, -3, -16, -54, -66, 68, -3, 21, -14, 7, -2, -1, -3, -8, 75, 80, 86, -7, -84, 73, -16], "withholdReward": false, "trial_id": "mdp_trial_15", "block": "test", "trialIndex": 16, "score": 51.25, "costs": -12.75, "simulationMode": [null, null, null, null, null, null], "rewards": [-1, -3, -7, -4, 79], "path": ["0", "0", "1", "2", "3", "4", "7"], "rt": [14534, 1024, 135, 133, 105, 126], "actions": ["up", "up", "up", "up", "right", "down"], "actionTimes": [15246, 16272, 16906, 17548, 18155, 18781], "queries": {"click": {"state": {"target": ["1", "2", "10", "8", "11", "3", "4", "7", "5"], "time": [1219, 1641, 2111, 5281, 5977, 9019, 9710, 10244, 13227]}, "edge": {"target": [], "time": []}}, "mouseover": {"state": {"target": ["0", "1", "2", "10", "8", "11", "9", "3", "4", "7", "5", "5", "5", "3", "2", "1"], "time": [879, 1123, 1503, 1840, 2396, 5560, 6422, 6992, 9381, 10115, 11013, 11854, 13107, 13829, 15757, 15926]}, "edge": {"target": [], "time": []}}, "mouseout": {"state": {"target": ["0", "1", "2", "10", "8", "11", "9", "3", "4", "7", "4", "5", "5", "5", "3", "2", "1"], "time": [1040, 1391, 1793, 2295, 5520, 6316, 6934, 9331, 10009, 10749, 10845, 11486, 12966, 13521, 14156, 15822, 19462]}, "edge": {"target": [], "time": []}}}, "displayed_time": "19.28", "trialTime": 20187, "trial_type": "mouselab-mdp", "trial_index": 23, "time_elapsed": 772083, "internal_node_id": "0.0-4.0-1.0-14.0"}}, {"uniqueid": "w96602360:a27790164", "current_trial": 24, "dateTime": 1691160673454, "trialdata": {"revealed_states": [], "clicked_states": ["1", "2", "7", "4", "5", "11", "10"], "num_clicks_accrued": [0, 0, 0, 0, 0, 0, 0, 0, 0, 0, 0, 0, 0], "stateRewards": ["", 2, 3, -1, 6, 44, -4, -59, -14, -3, 64, 16, 1, -3, 3, 6, 3, 49, 19, 3, -49, -14, -86, 1, 2, -3, -8, -33, 14, 32, -13, -77, -47, -67], "withholdReward": false, "trial_id": "mdp_trial_16", "block": "test", "trialIndex": 17, "score": 43.75, "costs": -10.25, "simulationMode": [null, null, null, null, null], "rewards": [2, 3, -1, -14, 64], "path": ["0", "0", "1", "2", "3", "8", "10"], "rt": [16213, 160, 203, 95, 145], "actions": ["up", "up", "up", "left", "down"], "actionTimes": [16923, 17589, 18295, 18889, 19536], "queries": {"click": {"state": {"target": ["1", "2", "7", "4", "5", "11", "10"], "time": [1339, 1889, 2234, 5164, 5642, 8584, 12252]}, "edge": {"target": [], "time": []}}, "mouseover": {"state": {"target": ["1", "2", "7", "4", "3", "4", "5", "6", "3", "8", "10", "11", "11", "9", "8", "10", "3", "9", "8", "9", "8"], "time": [1247, 1505, 2071, 2461, 2861, 5036, 5382, 6016, 6597, 7124, 7632, 8238, 8435, 8819, 10521, 11036, 12617, 13132, 15109, 15303, 15734]}, "edge": {"target": [], "time": []}}, "mouseout": {"state": {"target": ["1", "2", "1", "1", "2", "7", "4", "3", "4", "5", "5", "6", "4", "3", "8", "10", "11", "11", "9", "8", "10", "3", "9", "8", "9", "8", "10", "2", "3"], "time": [121, 427, 475, 1441, 2023, 2340, 2811, 4989, 5253, 5705, 5843, 6399, 6465, 7091, 7591, 7904, 8343, 8697, 9335, 10988, 12412, 12884, 15032, 15228, 15672, 15790, 15880, 20135, 20329]}, "edge": {"target": [], "time": []}}}, "displayed_time": "20.04", "trialTime": 21093, "trial_type": "mouselab-mdp", "trial_index": 24, "time_elapsed": 793322, "internal_node_id": "0.0-4.0-1.0-15.0"}}, {"uniqueid": "w96602360:a27790164", "current_trial": 25, "dateTime": 1691160705257, "trialdata": {"revealed_states": [], "clicked_states": ["32", "33", "27", "31", "28", "29", "25", "24", "23", "26"], "num_clicks_accrued": [0, 0, 0, 0, 0, 0, 0, 0, 0, 0, 0, 0, 0], "stateRewards": ["", -1, 2, -2, 13, -56, -28, 10, 14, 53, -80, -29, 1, -3, -3, -14, 14, 9, -40, -9, 18, 18, 48, 1, 1, 1, -9, 64, -39, -9, 7, -52, -78, 7], "withholdReward": false, "trial_id": "mdp_trial_17", "block": "test", "trialIndex": 18, "score": 42.5, "costs": -15.5, "simulationMode": [null, null, null, null, null], "rewards": [1, 1, 1, -9, 64], "path": ["0", "0", "23", "24", "25", "26", "27"], "rt": [22447, 132, 170, 199, 54], "actions": ["left", "left", "left", "up", "up"], "actionTimes": [27569, 28211, 28889, 29591, 30149], "queries": {"click": {"state": {"target": ["32", "33", "27", "31", "28", "29", "25", "24", "23", "26"], "time": [5589, 8654, 11480, 14445, 17732, 20859, 23853, 24534, 25161, 26215]}, "edge": {"target": [], "time": []}}, "mouseover": {"state": {"target": ["0", "32", "30", "33", "30", "31", "30", "33", "30", "31", "30", "33", "30", "31", "24", "28", "28", "26", "29", "27", "28", "26", "29", "25", "31", "30", "29", "26", "28", "26", "29", "25", "25", "24", "23", "26"], "time": [5140, 5492, 5762, 5876, 6172, 6239, 7024, 7488, 7818, 7885, 8371, 8467, 8786, 8968, 9316, 9390, 9572, 10515, 10649, 11216, 11994, 13012, 13056, 13639, 13900, 14693, 15001, 15937, 16436, 18049, 18164, 21429, 21698, 24192, 24959, 25878]}, "edge": {"target": [], "time": []}}, "mouseout": {"state": {"target": ["2", "1", "22", "21", "25", "31", "32", "30", "31", "32", "30", "31", "0", "0", "32", "30", "33", "30", "31", "30", "33", "30", "31", "30", "33", "30", "31", "24", "28", "28", "26", "29", "27", "28", "26", "29", "25", "31", "30", "29", "26", "28", "28", "26", "29", "25", "25", "24", "23", "24", "26", "23"], "time": [307, 389, 835, 1168, 1939, 2106, 3613, 3684, 3733, 3935, 3963, 4074, 4977, 5151, 5696, 5773, 6139, 6206, 6974, 7121, 7792, 7852, 8355, 8398, 8753, 8827, 9283, 9349, 9440, 10466, 10573, 11133, 11857, 12993, 13038, 13573, 13705, 14660, 14702, 15743, 16200, 17812, 18008, 18099, 21259, 21455, 24151, 24849, 25362, 25484, 26531, 28203]}, "edge": {"target": [], "time": []}}}, "displayed_time": "30.65", "trialTime": 31671, "trial_type": "mouselab-mdp", "trial_index": 25, "time_elapsed": 825125, "internal_node_id": "0.0-4.0-1.0-16.0"}}, {"uniqueid": "w96602360:a27790164", "current_trial": 26, "dateTime": 1691160762867, "trialdata": {"revealed_states": [], "clicked_states": ["1", "2", "10", "11", "6", "7", "5", "16", "18", "17", "20", "22", "21", "31", "32", "33", "29", "27", "28"], "num_clicks_accrued": [0, 0, 0, 0, 0, 0, 0, 0, 0, 0, 0, 0, 0], "stateRewards": ["", -1, 1, -5, -6, -78, 47, -13, 12, 48, -88, 20, 2, -3, -2, 13, -20, 37, -57, 14, -38, 30, 31, -2, -2, 8, 2, -23, 78, 28, 12, -74, -88, 8], "withholdReward": false, "trial_id": "mdp_trial_18", "block": "test", "trialIndex": 19, "score": 47.35000000000001, "costs": -36.64999999999999, "simulationMode": [null, null, null, null, null], "rewards": [-2, -2, 8, 2, 78], "path": ["0", "0", "23", "24", "25", "26", "28"], "rt": [52728, 80, 68, 144, 170], "actions": ["left", "left", "left", "up", "right"], "actionTimes": [53395, 53974, 54547, 55192, 55871], "queries": {"click": {"state": {"target": ["1", "2", "10", "11", "6", "7", "5", "16", "18", "17", "20", "22", "21", "31", "32", "33", "29", "27", "28"], "time": [1142, 1497, 1814, 4792, 7567, 10955, 13846, 16861, 19725, 22615, 25437, 28492, 31281, 34612, 37492, 40271, 43334, 46646, 49418]}, "edge": {"target": [], "time": []}}, "mouseover": {"state": {"target": ["1", "2", "10", "8", "8", "9", "8", "11", "9", "3", "4", "7", "6", "7", "4", "5", "4", "7", "4", "5", "4", "16", "16", "16", "18", "15", "17", "20", "19", "22", "21", "21", "31", "32", "33", "29", "29", "27", "26", "28", "23", "0", "13", "12", "0", "23"], "time": [1055, 1375, 1693, 2018, 2729, 3729, 4601, 4705, 5050, 5516, 6297, 6683, 7413, 7788, 8327, 8521, 9235, 9330, 11240, 11379, 14267, 14455, 14687, 14976, 17314, 20090, 20142, 22994, 25855, 25997, 28873, 29016, 32871, 35033, 37877, 40728, 40983, 43765, 46992, 47098, 50104, 50139, 51044, 51397, 51455, 51499]}, "edge": {"target": [], "time": []}}, "mouseout": {"state": {"target": ["0", "1", "0", "1", "2", "10", "8", "8", "9", "8", "11", "9", "3", "4", "7", "6", "7", "4", "5", "4", "7", "4", "5", "4", "16", "16", "16", "18", "15", "17", "20", "19", "22", "21", "21", "31", "32", "33", "29", "29", "27", "26", "28", "23", "0", "13", "12", "0", "23", "28", "23"], "time": [200, 332, 812, 1230, 1664, 1879, 2305, 3639, 4187, 4650, 4919, 5368, 6221, 6641, 7226, 7698, 8190, 8408, 9186, 9297, 11183, 11314, 14233, 14277, 14541, 14802, 17087, 20065, 20117, 22895, 25765, 25922, 28824, 28923, 32044, 34903, 37771, 40631, 40763, 43662, 46925, 47017, 50046, 50122, 50164, 51131, 51438, 51473, 51524, 53985, 57021]}, "edge": {"target": [], "time": []}}}, "displayed_time": "56.37", "trialTime": 57448, "trial_type": "mouselab-mdp", "trial_index": 26, "time_elapsed": 882734, "internal_node_id": "0.0-4.0-1.0-17.0"}}, {"uniqueid": "w96602360:a27790164", "current_trial": 27, "dateTime": 1691160805931, "trialdata": {"revealed_states": [], "clicked_states": ["31", "32", "33", "29", "27", "28", "18", "16", "17", "20", "21", "22"], "num_clicks_accrued": [0, 0, 0, 0, 0, 0, 0, 0, 0, 0, 0, 0, 0], "stateRewards": ["", -1, 4, -6, -5, -22, -38, -38, -2, -56, 88, 14, -1, -1, -7, -6, 61, -60, 21, 11, 57, 31, -30, -2, -2, 6, -9, -44, -70, -44, -15, 34, 16, -78], "withholdReward": false, "trial_id": "mdp_trial_19", "block": "test", "trialIndex": 20, "score": 20.200000000000003, "costs": -25.799999999999994, "simulationMode": [null, null, null, null, null], "rewards": [-1, -1, -7, -6, 61], "path": ["0", "0", "12", "13", "14", "15", "16"], "rt": [38075, 44, 108, 117, 36], "actions": ["right", "right", "right", "up", "up"], "actionTimes": [39156, 39699, 40305, 40926, 41463], "queries": {"click": {"state": {"target": ["31", "32", "33", "29", "27", "28", "18", "16", "17", "20", "21", "22"], "time": [1690, 4718, 7916, 11059, 14082, 17110, 20101, 23030, 26308, 29353, 32384, 35365]}, "edge": {"target": [], "time": []}}, "mouseover": {"state": {"target": ["31", "31", "32", "33", "32", "33", "29", "27", "28", "15", "17", "15", "18", "16", "15", "17", "15", "14", "20", "21", "22"], "time": [1434, 1539, 1931, 2333, 2837, 5123, 8345, 11656, 14524, 19120, 19147, 19267, 19320, 20534, 23434, 23605, 26976, 27384, 27517, 29866, 32930]}, "edge": {"target": [], "time": []}}, "mouseout": {"state": {"target": ["0", "0", "0", "31", "31", "32", "33", "32", "33", "29", "27", "28", "15", "17", "15", "18", "16", "15", "17", "15", "14", "20", "21"], "time": [176, 516, 1226, 1469, 1840, 2273, 2769, 4976, 8240, 11173, 14442, 19042, 19129, 19225, 19301, 20433, 23344, 23451, 26877, 27001, 27402, 29737, 32840]}, "edge": {"target": [], "time": []}}}, "displayed_time": "41.96", "trialTime": 42910, "trial_type": "mouselab-mdp", "trial_index": 27, "time_elapsed": 925799, "internal_node_id": "0.0-4.0-1.0-18.0"}}, {"uniqueid": "w96602360:a27790164", "current_trial": 28, "dateTime": 1691160831010, "trialdata": {"revealed_states": [], "clicked_states": ["5", "10", "29", "11", "6", "7"], "num_clicks_accrued": [0, 0, 0, 0, 0, 0, 0, 0, 0, 0, 0, 0, 0], "stateRewards": ["", 2, -1, 8, -2, -16, 69, -39, -7, -13, -27, -86, 2, -2, 2, 13, -34, -16, -20, -5, 19, 81, 32, -2, -1, 2, -14, 20, 80, 58, 4, 70, 12, 73], "withholdReward": false, "trial_id": "mdp_trial_20", "block": "test", "trialIndex": 21, "score": 63.1, "costs": -12.9, "simulationMode": [null, null, null, null, null], "rewards": [2, -1, 8, -2, 69], "path": ["0", "0", "1", "2", "3", "4", "6"], "rt": [19806, 560, 259, 192, 137], "actions": ["up", "up", "up", "right", "right"], "actionTimes": [20530, 21594, 22356, 23047, 23680], "queries": {"click": {"state": {"target": ["5", "10", "29", "11", "6", "7"], "time": [1433, 4448, 7540, 10622, 13792, 17282]}, "edge": {"target": [], "time": []}}, "mouseover": {"state": {"target": ["1", "2", "3", "5", "9", "8", "10", "11", "26", "29", "27", "11", "27", "2", "6", "7", "7"], "time": [950, 978, 1075, 1310, 1628, 4047, 4239, 4888, 5479, 5693, 8101, 9300, 11097, 13368, 13504, 14165, 14559]}, "edge": {"target": [], "time": []}}, "mouseout": {"state": {"target": ["22", "0", "1", "2", "3", "5", "9", "8", "10", "11", "26", "29", "27", "11", "27", "2", "6", "7", "7"], "time": [177, 567, 957, 1026, 1235, 1561, 4019, 4081, 4543, 5221, 5578, 7944, 9216, 11006, 13303, 13378, 14008, 14215, 17795]}, "edge": {"target": [], "time": []}}}, "displayed_time": "24.18", "trialTime": 24934, "trial_type": "mouselab-mdp", "trial_index": 28, "time_elapsed": 950878, "internal_node_id": "0.0-4.0-1.0-19.0"}}, {"uniqueid": "w96602360:a27790164", "current_trial": 29, "dateTime": 1691160846762, "trialdata": {"revealed_states": [], "clicked_states": ["2", "1", "3", "10"], "num_clicks_accrued": [0, 0, 0, 0, 0, 0, 0, 0, 0, 0, 0, 0, 0], "stateRewards": ["", -2, -1, -4, -15, -14, -67, 32, -3, -59, 63, 31, 2, -1, -7, -15, 71, -66, -27, -3, -54, -39, 72, 2, 1, 1, -13, 77, -40, 35, -9, 35, 75, 57], "withholdReward": false, "trial_id": "mdp_trial_21", "block": "test", "trialIndex": 22, "score": 49.8, "costs": -3.1999999999999997, "simulationMode": [null, null, null, null, null], "rewards": [-2, -1, -4, -3, 63], "path": ["0", "0", "1", "2", "3", "8", "10"], "rt": [6659, 432, 257, 205, 282], "actions": ["up", "up", "up", "left", "down"], "actionTimes": [7720, 8657, 9414, 10120, 10906], "queries": {"click": {"state": {"target": ["2", "1", "3", "10"], "time": [2068, 2387, 2904, 3415]}, "edge": {"target": [], "time": []}}, "mouseover": {"state": {"target": ["2", "1", "3", "10", "8", "11", "9", "8"], "time": [1815, 2259, 2643, 3244, 3700, 3890, 4316, 7161]}, "edge": {"target": [], "time": []}}, "mouseout": {"state": {"target": ["0", "0", "2", "1", "2", "3", "10", "8", "11", "9", "8", "10", "0"], "time": [627, 1197, 2192, 2487, 2574, 3101, 3549, 3804, 4241, 7126, 7224, 8088, 13209]}, "edge": {"target": [], "time": []}}}, "displayed_time": "15.06", "trialTime": 15610, "trial_type": "mouselab-mdp", "trial_index": 29, "time_elapsed": 966630, "internal_node_id": "0.0-4.0-1.0-20.0"}}, {"uniqueid": "w96602360:a27790164", "current_trial": 30, "dateTime": 1691160863340, "trialdata": {"revealed_states": [], "clicked_states": ["7", "6", "5"], "num_clicks_accrued": [0, 0, 0, 0, 0, 0, 0, 0, 0, 0, 0, 0, 0], "stateRewards": ["", -2, -1, -6, -14, -55, 78, -13, 11, 14, -71, 59, 2, 2, 6, -6, 9, 38, 14, 7, 85, 11, 68, 1, -4, -1, -3, -63, -85, 9, -2, 63, -86, -10], "withholdReward": false, "trial_id": "mdp_trial_22", "block": "test", "trialIndex": 23, "score": 48.55, "costs": -6.449999999999999, "simulationMode": [null, null, null, null, null], "rewards": [-2, -1, -6, -14, 78], "path": ["0", "0", "1", "2", "3", "4", "6"], "rt": [9718, 436, 155, 189, 123], "actions": ["up", "up", "up", "right", "right"], "actionTimes": [10882, 11819, 12477, 13165, 13786], "queries": {"click": {"state": {"target": ["7", "6", "5"], "time": [1778, 4802, 7740]}, "edge": {"target": [], "time": []}}, "mouseover": {"state": {"target": ["1", "7", "7", "6", "5", "4", "7", "4"], "time": [1358, 1490, 1691, 2131, 5142, 8267, 8467, 9293]}, "edge": {"target": [], "time": []}}, "mouseout": {"state": {"target": ["2", "0", "0", "1", "7", "7", "6", "5", "4", "7", "4"], "time": [391, 836, 1254, 1421, 1525, 1962, 5059, 8216, 8285, 8885, 16087]}, "edge": {"target": [], "time": []}}}, "displayed_time": "15.16", "trialTime": 16416, "trial_type": "mouselab-mdp", "trial_index": 30, "time_elapsed": 983208, "internal_node_id": "0.0-4.0-1.0-21.0"}}, {"uniqueid": "w96602360:a27790164", "current_trial": 31, "dateTime": 1691160882666, "trialdata": {"revealed_states": [], "clicked_states": ["20", "21", "22", "6"], "num_clicks_accrued": [0, 0, 0, 0, 0, 0, 0, 0, 0, 0, 0, 0, 0], "stateRewards": ["", -1, 3, 2, 9, 41, 4, -46, -12, -54, -87, -25, 2, 3, -1, 11, -77, 12, -33, -9, -32, 35, 72, 1, 3, -7, 4, 37, 65, -73, 6, 77, -43, 8], "withholdReward": false, "trial_id": "mdp_trial_23", "block": "test", "trialIndex": 24, "score": 58.4, "costs": -8.6, "simulationMode": [null, null, null, null, null], "rewards": [2, 3, -1, -9, 72], "path": ["0", "0", "12", "13", "14", "19", "22"], "rt": [13082, 42, 122, 91, 695], "actions": ["right", "right", "right", "down", "left"], "actionTimes": [14727, 15268, 15890, 16484, 17680], "queries": {"click": {"state": {"target": ["20", "21", "22", "6"], "time": [2553, 5452, 8482, 11503]}, "edge": {"target": [], "time": []}}, "mouseover": {"state": {"target": ["12", "13", "14", "19", "20", "21", "21", "21", "22", "13", "15", "16", "6", "15", "14", "13", "12", "13"], "time": [1872, 1962, 2031, 2247, 2420, 2802, 3662, 3845, 5888, 9116, 9259, 9469, 10100, 12056, 12115, 12184, 12244, 13199]}, "edge": {"target": [], "time": []}}, "mouseout": {"state": {"target": ["7", "6", "16", "18", "12", "0", "12", "13", "14", "19", "20", "21", "21", "21", "22", "13", "15", "16", "6", "15", "14", "13", "12", "13"], "time": [248, 480, 994, 1183, 1260, 1732, 1933, 1990, 2087, 2288, 2725, 3074, 3703, 5674, 9065, 9126, 9370, 9991, 11938, 12082, 12149, 12218, 13084, 13389]}, "edge": {"target": [], "time": []}}}, "displayed_time": "18.18", "trialTime": 19183, "trial_type": "mouselab-mdp", "trial_index": 31, "time_elapsed": 1002533, "internal_node_id": "0.0-4.0-1.0-22.0"}}, {"uniqueid": "w96602360:a27790164", "current_trial": 32, "dateTime": 1691160910414, "trialdata": {"revealed_states": [], "clicked_states": ["20", "33", "27", "32", "21", "22", "16"], "num_clicks_accrued": [0, 0, 0, 0, 0, 0, 0, 0, 0, 0, 0, 0, 0], "stateRewards": ["", -2, -4, -2, 10, -8, -15, -47, 7, -84, 53, 5, -1, 2, -7, 3, 83, 31, 47, -1, 30, -8, 69, 2, -4, -1, 8, -7, 12, -8, -8, -13, 30, -84], "withholdReward": false, "trial_id": "mdp_trial_24", "block": "test", "trialIndex": 25, "score": 64.95, "costs": -15.05, "simulationMode": [null, null, null, null, null], "rewards": [-1, 2, -7, 3, 83], "path": ["0", "0", "12", "13", "14", "15", "16"], "rt": [23144, 28, 62, 64, 478], "actions": ["right", "right", "right", "up", "up"], "actionTimes": [24021, 24551, 25113, 25678, 26655], "queries": {"click": {"state": {"target": ["20", "33", "27", "32", "21", "22", "16"], "time": [1679, 4784, 7628, 10769, 13963, 17033, 20266]}, "edge": {"target": [], "time": []}}, "mouseover": {"state": {"target": ["0", "12", "19", "20", "20", "31", "33", "33", "32", "30", "25", "26", "27", "26", "25", "30", "32", "21", "22", "13", "16", "16", "15", "17"], "time": [1040, 1186, 1255, 1285, 1582, 2392, 2671, 2875, 5556, 6099, 6145, 6197, 6485, 8162, 8206, 8233, 8312, 11645, 14693, 17623, 17940, 18372, 20785, 21229]}, "edge": {"target": [], "time": []}}, "mouseout": {"state": {"target": ["22", "13", "1", "0", "12", "19", "20", "20", "31", "33", "33", "32", "30", "25", "26", "27", "26", "25", "30", "32", "21", "22", "13", "16", "16", "16", "15", "17", "14"], "time": [157, 282, 587, 1151, 1195, 1277, 1415, 1812, 2410, 2763, 5487, 6073, 6127, 6171, 6306, 8137, 8188, 8224, 8268, 11278, 14609, 17134, 17641, 18008, 20338, 20743, 21129, 27469, 27545]}, "edge": {"target": [], "time": []}}}, "displayed_time": "27.16", "trialTime": 27609, "trial_type": "mouselab-mdp", "trial_index": 32, "time_elapsed": 1030281, "internal_node_id": "0.0-4.0-1.0-23.0"}}, {"uniqueid": "w96602360:a27790164", "current_trial": 33, "dateTime": 1691160929295, "trialdata": {"revealed_states": [], "clicked_states": ["16", "21", "27", "32"], "num_clicks_accrued": [0, 0, 0, 0, 0, 0, 0, 0, 0, 0, 0, 0, 0], "stateRewards": ["", 1, 1, 1, -3, -7, -1, -41, -10, 20, -72, -63, 1, -4, -2, 2, -66, 30, -84, -2, 49, 23, 71, -1, -4, 4, -12, 67, 5, 18, -16, 88, 56, -5], "withholdReward": false, "trial_id": "mdp_trial_25", "block": "test", "trialIndex": 26, "score": 45.4, "costs": -8.6, "simulationMode": [null, null, null, null, null], "rewards": [-1, -4, 4, -12, 67], "path": ["0", "0", "23", "24", "25", "26", "27"], "rt": [13625, 478, 160, 101, 14], "actions": ["left", "left", "left", "up", "up"], "actionTimes": [14229, 15205, 15867, 16470, 16987], "queries": {"click": {"state": {"target": ["16", "21", "27", "32"], "time": [1414, 4812, 8033, 11018]}, "edge": {"target": [], "time": []}}, "mouseover": {"state": {"target": ["12", "18", "16", "18", "18", "15", "17", "19", "21", "31", "26", "27", "26", "25", "30", "32", "30", "25", "26", "24", "31", "24", "28"], "time": [900, 1033, 1296, 1692, 2122, 2557, 3090, 4556, 4605, 5261, 5674, 5775, 8224, 8270, 8297, 8416, 11849, 11894, 11963, 12189, 12362, 13213, 13390]}, "edge": {"target": [], "time": []}}, "mouseout": {"state": {"target": ["22", "0", "12", "18", "16", "18", "18", "15", "17", "19", "21", "31", "26", "27", "26", "25", "30", "32", "30", "25", "26", "24", "31", "24", "28", "24"], "time": [null, 844, 984, 1081, 1565, 1702, 2496, 2736, 4486, 4565, 5157, 5271, 5684, 8206, 8252, 8287, 8340, 11814, 11875, 11928, 12113, 12291, 13146, 13314, 17625, 17743]}, "edge": {"target": [], "time": []}}}, "displayed_time": "17.49", "trialTime": 18350, "trial_type": "mouselab-mdp", "trial_index": 33, "time_elapsed": 1049163, "internal_node_id": "0.0-4.0-1.0-24.0"}}, {"uniqueid": "w96602360:a27790164", "current_trial": 34, "dateTime": 1691160951383, "trialdata": {"revealed_states": [], "clicked_states": ["27", "6", "11", "7", "10"], "num_clicks_accrued": [0, 0, 0, 0, 0, 0, 0, 0, 0, 0, 0, 0, 0], "stateRewards": ["", 1, -1, 1, -14, -10, 67, -28, -11, 72, 40, -65, -1, 1, 1, -2, 8, -55, 34, -10, 61, 33, -15, 2, -4, 7, 4, -75, 63, -21, -16, 61, 19, 21], "withholdReward": false, "trial_id": "mdp_trial_26", "block": "test", "trialIndex": 27, "score": 43.25, "costs": -10.75, "simulationMode": [null, null, null, null, null], "rewards": [1, -1, 1, -14, 67], "path": ["0", "0", "1", "2", "3", "4", "6"], "rt": [17290, 147, 127, 52, 47], "actions": ["up", "up", "up", "right", "right"], "actionTimes": [18086, 18741, 19370, 19921, 20471], "queries": {"click": {"state": {"target": ["27", "6", "11", "7", "10"], "time": [1767, 4663, 7643, 10752, 13820]}, "edge": {"target": [], "time": []}}, "mouseover": {"state": {"target": ["31", "25", "26", "27", "26", "25", "22", "14", "15", "16", "4", "6", "3", "8", "11", "2", "7", "2", "10", "8", "9", "9", "8"], "time": [1168, 1279, 1474, 1661, 1994, 2108, 2288, 2374, 2436, 2532, 2827, 3060, 5171, 5199, 5847, 8513, 9046, 11103, 11173, 14348, 14385, 14797, 17760]}, "edge": {"target": [], "time": []}}, "mouseout": {"state": {"target": ["0", "31", "25", "26", "27", "26", "25", "22", "14", "15", "16", "4", "6", "3", "8", "11", "2", "7", "2", "10", "8", "9", "9", "8", "0"], "time": [925, 1196, 1419, 1564, 1951, 2021, 2152, 2314, 2418, 2488, 2542, 2990, 5078, 5181, 5363, 8255, 9003, 11067, 11138, 14305, 14367, 14437, 17698, 17789, 21730]}, "edge": {"target": [], "time": []}}}, "displayed_time": "20.97", "trialTime": 21944, "trial_type": "mouselab-mdp", "trial_index": 34, "time_elapsed": 1071251, "internal_node_id": "0.0-4.0-1.0-25.0"}}, {"uniqueid": "w96602360:a27790164", "current_trial": 35, "dateTime": 1691160970111, "trialdata": {"revealed_states": [], "clicked_states": ["9", "7", "10", "11"], "num_clicks_accrued": [0, 0, 0, 0, 0, 0, 0, 0, 0, 0, 0, 0, 0], "stateRewards": ["", 1, -2, 4, 7, -43, -83, -60, -5, -86, -80, 83, -1, -2, 6, 11, -15, 21, 13, 9, 29, -49, 11, -1, 4, -6, -11, 87, 40, 63, -8, -39, -11, 62], "withholdReward": false, "trial_id": "mdp_trial_27", "block": "test", "trialIndex": 28, "score": 72.4, "costs": -8.6, "simulationMode": [null, null, null, null, null], "rewards": [1, -2, 4, -5, 83], "path": ["0", "0", "1", "2", "3", "8", "11"], "rt": [14120, 89, 100, 168, 87], "actions": ["up", "up", "up", "left", "left"], "actionTimes": [14857, 15446, 16048, 16716, 17305], "queries": {"click": {"state": {"target": ["9", "7", "10", "11"], "time": [1453, 4521, 7629, 10723]}, "edge": {"target": [], "time": []}}, "mouseover": {"state": {"target": ["0", "23", "10", "9", "3", "5", "4", "7", "7", "2", "10", "11", "11", "8", "6", "7"], "time": [859, 1009, 1092, 1342, 1738, 1825, 2795, 2841, 3041, 4840, 4997, 7901, 8190, 10997, 11314, 14446]}, "edge": {"target": [], "time": []}}, "mouseout": {"state": {"target": ["0", "23", "0", "23", "10", "9", "3", "5", "4", "7", "7", "2", "10", "11", "11", "8", "6", "7", "0"], "time": [202, 403, 973, 1029, 1120, 1595, 1765, 2769, 2823, 2894, 4793, 4903, 7833, 7956, 10978, 11023, 14362, 14494, 18414]}, "edge": {"target": [], "time": []}}}, "displayed_time": "17.80", "trialTime": 18588, "trial_type": "mouselab-mdp", "trial_index": 35, "time_elapsed": 1089978, "internal_node_id": "0.0-4.0-1.0-26.0"}}, {"uniqueid": "w96602360:a27790164", "current_trial": 36, "dateTime": 1691161001600, "trialdata": {"revealed_states": [], "clicked_states": ["9", "7", "5", "6", "11", "10", "27", "29"], "num_clicks_accrued": [0, 0, 0, 0, 0, 0, 0, 0, 0, 0, 0, 0, 0], "stateRewards": ["", 2, -2, -8, 9, -20, 55, -58, 14, 42, 2, 36, 1, -3, -5, 5, -58, 57, 60, 16, 57, 30, -70, -2, 1, 3, 10, 59, 23, 77, -13, -26, 88, -72], "withholdReward": false, "trial_id": "mdp_trial_28", "block": "test", "trialIndex": 29, "score": 71.8, "costs": -17.2, "simulationMode": [null, null, null, null, null], "rewards": [-2, 1, 3, 10, 77], "path": ["0", "0", "23", "24", "25", "26", "29"], "rt": [26339, 59, 130, 115, 103], "actions": ["left", "left", "left", "up", "left"], "actionTimes": [27342, 27904, 28539, 29160, 29762], "queries": {"click": {"state": {"target": ["9", "7", "5", "6", "11", "10", "27", "29"], "time": [1580, 4682, 7696, 10787, 13834, 17090, 20194, 23259]}, "edge": {"target": [], "time": []}}, "mouseover": {"state": {"target": ["1", "2", "9", "8", "2", "7", "6", "7", "4", "5", "6", "4", "3", "8", "11", "10", "26", "27", "26", "29", "26", "28"], "time": [1102, 1138, 1491, 1732, 1923, 1978, 2049, 2618, 5183, 5279, 8068, 10986, 11031, 11078, 11383, 14228, 19530, 19623, 20392, 20809, 23666, 23951]}, "edge": {"target": [], "time": []}}, "mouseout": {"state": {"target": ["0", "1", "2", "9", "9", "8", "2", "7", "6", "7", "4", "5", "6", "4", "3", "8", "11", "10", "26", "27", "26", "29", "26", "28", "23"], "time": [295, 1130, 1147, 1645, 1705, 1767, 1969, 1988, 2574, 5140, 5227, 7897, 10966, 11013, 11059, 11113, 14066, 18033, 19548, 20332, 20435, 23606, 23810, 26891, 31124]}, "edge": {"target": [], "time": []}}}, "displayed_time": "30.27", "trialTime": 31353, "trial_type": "mouselab-mdp", "trial_index": 36, "time_elapsed": 1121468, "internal_node_id": "0.0-4.0-1.0-27.0"}}, {"uniqueid": "w96602360:a27790164", "current_trial": 37, "dateTime": 1691161031340, "trialdata": {"revealed_states": [], "clicked_states": ["29", "17", "6", "11", "27", "28", "31"], "num_clicks_accrued": [0, 0, 0, 0, 0, 0, 0, 0, 0, 0, 0, 0, 0], "stateRewards": ["", 2, -1, 3, -12, -83, 6, -33, 9, 28, 24, -50, -2, -1, -2, -5, -87, 37, 82, 12, 80, -5, 10, -2, -3, -6, 9, 22, -1, 16, 9, 77, -62, 58], "withholdReward": false, "trial_id": "mdp_trial_29", "block": "test", "trialIndex": 30, "score": 59.95, "costs": -15.05, "simulationMode": [null, null, null, null, null], "rewards": [-2, -3, -6, 9, 77], "path": ["0", "0", "23", "24", "25", "30", "31"], "rt": [24898, 66, 123, 299, 178], "actions": ["left", "left", "left", "down", "right"], "actionTimes": [25617, 26183, 26809, 27610, 28289], "queries": {"click": {"state": {"target": ["29", "17", "6", "11", "27", "28", "31"], "time": [1501, 5054, 8385, 11445, 14904, 18031, 21419]}, "edge": {"target": [], "time": []}}, "mouseover": {"state": {"target": ["28", "26", "29", "27", "27", "10", "16", "17", "15", "18", "18", "6", "7", "2", "8", "11", "10", "1", "27", "26", "25", "24", "28", "23", "24", "31", "32"], "time": [1125, 1180, 1367, 1784, 1999, 2547, 2645, 3001, 5391, 5428, 5963, 7833, 8725, 9119, 9349, 9398, 11823, 11955, 14644, 15180, 15286, 15419, 15629, 19776, 21088, 21172, 22293]}, "edge": {"target": [], "time": []}}, "mouseout": {"state": {"target": ["0", "28", "26", "29", "27", "27", "10", "16", "17", "15", "18", "18", "6", "6", "7", "2", "8", "11", "10", "1", "27", "26", "25", "24", "28", "23", "24", "31", "32"], "time": [978, 1153, 1189, 1587, 1870, 2486, 2566, 2698, 5364, 5410, 5463, 7743, 8465, 8631, 9090, 9155, 9359, 11728, 11850, 12188, 15144, 15242, 15339, 15489, 18673, 20971, 21123, 21732, 28853]}, "edge": {"target": [], "time": []}}}, "displayed_time": "28.79", "trialTime": 29598, "trial_type": "mouselab-mdp", "trial_index": 37, "time_elapsed": 1151208, "internal_node_id": "0.0-4.0-1.0-28.0"}}, {"uniqueid": "w96602360:a27790164", "current_trial": 38, "dateTime": 1691161080051, "trialdata": {"revealed_states": [], "clicked_states": ["31", "22", "16", "21", "20", "18", "17", "7", "6", "5", "11", "10", "9"], "num_clicks_accrued": [0, 0, 0, 0, 0, 0, 0, 0, 0, 0, 0, 0, 0], "stateRewards": ["", -2, 2, 3, -7, -31, -33, 29, -8, -57, 50, -83, -1, -1, 5, 13, -23, -62, 25, 5, -66, -85, 14, 1, -2, -1, 16, 71, 33, -19, -14, 5, -43, 79], "withholdReward": false, "trial_id": "mdp_trial_30", "block": "test", "trialIndex": 31, "score": 17.05000000000001, "costs": -27.949999999999992, "simulationMode": [null, null, null, null, null], "rewards": [-2, 2, 3, -8, 50], "path": ["0", "0", "1", "2", "3", "8", "10"], "rt": [43646, 37, 37, 449, 106], "actions": ["up", "up", "up", "left", "down"], "actionTimes": [44391, 44928, 45474, 46424, 47034], "queries": {"click": {"state": {"target": ["31", "22", "16", "21", "20", "18", "17", "7", "6", "5", "11", "10", "9"], "time": [1239, 4371, 7801, 10976, 14232, 17350, 20679, 24372, 27383, 30469, 34006, 37119, 40566]}, "edge": {"target": [], "time": []}}, "mouseover": {"state": {"target": ["31", "13", "14", "19", "22", "19", "20", "21", "19", "14", "15", "16", "15", "14", "21", "19", "20", "19", "13", "18", "15", "17", "17", "1", "28", "10", "2", "4", "7", "4", "5", "6", "5", "8", "9", "11", "10", "8", "9", "8", "10"], "time": [1110, 1578, 1616, 1808, 1871, 4768, 4839, 5613, 6619, 6656, 6712, 6930, 8021, 8111, 8323, 11495, 11566, 14526, 14599, 14907, 17656, 17744, 17979, 22235, 22435, 22808, 22870, 23043, 24159, 25112, 25141, 25890, 27640, 30810, 31116, 33824, 34406, 37381, 37461, 40959, 43517]}, "edge": {"target": [], "time": []}}, "mouseout": {"state": {"target": ["23", "0", "0", "31", "31", "13", "14", "19", "22", "19", "20", "21", "19", "14", "15", "16", "15", "14", "21", "19", "20", "19", "13", "18", "15", "17", "17", "1", "28", "10", "2", "4", "7", "4", "5", "6", "5", "8", "9", "11", "11", "10", "8", "9", "8", "10", "10", "10", "0"], "time": [400, 449, 804, 1294, 1421, 1589, 1738, 1819, 4732, 4812, 5551, 6601, 6647, 6684, 6834, 7976, 8074, 8138, 11356, 11531, 14499, 14562, 14643, 17612, 17709, 17832, 21035, 22271, 22747, 22835, 22897, 23103, 24739, 25122, 25673, 27553, 30672, 31089, 33587, 34074, 34293, 37337, 37426, 40914, 41003, 42075, 44014, 45161, 47990]}, "edge": {"target": [], "time": []}}}, "displayed_time": "47.54", "trialTime": 48571, "trial_type": "mouselab-mdp", "trial_index": 38, "time_elapsed": 1199919, "internal_node_id": "0.0-4.0-1.0-29.0"}}, {"uniqueid": "w96602360:a27790164", "current_trial": 39, "dateTime": 1691161133402, "trialdata": {"revealed_states": [], "clicked_states": ["27", "6", "16", "21", "32", "11", "9", "33", "20", "17", "29", "5", "7", "10"], "num_clicks_accrued": [0, 0, 0, 0, 0, 0, 0, 0, 0, 0, 0, 0, 0], "stateRewards": ["", 2, -1, -2, -5, -47, -57, -33, -11, 31, -18, -72, -2, 1, -4, -8, -46, -53, -50, 15, -85, -9, 39, -2, -2, 1, 14, -1, -8, 53, -12, -41, -74, 62], "withholdReward": false, "trial_id": "mdp_trial_31", "block": "test", "trialIndex": 32, "score": 16.900000000000006, "costs": -30.09999999999999, "simulationMode": [null, null, null, null, null], "rewards": [-2, -2, 1, -12, 62], "path": ["0", "0", "23", "24", "25", "30", "33"], "rt": [48704, 81, 131, 125, 150], "actions": ["left", "left", "left", "down", "left"], "actionTimes": [49589, 50171, 50805, 51435, 52089], "queries": {"click": {"state": {"target": ["27", "6", "16", "21", "32", "11", "9", "33", "20", "17", "29", "5", "7", "10"], "time": [1587, 4641, 7921, 10988, 14142, 17635, 20849, 24188, 27605, 31689, 35411, 38900, 42342, 45428]}, "edge": {"target": [], "time": []}}, "mouseover": {"state": {"target": ["28", "26", "27", "26", "25", "25", "28", "2", "7", "6", "4", "5", "16", "16", "15", "18", "13", "22", "21", "31", "32", "33", "27", "11", "25", "30", "25", "28", "9", "8", "10", "23", "31", "30", "33", "25", "28", "8", "2", "12", "19", "20", "19", "22", "24", "23", "15", "17", "15", "18", "15", "17", "15", "18", "12", "1", "28", "26", "29", "25", "24", "23", "0", "12", "7", "5", "4", "7", "2", "10", "23", "0", "22", "21", "23", "23", "0"], "time": [1303, 1345, 1498, 1763, 1801, 2114, 2161, 2216, 2272, 2738, 4888, 5434, 7441, 7740, 8181, 8297, 8629, 8685, 8784, 11766, 11934, 14703, 16827, 17520, 18115, 18215, 19646, 19736, 20427, 21041, 21089, 21688, 22451, 22730, 22847, 24516, 24553, 24634, 26033, 26080, 26118, 26328, 27860, 27940, 29479, 29509, 29731, 30818, 31174, 31250, 31396, 31473, 31820, 31866, 34879, 35011, 35052, 35170, 35303, 35705, 35725, 35763, 35800, 35874, 36221, 36466, 39222, 40781, 42673, 43038, 46216, 46271, 46361, 46828, 47984, 48650, 48719]}, "edge": {"target": [], "time": []}}, "mouseout": {"state": {"target": ["23", "28", "0", "28", "26", "27", "26", "25", "25", "28", "2", "7", "6", "4", "5", "6", "16", "16", "15", "18", "13", "22", "21", "31", "32", "33", "27", "11", "25", "30", "25", "28", "9", "8", "10", "23", "31", "30", "33", "25", "28", "8", "9", "2", "12", "19", "20", "19", "22", "33", "24", "23", "15", "17", "15", "18", "15", "17", "15", "18", "12", "1", "28", "26", "29", "25", "24", "23", "0", "12", "7", "5", "4", "7", "2", "10", "23", "0", "22", "21", "23", "23", "0"], "time": [149, 211, 894, 1312, 1470, 1736, 1791, 1828, 2132, 2180, 2245, 2607, 4860, 4925, 7335, 7413, 7483, 8136, 8252, 8351, 8666, 8696, 11236, 11812, 14555, 16541, 16880, 17914, 18170, 18825, 19690, 19773, 21014, 21070, 21116, 21767, 22685, 22810, 24463, 24534, 24572, 24670, 25962, 26052, 26090, 26127, 27833, 27913, 27995, 29418, 29499, 29527, 29881, 31139, 31216, 31354, 31438, 31802, 31848, 31894, 34920, 35019, 35066, 35261, 35650, 35715, 35753, 35782, 35837, 36132, 36232, 39178, 39302, 42628, 42717, 45759, 46226, 46281, 46397, 47696, 48163, 48670, 48761]}, "edge": {"target": [], "time": []}}}, "displayed_time": "52.59", "trialTime": 53212, "trial_type": "mouselab-mdp", "trial_index": 39, "time_elapsed": 1253270, "internal_node_id": "0.0-4.0-1.0-30.0"}}, {"uniqueid": "w96602360:a27790164", "current_trial": 40, "dateTime": 1691161149428, "trialdata": {"revealed_states": [], "clicked_states": ["11"], "num_clicks_accrued": [0, 0, 0, 0, 0, 0, 0, 0, 0, 0, 0, 0, 0], "stateRewards": ["", -1, 1, 3, -8, -23, -15, -14, -11, -23, 58, 68, 1, 3, 5, 12, -17, -41, -7, -10, -4, 82, 10, 1, 4, -4, 11, 73, 55, -55, -1, -86, -86, 54], "withholdReward": false, "trial_id": "mdp_trial_32", "block": "test", "trialIndex": 33, "score": 57.85, "costs": -2.15, "simulationMode": [null, null, null, null, null], "rewards": [-1, 1, 3, -11, 68], "path": ["0", "0", "1", "2", "3", "8", "11"], "rt": [4516, 384, 130, 46, 89], "actions": ["up", "up", "up", "left", "left"], "actionTimes": [5328, 6229, 6863, 7414, 8004], "queries": {"click": {"state": {"target": ["11"], "time": [1561]}, "edge": {"target": [], "time": []}}, "mouseover": {"state": {"target": ["10", "8", "11", "10", "1", "13", "14", "19", "21", "22", "12"], "time": [1240, 1351, 1449, 1740, 1788, 1836, 1893, 2088, 2348, 4883, 4952]}, "edge": {"target": [], "time": []}}, "mouseout": {"state": {"target": ["0", "10", "8", "11", "10", "1", "13", "14", "19", "21", "22", "12"], "time": [1087, 1295, 1393, 1711, 1760, 1798, 1864, 1998, 2204, 4827, 4910, 15240]}, "edge": {"target": [], "time": []}}}, "displayed_time": "14.81", "trialTime": 15886, "trial_type": "mouselab-mdp", "trial_index": 40, "time_elapsed": 1269296, "internal_node_id": "0.0-4.0-1.0-31.0"}}, {"uniqueid": "w96602360:a27790164", "current_trial": 41, "dateTime": 1691161181970, "trialdata": {"revealed_states": [], "clicked_states": ["11", "9", "6", "21", "22", "16", "18", "17"], "num_clicks_accrued": [0, 0, 0, 0, 0, 0, 0, 0, 0, 0, 0, 0, 0], "stateRewards": ["", -1, -3, -5, -14, -13, -47, 79, 8, -60, -64, 41, -1, 2, 3, 13, -46, 61, -79, -11, -64, -65, 23, 1, -2, 6, -14, 46, 32, 21, 7, 75, -66, 15], "withholdReward": false, "trial_id": "mdp_trial_33", "block": "test", "trialIndex": 34, "score": 60.8, "costs": -17.2, "simulationMode": [null, null, null, null, null], "rewards": [-1, 2, 3, 13, 61], "path": ["0", "0", "12", "13", "14", "15", "17"], "rt": [28340, 76, 117, 214, 27], "actions": ["right", "right", "right", "up", "right"], "actionTimes": [29034, 29608, 30226, 30943, 31474], "queries": {"click": {"state": {"target": ["11", "9", "6", "21", "22", "16", "18", "17"], "time": [1492, 5077, 8482, 11655, 14760, 18698, 21799, 24928]}, "edge": {"target": [], "time": []}}, "mouseover": {"state": {"target": ["2", "3", "8", "11", "8", "3", "3", "9", "5", "4", "7", "6", "7", "1", "12", "21", "22", "22", "13", "18", "18", "15", "16", "16", "15", "13", "18", "15", "17"], "time": [1031, 1093, 1169, 1343, 1766, 1902, 2120, 2896, 5556, 5834, 5925, 8336, 8733, 8808, 9798, 10276, 13513, 13804, 15038, 15067, 17810, 18137, 18345, 18562, 18978, 19070, 19715, 22093, 22220]}, "edge": {"target": [], "time": []}}, "mouseout": {"state": {"target": ["0", "0", "2", "3", "8", "11", "8", "3", "3", "9", "5", "4", "7", "6", "6", "7", "1", "12", "21", "22", "22", "13", "18", "18", "15", "16", "16", "15", "13", "18", "15", "17"], "time": [307, 843, 1058, 1127, 1295, 1721, 1830, 2054, 2415, 5315, 5809, 5880, 8190, 8551, 8679, 8752, 8915, 9844, 11920, 13585, 14993, 15057, 15077, 17852, 18179, 18380, 18941, 18997, 19616, 22038, 22166, 25285]}, "edge": {"target": [], "time": []}}}, "displayed_time": "31.97", "trialTime": 32389, "trial_type": "mouselab-mdp", "trial_index": 41, "time_elapsed": 1301838, "internal_node_id": "0.0-4.0-1.0-32.0"}}, {"uniqueid": "w96602360:a27790164", "current_trial": 42, "dateTime": 1691161200783, "trialdata": {"revealed_states": [], "clicked_states": ["16", "21", "32", "27"], "num_clicks_accrued": [0, 0, 0, 0, 0, 0, 0, 0, 0, 0, 0, 0, 0], "stateRewards": ["", 1, -4, -6, -1, -21, 17, -72, 10, 77, 67, -46, -1, 4, -2, 14, -66, -49, -45, -15, -52, 23, -67, 2, -2, -2, 15, -3, 45, -64, 5, -44, 83, 61], "withholdReward": false, "trial_id": "mdp_trial_34", "block": "test", "trialIndex": 35, "score": 77.4, "costs": -8.6, "simulationMode": [null, null, null, null, null, null], "rewards": [2, -2, -2, 5, 83], "path": ["0", "0", "23", "24", "25", "30", "32"], "rt": [11072, 2211, 8, 5, 19, 57], "actions": ["left", "left", "left", "left", "down", "down"], "actionTimes": [13187, 15400, 15907, 16419, 16940, 17506], "queries": {"click": {"state": {"target": ["16", "21", "32", "27"], "time": [2773, 5797, 9249, 12294]}, "edge": {"target": [], "time": []}}, "mouseover": {"state": {"target": ["23", "1", "16", "15", "19", "21", "31", "30", "32", "30", "27", "28"], "time": [2231, 2343, 2704, 2968, 3322, 3513, 6311, 6483, 6541, 9498, 9941, 12850]}, "edge": {"target": [], "time": []}}, "mouseout": {"state": {"target": ["0", "0", "0", "23", "1", "16", "15", "19", "21", "31", "30", "32", "30", "27", "28"], "time": [1270, 1598, 2183, 2246, 2370, 2912, 3032, 3467, 6045, 6347, 6511, 9461, 9508, 12822, 12878]}, "edge": {"target": [], "time": []}}}, "displayed_time": "18.01", "trialTime": 18675, "trial_type": "mouselab-mdp", "trial_index": 42, "time_elapsed": 1320651, "internal_node_id": "0.0-4.0-1.0-33.0"}}, {"uniqueid": "w96602360:a27790164", "current_trial": 43, "dateTime": 1691161216225, "trialdata": {"revealed_states": [], "clicked_states": ["9"], "num_clicks_accrued": [0, 0, 0, 0, 0, 0, 0, 0, 0, 0, 0, 0, 0], "stateRewards": ["", -1, -3, -6, 14, 41, 18, 63, -14, 80, 21, 17, -2, -4, -2, -5, 13, 70, 8, -4, -64, -10, -20, 2, -1, 4, -1, -17, -55, 42, -7, 47, 54, 15], "withholdReward": false, "trial_id": "mdp_trial_35", "block": "test", "trialIndex": 36, "score": 53.85, "costs": -2.15, "simulationMode": [null, null, null, null, null], "rewards": [-1, -3, -6, -14, 80], "path": ["0", "0", "1", "2", "3", "8", "9"], "rt": [4851, 15, 22, 65, 80], "actions": ["up", "up", "up", "left", "up"], "actionTimes": [5572, 6090, 6612, 7183, 7761], "queries": {"click": {"state": {"target": ["9"], "time": [1555]}, "edge": {"target": [], "time": []}}, "mouseover": {"state": {"target": ["23", "26", "27", "11", "9", "8", "10", "0", "1", "2", "3", "4", "4", "2", "1", "23", "12", "18", "6", "5", "4", "7"], "time": [818, 902, 1041, 1284, 1429, 1762, 1847, 2066, 2206, 2353, 2509, 2558, 2668, 2735, 2755, 2786, 3071, 3101, 3283, 3421, 4378, 4447]}, "edge": {"target": [], "time": []}}, "mouseout": {"state": {"target": ["23", "0", "23", "26", "27", "11", "9", "9", "8", "10", "0", "1", "2", "3", "4", "4", "2", "1", "23", "12", "18", "6", "5", "4", "7", "1", "0", "0", "0", "13", "22", "12", "18", "12"], "time": [442, 791, 847, 957, 1208, 1319, 1566, 1717, 1810, 1975, 2151, 2272, 2480, 2530, 2569, 2706, 2745, 2766, 2814, 3081, 3156, 3357, 4350, 4412, 8416, 8534, 8576, 9883, 10154, 10237, 10266, 10550, 11767, 12461]}, "edge": {"target": [], "time": []}}}, "displayed_time": "14.72", "trialTime": 15285, "trial_type": "mouselab-mdp", "trial_index": 43, "time_elapsed": 1336093, "internal_node_id": "0.0-4.0-1.0-34.0"}}, {"uniqueid": "w96602360:a27790164", "current_trial": 44, "dateTime": 1691161262278, "trialdata": {"revealed_states": [], "clicked_states": ["9", "21", "31", "32", "33", "27", "28", "29", "17", "16", "18", "22"], "num_clicks_accrued": [0, 0, 0, 0, 0, 0, 0, 0, 0, 0, 0, 0, 0], "stateRewards": ["", 1, 1, -7, -9, -44, 24, -83, -15, 44, -24, 72, -2, -3, 4, -5, 57, 55, 29, -11, 22, 12, -25, -1, 2, 7, 12, 33, -8, 47, -4, 8, 50, -4], "withholdReward": false, "trial_id": "mdp_trial_36", "block": "test", "trialIndex": 37, "score": 25.200000000000006, "costs": -25.799999999999994, "simulationMode": [null, null, null, null, null], "rewards": [-2, -3, 4, -5, 57], "path": ["0", "0", "12", "13", "14", "15", "16"], "rt": [41071, 505, 234, 276, 76], "actions": ["right", "right", "right", "up", "up"], "actionTimes": [41925, 42932, 43672, 44448, 45026], "queries": {"click": {"state": {"target": ["9", "21", "31", "32", "33", "27", "28", "29", "17", "16", "18", "22"], "time": [1304, 4728, 8252, 11467, 15027, 18519, 21796, 24898, 28120, 31367, 35341, 38558]}, "edge": {"target": [], "time": []}}, "mouseover": {"state": {"target": ["10", "8", "9", "3", "2", "7", "18", "14", "19", "21", "22", "12", "18", "13", "22", "31", "32", "31", "32", "32", "33", "30", "24", "26", "27", "26", "25", "30", "24", "28", "26", "29", "30", "31", "0", "18", "15", "17", "15", "16", "15", "18", "13", "22", "22", "19", "20"], "time": [946, 982, 1196, 1524, 1582, 1920, 2121, 2210, 2241, 2450, 5360, 5471, 5764, 5811, 5841, 6999, 7268, 8148, 8472, 10977, 13632, 15335, 18213, 18255, 18366, 18681, 18720, 18767, 19050, 19089, 22074, 22318, 25333, 25540, 26528, 26584, 26640, 26814, 28392, 29021, 31588, 31698, 35676, 35742, 35962, 38847, 39001]}, "edge": {"target": [], "time": []}}, "mouseout": {"state": {"target": ["12", "1", "2", "2", "0", "0", "10", "8", "9", "3", "2", "7", "18", "14", "19", "21", "22", "12", "18", "13", "22", "31", "32", "31", "32", "32", "33", "30", "24", "26", "27", "26", "25", "30", "24", "28", "26", "29", "30", "31", "0", "18", "15", "17", "15", "16", "15", "18", "13", "22", "22", "19", "20", "14"], "time": [140, 216, 278, 377, 473, 875, 967, 1010, 1452, 1535, 1636, 2030, 2177, 2224, 2264, 5287, 5380, 5536, 5792, 5830, 5861, 7036, 8099, 8416, 8482, 11648, 15271, 15390, 18223, 18311, 18662, 18709, 18748, 18786, 19070, 22019, 22210, 25176, 25401, 26482, 26539, 26603, 26678, 28363, 28465, 31533, 31599, 35631, 35714, 35814, 38810, 38928, 42961, 45507]}, "edge": {"target": [], "time": []}}}, "displayed_time": "45.53", "trialTime": 45916, "trial_type": "mouselab-mdp", "trial_index": 44, "time_elapsed": 1382146, "internal_node_id": "0.0-4.0-1.0-35.0"}}, {"uniqueid": "w96602360:a27790164", "current_trial": 45, "dateTime": 1691161291548, "trialdata": {"revealed_states": [], "clicked_states": ["5", "21", "32", "29", "10", "7", "11"], "num_clicks_accrued": [0, 0, 0, 0, 0, 0, 0, 0, 0, 0, 0, 0, 0], "stateRewards": ["", 1, -3, -4, -11, -56, 61, -47, -16, -28, -9, 69, -2, -3, -4, -8, 40, -86, 59, -4, 80, 27, 54, -1, 3, -1, 8, 67, 23, 50, 6, 83, -43, -29], "withholdReward": false, "trial_id": "mdp_trial_37", "block": "test", "trialIndex": 38, "score": 31.950000000000003, "costs": -15.05, "simulationMode": [null, null, null, null, null], "rewards": [1, -3, -4, -16, 69], "path": ["0", "0", "1", "2", "3", "8", "11"], "rt": [23592, 86, 127, 527, 125], "actions": ["up", "up", "up", "left", "left"], "actionTimes": [24556, 25147, 25777, 26802, 27436], "queries": {"click": {"state": {"target": ["5", "21", "32", "29", "10", "7", "11"], "time": [1628, 4700, 7945, 11001, 14230, 17322, 20427]}, "edge": {"target": [], "time": []}}, "mouseover": {"state": {"target": ["1", "7", "4", "5", "8", "9", "8", "2", "22", "21", "21", "22", "0", "23", "31", "32", "33", "29", "27", "10", "2", "7", "2", "11", "9", "9", "8"], "time": [1179, 1298, 1340, 1534, 1876, 2163, 2318, 2347, 2415, 2445, 2696, 5268, 5425, 5454, 5621, 5787, 9020, 10033, 11817, 12635, 15212, 15278, 17499, 17610, 20876, 21138, 24181]}, "edge": {"target": [], "time": []}}, "mouseout": {"state": {"target": ["0", "0", "1", "7", "4", "5", "8", "9", "8", "2", "22", "21", "21", "22", "0", "23", "31", "32", "33", "29", "27", "10", "2", "7", "2", "11", "9", "9", "8", "10", "23"], "time": [387, 1110, 1235, 1311, 1395, 1774, 1924, 2298, 2328, 2367, 2426, 2456, 5060, 5333, 5435, 5483, 5667, 8040, 9923, 11519, 12407, 14560, 15250, 17470, 17536, 20768, 20969, 24062, 24863, 24956, 27299]}, "edge": {"target": [], "time": []}}}, "displayed_time": "27.94", "trialTime": 29101, "trial_type": "mouselab-mdp", "trial_index": 45, "time_elapsed": 1411415, "internal_node_id": "0.0-4.0-1.0-36.0"}}, {"uniqueid": "w96602360:a27790164", "current_trial": 46, "dateTime": 1691161307077, "trialdata": {"revealed_states": [], "clicked_states": ["6"], "num_clicks_accrued": [0, 0, 0, 0, 0, 0, 0, 0, 0, 0, 0, 0, 0], "stateRewards": ["", -1, 1, 6, -6, 70, 66, 67, -16, -75, -35, 37, -1, 4, 4, -6, 47, -9, 63, 15, 21, -63, 13, 1, 3, -6, 10, 79, -29, 18, -15, 9, -67, -19], "withholdReward": false, "trial_id": "mdp_trial_38", "block": "test", "trialIndex": 39, "score": 63.85, "costs": -2.15, "simulationMode": [null, null, null, null, null], "rewards": [-1, 1, 6, -6, 66], "path": ["0", "0", "1", "2", "3", "4", "6"], "rt": [5691, 18, 48, 70, 23], "actions": ["up", "up", "up", "right", "right"], "actionTimes": [6497, 7016, 7574, 8145, 8668], "queries": {"click": {"state": {"target": ["6"], "time": [2114]}, "edge": {"target": [], "time": []}}, "mouseover": {"state": {"target": ["10", "11", "11", "10", "2", "7", "6", "7", "25", "32", "32", "0"], "time": [928, 970, 1282, 1574, 1629, 1734, 1991, 2249, 2364, 3356, 3607, 5911]}, "edge": {"target": [], "time": []}}, "mouseout": {"state": {"target": ["23", "10", "10", "0", "0", "10", "11", "11", "10", "2", "7", "6", "6", "7", "25", "32", "32", "0", "0", "23", "33", "25", "28", "1", "12", "22", "33", "28", "12", "0", "12", "33", "25", "24", "23", "0", "22", "25", "24", "23", "30", "25", "24", "0", "12"], "time": [127, 259, 405, 517, 837, 937, 1150, 1532, 1608, 1692, 1901, 2143, 2220, 2260, 2383, 3458, 5515, 6283, 9623, 10450, 10750, 10771, 10791, 10819, 10840, 10868, 11069, 11125, 11195, 11493, 11514, 11757, 11792, 11806, 11820, 11835, 11869, 12133, 12154, 12176, 12426, 12439, 12467, 12515, 12536]}, "edge": {"target": [], "time": []}}}, "displayed_time": "14.81", "trialTime": 15377, "trial_type": "mouselab-mdp", "trial_index": 46, "time_elapsed": 1426944, "internal_node_id": "0.0-4.0-1.0-37.0"}}, {"uniqueid": "w96602360:a27790164", "current_trial": 47, "dateTime": 1691161335355, "trialdata": {"revealed_states": [], "clicked_states": ["5", "32", "31", "33", "29", "27", "28"], "num_clicks_accrued": [0, 0, 0, 0, 0, 0, 0, 0, 0, 0, 0, 0, 0], "stateRewards": ["", -1, -3, 3, 5, 56, 39, 50, -1, -80, 33, -46, 1, -2, -6, -8, 87, 48, 54, -11, -20, -64, -54, -2, 3, -7, -3, 12, 88, 35, -16, -46, -70, -3], "withholdReward": false, "trial_id": "mdp_trial_39", "block": "test", "trialIndex": 40, "score": 63.95, "costs": -15.05, "simulationMode": [null, null, null, null, null], "rewards": [-2, 3, -7, -3, 88], "path": ["0", "0", "23", "24", "25", "26", "28"], "rt": [23714, 59, 115, 116, 137], "actions": ["left", "left", "left", "up", "right"], "actionTimes": [24439, 24997, 25615, 26229, 26868], "queries": {"click": {"state": {"target": ["5", "32", "31", "33", "29", "27", "28"], "time": [1460, 4689, 7802, 10919, 14050, 17304, 20427]}, "edge": {"target": [], "time": []}}, "mouseover": {"state": {"target": ["0", "1", "3", "5", "3", "8", "27", "33", "32", "33", "25", "24", "23", "31", "31", "30", "33", "33", "33", "29", "27", "28", "24", "23", "22", "19", "20", "21"], "time": [829, 1044, 1127, 1336, 1638, 1668, 1735, 2474, 2980, 5096, 5581, 5629, 6318, 6413, 6666, 7999, 8038, 8344, 9124, 11246, 14437, 17712, 20850, 21687, 21790, 21812, 21851, 22126]}, "edge": {"target": [], "time": []}}, "mouseout": {"state": {"target": ["0", "1", "3", "5", "5", "3", "8", "27", "33", "32", "33", "25", "24", "23", "31", "31", "30", "33", "33", "33", "29", "27", "28", "24", "23", "22", "19", "20", "21"], "time": [1016, 1053, 1246, 1506, 1605, 1657, 1678, 1755, 2903, 5011, 5106, 5619, 5649, 6347, 6441, 7979, 8027, 8067, 8580, 11125, 14322, 17646, 20712, 21519, 21707, 21801, 21832, 21862, 23830]}, "edge": {"target": [], "time": []}}}, "displayed_time": "27.37", "trialTime": 28138, "trial_type": "mouselab-mdp", "trial_index": 47, "time_elapsed": 1455222, "internal_node_id": "0.0-4.0-1.0-38.0"}}, {"uniqueid": "w96602360:a27790164", "current_trial": 48, "dateTime": 1691161360446, "trialdata": {"revealed_states": [], "clicked_states": ["9", "21", "22", "16", "17", "18"], "num_clicks_accrued": [0, 0, 0, 0, 0, 0, 0, 0, 0, 0, 0, 0, 0], "stateRewards": ["", 1, -1, 4, -2, -75, -75, 84, -9, -60, -79, 59, 2, -4, 8, 9, -17, -82, 80, 14, -4, 49, 49, -1, 3, 6, -11, -33, 34, 55, 9, -57, 5, 59], "withholdReward": false, "trial_id": "mdp_trial_40", "block": "test", "trialIndex": 41, "score": 82.1, "costs": -12.9, "simulationMode": [null, null, null, null, null], "rewards": [2, -4, 8, 9, 80], "path": ["0", "0", "12", "13", "14", "15", "18"], "rt": [20268, 109, 175, 186, 90], "actions": ["right", "right", "right", "up", "left"], "actionTimes": [21027, 21637, 22315, 23000, 23594], "queries": {"click": {"state": {"target": ["9", "21", "22", "16", "17", "18"], "time": [1424, 4631, 7947, 11132, 14300, 17407]}, "edge": {"target": [], "time": []}}, "mouseover": {"state": {"target": ["23", "28", "11", "8", "9", "3", "2", "13", "22", "21", "22", "12", "13", "22", "16", "14", "17", "17", "17", "15", "18", "13", "19", "20"], "time": [950, 1020, 1139, 1215, 1326, 1649, 1680, 1872, 1911, 2099, 4989, 5056, 6038, 6528, 9122, 11686, 13167, 13535, 14145, 14568, 14637, 17837, 17941, 18337]}, "edge": {"target": [], "time": []}}, "mouseout": {"state": {"target": ["23", "0", "23", "28", "11", "8", "9", "3", "2", "13", "22", "21", "22", "12", "13", "22", "16", "14", "17", "17", "17", "15", "18", "13", "19", "20"], "time": [263, 923, 965, 1029, 1159, 1228, 1574, 1660, 1691, 1882, 1950, 4923, 5028, 5086, 6075, 8291, 11418, 12616, 13357, 13622, 14540, 14608, 17771, 17885, 17999, 24660]}, "edge": {"target": [], "time": []}}}, "displayed_time": "24.09", "trialTime": 24920, "trial_type": "mouselab-mdp", "trial_index": 48, "time_elapsed": 1480314, "internal_node_id": "0.0-4.0-1.0-39.0"}}, {"uniqueid": "w96602360:a27790164", "current_trial": 49, "dateTime": 1691161440386, "trialdata": {"rt": 79937, "response": {"Q0": "$-88 to $88", "Q1": "$-16 to $16", "Q2": "$-88 to $88", "Q3": "The cost for clicking on nodes varied between nodes.", "Q4": "Very motivated"}, "question_order": [0, 1, 2, 3, 4], "trial_id": "final_quiz_control", "trial_type": "survey-multi-choice", "trial_index": 49, "time_elapsed": 1560254, "internal_node_id": "0.0-4.0-2.0"}}, {"uniqueid": "w96602360:a27790164", "current_trial": 50, "dateTime": 1691161564703, "trialdata": {"rt": 124311, "response": {"Q0": "finding the highest amount on the outside of the web and moving the spider according to the highest amount", "Q1": "yes I managed to identify the easier way of finding the higher nodes", "Q2": "it was relatively simple once I got the hang of it"}, "trial_id": "self_report_control", "trial_type": "survey-text", "trial_index": 50, "time_elapsed": 1684570, "internal_node_id": "0.0-4.0-3.0"}}, {"uniqueid": "w96602360:a27790164", "current_trial": 51, "dateTime": 1691161663122, "trialdata": {"rt": 98415, "response": {"Q0": "Neither disagree nor agree", "Q1": "Strongly disagree", "Q2": "Strongly agree", "Q3": "Agree", "Q4": "Neither disagree nor agree", "Q5": "Agree", "Q6": "Strongly disagree"}, "question_order": [0, 1, 2, 3, 4, 5, 6], "trial_id": "self_report_2", "trial_type": "survey-multi-choice", "trial_index": 51, "time_elapsed": 1782990, "internal_node_id": "0.0-4.0-4.0"}}, {"uniqueid": "w96602360:a27790164", "current_trial": 52, "dateTime": 1691161688372, "trialdata": {"rt": 25246, "response": {"gender": "male", "age": "20", "colorblind": "0", "effort": "0"}, "trial_type": "survey-html-form", "trial_index": 52, "time_elapsed": 1808240, "internal_node_id": "0.0-4.0-5.0"}}, {"uniqueid": "w96602360:a27790164", "current_trial": 53, "dateTime": 1691161734577, "trialdata": {"rt": 46201, "response": {"Q0": "no", "Q1": "i have not participated in any other form of web of cash other than this one", "Q2": "n/a"}, "trial_type": "survey-text", "trial_index": 53, "time_elapsed": 1854445, "internal_node_id": "0.0-4.0-6.0"}}, {"uniqueid": "w96602360:a27790164", "current_trial": 54, "dateTime": 1691161737874, "trialdata": {"rt": 3294, "stimulus": "Press 'Finish HIT' in order to reach the completion code. Once the data has been saved, you will receive the code either in this window or in the original browser window where you started the experiment.\n", "response": 0, "trial_type": "html-button-response", "trial_index": 54, "time_elapsed": 1857742, "internal_node_id": "0.0-5.0"}}, {"uniqueid": "w96602360:a27790164", "current_trial": 55, "dateTime": 1691161738878, "trialdata": {"success": true, "trial_type": "fullscreen", "trial_index": 55, "time_elapsed": 1858746, "internal_node_id": "0.0-6.0"}}], "questiondata": {"params": {"CODE": "C6DMOQA6", "MIN_TIME": 14, "inspectCost": 1, "startTime": "Fri Aug 04 2023 16:37:58 GMT+0200 (South Africa Standard Time)", "bonusRate": 0.002, "variance": "1_2_4_8_44", "branching": "31123"}, "final_score": 1872.45}, "eventdata": [{"eventtype": "initialized", "value": null, "timestamp": 1691159878041, "interval": 0}, {"eventtype": "window_resize", "value": [1920, 1009], "timestamp": 1691159878041, "interval": 0}, {"eventtype": "window_resize", "value": [1920, 1009], "timestamp": 1691159878502, "interval": 461}, {"eventtype": "window_resize", "value": [1920, 1080], "timestamp": 1691159882887, "interval": 4385}, {"eventtype": "window_resize", "value": [1920, 1009], "timestamp": 1691161738089, "interval": 1855202}], "useragent": "Mozilla/5.0 (Windows NT 10.0; Win64; x64) AppleWebKit/537.36 (KHTML, like Gecko) Chrome/114.0.0.0 Safari/537.36 OPR/100.0.0.0", "mode": "live", "id": "w96602360:a27790164", "status": "user data saved", "Beginhit": "2023-08-04 14:37:57.152091", "Beginexp": "2023-08-04 14:38:05.35104", "Endhit": "2023-08-04 15:09:01.362375", "psiturkStatus": 3, "browser": "<redacted>", "platform": "windows", "language": "en-US"}