{"condition": 0, "counterbalance": 0, "assignmentId": "a24008347", "workerId": "w39656931", "hitId": "h86524427", "currenttrial": 61, "bonus": 0, "data": [{"uniqueid": "w39656931:a24008347", "current_trial": 0, "dateTime": 1691142343329, "trialdata": {"success": true, "trial_type": "fullscreen", "trial_index": 0, "time_elapsed": 4896, "internal_node_id": "0.0-0.0"}}, {"uniqueid": "w39656931:a24008347", "current_trial": 1, "dateTime": 1691142378069, "trialdata": {"view_history": [{"page_index": 0, "viewing_time": 34715}], "rt": 34719, "trial_id": "exp_instructions_control", "trial_type": "instructions", "trial_index": 1, "time_elapsed": 39638, "internal_node_id": "0.0-1.0"}}, {"uniqueid": "w39656931:a24008347", "current_trial": 2, "dateTime": 1691142381954, "trialdata": {"success": true, "trial_type": "fullscreen", "trial_index": 2, "time_elapsed": 43523, "internal_node_id": "0.0-2.0-0.0"}}, {"uniqueid": "w39656931:a24008347", "current_trial": 3, "dateTime": 1691142730324, "trialdata": {"view_history": [{"page_index": 0, "viewing_time": 130874}, {"page_index": 1, "viewing_time": 103962}, {"page_index": 2, "viewing_time": 49233}, {"page_index": 3, "viewing_time": 64293}], "rt": 348362, "trial_id": "mouselab_instructions_1_control", "trial_type": "instructions", "trial_index": 3, "time_elapsed": 391893, "internal_node_id": "0.0-2.0-1.0"}}, {"uniqueid": "w39656931:a24008347", "current_trial": 4, "dateTime": 1691142755132, "trialdata": {"revealed_states": [], "clicked_states": ["25"], "num_clicks_accrued": [0, 0, 0, 0, 0, 0, 0, 0, 0, 0, 0, 0, 0], "stateRewards": ["", -10, -10, 10, -10, -10, -10, 10, -10, 10, -10, -10, 10, 10, -10, 10, -10, 10, 10, 10, 10, -10, -10, 10, -10, 10, 10, 10, -10, -10, -10, -10, 10, 10], "withholdReward": false, "trial_id": "practice_1", "block": "test", "trialIndex": 0, "score": 13, "costs": -0.5, "simulationMode": [null, null, null, null, null], "rewards": [10, 10, -10, 10, -10], "path": ["0", "0", "12", "13", "14", "15", "16"], "rt": [4622, 509, 515, 490, 310], "actions": ["right", "right", "right", "up", "up"], "actionTimes": [10345, 11400, 12457, 13465, 14333], "queries": {"click": {"state": {"target": ["25"], "time": [8626]}, "edge": {"target": [], "time": []}}, "mouseover": {"state": {"target": ["23", "24", "25", "23"], "time": [7120, 7320, 7737, 9367]}, "edge": {"target": [], "time": []}}, "mouseout": {"state": {"target": ["14", "13", "12", "0", "23", "24", "25", "23", "1", "16"], "time": [null, 3449, 4264, 4963, 7204, 7554, 9266, 20711, 20803, 20953]}, "edge": {"target": [], "time": []}}}, "displayed_time": "14.89", "trialTime": 23676, "trial_type": "mouselab-mdp", "trial_index": 4, "time_elapsed": 416699, "internal_node_id": "0.0-2.0-2.0-0.0"}}, {"uniqueid": "w39656931:a24008347", "current_trial": 5, "dateTime": 1691142778241, "trialdata": {"revealed_states": [], "clicked_states": ["3"], "num_clicks_accrued": [0, 0, 0, 0, 0, 0, 0, 0, 0, 0, 0, 0, 0], "stateRewards": ["", -10, 10, -10, 10, 10, 10, 10, -10, 10, -10, 10, -10, -10, 10, 10, 10, -10, -10, -10, 10, 10, -10, 10, 10, 10, 10, -10, -10, -10, 10, -10, -10, 10], "withholdReward": false, "trial_id": "practice_2", "block": "test", "trialIndex": 1, "score": 33, "costs": -0.5, "simulationMode": [null, null, null, null, null], "rewards": [10, 10, 10, 10, -10], "path": ["0", "0", "23", "24", "25", "26", "27"], "rt": [4641, 27, 193, 1863, 93], "actions": ["left", "left", "left", "up", "up"], "actionTimes": [7644, 8217, 8956, 11371, 12003], "queries": {"click": {"state": {"target": ["3"], "time": [4453]}, "edge": {"target": [], "time": []}}, "mouseover": {"state": {"target": ["1", "2", "3"], "time": [3388, 3572, 3964]}, "edge": {"target": [], "time": []}}, "mouseout": {"state": {"target": ["18", "0", "1", "2", "3", "7"], "time": [1989, 2331, 3488, 3903, 4987, 15619]}, "edge": {"target": [], "time": []}}}, "displayed_time": "12.55", "trialTime": 22605, "trial_type": "mouselab-mdp", "trial_index": 5, "time_elapsed": 439808, "internal_node_id": "0.0-2.0-2.0-1.0"}}, {"uniqueid": "w39656931:a24008347", "current_trial": 6, "dateTime": 1691142833878, "trialdata": {"view_history": [{"page_index": 0, "viewing_time": 49322}, {"page_index": 1, "viewing_time": 6300}], "rt": 55623, "trial_id": "mouselab_instructions_2_control", "trial_type": "instructions", "trial_index": 6, "time_elapsed": 495447, "internal_node_id": "0.0-2.0-3.0"}}, {"uniqueid": "w39656931:a24008347", "current_trial": 7, "dateTime": 1691142879462, "trialdata": {"rt": 45562, "response": {"Q0": "The cost for clicking on nodes may vary between nodes.", "Q1": "The better I perform the higher my bonus will be.", "Q2": "No, the amount of cash at each node of the web may be different each time.", "Q3": "To click on the least number of nodes.", "Q4": "Only before moving the spider.", "Q5": "3 seconds"}, "question_order": [0, 1, 2, 3, 4, 5], "correct": {"Q0": "The cost for clicking on nodes may vary between nodes.", "Q1": "The better I perform the higher my bonus will be.", "Q2": "No, the amount of cash at each node of the web may be different each time.", "Q3": "To get the highest total score.", "Q4": "Only before moving the spider.", "Q5": "3 seconds"}, "trial_id": "mouselab_quiz_control", "trial_type": "survey-multi-choice", "trial_index": 7, "time_elapsed": 541031, "internal_node_id": "0.0-2.0-4.0"}}, {"uniqueid": "w39656931:a24008347", "current_trial": 8, "dateTime": 1691142897419, "trialdata": {"success": true, "trial_type": "fullscreen", "trial_index": 8, "time_elapsed": 558988, "internal_node_id": "0.0-2.1-0.1"}}, {"uniqueid": "w39656931:a24008347", "current_trial": 9, "dateTime": 1691143054660, "trialdata": {"view_history": [{"page_index": 0, "viewing_time": 24335}, {"page_index": 1, "viewing_time": 57447}, {"page_index": 2, "viewing_time": 18464}, {"page_index": 3, "viewing_time": 56991}], "rt": 157237, "trial_id": "mouselab_instructions_1_control", "trial_type": "instructions", "trial_index": 9, "time_elapsed": 716229, "internal_node_id": "0.0-2.1-1.1"}}, {"uniqueid": "w39656931:a24008347", "current_trial": 10, "dateTime": 1691143071626, "trialdata": {"revealed_states": [], "clicked_states": ["3"], "num_clicks_accrued": [0, 0, 0, 0, 0, 0, 0, 0, 0, 0, 0, 0, 0], "stateRewards": ["", -10, -10, 10, -10, -10, -10, 10, -10, 10, -10, -10, 10, 10, -10, 10, -10, 10, 10, 10, 10, -10, -10, 10, -10, 10, 10, 10, -10, -10, -10, -10, 10, 10], "withholdReward": false, "trial_id": "practice_1", "block": "test", "trialIndex": 2, "score": -7, "costs": -0.5, "simulationMode": [null, null, null, null, null], "rewards": [-10, -10, 10, -10, 10], "path": ["0", "0", "1", "2", "3", "8", "9"], "rt": [3476, 108, 30, 575, 197], "actions": ["up", "up", "up", "left", "up"], "actionTimes": [5619, 6254, 6821, 7936, 8655], "queries": {"click": {"state": {"target": ["3"], "time": [3335]}, "edge": {"target": [], "time": []}}, "mouseover": {"state": {"target": ["1", "2", "3", "12"], "time": [2689, 2776, 2868, 4343]}, "edge": {"target": [], "time": []}}, "mouseout": {"state": {"target": ["22", "0", "1", "2", "3", "3", "12", "20"], "time": [739, 1544, 2739, 2815, 3538, 4070, 4533, 14320]}, "edge": {"target": [], "time": []}}}, "displayed_time": "9.18", "trialTime": 16420, "trial_type": "mouselab-mdp", "trial_index": 10, "time_elapsed": 733194, "internal_node_id": "0.0-2.1-2.1-0.1"}}, {"uniqueid": "w39656931:a24008347", "current_trial": 11, "dateTime": 1691143087969, "trialdata": {"revealed_states": [], "clicked_states": ["14"], "num_clicks_accrued": [0, 0, 0, 0, 0, 0, 0, 0, 0, 0, 0, 0, 0], "stateRewards": ["", -10, 10, -10, 10, 10, 10, 10, -10, 10, -10, 10, -10, -10, 10, 10, 10, -10, -10, -10, 10, 10, -10, 10, 10, 10, 10, -10, -10, -10, 10, -10, -10, 10], "withholdReward": false, "trial_id": "practice_2", "block": "test", "trialIndex": 3, "score": 13, "costs": -0.5, "simulationMode": [null, null, null, null, null], "rewards": [-10, -10, 10, 10, 10], "path": ["0", "0", "12", "13", "14", "15", "16"], "rt": [5073, 806, 447, 463, 80], "actions": ["right", "right", "right", "up", "up"], "actionTimes": [7182, 8547, 9524, 10523, 11125], "queries": {"click": {"state": {"target": ["14"], "time": [4824]}, "edge": {"target": [], "time": []}}, "mouseover": {"state": {"target": ["13", "14", "13", "12"], "time": [4172, 4498, 5706, 5802]}, "edge": {"target": [], "time": []}}, "mouseout": {"state": {"target": ["12", "0", "13", "14", "13", "12", "21", "20"], "time": [889, 1457, 4222, 5690, 5753, 12980, 13271, 13308]}, "edge": {"target": [], "time": []}}}, "displayed_time": "11.67", "trialTime": 15783, "trial_type": "mouselab-mdp", "trial_index": 11, "time_elapsed": 749536, "internal_node_id": "0.0-2.1-2.1-1.1"}}, {"uniqueid": "w39656931:a24008347", "current_trial": 12, "dateTime": 1691143186788, "trialdata": {"view_history": [{"page_index": 0, "viewing_time": 96488}, {"page_index": 1, "viewing_time": 2318}], "rt": 98807, "trial_id": "mouselab_instructions_2_control", "trial_type": "instructions", "trial_index": 12, "time_elapsed": 848357, "internal_node_id": "0.0-2.1-3.1"}}, {"uniqueid": "w39656931:a24008347", "current_trial": 13, "dateTime": 1691143304261, "trialdata": {"rt": 117453, "response": {"Q0": "The cost for clicking on nodes may vary between nodes.", "Q1": "The better I perform the higher my bonus will be.", "Q2": "No, the amount of cash at each node of the web may be different each time.", "Q3": "To get the highest total score.", "Q4": "Only before moving the spider.", "Q5": "3 seconds"}, "question_order": [0, 1, 2, 3, 4, 5], "correct": {"Q0": "The cost for clicking on nodes may vary between nodes.", "Q1": "The better I perform the higher my bonus will be.", "Q2": "No, the amount of cash at each node of the web may be different each time.", "Q3": "To get the highest total score.", "Q4": "Only before moving the spider.", "Q5": "3 seconds"}, "trial_id": "mouselab_quiz_control", "trial_type": "survey-multi-choice", "trial_index": 13, "time_elapsed": 965829, "internal_node_id": "0.0-2.1-4.1"}}, {"uniqueid": "w39656931:a24008347", "current_trial": 14, "dateTime": 1691143333781, "trialdata": {"rt": 29493, "stimulus": "\n<h1> Get ready to start the game! </h1>\n\nThank you for reading the instructions. Get ready start with the 40 rounds of this game.\n<br><br>\nIf you need to take a break, feel free to take one after the end of a round, before continuing to the next one.\n<br><br>\nRemember, the more money the spider gets, the bigger your bonus will be!\n<br><br>\n<div style='text-align: center;'>Press <code>space</code> to begin.</div>\n\n<br><br>\n(If, at any point, the <code>space</code> key does not take you to the next page, click once on the text and try again.)", "response": " ", "trial_id": "mdp_ready", "trial_type": "html-keyboard-response", "trial_index": 14, "time_elapsed": 995349, "internal_node_id": "0.0-4.0-0.0"}}, {"uniqueid": "w39656931:a24008347", "current_trial": 15, "dateTime": 1691143356573, "trialdata": {"revealed_states": [], "clicked_states": [], "num_clicks_accrued": [0, 0, 0, 0, 0, 0, 0, 0, 0, 0, 0, 0, 0], "stateRewards": ["", -2, -1, 3, -3, 71, -58, -21, 7, -10, -75, -37, 2, 4, -1, -12, -79, -29, -48, 3, -41, -10, -30, -1, -2, 1, -15, 13, 66, 22, -1, -42, -86, -55], "withholdReward": false, "trial_id": "mdp_trial_1", "block": "test", "trialIndex": 4, "score": 68, "costs": 0, "simulationMode": [null, null, null, null, null], "rewards": [-2, -1, 3, -3, 71], "path": ["0", "0", "1", "2", "3", "4", "5"], "rt": [1846, 227, 460, 1054, 296], "actions": ["up", "up", "up", "right", "up"], "actionTimes": [6140, 6918, 7891, 9502, 10360], "queries": {"click": {"state": {"target": [], "time": []}, "edge": {"target": [], "time": []}}, "mouseover": {"state": {"target": [], "time": []}, "edge": {"target": [], "time": []}}, "mouseout": {"state": {"target": ["31", "24", "23", "0", "0", "18"], "time": [2989, 3208, 3259, 3642, 12264, 12311]}, "edge": {"target": [], "time": []}}}, "displayed_time": "18.30", "trialTime": 22223, "trial_type": "mouselab-mdp", "trial_index": 15, "time_elapsed": 1018141, "internal_node_id": "0.0-4.0-1.0-0.0"}}, {"uniqueid": "w39656931:a24008347", "current_trial": 16, "dateTime": 1691143377911, "trialdata": {"revealed_states": [], "clicked_states": [], "num_clicks_accrued": [0, 0, 0, 0, 0, 0, 0, 0, 0, 0, 0, 0, 0], "stateRewards": ["", 2, -1, -1, -9, -81, -30, 55, -6, 78, 25, 62, 2, 4, -1, 9, -85, 1, -19, 1, -60, 12, -34, 1, 4, -1, -13, -24, -16, -83, -8, 16, 43, 9], "withholdReward": false, "trial_id": "mdp_trial_2", "block": "test", "trialIndex": 5, "score": 39, "costs": 0, "simulationMode": [null, null, null, null, null], "rewards": [1, 4, -1, -8, 43], "path": ["0", "0", "23", "24", "25", "30", "32"], "rt": [1454, 458, 1149, 3142, 798], "actions": ["left", "left", "left", "down", "down"], "actionTimes": [4025, 5027, 6708, 10362, 11698], "queries": {"click": {"state": {"target": [], "time": []}, "edge": {"target": [], "time": []}}, "mouseover": {"state": {"target": [], "time": []}, "edge": {"target": [], "time": []}}, "mouseout": {"state": {"target": ["14", "13", "12", "0", "0"], "time": [1291, 1340, 1423, 1490, 7823]}, "edge": {"target": [], "time": []}}}, "displayed_time": "16.57", "trialTime": 20774, "trial_type": "mouselab-mdp", "trial_index": 16, "time_elapsed": 1039479, "internal_node_id": "0.0-4.0-1.0-1.0"}}, {"uniqueid": "w39656931:a24008347", "current_trial": 17, "dateTime": 1691143397932, "trialdata": {"revealed_states": [], "clicked_states": [], "num_clicks_accrued": [0, 0, 0, 0, 0, 0, 0, 0, 0, 0, 0, 0, 0], "stateRewards": ["", 2, 4, 4, -8, -36, -33, 38, 16, -51, 57, 57, 1, 3, 4, -6, 45, 68, 87, 1, 63, 24, -55, -2, 2, -6, -13, -63, -50, 8, 2, 80, 6, 60], "withholdReward": false, "trial_id": "mdp_trial_3", "block": "test", "trialIndex": 6, "score": 89, "costs": 0, "simulationMode": [null, null, null, null, null], "rewards": [1, 3, 4, -6, 87], "path": ["0", "0", "12", "13", "14", "15", "18"], "rt": [4323, 335, 271, 704, 159], "actions": ["right", "right", "right", "up", "left"], "actionTimes": [6867, 7740, 8523, 9760, 10440], "queries": {"click": {"state": {"target": [], "time": []}, "edge": {"target": [], "time": []}}, "mouseover": {"state": {"target": [], "time": []}, "edge": {"target": [], "time": []}}, "mouseout": {"state": {"target": ["17", "13", "12", "0"], "time": [1254, 1328, 1478, 17766]}, "edge": {"target": [], "time": []}}}, "displayed_time": "16.55", "trialTime": 19400, "trial_type": "mouselab-mdp", "trial_index": 17, "time_elapsed": 1059499, "internal_node_id": "0.0-4.0-1.0-2.0"}}, {"uniqueid": "w39656931:a24008347", "current_trial": 18, "dateTime": 1691143416680, "trialdata": {"revealed_states": [], "clicked_states": [], "num_clicks_accrued": [0, 0, 0, 0, 0, 0, 0, 0, 0, 0, 0, 0, 0], "stateRewards": ["", -1, -1, 7, -15, -43, -21, -84, -9, -45, -66, 2, 1, -2, 2, 8, -27, 44, -52, -5, -84, 11, 53, 1, 4, -4, 16, 83, -82, -15, -16, 68, -43, 81], "withholdReward": false, "trial_id": "mdp_trial_4", "block": "test", "trialIndex": 7, "score": 53, "costs": 0, "simulationMode": [null, null, null, null, null], "rewards": [1, -2, 2, 8, 44], "path": ["0", "0", "12", "13", "14", "15", "17"], "rt": [1326, 109, 270, 487, 416], "actions": ["right", "right", "right", "up", "right"], "actionTimes": [3400, 4060, 4883, 5905, 6853], "queries": {"click": {"state": {"target": [], "time": []}, "edge": {"target": [], "time": []}}, "mouseover": {"state": {"target": [], "time": []}, "edge": {"target": [], "time": []}}, "mouseout": {"state": {"target": ["0", "18", "15"], "time": [9485, 9547, 9585]}, "edge": {"target": [], "time": []}}}, "displayed_time": "16.08", "trialTime": 18168, "trial_type": "mouselab-mdp", "trial_index": 18, "time_elapsed": 1078247, "internal_node_id": "0.0-4.0-1.0-3.0"}}, {"uniqueid": "w39656931:a24008347", "current_trial": 19, "dateTime": 1691143438168, "trialdata": {"revealed_states": [], "clicked_states": [], "num_clicks_accrued": [0, 0, 0, 0, 0, 0, 0, 0, 0, 0, 0, 0, 0], "stateRewards": ["", -2, -4, -2, 10, -8, -15, -47, 7, -84, 53, 5, -1, 2, -7, 3, 83, 31, 47, -1, 30, -8, 69, 2, -4, -1, 8, -7, 12, -8, -8, -13, 30, -84], "withholdReward": false, "trial_id": "mdp_trial_5", "block": "test", "trialIndex": 8, "score": -15, "costs": 0, "simulationMode": [null, null, null, null, null], "rewards": [-1, 2, -7, -1, -8], "path": ["0", "0", "12", "13", "14", "19", "21"], "rt": [3315, 318, 247, 188, 286], "actions": ["right", "right", "right", "down", "down"], "actionTimes": [6178, 7032, 7825, 8538, 9366], "queries": {"click": {"state": {"target": [], "time": []}, "edge": {"target": [], "time": []}}, "mouseover": {"state": {"target": [], "time": []}, "edge": {"target": [], "time": []}}, "mouseout": {"state": {"target": ["20", "19", "13", "12", "0", "1", "16", "17", "20", "19", "22"], "time": [1324, 1390, 1473, 1591, 13625, 13675, 13776, 19358, 19975, 20057, 20191]}, "edge": {"target": [], "time": []}}}, "displayed_time": "16.86", "trialTime": 20901, "trial_type": "mouselab-mdp", "trial_index": 19, "time_elapsed": 1099736, "internal_node_id": "0.0-4.0-1.0-4.0"}}, {"uniqueid": "w39656931:a24008347", "current_trial": 20, "dateTime": 1691143457090, "trialdata": {"revealed_states": [], "clicked_states": [], "num_clicks_accrued": [0, 0, 0, 0, 0, 0, 0, 0, 0, 0, 0, 0, 0], "stateRewards": ["", 1, 3, -2, 15, 51, 15, -19, 11, 67, -45, -73, 2, 4, -2, -13, 36, 9, -28, 10, -30, 31, 16, 1, 2, -1, -16, 14, -22, 36, -1, 88, -5, 45], "withholdReward": false, "trial_id": "mdp_trial_6", "block": "test", "trialIndex": 9, "score": 46, "costs": 0, "simulationMode": [null, null, null, null, null], "rewards": [1, 2, -1, -1, 45], "path": ["0", "0", "23", "24", "25", "30", "33"], "rt": [1443, 193, 290, 890, 496], "actions": ["left", "left", "left", "down", "left"], "actionTimes": [3579, 4317, 5141, 6537, 7588], "queries": {"click": {"state": {"target": [], "time": []}, "edge": {"target": [], "time": []}}, "mouseover": {"state": {"target": [], "time": []}, "edge": {"target": [], "time": []}}, "mouseout": {"state": {"target": ["0", "18", "22"], "time": [1086, 15971, 17604]}, "edge": {"target": [], "time": []}}}, "displayed_time": "16.14", "trialTime": 18236, "trial_type": "mouselab-mdp", "trial_index": 20, "time_elapsed": 1118657, "internal_node_id": "0.0-4.0-1.0-5.0"}}, {"uniqueid": "w39656931:a24008347", "current_trial": 21, "dateTime": 1691143481990, "trialdata": {"revealed_states": [], "clicked_states": [], "num_clicks_accrued": [0, 0, 0, 0, 0, 0, 0, 0, 0, 0, 0, 0, 0], "stateRewards": ["", -2, 3, -5, -7, 66, 43, -60, -4, -70, -75, 4, -1, 2, 2, -13, 54, 11, -40, -1, 77, 32, 15, -2, 3, -8, -9, -35, 83, -27, 6, -74, -34, 44], "withholdReward": false, "trial_id": "mdp_trial_7", "block": "test", "trialIndex": 10, "score": -83, "costs": 0, "simulationMode": [null, null, null, null, null], "rewards": [-2, 3, -5, -4, -75], "path": ["0", "0", "1", "2", "3", "8", "10"], "rt": [2358, 164, 206, 482, 343], "actions": ["up", "up", "up", "left", "down"], "actionTimes": [7381, 8100, 8853, 9866, 10744], "queries": {"click": {"state": {"target": [], "time": []}, "edge": {"target": [], "time": []}}, "mouseover": {"state": {"target": [], "time": []}, "edge": {"target": [], "time": []}}, "mouseout": {"state": {"target": ["0", "12", "0", "0"], "time": [2798, 3370, 3948, 13299]}, "edge": {"target": [], "time": []}}}, "displayed_time": "19.03", "trialTime": 24165, "trial_type": "mouselab-mdp", "trial_index": 21, "time_elapsed": 1143558, "internal_node_id": "0.0-4.0-1.0-6.0"}}, {"uniqueid": "w39656931:a24008347", "current_trial": 22, "dateTime": 1691143501075, "trialdata": {"revealed_states": [], "clicked_states": [], "num_clicks_accrued": [0, 0, 0, 0, 0, 0, 0, 0, 0, 0, 0, 0, 0], "stateRewards": ["", 1, -3, -4, -11, -56, 61, -47, -16, -28, -9, 69, -2, -3, -4, -8, 40, -86, 59, -4, 80, 27, 54, -1, 3, -1, 8, 67, 23, 50, 6, 83, -43, -29], "withholdReward": false, "trial_id": "mdp_trial_8", "block": "test", "trialIndex": 11, "score": 42, "costs": 0, "simulationMode": [null, null, null, null, null], "rewards": [-2, -3, -4, -8, 59], "path": ["0", "0", "12", "13", "14", "15", "18"], "rt": [1327, 102, 96, 326, 76], "actions": ["right", "right", "right", "up", "left"], "actionTimes": [3977, 4620, 5265, 6132, 6745], "queries": {"click": {"state": {"target": [], "time": []}, "edge": {"target": [], "time": []}}, "mouseover": {"state": {"target": [], "time": []}, "edge": {"target": [], "time": []}}, "mouseout": {"state": {"target": ["20", "19", "22", "12", "0", "0"], "time": [1279, 1345, 1395, 1512, 1879, 9683]}, "edge": {"target": [], "time": []}}}, "displayed_time": "16.65", "trialTime": 18404, "trial_type": "mouselab-mdp", "trial_index": 22, "time_elapsed": 1162644, "internal_node_id": "0.0-4.0-1.0-7.0"}}, {"uniqueid": "w39656931:a24008347", "current_trial": 23, "dateTime": 1691143520401, "trialdata": {"revealed_states": [], "clicked_states": [], "num_clicks_accrued": [0, 0, 0, 0, 0, 0, 0, 0, 0, 0, 0, 0, 0], "stateRewards": ["", -2, -4, 4, -11, -63, -60, -7, 2, -14, 81, -43, -1, -1, -5, 7, 10, 69, 40, 8, -83, 52, 60, 1, 2, 5, -5, 16, 64, 14, -3, 29, 7, -51], "withholdReward": false, "trial_id": "mdp_trial_9", "block": "test", "trialIndex": 12, "score": 69, "costs": 0, "simulationMode": [null, null, null, null, null], "rewards": [-1, -1, -5, 7, 69], "path": ["0", "0", "12", "13", "14", "15", "17"], "rt": [2068, 47, 141, 381, 112], "actions": ["right", "right", "right", "up", "right"], "actionTimes": [5002, 5609, 6274, 7163, 7795], "queries": {"click": {"state": {"target": [], "time": []}, "edge": {"target": [], "time": []}}, "mouseover": {"state": {"target": [], "time": []}, "edge": {"target": [], "time": []}}, "mouseout": {"state": {"target": ["20", "13", "12", "0", "0", "0"], "time": [1359, 1643, 1725, 1858, 2076, 10940]}, "edge": {"target": [], "time": []}}}, "displayed_time": "16.94", "trialTime": 18706, "trial_type": "mouselab-mdp", "trial_index": 23, "time_elapsed": 1181969, "internal_node_id": "0.0-4.0-1.0-8.0"}}, {"uniqueid": "w39656931:a24008347", "current_trial": 24, "dateTime": 1691143540845, "trialdata": {"revealed_states": [], "clicked_states": [], "num_clicks_accrued": [0, 0, 0, 0, 0, 0, 0, 0, 0, 0, 0, 0, 0], "stateRewards": ["", -2, -4, -2, -13, -15, 87, -19, -6, -80, 30, 12, 1, 1, -8, 2, 55, 56, 15, 11, -68, -7, 55, -2, 3, -3, -3, 48, 62, 4, 1, -3, 69, -33], "withholdReward": false, "trial_id": "mdp_trial_10", "block": "test", "trialIndex": 13, "score": -1, "costs": 0, "simulationMode": [null, null, null, null, null], "rewards": [-2, 3, -3, -3, 4], "path": ["0", "0", "23", "24", "25", "26", "29"], "rt": [1479, 337, 225, 332, 98], "actions": ["left", "left", "left", "up", "left"], "actionTimes": [4118, 4996, 5751, 6643, 7275], "queries": {"click": {"state": {"target": [], "time": []}, "edge": {"target": [], "time": []}}, "mouseover": {"state": {"target": [], "time": []}, "edge": {"target": [], "time": []}}, "mouseout": {"state": {"target": ["17", "15", "12", "0"], "time": [1404, 1471, 1637, 17759]}, "edge": {"target": [], "time": []}}}, "displayed_time": "16.64", "trialTime": 19763, "trial_type": "mouselab-mdp", "trial_index": 24, "time_elapsed": 1202412, "internal_node_id": "0.0-4.0-1.0-9.0"}}, {"uniqueid": "w39656931:a24008347", "current_trial": 25, "dateTime": 1691143561408, "trialdata": {"revealed_states": [], "clicked_states": [], "num_clicks_accrued": [0, 0, 0, 0, 0, 0, 0, 0, 0, 0, 0, 0, 0], "stateRewards": ["", 2, 3, 6, -5, -74, -53, 17, -12, 46, 44, 18, -2, 4, 1, -8, 22, -23, -49, 9, -45, 55, 81, 1, -1, -7, -16, -83, -71, -45, 2, 51, 82, 61], "withholdReward": false, "trial_id": "mdp_trial_11", "block": "test", "trialIndex": 14, "score": -94, "costs": 0, "simulationMode": [null, null, null, null, null], "rewards": [1, -1, -7, -16, -71], "path": ["0", "0", "23", "24", "25", "26", "28"], "rt": [907, 297, 209, 389, 83], "actions": ["left", "left", "left", "up", "right"], "actionTimes": [3331, 4171, 4917, 5830, 6442], "queries": {"click": {"state": {"target": [], "time": []}, "edge": {"target": [], "time": []}}, "mouseover": {"state": {"target": [], "time": []}, "edge": {"target": [], "time": []}}, "mouseout": {"state": {"target": ["17", "0", "18", "17"], "time": [1203, 17778, 17869, 17953]}, "edge": {"target": [], "time": []}}}, "displayed_time": "16.43", "trialTime": 19813, "trial_type": "mouselab-mdp", "trial_index": 25, "time_elapsed": 1222977, "internal_node_id": "0.0-4.0-1.0-10.0"}}, {"uniqueid": "w39656931:a24008347", "current_trial": 26, "dateTime": 1691143582241, "trialdata": {"revealed_states": [], "clicked_states": [], "num_clicks_accrued": [0, 0, 0, 0, 0, 0, 0, 0, 0, 0, 0, 0, 0], "stateRewards": ["", 2, 4, -3, 16, -58, 30, -35, 11, -60, 47, 27, -2, -1, -7, -16, 23, -70, 68, -10, -65, -43, -34, -2, 1, 7, 9, -63, 34, -31, -8, -12, -86, 59], "withholdReward": false, "trial_id": "mdp_trial_12", "block": "test", "trialIndex": 15, "score": 42, "costs": 0, "simulationMode": [null, null, null, null, null], "rewards": [-2, -1, -7, -16, 68], "path": ["0", "0", "12", "13", "14", "15", "18"], "rt": [803, 70, 99, 168, 182], "actions": ["right", "right", "right", "up", "left"], "actionTimes": [4122, 4749, 5399, 6098, 6817], "queries": {"click": {"state": {"target": [], "time": []}, "edge": {"target": [], "time": []}}, "mouseover": {"state": {"target": [], "time": []}, "edge": {"target": [], "time": []}}, "mouseout": {"state": {"target": ["20", "19", "19", "22", "12", "0", "7", "6"], "time": [1374, 1441, 1541, 1640, 1873, 17890, 18008, 18108]}, "edge": {"target": [], "time": []}}}, "displayed_time": "17.32", "trialTime": 20145, "trial_type": "mouselab-mdp", "trial_index": 26, "time_elapsed": 1243806, "internal_node_id": "0.0-4.0-1.0-11.0"}}, {"uniqueid": "w39656931:a24008347", "current_trial": 27, "dateTime": 1691143603357, "trialdata": {"revealed_states": [], "clicked_states": [], "num_clicks_accrued": [0, 0, 0, 0, 0, 0, 0, 0, 0, 0, 0, 0, 0], "stateRewards": ["", 2, -2, -8, 9, -20, 55, -58, 14, 42, 2, 36, 1, -3, -5, 5, -58, 57, 60, 16, 57, 30, -70, -2, 1, 3, 10, 59, 23, 77, -13, -26, 88, -72], "withholdReward": false, "trial_id": "mdp_trial_13", "block": "test", "trialIndex": 16, "score": -57, "costs": 0, "simulationMode": [null, null, null, null, null], "rewards": [2, -2, -8, 9, -58], "path": ["0", "0", "1", "2", "3", "4", "7"], "rt": [783, 27, 26, 805, 1573], "actions": ["up", "up", "up", "right", "down"], "actionTimes": [4019, 4598, 5166, 6497, 8619], "queries": {"click": {"state": {"target": [], "time": []}, "edge": {"target": [], "time": []}}, "mouseover": {"state": {"target": [], "time": []}, "edge": {"target": [], "time": []}}, "mouseout": {"state": {"target": ["7", "0", "17"], "time": [2195, 13429, 13797]}, "edge": {"target": [], "time": []}}}, "displayed_time": "17.24", "trialTime": 20407, "trial_type": "mouselab-mdp", "trial_index": 27, "time_elapsed": 1264926, "internal_node_id": "0.0-4.0-1.0-12.0"}}, {"uniqueid": "w39656931:a24008347", "current_trial": 28, "dateTime": 1691143627691, "trialdata": {"revealed_states": [], "clicked_states": [], "num_clicks_accrued": [0, 0, 0, 0, 0, 0, 0, 0, 0, 0, 0, 0, 0], "stateRewards": ["", -1, -4, 8, 8, -68, 47, 24, -7, -61, 49, -69, -1, -1, 8, -7, 42, 1, -45, -11, 10, -63, -6, 1, 4, 6, -16, 79, -37, -58, -12, 81, 18, -53], "withholdReward": false, "trial_id": "mdp_trial_14", "block": "test", "trialIndex": 17, "score": 0, "costs": 0, "simulationMode": [null, null, null, null, null], "rewards": [-1, -1, 8, -7, 1], "path": ["0", "0", "12", "13", "14", "15", "17"], "rt": [849, 27, 102, 713, 137], "actions": ["right", "right", "right", "up", "right"], "actionTimes": [3479, 4037, 4651, 5923, 6606], "queries": {"click": {"state": {"target": [], "time": []}, "edge": {"target": [], "time": []}}, "mouseover": {"state": {"target": [], "time": []}, "edge": {"target": [], "time": []}}, "mouseout": {"state": {"target": ["20", "19", "0", "0", "16"], "time": [1437, 1487, 2036, 19695, 19771]}, "edge": {"target": [], "time": []}}}, "displayed_time": "16.63", "trialTime": 23578, "trial_type": "mouselab-mdp", "trial_index": 28, "time_elapsed": 1289258, "internal_node_id": "0.0-4.0-1.0-13.0"}}, {"uniqueid": "w39656931:a24008347", "current_trial": 29, "dateTime": 1691143647410, "trialdata": {"revealed_states": [], "clicked_states": [], "num_clicks_accrued": [0, 0, 0, 0, 0, 0, 0, 0, 0, 0, 0, 0, 0], "stateRewards": ["", -2, -1, -6, -14, -55, 78, -13, 11, 14, -71, 59, 2, 2, 6, -6, 9, 38, 14, 7, 85, 11, 68, 1, -4, -1, -3, -63, -85, 9, -2, 63, -86, -10], "withholdReward": false, "trial_id": "mdp_trial_15", "block": "test", "trialIndex": 18, "score": -78, "costs": 0, "simulationMode": [null, null, null, null, null], "rewards": [-2, -1, -6, -14, -55], "path": ["0", "0", "1", "2", "3", "4", "5"], "rt": [2058, 39, 627, 467, 27], "actions": ["up", "up", "up", "right", "up"], "actionTimes": [4463, 5035, 6217, 7223, 7785], "queries": {"click": {"state": {"target": [], "time": []}, "edge": {"target": [], "time": []}}, "mouseover": {"state": {"target": [], "time": []}, "edge": {"target": [], "time": []}}, "mouseout": {"state": {"target": ["16", "7", "0", "16", "20"], "time": [1167, 1385, 10012, 10068, 17535]}, "edge": {"target": [], "time": []}}}, "displayed_time": "16.41", "trialTime": 18996, "trial_type": "mouselab-mdp", "trial_index": 29, "time_elapsed": 1308977, "internal_node_id": "0.0-4.0-1.0-14.0"}}, {"uniqueid": "w39656931:a24008347", "current_trial": 30, "dateTime": 1691143666151, "trialdata": {"revealed_states": [], "clicked_states": [], "num_clicks_accrued": [0, 0, 0, 0, 0, 0, 0, 0, 0, 0, 0, 0, 0], "stateRewards": ["", 2, 4, 4, 9, -88, -10, 44, 16, -54, 64, 78, 1, 2, 5, 16, 80, 36, 7, -4, 9, -47, -70, -1, -3, 6, -16, 11, 80, 28, 8, -1, 34, -17], "withholdReward": false, "trial_id": "mdp_trial_16", "block": "test", "trialIndex": 19, "score": 44, "costs": 0, "simulationMode": [null, null, null, null, null], "rewards": [-1, -3, 6, 8, 34], "path": ["0", "0", "23", "24", "25", "30", "32"], "rt": [1473, 76, 26, 276, 624], "actions": ["left", "left", "left", "down", "down"], "actionTimes": [3193, 3802, 4385, 5199, 6392], "queries": {"click": {"state": {"target": [], "time": []}, "edge": {"target": [], "time": []}}, "mouseover": {"state": {"target": [], "time": []}, "edge": {"target": [], "time": []}}, "mouseout": {"state": {"target": ["0"], "time": [935]}, "edge": {"target": [], "time": []}}}, "displayed_time": "15.72", "trialTime": 17975, "trial_type": "mouselab-mdp", "trial_index": 30, "time_elapsed": 1327719, "internal_node_id": "0.0-4.0-1.0-15.0"}}, {"uniqueid": "w39656931:a24008347", "current_trial": 31, "dateTime": 1691143685936, "trialdata": {"revealed_states": [], "clicked_states": [], "num_clicks_accrued": [0, 0, 0, 0, 0, 0, 0, 0, 0, 0, 0, 0, 0], "stateRewards": ["", 2, -4, -8, -15, 71, -43, -41, 7, -17, 20, 67, -1, -1, -4, 6, 37, -24, -47, 9, 34, 57, 45, 1, 2, -4, -5, -23, 88, -5, 13, -40, 43, 44], "withholdReward": false, "trial_id": "mdp_trial_17", "block": "test", "trialIndex": 20, "score": 56, "costs": 0, "simulationMode": [null, null, null, null, null], "rewards": [1, 2, -4, 13, 44], "path": ["0", "0", "23", "24", "25", "30", "33"], "rt": [1234, 101, 98, 599, 308], "actions": ["left", "left", "left", "down", "left"], "actionTimes": [4080, 4703, 5347, 6480, 7338], "queries": {"click": {"state": {"target": [], "time": []}, "edge": {"target": [], "time": []}}, "mouseover": {"state": {"target": ["23"], "time": [3076]}, "edge": {"target": [], "time": []}}, "mouseout": {"state": {"target": ["17", "15", "23"], "time": [1624, 1654, 15776]}, "edge": {"target": [], "time": []}}}, "displayed_time": "16.85", "trialTime": 19030, "trial_type": "mouselab-mdp", "trial_index": 31, "time_elapsed": 1347502, "internal_node_id": "0.0-4.0-1.0-16.0"}}, {"uniqueid": "w39656931:a24008347", "current_trial": 32, "dateTime": 1691143704367, "trialdata": {"revealed_states": [], "clicked_states": [], "num_clicks_accrued": [0, 0, 0, 0, 0, 0, 0, 0, 0, 0, 0, 0, 0], "stateRewards": ["", 2, 2, 3, -15, 23, -14, 73, -7, -32, -20, -6, 1, 1, -5, -12, 73, 6, -84, 11, -81, -57, 13, -2, -1, -4, -8, -52, -58, 49, 13, 5, -41, -41], "withholdReward": false, "trial_id": "mdp_trial_18", "block": "test", "trialIndex": 21, "score": -99, "costs": 0, "simulationMode": [null, null, null, null, null], "rewards": [1, 1, -5, -12, -84], "path": ["0", "0", "12", "13", "14", "15", "18"], "rt": [799, 160, 112, 27, 103], "actions": ["right", "right", "right", "up", "left"], "actionTimes": [3037, 3717, 4359, 4926, 5571], "queries": {"click": {"state": {"target": [], "time": []}, "edge": {"target": [], "time": []}}, "mouseover": {"state": {"target": [], "time": []}, "edge": {"target": [], "time": []}}, "mouseout": {"state": {"target": ["17", "13", "12", "0"], "time": [1199, 1266, 1316, 1367]}, "edge": {"target": [], "time": []}}}, "displayed_time": "16.24", "trialTime": 17638, "trial_type": "mouselab-mdp", "trial_index": 32, "time_elapsed": 1365934, "internal_node_id": "0.0-4.0-1.0-17.0"}}, {"uniqueid": "w39656931:a24008347", "current_trial": 33, "dateTime": 1691143730643, "trialdata": {"revealed_states": [], "clicked_states": [], "num_clicks_accrued": [0, 0, 0, 0, 0, 0, 0, 0, 0, 0, 0, 0, 0], "stateRewards": ["", 1, 2, 7, 13, 88, -71, 27, 3, 60, 5, -53, -2, 2, -6, -1, -30, 79, 47, -4, -14, 46, 68, 1, 1, 8, 10, -14, 86, 48, -11, -67, -44, 5], "withholdReward": false, "trial_id": "mdp_trial_19", "block": "test", "trialIndex": 22, "score": 73, "costs": 0, "simulationMode": [null, null, null, null, null], "rewards": [1, 2, 7, 3, 60], "path": ["0", "0", "1", "2", "3", "8", "9"], "rt": [1165, 96, 135, 215, 371], "actions": ["up", "up", "up", "left", "up"], "actionTimes": [10049, 10677, 11341, 12104, 13008], "queries": {"click": {"state": {"target": [], "time": []}, "edge": {"target": [], "time": []}}, "mouseover": {"state": {"target": [], "time": []}, "edge": {"target": [], "time": []}}, "mouseout": {"state": {"target": ["0", "0", "0", "12", "0", "0", "0", "0"], "time": [1095, 2475, 4101, 4666, 7416, 7533, 7906, 19250]}, "edge": {"target": [], "time": []}}}, "displayed_time": "22.89", "trialTime": 25516, "trial_type": "mouselab-mdp", "trial_index": 33, "time_elapsed": 1392210, "internal_node_id": "0.0-4.0-1.0-18.0"}}, {"uniqueid": "w39656931:a24008347", "current_trial": 34, "dateTime": 1691143749182, "trialdata": {"revealed_states": [], "clicked_states": [], "num_clicks_accrued": [0, 0, 0, 0, 0, 0, 0, 0, 0, 0, 0, 0, 0], "stateRewards": ["", -2, -3, 7, -13, 60, 9, 37, -6, 37, 20, 1, 2, -2, -8, 6, -80, -31, -10, -7, 70, -65, -44, -1, 1, 7, 6, -11, 73, -85, 16, -21, 47, 34], "withholdReward": false, "trial_id": "mdp_trial_20", "block": "test", "trialIndex": 23, "score": 49, "costs": 0, "simulationMode": [null, null, null, null, null], "rewards": [-2, -3, 7, -13, 60], "path": ["0", "0", "1", "2", "3", "4", "5"], "rt": [888, 219, 42, 183, 37], "actions": ["up", "up", "up", "right", "up"], "actionTimes": [3287, 4042, 4648, 5388, 5975], "queries": {"click": {"state": {"target": [], "time": []}, "edge": {"target": [], "time": []}}, "mouseover": {"state": {"target": [], "time": []}, "edge": {"target": [], "time": []}}, "mouseout": {"state": {"target": ["20", "21", "0", "0", "12"], "time": [985, 1169, 1668, 14921, 14966]}, "edge": {"target": [], "time": []}}}, "displayed_time": "16.40", "trialTime": 17824, "trial_type": "mouselab-mdp", "trial_index": 34, "time_elapsed": 1410749, "internal_node_id": "0.0-4.0-1.0-19.0"}}, {"uniqueid": "w39656931:a24008347", "current_trial": 35, "dateTime": 1691143769195, "trialdata": {"revealed_states": [], "clicked_states": [], "num_clicks_accrued": [0, 0, 0, 0, 0, 0, 0, 0, 0, 0, 0, 0, 0], "stateRewards": ["", -2, 2, 3, -7, 76, 63, 21, 15, 35, -8, -44, 1, 1, -2, -12, 23, 24, 76, -9, 46, 66, -49, -2, -1, 7, 12, 40, -71, -45, -6, 38, -49, 46], "withholdReward": false, "trial_id": "mdp_trial_21", "block": "test", "trialIndex": 24, "score": -51, "costs": 0, "simulationMode": [null, null, null, null, null], "rewards": [-2, -1, 7, -6, -49], "path": ["0", "0", "23", "24", "25", "30", "32"], "rt": [1081, 437, 221, 278, 268], "actions": ["left", "left", "left", "down", "down"], "actionTimes": [4453, 5436, 6224, 7061, 7885], "queries": {"click": {"state": {"target": [], "time": []}, "edge": {"target": [], "time": []}}, "mouseover": {"state": {"target": [], "time": []}, "edge": {"target": [], "time": []}}, "mouseout": {"state": {"target": ["20", "22", "12", "0", "0", "1", "7"], "time": [1611, 2227, 2327, 2676, 15528, 15595, 15661]}, "edge": {"target": [], "time": []}}}, "displayed_time": "17.38", "trialTime": 19297, "trial_type": "mouselab-mdp", "trial_index": 35, "time_elapsed": 1430763, "internal_node_id": "0.0-4.0-1.0-20.0"}}, {"uniqueid": "w39656931:a24008347", "current_trial": 36, "dateTime": 1691143789058, "trialdata": {"revealed_states": [], "clicked_states": [], "num_clicks_accrued": [0, 0, 0, 0, 0, 0, 0, 0, 0, 0, 0, 0, 0], "stateRewards": ["", -2, -1, -3, -1, -78, -6, 2, -1, 22, -88, 32, 2, 2, -7, -8, -51, -17, 54, 2, -44, 54, 75, 2, -2, -8, -15, -29, 12, -67, 15, -1, -47, -47], "withholdReward": false, "trial_id": "mdp_trial_22", "block": "test", "trialIndex": 25, "score": 25, "costs": 0, "simulationMode": [null, null, null, null, null], "rewards": [-2, -1, -3, -1, 32], "path": ["0", "0", "1", "2", "3", "8", "11"], "rt": [1186, 260, 210, 79, 686], "actions": ["up", "up", "up", "left", "left"], "actionTimes": [4686, 5484, 6228, 6865, 8089], "queries": {"click": {"state": {"target": [], "time": []}, "edge": {"target": [], "time": []}}, "mouseover": {"state": {"target": [], "time": []}, "edge": {"target": [], "time": []}}, "mouseout": {"state": {"target": [], "time": []}, "edge": {"target": [], "time": []}}}, "displayed_time": "17.50", "trialTime": 19148, "trial_type": "mouselab-mdp", "trial_index": 36, "time_elapsed": 1450626, "internal_node_id": "0.0-4.0-1.0-21.0"}}, {"uniqueid": "w39656931:a24008347", "current_trial": 37, "dateTime": 1691143809130, "trialdata": {"revealed_states": [], "clicked_states": ["14"], "num_clicks_accrued": [0, 0, 0, 0, 0, 0, 0, 0, 0, 0, 0, 0, 0], "stateRewards": ["", -2, 2, 5, -14, -56, 64, 84, -5, 52, 39, 85, -2, 1, 7, 8, 21, 29, -78, -9, -10, -69, 10, -2, -1, -7, 15, 72, 20, 41, -2, 52, 80, 22], "withholdReward": false, "trial_id": "mdp_trial_23", "block": "test", "trialIndex": 26, "score": 33.6, "costs": -1.4, "simulationMode": [null, null, null, null, null], "rewards": [-2, 1, 7, 8, 21], "path": ["0", "0", "12", "13", "14", "15", "16"], "rt": [4043, 190, 68, 221, 333], "actions": ["right", "right", "right", "up", "up"], "actionTimes": [6332, 7053, 7629, 8381, 9270], "queries": {"click": {"state": {"target": ["14"], "time": [3703]}, "edge": {"target": [], "time": []}}, "mouseover": {"state": {"target": ["18", "15", "14", "12", "0"], "time": [2580, 2685, 3134, 4485, 4536]}, "edge": {"target": [], "time": []}}, "mouseout": {"state": {"target": ["17", "14", "18", "18", "15", "14", "12", "0"], "time": [412, 680, 746, 2648, 2813, 4397, 4531, 14603]}, "edge": {"target": [], "time": []}}}, "displayed_time": "16.29", "trialTime": 19269, "trial_type": "mouselab-mdp", "trial_index": 37, "time_elapsed": 1470697, "internal_node_id": "0.0-4.0-1.0-22.0"}}, {"uniqueid": "w39656931:a24008347", "current_trial": 38, "dateTime": 1691143830499, "trialdata": {"revealed_states": [], "clicked_states": ["3"], "num_clicks_accrued": [0, 0, 0, 0, 0, 0, 0, 0, 0, 0, 0, 0, 0], "stateRewards": ["", 2, -3, -5, 5, 11, -9, -33, 6, 67, 6, -30, -1, -2, -6, 13, 55, 13, 72, -14, 75, 21, -66, -2, -4, 6, 15, -1, -35, 60, 2, 51, -73, 12], "withholdReward": false, "trial_id": "mdp_trial_24", "block": "test", "trialIndex": 27, "score": 8.6, "costs": -1.4, "simulationMode": [null, null, null, null, null], "rewards": [2, -3, -5, 5, 11], "path": ["0", "0", "1", "2", "3", "4", "5"], "rt": [6315, 276, 1158, 215, 145], "actions": ["up", "up", "up", "right", "up"], "actionTimes": [9871, 10684, 12371, 13109, 13792], "queries": {"click": {"state": {"target": ["3"], "time": [4653]}, "edge": {"target": [], "time": []}}, "mouseover": {"state": {"target": ["1", "2", "3", "18", "13", "12"], "time": [3888, 4108, 4188, 5497, 5822, 5950]}, "edge": {"target": [], "time": []}}, "mouseout": {"state": {"target": ["20", "12", "0", "1", "2", "3", "3", "18", "13", "12"], "time": [1637, 2205, 2320, 4071, 4149, 4858, 5336, 5541, 5867, 18687]}, "edge": {"target": [], "time": []}}}, "displayed_time": "17.56", "trialTime": 20564, "trial_type": "mouselab-mdp", "trial_index": 38, "time_elapsed": 1492067, "internal_node_id": "0.0-4.0-1.0-23.0"}}, {"uniqueid": "w39656931:a24008347", "current_trial": 39, "dateTime": 1691143850152, "trialdata": {"revealed_states": [], "clicked_states": [], "num_clicks_accrued": [0, 0, 0, 0, 0, 0, 0, 0, 0, 0, 0, 0, 0], "stateRewards": ["", 1, 2, -5, 14, 54, -14, -25, 16, -5, -87, 78, -1, 1, 3, -3, 52, 53, 53, -10, 73, -69, -48, 2, 3, 1, 8, -62, -7, 85, 7, 82, 52, -28], "withholdReward": false, "trial_id": "mdp_trial_25", "block": "test", "trialIndex": 28, "score": 66, "costs": 0, "simulationMode": [null, null, null, null, null], "rewards": [-1, 1, 3, -10, 73], "path": ["0", "0", "12", "13", "14", "19", "20"], "rt": [1064, 135, 331, 47, 260], "actions": ["right", "right", "right", "down", "right"], "actionTimes": [4424, 5088, 5971, 6553, 7338], "queries": {"click": {"state": {"target": [], "time": []}, "edge": {"target": [], "time": []}}, "mouseover": {"state": {"target": [], "time": []}, "edge": {"target": [], "time": []}}, "mouseout": {"state": {"target": ["32", "0", "16"], "time": [2157, 11648, 11751]}, "edge": {"target": [], "time": []}}}, "displayed_time": "17.36", "trialTime": 18865, "trial_type": "mouselab-mdp", "trial_index": 39, "time_elapsed": 1511720, "internal_node_id": "0.0-4.0-1.0-24.0"}}, {"uniqueid": "w39656931:a24008347", "current_trial": 40, "dateTime": 1691143868222, "trialdata": {"revealed_states": [], "clicked_states": [], "num_clicks_accrued": [0, 0, 0, 0, 0, 0, 0, 0, 0, 0, 0, 0, 0], "stateRewards": ["", -1, 2, -2, 5, 80, -61, -27, 12, 44, -26, -75, -2, -4, 1, -16, 42, -49, -50, 4, -44, 2, 80, -2, -2, 5, -2, 59, 10, 24, 7, -48, -86, -44], "withholdReward": false, "trial_id": "mdp_trial_26", "block": "test", "trialIndex": 29, "score": -40, "costs": 0, "simulationMode": [null, null, null, null, null], "rewards": [-2, -2, 5, 7, -48], "path": ["0", "0", "23", "24", "25", "30", "31"], "rt": [1093, 83, 29, 407, 75], "actions": ["left", "left", "left", "down", "right"], "actionTimes": [2994, 3622, 4201, 5130, 5748], "queries": {"click": {"state": {"target": [], "time": []}, "edge": {"target": [], "time": []}}, "mouseover": {"state": {"target": [], "time": []}, "edge": {"target": [], "time": []}}, "mouseout": {"state": {"target": ["15", "18", "1"], "time": [650, 683, 11261]}, "edge": {"target": [], "time": []}}}, "displayed_time": "15.90", "trialTime": 17321, "trial_type": "mouselab-mdp", "trial_index": 40, "time_elapsed": 1529790, "internal_node_id": "0.0-4.0-1.0-25.0"}}, {"uniqueid": "w39656931:a24008347", "current_trial": 41, "dateTime": 1691143888732, "trialdata": {"revealed_states": [], "clicked_states": [], "num_clicks_accrued": [0, 0, 0, 0, 0, 0, 0, 0, 0, 0, 0, 0, 0], "stateRewards": ["", 1, 4, 5, -5, 58, -80, 75, 6, 25, -39, 46, 2, -2, 4, 2, 59, 31, -22, -12, -61, 15, 72, 1, -2, -7, 8, 77, 76, -23, -7, 71, -15, -3], "withholdReward": false, "trial_id": "mdp_trial_27", "block": "test", "trialIndex": 30, "score": 7, "costs": 0, "simulationMode": [null, null, null, null, null], "rewards": [2, -2, 4, -12, 15], "path": ["0", "0", "12", "13", "14", "19", "21"], "rt": [880, 26, 26, 28, 26], "actions": ["right", "right", "right", "down", "down"], "actionTimes": [3906, 4463, 5029, 5597, 6164], "queries": {"click": {"state": {"target": [], "time": []}, "edge": {"target": [], "time": []}}, "mouseover": {"state": {"target": [], "time": []}, "edge": {"target": [], "time": []}}, "mouseout": {"state": {"target": ["17", "12", "0", "0", "16"], "time": [1782, 1932, 2182, 11987, 12036]}, "edge": {"target": [], "time": []}}}, "displayed_time": "17.03", "trialTime": 19749, "trial_type": "mouselab-mdp", "trial_index": 41, "time_elapsed": 1550301, "internal_node_id": "0.0-4.0-1.0-26.0"}}, {"uniqueid": "w39656931:a24008347", "current_trial": 42, "dateTime": 1691143907151, "trialdata": {"revealed_states": [], "clicked_states": [], "num_clicks_accrued": [0, 0, 0, 0, 0, 0, 0, 0, 0, 0, 0, 0, 0], "stateRewards": ["", 1, 2, 2, -15, -84, 28, -26, 13, 31, 86, 30, -2, 1, -1, -8, 66, -40, -1, -10, -32, 57, -17, 1, 2, -2, 9, -23, 77, 85, 12, -32, -62, -35], "withholdReward": false, "trial_id": "mdp_trial_28", "block": "test", "trialIndex": 31, "score": -11, "costs": 0, "simulationMode": [null, null, null, null, null], "rewards": [-2, 1, -1, -8, -1], "path": ["0", "0", "12", "13", "14", "15", "18"], "rt": [1295, 180, 186, 624, 25], "actions": ["right", "right", "right", "up", "left"], "actionTimes": [3016, 3739, 4479, 5636, 6200], "queries": {"click": {"state": {"target": [], "time": []}, "edge": {"target": [], "time": []}}, "mouseover": {"state": {"target": [], "time": []}, "edge": {"target": [], "time": []}}, "mouseout": {"state": {"target": ["17", "15", "18", "12", "0", "0", "16"], "time": [605, 673, 707, 788, 871, 7933, 7990]}, "edge": {"target": [], "time": []}}}, "displayed_time": "15.72", "trialTime": 17642, "trial_type": "mouselab-mdp", "trial_index": 42, "time_elapsed": 1568720, "internal_node_id": "0.0-4.0-1.0-27.0"}}, {"uniqueid": "w39656931:a24008347", "current_trial": 43, "dateTime": 1691143926274, "trialdata": {"revealed_states": [], "clicked_states": [], "num_clicks_accrued": [0, 0, 0, 0, 0, 0, 0, 0, 0, 0, 0, 0, 0], "stateRewards": ["", 2, -4, -4, 13, -80, 62, 13, -11, 57, -13, -44, 1, 4, 3, -4, -29, -88, 15, 16, -58, 68, -45, -1, -3, -1, -9, -44, -86, -19, -7, -36, 59, 66], "withholdReward": false, "trial_id": "mdp_trial_29", "block": "test", "trialIndex": 32, "score": 40, "costs": 0, "simulationMode": [null, null, null, null, null], "rewards": [2, -4, -4, -11, 57], "path": ["0", "0", "1", "2", "3", "8", "9"], "rt": [448, 355, 722, 77, 233], "actions": ["up", "up", "up", "left", "up"], "actionTimes": [2615, 3513, 4771, 5378, 6138], "queries": {"click": {"state": {"target": [], "time": []}, "edge": {"target": [], "time": []}}, "mouseover": {"state": {"target": [], "time": []}, "edge": {"target": [], "time": []}}, "mouseout": {"state": {"target": ["14", "13", "12", "0"], "time": [692, 742, 908, 6943]}, "edge": {"target": [], "time": []}}}, "displayed_time": "16.17", "trialTime": 18237, "trial_type": "mouselab-mdp", "trial_index": 43, "time_elapsed": 1587843, "internal_node_id": "0.0-4.0-1.0-28.0"}}, {"uniqueid": "w39656931:a24008347", "current_trial": 44, "dateTime": 1691143947094, "trialdata": {"revealed_states": [], "clicked_states": ["25"], "num_clicks_accrued": [0, 0, 0, 0, 0, 0, 0, 0, 0, 0, 0, 0, 0], "stateRewards": ["", -2, 1, -3, -16, -39, -52, 30, -7, -41, -59, 11, 2, 1, 8, 2, -11, -26, -42, -13, 87, -59, -48, -1, -1, -1, 16, -79, 31, 50, -1, -84, 34, -82], "withholdReward": false, "trial_id": "mdp_trial_30", "block": "test", "trialIndex": 33, "score": -60.4, "costs": -1.4, "simulationMode": [null, null, null, null, null], "rewards": [-2, 1, -3, -16, -39], "path": ["0", "0", "1", "2", "3", "4", "5"], "rt": [4073, 180, 417, 76, 35], "actions": ["up", "up", "up", "right", "up"], "actionTimes": [7094, 7820, 8772, 9331, 9900], "queries": {"click": {"state": {"target": ["25"], "time": [4202]}, "edge": {"target": [], "time": []}}, "mouseover": {"state": {"target": ["23", "24", "25", "25", "24", "23"], "time": [3360, 3401, 3448, 3910, 4749, 4822]}, "edge": {"target": [], "time": []}}, "mouseout": {"state": {"target": ["20", "19", "22", "0", "23", "24", "25", "25", "24", "23", "0"], "time": [1926, 1961, 1998, 2424, 3397, 3443, 3491, 4445, 4816, 4872, 13649]}, "edge": {"target": [], "time": []}}}, "displayed_time": "17.02", "trialTime": 20039, "trial_type": "mouselab-mdp", "trial_index": 44, "time_elapsed": 1608662, "internal_node_id": "0.0-4.0-1.0-29.0"}}, {"uniqueid": "w39656931:a24008347", "current_trial": 45, "dateTime": 1691143966579, "trialdata": {"revealed_states": [], "clicked_states": ["14"], "num_clicks_accrued": [0, 0, 0, 0, 0, 0, 0, 0, 0, 0, 0, 0, 0], "stateRewards": ["", 1, 1, -6, -2, 7, 77, 3, 16, -16, 66, 31, -1, 3, -8, -6, 33, -50, -48, 7, -60, -66, 36, 2, -3, 3, -7, -12, -61, -79, -4, 8, 74, -70], "withholdReward": false, "trial_id": "mdp_trial_31", "block": "test", "trialIndex": 34, "score": 70.6, "costs": -1.4, "simulationMode": [null, null, null, null, null], "rewards": [2, -3, 3, -4, 74], "path": ["0", "0", "23", "24", "25", "30", "32"], "rt": [3499, 28, 627, 66, 70], "actions": ["left", "left", "left", "down", "down"], "actionTimes": [6333, 6896, 8080, 8652, 9271], "queries": {"click": {"state": {"target": ["14"], "time": [4184]}, "edge": {"target": [], "time": []}}, "mouseover": {"state": {"target": ["12", "13", "14", "12", "0"], "time": [3366, 3421, 3530, 4892, 4941]}, "edge": {"target": [], "time": []}}, "mouseout": {"state": {"target": ["21", "20", "13", "12", "0", "12", "13", "14", "12", "0"], "time": [1296, 1362, 1728, 1895, 3247, 3416, 3462, 4809, 4935, 12030]}, "edge": {"target": [], "time": []}}}, "displayed_time": "16.84", "trialTime": 18663, "trial_type": "mouselab-mdp", "trial_index": 45, "time_elapsed": 1628148, "internal_node_id": "0.0-4.0-1.0-30.0"}}, {"uniqueid": "w39656931:a24008347", "current_trial": 46, "dateTime": 1691143985733, "trialdata": {"revealed_states": [], "clicked_states": ["3"], "num_clicks_accrued": [0, 0, 0, 0, 0, 0, 0, 0, 0, 0, 0, 0, 0], "stateRewards": ["", -2, -3, 1, -14, 48, -49, 67, -1, -35, -48, 3, -2, 1, -4, -5, 86, -84, 39, 1, 48, 41, -42, -1, -4, 2, -7, 18, -86, 17, 7, -9, 57, -69], "withholdReward": false, "trial_id": "mdp_trial_32", "block": "test", "trialIndex": 35, "score": 6.6, "costs": -1.4, "simulationMode": [null, null, null, null, null], "rewards": [-1, -4, 2, -7, 18], "path": ["0", "0", "23", "24", "25", "26", "27"], "rt": [4922, 471, 262, 763, 59], "actions": ["left", "left", "left", "up", "up"], "actionTimes": [7025, 8012, 8825, 10103, 10701], "queries": {"click": {"state": {"target": ["3"], "time": [3375]}, "edge": {"target": [], "time": []}}, "mouseover": {"state": {"target": ["1", "2", "3", "18"], "time": [2418, 2467, 2719, 4281]}, "edge": {"target": [], "time": []}}, "mouseout": {"state": {"target": ["14", "0", "1", "2", "3", "18", "18", "15"], "time": [1085, 1467, 2460, 2507, 4107, 4364, 12640, 12704]}, "edge": {"target": [], "time": []}}}, "displayed_time": "16.11", "trialTime": 18341, "trial_type": "mouselab-mdp", "trial_index": 46, "time_elapsed": 1647302, "internal_node_id": "0.0-4.0-1.0-31.0"}}, {"uniqueid": "w39656931:a24008347", "current_trial": 47, "dateTime": 1691144009188, "trialdata": {"revealed_states": [], "clicked_states": ["3"], "num_clicks_accrued": [0, 0, 0, 0, 0, 0, 0, 0, 0, 0, 0, 0, 0], "stateRewards": ["", 1, -3, -2, 14, 49, -40, -39, 2, 26, -61, 73, 1, -4, -8, 12, 79, 29, -65, -13, 55, -26, 27, -1, 3, 3, 9, -17, -60, -18, -8, 35, -88, 69], "withholdReward": false, "trial_id": "mdp_trial_33", "block": "test", "trialIndex": 36, "score": -51.4, "costs": -1.4, "simulationMode": [null, null, null, null, null], "rewards": [1, -4, -8, -13, -26], "path": ["0", "0", "12", "13", "14", "19", "21"], "rt": [4786, 220, 656, 453, 144], "actions": ["right", "right", "right", "down", "down"], "actionTimes": [7097, 7851, 9041, 9972, 10615], "queries": {"click": {"state": {"target": ["3"], "time": [4462]}, "edge": {"target": [], "time": []}}, "mouseover": {"state": {"target": ["12", "2", "3", "7", "18", "14"], "time": [2880, 3180, 3480, 4965, 5014, 5101]}, "edge": {"target": [], "time": []}}, "mouseout": {"state": {"target": ["17", "14", "12", "12", "2", "3", "7", "18", "14"], "time": [495, 984, 1063, 2979, 3380, 4921, 5010, 5059, 5146]}, "edge": {"target": [], "time": []}}}, "displayed_time": "16.31", "trialTime": 22641, "trial_type": "mouselab-mdp", "trial_index": 47, "time_elapsed": 1670757, "internal_node_id": "0.0-4.0-1.0-32.0"}}, {"uniqueid": "w39656931:a24008347", "current_trial": 48, "dateTime": 1691144028325, "trialdata": {"revealed_states": [], "clicked_states": [], "num_clicks_accrued": [0, 0, 0, 0, 0, 0, 0, 0, 0, 0, 0, 0, 0], "stateRewards": ["", -1, -3, 4, -10, -5, 79, -87, -2, 53, 29, -20, -2, -1, -5, 10, 27, 86, 46, -16, -29, 40, 3, 2, 4, -1, -6, 37, 79, -29, 7, 86, -62, 29], "withholdReward": false, "trial_id": "mdp_trial_34", "block": "test", "trialIndex": 37, "score": 36, "costs": 0, "simulationMode": [null, null, null, null, null], "rewards": [2, 4, -1, -6, 37], "path": ["0", "0", "23", "24", "25", "26", "27"], "rt": [1987, 460, 458, 199, 227], "actions": ["left", "left", "left", "up", "up"], "actionTimes": [3949, 4942, 5925, 6664, 7428], "queries": {"click": {"state": {"target": [], "time": []}, "edge": {"target": [], "time": []}}, "mouseover": {"state": {"target": ["23"], "time": [2878]}, "edge": {"target": [], "time": []}}, "mouseout": {"state": {"target": ["0", "23"], "time": [927, 2946]}, "edge": {"target": [], "time": []}}}, "displayed_time": "15.96", "trialTime": 18311, "trial_type": "mouselab-mdp", "trial_index": 48, "time_elapsed": 1689894, "internal_node_id": "0.0-4.0-1.0-33.0"}}, {"uniqueid": "w39656931:a24008347", "current_trial": 49, "dateTime": 1691144051079, "trialdata": {"revealed_states": [], "clicked_states": [], "num_clicks_accrued": [0, 0, 0, 0, 0, 0, 0, 0, 0, 0, 0, 0, 0], "stateRewards": ["", -1, -4, -3, 1, -45, -67, -24, 14, 32, 22, 22, -1, 1, -5, -7, 72, 84, -79, -5, 19, -40, -2, -1, -2, 8, -3, 84, -25, -28, 11, 64, -66, 77], "withholdReward": false, "trial_id": "mdp_trial_35", "block": "test", "trialIndex": 38, "score": -91, "costs": 0, "simulationMode": [null, null, null, null, null], "rewards": [-1, 1, -5, -7, -79], "path": ["0", "0", "12", "13", "14", "15", "18"], "rt": [783, 205, 276, 358, 278], "actions": ["right", "right", "right", "up", "left"], "actionTimes": [6125, 6864, 7703, 8596, 9418], "queries": {"click": {"state": {"target": [], "time": []}, "edge": {"target": [], "time": []}}, "mouseover": {"state": {"target": [], "time": []}, "edge": {"target": [], "time": []}}, "mouseout": {"state": {"target": ["16", "1", "23", "0", "16"], "time": [2352, 2819, 3019, 10253, 10321]}, "edge": {"target": [], "time": []}}}, "displayed_time": "19.34", "trialTime": 21908, "trial_type": "mouselab-mdp", "trial_index": 49, "time_elapsed": 1712648, "internal_node_id": "0.0-4.0-1.0-34.0"}}, {"uniqueid": "w39656931:a24008347", "current_trial": 50, "dateTime": 1691144069870, "trialdata": {"revealed_states": [], "clicked_states": [], "num_clicks_accrued": [0, 0, 0, 0, 0, 0, 0, 0, 0, 0, 0, 0, 0], "stateRewards": ["", 2, -3, 5, 11, -79, 54, 11, -9, -78, 33, 22, -2, -1, 2, 14, 43, 34, 1, 10, 49, -65, 39, -1, 1, -1, 3, -16, -2, 11, 2, 12, 48, -65], "withholdReward": false, "trial_id": "mdp_trial_36", "block": "test", "trialIndex": 39, "score": 28, "costs": 0, "simulationMode": [null, null, null, null, null], "rewards": [2, -3, 5, -9, 33], "path": ["0", "0", "1", "2", "3", "8", "10"], "rt": [1241, 27, 26, 57, 60], "actions": ["up", "up", "up", "left", "down"], "actionTimes": [3779, 4331, 4898, 5495, 6098], "queries": {"click": {"state": {"target": [], "time": []}, "edge": {"target": [], "time": []}}, "mouseover": {"state": {"target": [], "time": []}, "edge": {"target": [], "time": []}}, "mouseout": {"state": {"target": ["14", "0"], "time": [1098, 7332]}, "edge": {"target": [], "time": []}}}, "displayed_time": "16.54", "trialTime": 17896, "trial_type": "mouselab-mdp", "trial_index": 50, "time_elapsed": 1731439, "internal_node_id": "0.0-4.0-1.0-35.0"}}, {"uniqueid": "w39656931:a24008347", "current_trial": 51, "dateTime": 1691144088254, "trialdata": {"revealed_states": [], "clicked_states": [], "num_clicks_accrued": [0, 0, 0, 0, 0, 0, 0, 0, 0, 0, 0, 0, 0], "stateRewards": ["", -2, -1, -5, 10, -36, -70, 68, -9, 86, 71, -10, 2, -4, 7, -7, 66, 44, -66, -13, -69, 43, 15, -2, 2, 6, -13, 62, 57, 50, -10, -69, 42, -72], "withholdReward": false, "trial_id": "mdp_trial_37", "block": "test", "trialIndex": 40, "score": 50, "costs": 0, "simulationMode": [null, null, null, null, null], "rewards": [-2, 2, 6, -13, 57], "path": ["0", "0", "23", "24", "25", "26", "28"], "rt": [999, 396, 91, 1317, 1132], "actions": ["left", "left", "left", "up", "right"], "actionTimes": [3216, 4165, 4831, 6655, 8337], "queries": {"click": {"state": {"target": [], "time": []}, "edge": {"target": [], "time": []}}, "mouseover": {"state": {"target": [], "time": []}, "edge": {"target": [], "time": []}}, "mouseout": {"state": {"target": ["14", "16", "1", "18"], "time": [566, 998, 1415, 9066]}, "edge": {"target": [], "time": []}}}, "displayed_time": "16.22", "trialTime": 17513, "trial_type": "mouselab-mdp", "trial_index": 51, "time_elapsed": 1749822, "internal_node_id": "0.0-4.0-1.0-36.0"}}, {"uniqueid": "w39656931:a24008347", "current_trial": 52, "dateTime": 1691144107287, "trialdata": {"revealed_states": [], "clicked_states": [], "num_clicks_accrued": [0, 0, 0, 0, 0, 0, 0, 0, 0, 0, 0, 0, 0], "stateRewards": ["", 1, 1, -5, 8, -6, 45, 16, -6, -7, -22, -38, -1, -4, 8, -11, -16, 21, -45, -15, -59, -32, 42, -1, 3, 6, 11, -7, 34, -27, -8, 85, 43, -9], "withholdReward": false, "trial_id": "mdp_trial_38", "block": "test", "trialIndex": 41, "score": 85, "costs": 0, "simulationMode": [null, null, null, null, null], "rewards": [-1, 3, 6, -8, 85], "path": ["0", "0", "23", "24", "25", "30", "31"], "rt": [1617, 86, 62, 129, 267], "actions": ["left", "left", "left", "down", "right"], "actionTimes": [4414, 5037, 5646, 6330, 7120], "queries": {"click": {"state": {"target": [], "time": []}, "edge": {"target": [], "time": []}}, "mouseover": {"state": {"target": [], "time": []}, "edge": {"target": [], "time": []}}, "mouseout": {"state": {"target": ["17", "0"], "time": [1596, 2112]}, "edge": {"target": [], "time": []}}}, "displayed_time": "16.80", "trialTime": 18178, "trial_type": "mouselab-mdp", "trial_index": 52, "time_elapsed": 1768855, "internal_node_id": "0.0-4.0-1.0-37.0"}}, {"uniqueid": "w39656931:a24008347", "current_trial": 53, "dateTime": 1691144126379, "trialdata": {"revealed_states": [], "clicked_states": [], "num_clicks_accrued": [0, 0, 0, 0, 0, 0, 0, 0, 0, 0, 0, 0, 0], "stateRewards": ["", 1, -2, 4, 7, -43, -83, -60, -5, -86, -80, 83, -1, -2, 6, 11, -15, 21, 13, 9, 29, -49, 11, -1, 4, -6, -11, 87, 40, 63, -8, -39, -11, 62], "withholdReward": false, "trial_id": "mdp_trial_39", "block": "test", "trialIndex": 42, "score": 51, "costs": 0, "simulationMode": [null, null, null, null, null], "rewards": [-1, 4, -6, -8, 62], "path": ["0", "0", "23", "24", "25", "30", "33"], "rt": [1595, 482, 246, 129, 60], "actions": ["left", "left", "left", "down", "left"], "actionTimes": [4655, 5684, 6462, 7130, 7743], "queries": {"click": {"state": {"target": [], "time": []}, "edge": {"target": [], "time": []}}, "mouseover": {"state": {"target": [], "time": []}, "edge": {"target": [], "time": []}}, "mouseout": {"state": {"target": ["18", "18"], "time": [1811, 10849]}, "edge": {"target": [], "time": []}}}, "displayed_time": "17.06", "trialTime": 18204, "trial_type": "mouselab-mdp", "trial_index": 53, "time_elapsed": 1787948, "internal_node_id": "0.0-4.0-1.0-38.0"}}, {"uniqueid": "w39656931:a24008347", "current_trial": 54, "dateTime": 1691144145905, "trialdata": {"revealed_states": [], "clicked_states": [], "num_clicks_accrued": [0, 0, 0, 0, 0, 0, 0, 0, 0, 0, 0, 0, 0], "stateRewards": ["", 1, -2, 7, -14, 88, -56, -44, -14, 64, -51, -57, -2, 3, -4, -9, -11, 19, -77, -1, 68, 75, -67, -1, 1, -2, 5, -37, 70, -34, -10, -72, 63, -41], "withholdReward": false, "trial_id": "mdp_trial_40", "block": "test", "trialIndex": 43, "score": 51, "costs": 0, "simulationMode": [null, null, null, null, null], "rewards": [-1, 1, -2, -10, 63], "path": ["0", "0", "23", "24", "25", "30", "32"], "rt": [1235, 27, 26, 624, 84], "actions": ["left", "left", "left", "down", "down"], "actionTimes": [3375, 3945, 4509, 5675, 6318], "queries": {"click": {"state": {"target": [], "time": []}, "edge": {"target": [], "time": []}}, "mouseover": {"state": {"target": [], "time": []}, "edge": {"target": [], "time": []}}, "mouseout": {"state": {"target": ["14", "0", "1", "0", "18", "17"], "time": [613, 1028, 1212, 7712, 7764, 7863]}, "edge": {"target": [], "time": []}}}, "displayed_time": "16.14", "trialTime": 18698, "trial_type": "mouselab-mdp", "trial_index": 54, "time_elapsed": 1807474, "internal_node_id": "0.0-4.0-1.0-39.0"}}, {"uniqueid": "w39656931:a24008347", "current_trial": 55, "dateTime": 1691144227891, "trialdata": {"rt": 81570, "response": {"Q0": "$-2 to $2", "Q1": "$-32 to $32", "Q2": "$-88 to $88", "Q3": "The cost for clicking on nodes varied between nodes.", "Q4": "Very motivated"}, "question_order": [0, 1, 2, 3, 4], "trial_id": "final_quiz_control", "trial_type": "survey-multi-choice", "trial_index": 55, "time_elapsed": 1889458, "internal_node_id": "0.0-4.0-2.0"}}, {"uniqueid": "w39656931:a24008347", "current_trial": 56, "dateTime": 1691144395339, "trialdata": {"rt": 166869, "response": {"Q0": "My strategy was based on what my previous move was, I would look at the score and decide on what the best move was.", "Q1": "Yes, I think so. I got immersed into the game and that helped me become better.", "Q2": "I did not find it difficult at all."}, "trial_id": "self_report_control", "trial_type": "survey-text", "trial_index": 56, "time_elapsed": 2056908, "internal_node_id": "0.0-4.0-3.0"}}, {"uniqueid": "w39656931:a24008347", "current_trial": 57, "dateTime": 1691144426438, "trialdata": {"rt": 31045, "response": {"gender": "male", "age": "23", "colorblind": "0", "effort": "0"}, "trial_type": "survey-html-form", "trial_index": 57, "time_elapsed": 2088007, "internal_node_id": "0.0-4.0-4.0"}}, {"uniqueid": "w39656931:a24008347", "current_trial": 58, "dateTime": 1691144472347, "trialdata": {"rt": 45856, "response": {"Q0": "No, everything was easy to understand.", "Q1": "No, I have never participated.", "Q2": ""}, "trial_type": "survey-text", "trial_index": 58, "time_elapsed": 2133916, "internal_node_id": "0.0-4.0-5.0"}}, {"uniqueid": "w39656931:a24008347", "current_trial": 59, "dateTime": 1691144478283, "trialdata": {"rt": 5865, "stimulus": "Press 'Finish HIT' in order to reach the completion code. Once the data has been saved, you will receive the code either in this window or in the original browser window where you started the experiment.\n", "response": 0, "trial_type": "html-button-response", "trial_index": 59, "time_elapsed": 2139851, "internal_node_id": "0.0-5.0"}}, {"uniqueid": "w39656931:a24008347", "current_trial": 60, "dateTime": 1691144479362, "trialdata": {"success": true, "trial_type": "fullscreen", "trial_index": 60, "time_elapsed": 2140930, "internal_node_id": "0.0-6.0"}}], "questiondata": {"params": {"CODE": "C6DMOQA6", "MIN_TIME": 14, "inspectCost": 1, "startTime": "Fri Aug 04 2023 11:45:35 GMT+0200 (South Africa Standard Time)", "bonusRate": 0.002, "variance": "1_2_4_8_44", "branching": "31123"}, "final_score": 496.6}, "eventdata": [{"eventtype": "initialized", "value": null, "timestamp": 1691142334875, "interval": 0}, {"eventtype": "window_resize", "value": [1024, 646], "timestamp": 1691142334875, "interval": 0}, {"eventtype": "window_resize", "value": [1024, 646], "timestamp": 1691142335388, "interval": 513}, {"eventtype": "window_resize", "value": [1366, 768], "timestamp": 1691142342594, "interval": 7206}, {"eventtype": "focus", "value": "off", "timestamp": 1691142894299, "interval": 551705}, {"eventtype": "focus", "value": "on", "timestamp": 1691142894300, "interval": 1}, {"eventtype": "window_resize", "value": [1024, 646], "timestamp": 1691142894526, "interval": 226}, {"eventtype": "window_resize", "value": [1366, 768], "timestamp": 1691142896685, "interval": 2159}, {"eventtype": "window_resize", "value": [1024, 646], "timestamp": 1691144478935, "interval": 1582250}], "useragent": "Mozilla/5.0 (Windows NT 10.0; Win64; x64) AppleWebKit/537.36 (KHTML, like Gecko) Chrome/115.0.0.0 Safari/537.36", "mode": "live", "id": "w39656931:a24008347", "status": "user data saved", "Beginhit": "2023-08-04 09:45:30.421172", "Beginexp": "2023-08-04 09:45:43.176339", "Endhit": "2023-08-04 10:21:20.772498", "psiturkStatus": 3, "browser": "<redacted>", "platform": "windows", "language": "en-US"}