{"condition": 0, "counterbalance": 0, "assignmentId": "a76239719", "workerId": "w79792462", "hitId": "h52274686", "currenttrial": 55, "bonus": 0, "data": [{"uniqueid": "w79792462:a76239719", "current_trial": 0, "dateTime": 1691145004235, "trialdata": {"success": true, "trial_type": "fullscreen", "trial_index": 0, "time_elapsed": 9739, "internal_node_id": "0.0-0.0"}}, {"uniqueid": "w79792462:a76239719", "current_trial": 1, "dateTime": 1691145128735, "trialdata": {"view_history": [{"page_index": 0, "viewing_time": 124488}], "rt": 124489, "trial_id": "exp_instructions_control", "trial_type": "instructions", "trial_index": 1, "time_elapsed": 134240, "internal_node_id": "0.0-1.0"}}, {"uniqueid": "w79792462:a76239719", "current_trial": 2, "dateTime": 1691145134503, "trialdata": {"success": true, "trial_type": "fullscreen", "trial_index": 2, "time_elapsed": 140008, "internal_node_id": "0.0-2.0-0.0"}}, {"uniqueid": "w79792462:a76239719", "current_trial": 3, "dateTime": 1691145352794, "trialdata": {"view_history": [{"page_index": 0, "viewing_time": 88741}, {"page_index": 1, "viewing_time": 92893}, {"page_index": 2, "viewing_time": 19119}, {"page_index": 3, "viewing_time": 17533}], "rt": 218286, "trial_id": "mouselab_instructions_1_control", "trial_type": "instructions", "trial_index": 3, "time_elapsed": 358299, "internal_node_id": "0.0-2.0-1.0"}}, {"uniqueid": "w79792462:a76239719", "current_trial": 4, "dateTime": 1691145363634, "trialdata": {"revealed_states": [], "clicked_states": [], "num_clicks_accrued": [0, 0, 0, 0, 0, 0, 0, 0, 0, 0, 0, 0, 0], "stateRewards": ["", -10, -10, -10, -10, -10, 10, 10, 10, -10, 10, 10, 10, 10, -10, -10, 10, -10, -10, -10, 10, -10, -10, -10, 10, 10, 10, 10, 10, -10, -10, -10, -10, 10], "withholdReward": false, "trial_id": "practice_1", "block": "test", "trialIndex": 0, "score": 13.5, "costs": 0, "simulationMode": [null, null, null, null, null], "rewards": [10, 10, -10, -10, 10], "path": ["0", "0", "12", "13", "14", "15", "16"], "rt": [1084, 95, 383, 82, 276], "actions": ["right", "right", "right", "up", "up"], "actionTimes": [4410, 5010, 5914, 6511, 7305], "queries": {"click": {"state": {"target": [], "time": []}, "edge": {"target": [], "time": []}}, "mouseover": {"state": {"target": [], "time": []}, "edge": {"target": [], "time": []}}, "mouseout": {"state": {"target": [], "time": []}, "edge": {"target": [], "time": []}}}, "displayed_time": "7.83", "trialTime": 10384, "trial_type": "mouselab-mdp", "trial_index": 4, "time_elapsed": 369139, "internal_node_id": "0.0-2.0-2.0-0.0"}}, {"uniqueid": "w79792462:a76239719", "current_trial": 5, "dateTime": 1691145379330, "trialdata": {"revealed_states": [], "clicked_states": ["12", "14", "16", "18"], "num_clicks_accrued": [0, 0, 0, 0, 0, 0, 0, 0, 0, 0, 0, 0, 0], "stateRewards": ["", -10, -10, -10, 10, 10, 10, 10, -10, 10, -10, 10, 10, -10, -10, 10, -10, -10, -10, 10, -10, 10, -10, 10, 10, -10, 10, 10, 10, 10, 10, 10, -10, -10], "withholdReward": false, "trial_id": "practice_2", "block": "test", "trialIndex": 1, "score": -8.5, "costs": -2, "simulationMode": [null, null, null, null, null], "rewards": [-10, -10, -10, 10, 10], "path": ["0", "0", "1", "2", "3", "4", "5"], "rt": [6810, 126, 194, 486, 66], "actions": ["up", "up", "up", "right", "up"], "actionTimes": [11414, 12060, 12777, 13784, 14363], "queries": {"click": {"state": {"target": ["12", "14", "16", "18"], "time": [5166, 6573, 8098, 9835]}, "edge": {"target": [], "time": []}}, "mouseover": {"state": {"target": ["12", "13", "14", "15", "16", "17", "15", "18"], "time": [4742, 5459, 6108, 6957, 7896, 8736, 9401, 9585]}, "edge": {"target": [], "time": []}}, "mouseout": {"state": {"target": ["0", "0", "12", "0", "12", "13", "14", "15", "16", "17", "15", "18"], "time": [2381, 3048, 4033, 4713, 5377, 6041, 6873, 7730, 8486, 9385, 9485, 10884]}, "edge": {"target": [], "time": []}}}, "displayed_time": "14.88", "trialTime": 15442, "trial_type": "mouselab-mdp", "trial_index": 5, "time_elapsed": 384834, "internal_node_id": "0.0-2.0-2.0-1.0"}}, {"uniqueid": "w79792462:a76239719", "current_trial": 6, "dateTime": 1691145396964, "trialdata": {"view_history": [{"page_index": 0, "viewing_time": 13210}, {"page_index": 1, "viewing_time": 4422}], "rt": 17632, "trial_id": "mouselab_instructions_2_control", "trial_type": "instructions", "trial_index": 6, "time_elapsed": 402469, "internal_node_id": "0.0-2.0-3.0"}}, {"uniqueid": "w79792462:a76239719", "current_trial": 7, "dateTime": 1691145546623, "trialdata": {"rt": 149656, "response": {"Q0": "The cost for clicking on nodes may vary between nodes.", "Q1": "The better I perform the higher my bonus will be.", "Q2": "No, the amount of cash at each node of the web may be different each time.", "Q3": "To get the highest total score.", "Q4": "Only before moving the spider.", "Q5": "3 seconds"}, "question_order": [0, 1, 2, 3, 4, 5], "correct": {"Q0": "The cost for clicking on nodes may vary between nodes.", "Q1": "The better I perform the higher my bonus will be.", "Q2": "No, the amount of cash at each node of the web may be different each time.", "Q3": "To get the highest total score.", "Q4": "Only before moving the spider.", "Q5": "3 seconds"}, "trial_id": "mouselab_quiz_control", "trial_type": "survey-multi-choice", "trial_index": 7, "time_elapsed": 552128, "internal_node_id": "0.0-2.0-4.0"}}, {"uniqueid": "w79792462:a76239719", "current_trial": 8, "dateTime": 1691145555587, "trialdata": {"rt": 8955, "stimulus": "\n<h1> Get ready to start the game! </h1>\n\nThank you for reading the instructions. Get ready start with the 40 rounds of this game.\n<br><br>\nIf you need to take a break, feel free to take one after the end of a round, before continuing to the next one.\n<br><br>\nRemember, the more money the spider gets, the bigger your bonus will be!\n<br><br>\n<div style='text-align: center;'>Press <code>space</code> to begin.</div>\n\n<br><br>\n(If, at any point, the <code>space</code> key does not take you to the next page, click once on the text and try again.)", "response": " ", "trial_id": "mdp_ready", "trial_type": "html-keyboard-response", "trial_index": 8, "time_elapsed": 561092, "internal_node_id": "0.0-4.0-0.0"}}, {"uniqueid": "w79792462:a76239719", "current_trial": 9, "dateTime": 1691145575190, "trialdata": {"revealed_states": [], "clicked_states": ["12", "17"], "num_clicks_accrued": [0, 0, 0, 0, 0, 0, 0, 0, 0, 0, 0, 0, 0], "stateRewards": ["", 2, 3, -1, 16, -78, -11, 46, 2, -20, 79, -67, 2, 3, 2, 11, -83, -42, -58, -11, -67, -22, 55, 2, -1, -1, -16, -83, -82, 23, -11, -29, 13, 13], "withholdReward": false, "trial_id": "mdp_trial_1", "block": "test", "trialIndex": 2, "score": -73.8, "costs": -2.8, "simulationMode": [null, null, null, null, null], "rewards": [2, 3, 2, -11, -67], "path": ["0", "0", "12", "13", "14", "19", "20"], "rt": [6533, 902, 774, 207, 242], "actions": ["right", "right", "right", "down", "right"], "actionTimes": [9013, 10433, 11719, 12435, 13185], "queries": {"click": {"state": {"target": ["12", "17"], "time": [3747, 6218]}, "edge": {"target": [], "time": []}}, "mouseover": {"state": {"target": ["12", "13", "16", "17", "14", "13"], "time": [3445, 4157, 4591, 5640, 7334, 8465]}, "edge": {"target": [], "time": []}}, "mouseout": {"state": {"target": ["12", "13", "16", "17", "14"], "time": [4089, 4256, 5456, 7135, 8432]}, "edge": {"target": [], "time": []}}}, "displayed_time": "16.48", "trialTime": 19334, "trial_type": "mouselab-mdp", "trial_index": 9, "time_elapsed": 580694, "internal_node_id": "0.0-4.0-1.0-0.0"}}, {"uniqueid": "w79792462:a76239719", "current_trial": 10, "dateTime": 1691145596645, "trialdata": {"revealed_states": [], "clicked_states": [], "num_clicks_accrued": [0, 0, 0, 0, 0, 0, 0, 0, 0, 0, 0, 0, 0], "stateRewards": ["", 2, -1, -1, 7, 11, -40, -22, -2, 69, 37, 8, -2, 4, -8, -12, -2, -72, -3, -12, 17, 63, 12, 1, 3, -7, 6, 25, 61, 61, -9, 28, -17, 27], "withholdReward": false, "trial_id": "mdp_trial_2", "block": "test", "trialIndex": 3, "score": 67, "costs": 0, "simulationMode": [null, null, null, null, null], "rewards": [2, -1, -1, -2, 69], "path": ["0", "0", "1", "2", "3", "8", "9"], "rt": [598, 178, 121, 376, 109], "actions": ["up", "up", "up", "left", "up"], "actionTimes": [6325, 7018, 7658, 8547, 9162], "queries": {"click": {"state": {"target": [], "time": []}, "edge": {"target": [], "time": []}}, "mouseover": {"state": {"target": [], "time": []}, "edge": {"target": [], "time": []}}, "mouseout": {"state": {"target": ["13", "12", "0", "0", "0"], "time": [4617, 4894, 4940, 15672, 16021]}, "edge": {"target": [], "time": []}}}, "displayed_time": "19.73", "trialTime": 21192, "trial_type": "mouselab-mdp", "trial_index": 10, "time_elapsed": 602149, "internal_node_id": "0.0-4.0-1.0-1.0"}}, {"uniqueid": "w79792462:a76239719", "current_trial": 11, "dateTime": 1691145617029, "trialdata": {"revealed_states": [], "clicked_states": ["12", "9"], "num_clicks_accrued": [0, 0, 0, 0, 0, 0, 0, 0, 0, 0, 0, 0, 0], "stateRewards": ["", -2, -4, 6, 14, -34, 49, 36, -8, -3, 32, -4, 1, -2, 1, -8, -20, -71, -57, -7, -86, -62, -16, -2, -3, -5, 11, 23, -21, 53, 5, -5, 85, 73], "withholdReward": false, "trial_id": "mdp_trial_3", "block": "test", "trialIndex": 4, "score": -22.8, "costs": -2.8, "simulationMode": [null, null, null, null, null], "rewards": [-2, -4, 6, 14, -34], "path": ["0", "0", "1", "2", "3", "4", "5"], "rt": [6710, 90, 151, 27, 314], "actions": ["up", "up", "up", "right", "up"], "actionTimes": [11349, 11947, 12606, 13148, 13968], "queries": {"click": {"state": {"target": ["12", "9"], "time": [6355, 9069]}, "edge": {"target": [], "time": []}}, "mouseover": {"state": {"target": ["12", "17", "17", "2", "9", "5", "4"], "time": [6019, 7146, 7412, 8278, 8777, 9776, 10656]}, "edge": {"target": [], "time": []}}, "mouseout": {"state": {"target": ["12", "1", "12", "17", "17", "2", "9", "5", "4"], "time": [3777, 4019, 6846, 7163, 7961, 8311, 9576, 10640, 10706]}, "edge": {"target": [], "time": []}}}, "displayed_time": "18.64", "trialTime": 20102, "trial_type": "mouselab-mdp", "trial_index": 11, "time_elapsed": 622532, "internal_node_id": "0.0-4.0-1.0-2.0"}}, {"uniqueid": "w79792462:a76239719", "current_trial": 12, "dateTime": 1691145637428, "trialdata": {"revealed_states": [], "clicked_states": ["1", "23", "12"], "num_clicks_accrued": [0, 0, 0, 0, 0, 0, 0, 0, 0, 0, 0, 0, 0], "stateRewards": ["", 1, -2, 7, -14, 88, -56, -44, -14, 64, -51, -57, -2, 3, -4, -9, -11, 19, -77, -1, 68, 75, -67, -1, 1, -2, 5, -37, 70, -34, -10, -72, 63, -41], "withholdReward": false, "trial_id": "mdp_trial_4", "block": "test", "trialIndex": 5, "score": 75.8, "costs": -4.199999999999999, "simulationMode": [null, null, null, null, null], "rewards": [1, -2, 7, -14, 88], "path": ["0", "0", "1", "2", "3", "4", "5"], "rt": [7688, 149, 28, 5, 406], "actions": ["up", "up", "up", "right", "up"], "actionTimes": [12400, 13060, 13604, 14129, 15063], "queries": {"click": {"state": {"target": ["1", "23", "12"], "time": [5984, 7810, 10734]}, "edge": {"target": [], "time": []}}, "mouseover": {"state": {"target": ["1", "23", "12"], "time": [5593, 6703, 8616]}, "edge": {"target": [], "time": []}}, "mouseout": {"state": {"target": ["4", "7", "0", "1", "23", "12", "12"], "time": [3629, 3724, 5176, 6336, 8316, 16204, 16710]}, "edge": {"target": [], "time": []}}}, "displayed_time": "18.71", "trialTime": 20107, "trial_type": "mouselab-mdp", "trial_index": 12, "time_elapsed": 642932, "internal_node_id": "0.0-4.0-1.0-3.0"}}, {"uniqueid": "w79792462:a76239719", "current_trial": 13, "dateTime": 1691145654652, "trialdata": {"revealed_states": [], "clicked_states": [], "num_clicks_accrued": [0, 0, 0, 0, 0, 0, 0, 0, 0, 0, 0, 0, 0], "stateRewards": ["", 1, -3, 4, 13, -72, 52, 5, 5, -58, 5, 14, 2, 1, 3, -14, -86, -4, 73, 6, -58, -50, 49, 2, -3, -4, 2, 33, -41, 42, -11, 81, 45, 53], "withholdReward": false, "trial_id": "mdp_trial_5", "block": "test", "trialIndex": 6, "score": 21, "costs": 0, "simulationMode": [null, null, null, null, null], "rewards": [1, -3, 4, 5, 14], "path": ["0", "0", "1", "2", "3", "8", "11"], "rt": [1149, 73, 69, 54, 223], "actions": ["up", "up", "up", "left", "left"], "actionTimes": [2979, 3564, 4159, 4726, 5477], "queries": {"click": {"state": {"target": [], "time": []}, "edge": {"target": [], "time": []}}, "mouseover": {"state": {"target": ["1"], "time": [2376]}, "edge": {"target": [], "time": []}}, "mouseout": {"state": {"target": ["0", "1", "0"], "time": [1295, 7298, 16422]}, "edge": {"target": [], "time": []}}}, "displayed_time": "15.83", "trialTime": 16900, "trial_type": "mouselab-mdp", "trial_index": 13, "time_elapsed": 660157, "internal_node_id": "0.0-4.0-1.0-4.0"}}, {"uniqueid": "w79792462:a76239719", "current_trial": 14, "dateTime": 1691145673566, "trialdata": {"revealed_states": [], "clicked_states": [], "num_clicks_accrued": [0, 0, 0, 0, 0, 0, 0, 0, 0, 0, 0, 0, 0], "stateRewards": ["", 2, -2, -3, 10, -4, -1, -11, -8, -9, -36, -78, 2, 1, 7, -7, 44, -1, -31, -1, 26, 47, 83, 2, -4, -4, -6, -52, -76, -81, -1, -59, 45, 67], "withholdReward": false, "trial_id": "mdp_trial_6", "block": "test", "trialIndex": 7, "score": 6, "costs": 0, "simulationMode": [null, null, null, null, null], "rewards": [2, -2, -3, 10, -1], "path": ["0", "0", "1", "2", "3", "4", "6"], "rt": [719, 2753, 724, 376, 27], "actions": ["up", "up", "up", "right", "right"], "actionTimes": [2951, 6214, 7446, 8329, 8861], "queries": {"click": {"state": {"target": [], "time": []}, "edge": {"target": [], "time": []}}, "mouseover": {"state": {"target": [], "time": []}, "edge": {"target": [], "time": []}}, "mouseout": {"state": {"target": [], "time": []}, "edge": {"target": [], "time": []}}}, "displayed_time": "16.23", "trialTime": 18595, "trial_type": "mouselab-mdp", "trial_index": 14, "time_elapsed": 679070, "internal_node_id": "0.0-4.0-1.0-5.0"}}, {"uniqueid": "w79792462:a76239719", "current_trial": 15, "dateTime": 1691145689863, "trialdata": {"revealed_states": [], "clicked_states": [], "num_clicks_accrued": [0, 0, 0, 0, 0, 0, 0, 0, 0, 0, 0, 0, 0], "stateRewards": ["", -1, -2, -1, -10, -57, 73, -72, -16, 75, -14, -46, -2, -3, -7, -1, -61, -60, 76, -4, 50, 4, 14, 2, 2, -7, 12, -65, -32, 15, -8, -76, -25, -61], "withholdReward": false, "trial_id": "mdp_trial_7", "block": "test", "trialIndex": 8, "score": -34, "costs": 0, "simulationMode": [null, null, null, null, null], "rewards": [-1, -2, -1, -16, -14], "path": ["0", "0", "1", "2", "3", "8", "10"], "rt": [1274, 331, 127, 173, 296], "actions": ["up", "up", "up", "left", "down"], "actionTimes": [2497, 3339, 3983, 4662, 5467], "queries": {"click": {"state": {"target": [], "time": []}, "edge": {"target": [], "time": []}}, "mouseover": {"state": {"target": [], "time": []}, "edge": {"target": [], "time": []}}, "mouseout": {"state": {"target": ["0"], "time": [7134]}, "edge": {"target": [], "time": []}}}, "displayed_time": "15.22", "trialTime": 15985, "trial_type": "mouselab-mdp", "trial_index": 15, "time_elapsed": 695367, "internal_node_id": "0.0-4.0-1.0-6.0"}}, {"uniqueid": "w79792462:a76239719", "current_trial": 16, "dateTime": 1691145705964, "trialdata": {"revealed_states": [], "clicked_states": [], "num_clicks_accrued": [0, 0, 0, 0, 0, 0, 0, 0, 0, 0, 0, 0, 0], "stateRewards": ["", -2, 1, -3, -16, -39, -52, 30, -7, -41, -59, 11, 2, 1, 8, 2, -11, -26, -42, -13, 87, -59, -48, -1, -1, -1, 16, -79, 31, 50, -1, -84, 34, -82], "withholdReward": false, "trial_id": "mdp_trial_8", "block": "test", "trialIndex": 9, "score": 30, "costs": 0, "simulationMode": [null, null, null, null, null], "rewards": [-1, -1, -1, -1, 34], "path": ["0", "0", "23", "24", "25", "30", "32"], "rt": [1608, 11, 552, 128, 60], "actions": ["left", "left", "left", "down", "down"], "actionTimes": [2893, 3422, 4494, 5149, 5717], "queries": {"click": {"state": {"target": [], "time": []}, "edge": {"target": [], "time": []}}, "mouseover": {"state": {"target": [], "time": []}, "edge": {"target": [], "time": []}}, "mouseout": {"state": {"target": ["0"], "time": [8136]}, "edge": {"target": [], "time": []}}}, "displayed_time": "15.29", "trialTime": 15782, "trial_type": "mouselab-mdp", "trial_index": 16, "time_elapsed": 711468, "internal_node_id": "0.0-4.0-1.0-7.0"}}, {"uniqueid": "w79792462:a76239719", "current_trial": 17, "dateTime": 1691145723659, "trialdata": {"revealed_states": [], "clicked_states": [], "num_clicks_accrued": [0, 0, 0, 0, 0, 0, 0, 0, 0, 0, 0, 0, 0], "stateRewards": ["", 1, 1, 1, 15, -76, 52, -32, 14, -57, 37, 49, 1, -4, -3, 6, 83, -76, 25, 9, 36, -1, -17, -1, 4, 4, -2, -22, -21, 58, -15, -57, 49, -24], "withholdReward": false, "trial_id": "mdp_trial_9", "block": "test", "trialIndex": 10, "score": 2, "costs": 0, "simulationMode": [null, null, null, null, null], "rewards": [1, -4, -3, 9, -1], "path": ["0", "0", "12", "13", "14", "19", "21"], "rt": [1301, 93, 8, 53, 156], "actions": ["right", "right", "right", "down", "down"], "actionTimes": [2541, 3148, 3679, 4255, 4940], "queries": {"click": {"state": {"target": [], "time": []}, "edge": {"target": [], "time": []}}, "mouseover": {"state": {"target": [], "time": []}, "edge": {"target": [], "time": []}}, "mouseout": {"state": {"target": ["0"], "time": [6496]}, "edge": {"target": [], "time": []}}}, "displayed_time": "15.24", "trialTime": 17347, "trial_type": "mouselab-mdp", "trial_index": 17, "time_elapsed": 729162, "internal_node_id": "0.0-4.0-1.0-8.0"}}, {"uniqueid": "w79792462:a76239719", "current_trial": 18, "dateTime": 1691145740514, "trialdata": {"revealed_states": [], "clicked_states": [], "num_clicks_accrued": [0, 0, 0, 0, 0, 0, 0, 0, 0, 0, 0, 0, 0], "stateRewards": ["", 1, 2, -3, -6, 50, -7, 7, -7, -80, 21, -1, 2, 2, 4, -1, 33, 84, 1, 14, -53, 81, 6, -2, -2, -3, -9, -87, -38, -59, -5, -74, -3, -71], "withholdReward": false, "trial_id": "mdp_trial_10", "block": "test", "trialIndex": 11, "score": -13, "costs": 0, "simulationMode": [null, null, null, null, null], "rewards": [1, 2, -3, -6, -7], "path": ["0", "0", "1", "2", "3", "4", "6"], "rt": [1322, 197, 9, 309, 1], "actions": ["up", "up", "up", "right", "right"], "actionTimes": [2796, 3502, 4028, 4862, 5368], "queries": {"click": {"state": {"target": [], "time": []}, "edge": {"target": [], "time": []}}, "mouseover": {"state": {"target": [], "time": []}, "edge": {"target": [], "time": []}}, "mouseout": {"state": {"target": ["0"], "time": [8277]}, "edge": {"target": [], "time": []}}}, "displayed_time": "15.48", "trialTime": 16482, "trial_type": "mouselab-mdp", "trial_index": 18, "time_elapsed": 746018, "internal_node_id": "0.0-4.0-1.0-9.0"}}, {"uniqueid": "w79792462:a76239719", "current_trial": 19, "dateTime": 1691145756502, "trialdata": {"revealed_states": [], "clicked_states": [], "num_clicks_accrued": [0, 0, 0, 0, 0, 0, 0, 0, 0, 0, 0, 0, 0], "stateRewards": ["", 1, 1, 5, 6, -29, -7, 3, -16, 9, -46, 65, -1, 4, -1, -16, -63, -77, -87, 8, 80, -50, 43, -1, -1, -5, 5, -38, -71, -62, 9, 81, -50, -52], "withholdReward": false, "trial_id": "mdp_trial_11", "block": "test", "trialIndex": 12, "score": -50, "costs": 0, "simulationMode": [null, null, null, null, null], "rewards": [-1, -1, -5, 9, -52], "path": ["0", "0", "23", "24", "25", "30", "33"], "rt": [1064, 461, 126, 187, 145], "actions": ["left", "left", "left", "down", "left"], "actionTimes": [1858, 2828, 3474, 4167, 4824], "queries": {"click": {"state": {"target": [], "time": []}, "edge": {"target": [], "time": []}}, "mouseover": {"state": {"target": [], "time": []}, "edge": {"target": [], "time": []}}, "mouseout": {"state": {"target": ["0"], "time": [7224]}, "edge": {"target": [], "time": []}}}, "displayed_time": "14.79", "trialTime": 15625, "trial_type": "mouselab-mdp", "trial_index": 19, "time_elapsed": 762006, "internal_node_id": "0.0-4.0-1.0-10.0"}}, {"uniqueid": "w79792462:a76239719", "current_trial": 20, "dateTime": 1691145773055, "trialdata": {"revealed_states": [], "clicked_states": [], "num_clicks_accrued": [0, 0, 0, 0, 0, 0, 0, 0, 0, 0, 0, 0, 0], "stateRewards": ["", 2, 3, -2, -8, -8, -41, 74, 15, -23, -80, 1, 1, 3, 3, -15, -63, -78, 67, 13, 75, -41, 86, 2, -2, 6, -3, -8, -49, 50, -6, 83, 74, 80], "withholdReward": false, "trial_id": "mdp_trial_12", "block": "test", "trialIndex": 13, "score": -21, "costs": 0, "simulationMode": [null, null, null, null, null], "rewards": [1, 3, 3, 13, -41], "path": ["0", "0", "12", "13", "14", "19", "21"], "rt": [968, 147, 165, 143, 144], "actions": ["right", "right", "right", "down", "down"], "actionTimes": [2646, 3307, 3991, 4651, 5300], "queries": {"click": {"state": {"target": [], "time": []}, "edge": {"target": [], "time": []}}, "mouseover": {"state": {"target": [], "time": []}, "edge": {"target": [], "time": []}}, "mouseout": {"state": {"target": ["0", "0"], "time": [2317, 7569]}, "edge": {"target": [], "time": []}}}, "displayed_time": "15.68", "trialTime": 16184, "trial_type": "mouselab-mdp", "trial_index": 20, "time_elapsed": 778559, "internal_node_id": "0.0-4.0-1.0-11.0"}}, {"uniqueid": "w79792462:a76239719", "current_trial": 21, "dateTime": 1691145789770, "trialdata": {"revealed_states": [], "clicked_states": [], "num_clicks_accrued": [0, 0, 0, 0, 0, 0, 0, 0, 0, 0, 0, 0, 0], "stateRewards": ["", 1, 1, 1, -3, -7, -1, -41, -10, 20, -72, -63, 1, -4, -2, 2, -66, 30, -84, -2, 49, 23, 71, -1, -4, 4, -12, 67, 5, 18, -16, 88, 56, -5], "withholdReward": false, "trial_id": "mdp_trial_13", "block": "test", "trialIndex": 14, "score": -87, "costs": 0, "simulationMode": [null, null, null, null, null], "rewards": [1, -4, -2, 2, -84], "path": ["0", "0", "12", "13", "14", "15", "18"], "rt": [913, 195, 171, 47, 19], "actions": ["right", "right", "right", "up", "left"], "actionTimes": [2290, 3010, 3697, 4255, 4808], "queries": {"click": {"state": {"target": [], "time": []}, "edge": {"target": [], "time": []}}, "mouseover": {"state": {"target": ["12"], "time": [1910]}, "edge": {"target": [], "time": []}}, "mouseout": {"state": {"target": ["0", "12"], "time": [1143, 1977]}, "edge": {"target": [], "time": []}}}, "displayed_time": "15.38", "trialTime": 16360, "trial_type": "mouselab-mdp", "trial_index": 21, "time_elapsed": 795274, "internal_node_id": "0.0-4.0-1.0-12.0"}}, {"uniqueid": "w79792462:a76239719", "current_trial": 22, "dateTime": 1691145807378, "trialdata": {"revealed_states": [], "clicked_states": [], "num_clicks_accrued": [0, 0, 0, 0, 0, 0, 0, 0, 0, 0, 0, 0, 0], "stateRewards": ["", -1, -3, 1, 13, -64, -29, 12, -4, -33, 50, 56, 2, -3, 4, 11, -64, -58, -55, 12, 47, 38, -25, -2, 2, 5, -15, 85, 7, 84, 10, 8, 57, 26], "withholdReward": false, "trial_id": "mdp_trial_14", "block": "test", "trialIndex": 15, "score": 49, "costs": 0, "simulationMode": [null, null, null, null, null], "rewards": [-1, -3, 1, -4, 56], "path": ["0", "0", "1", "2", "3", "8", "11"], "rt": [453, 5, 407, 24, 16], "actions": ["up", "up", "up", "left", "left"], "actionTimes": [2802, 3321, 4256, 4789, 5329], "queries": {"click": {"state": {"target": [], "time": []}, "edge": {"target": [], "time": []}}, "mouseover": {"state": {"target": [], "time": []}, "edge": {"target": [], "time": []}}, "mouseout": {"state": {"target": ["12", "0"], "time": [1833, 16960]}, "edge": {"target": [], "time": []}}}, "displayed_time": "16.35", "trialTime": 17238, "trial_type": "mouselab-mdp", "trial_index": 22, "time_elapsed": 812882, "internal_node_id": "0.0-4.0-1.0-13.0"}}, {"uniqueid": "w79792462:a76239719", "current_trial": 23, "dateTime": 1691145824145, "trialdata": {"revealed_states": [], "clicked_states": [], "num_clicks_accrued": [0, 0, 0, 0, 0, 0, 0, 0, 0, 0, 0, 0, 0], "stateRewards": ["", -1, 1, 3, -8, -23, -15, -14, -11, -23, 58, 68, 1, 3, 5, 12, -17, -41, -7, -10, -4, 82, 10, 1, 4, -4, 11, 73, 55, -55, -1, -86, -86, 54], "withholdReward": false, "trial_id": "mdp_trial_15", "block": "test", "trialIndex": 16, "score": 4, "costs": 0, "simulationMode": [null, null, null, null, null], "rewards": [1, 3, 5, 12, -17], "path": ["0", "0", "12", "13", "14", "15", "16"], "rt": [832, 65, 144, 509, 40], "actions": ["right", "right", "right", "up", "up"], "actionTimes": [2244, 2825, 3487, 4533, 5081], "queries": {"click": {"state": {"target": [], "time": []}, "edge": {"target": [], "time": []}}, "mouseover": {"state": {"target": [], "time": []}, "edge": {"target": [], "time": []}}, "mouseout": {"state": {"target": ["0"], "time": [12661]}, "edge": {"target": [], "time": []}}}, "displayed_time": "15.41", "trialTime": 16359, "trial_type": "mouselab-mdp", "trial_index": 23, "time_elapsed": 829649, "internal_node_id": "0.0-4.0-1.0-14.0"}}, {"uniqueid": "w79792462:a76239719", "current_trial": 24, "dateTime": 1691145840479, "trialdata": {"revealed_states": [], "clicked_states": [], "num_clicks_accrued": [0, 0, 0, 0, 0, 0, 0, 0, 0, 0, 0, 0, 0], "stateRewards": ["", -2, -3, 8, 14, -73, 73, 84, -12, -2, -50, -17, 2, 1, -2, -9, -44, -27, -33, 16, -63, -47, -66, -2, 1, 4, -5, -33, -11, 50, 9, 38, -79, 31], "withholdReward": false, "trial_id": "mdp_trial_16", "block": "test", "trialIndex": 17, "score": -35, "costs": 0, "simulationMode": [null, null, null, null, null], "rewards": [-2, 1, 4, -5, -33], "path": ["0", "0", "23", "24", "25", "26", "27"], "rt": [569, 68, 470, 12, 15], "actions": ["left", "left", "left", "up", "up"], "actionTimes": [2095, 2676, 3677, 4201, 4752], "queries": {"click": {"state": {"target": [], "time": []}, "edge": {"target": [], "time": []}}, "mouseover": {"state": {"target": [], "time": []}, "edge": {"target": [], "time": []}}, "mouseout": {"state": {"target": [], "time": []}, "edge": {"target": [], "time": []}}}, "displayed_time": "15.53", "trialTime": 15952, "trial_type": "mouselab-mdp", "trial_index": 24, "time_elapsed": 845983, "internal_node_id": "0.0-4.0-1.0-15.0"}}, {"uniqueid": "w79792462:a76239719", "current_trial": 25, "dateTime": 1691145856530, "trialdata": {"revealed_states": [], "clicked_states": [], "num_clicks_accrued": [0, 0, 0, 0, 0, 0, 0, 0, 0, 0, 0, 0, 0], "stateRewards": ["", -1, -3, 1, -4, -48, -63, -49, -2, -84, -19, 65, 2, -2, -2, -12, -4, 59, 9, 6, 75, 69, -13, -1, -3, -3, -2, -37, -68, -36, 13, 32, 18, -14], "withholdReward": false, "trial_id": "mdp_trial_17", "block": "test", "trialIndex": 18, "score": 24, "costs": 0, "simulationMode": [null, null, null, null, null], "rewards": [-1, -3, -3, 13, 18], "path": ["0", "0", "23", "24", "25", "30", "32"], "rt": [890, 130, 142, 208, 442], "actions": ["left", "left", "left", "down", "down"], "actionTimes": [1746, 2383, 3045, 3759, 4708], "queries": {"click": {"state": {"target": [], "time": []}, "edge": {"target": [], "time": []}}, "mouseover": {"state": {"target": [], "time": []}, "edge": {"target": [], "time": []}}, "mouseout": {"state": {"target": ["0"], "time": [6047]}, "edge": {"target": [], "time": []}}}, "displayed_time": "14.86", "trialTime": 15657, "trial_type": "mouselab-mdp", "trial_index": 25, "time_elapsed": 862034, "internal_node_id": "0.0-4.0-1.0-16.0"}}, {"uniqueid": "w79792462:a76239719", "current_trial": 26, "dateTime": 1691145872780, "trialdata": {"revealed_states": [], "clicked_states": [], "num_clicks_accrued": [0, 0, 0, 0, 0, 0, 0, 0, 0, 0, 0, 0, 0], "stateRewards": ["", 1, -2, -2, 10, -31, -77, 35, 9, -47, 8, 48, -2, 1, -4, -3, -26, -50, 43, -11, 76, -38, 17, 1, -1, 6, 10, 15, -9, 12, -8, 85, 11, -55], "withholdReward": false, "trial_id": "mdp_trial_18", "block": "test", "trialIndex": 19, "score": -34, "costs": 0, "simulationMode": [null, null, null, null, null], "rewards": [-2, 1, -4, -3, -26], "path": ["0", "0", "12", "13", "14", "15", "16"], "rt": [642, 164, 77, 27, 2], "actions": ["right", "right", "right", "up", "up"], "actionTimes": [1670, 2345, 2940, 3487, 3996], "queries": {"click": {"state": {"target": [], "time": []}, "edge": {"target": [], "time": []}}, "mouseover": {"state": {"target": [], "time": []}, "edge": {"target": [], "time": []}}, "mouseout": {"state": {"target": ["0"], "time": [6216]}, "edge": {"target": [], "time": []}}}, "displayed_time": "15.03", "trialTime": 15844, "trial_type": "mouselab-mdp", "trial_index": 26, "time_elapsed": 878284, "internal_node_id": "0.0-4.0-1.0-17.0"}}, {"uniqueid": "w79792462:a76239719", "current_trial": 27, "dateTime": 1691145894061, "trialdata": {"revealed_states": [], "clicked_states": [], "num_clicks_accrued": [0, 0, 0, 0, 0, 0, 0, 0, 0, 0, 0, 0, 0], "stateRewards": ["", -2, -1, -4, -15, -14, -67, 32, -3, -59, 63, 31, 2, -1, -7, -15, 71, -66, -27, -3, -54, -39, 72, 2, 1, 1, -13, 77, -40, 35, -9, 35, 75, 57], "withholdReward": false, "trial_id": "mdp_trial_19", "block": "test", "trialIndex": 20, "score": 50, "costs": 0, "simulationMode": [null, null, null, null, null], "rewards": [2, -1, -7, -15, 71], "path": ["0", "0", "12", "13", "14", "15", "16"], "rt": [808, 217, 187, 40, 95], "actions": ["right", "right", "right", "up", "up"], "actionTimes": [6652, 7387, 8091, 8640, 9246], "queries": {"click": {"state": {"target": [], "time": []}, "edge": {"target": [], "time": []}}, "mouseover": {"state": {"target": [], "time": []}, "edge": {"target": [], "time": []}}, "mouseout": {"state": {"target": ["0", "0", "0"], "time": [431, 4692, 20518]}, "edge": {"target": [], "time": []}}}, "displayed_time": "19.85", "trialTime": 20899, "trial_type": "mouselab-mdp", "trial_index": 27, "time_elapsed": 899565, "internal_node_id": "0.0-4.0-1.0-18.0"}}, {"uniqueid": "w79792462:a76239719", "current_trial": 28, "dateTime": 1691145910676, "trialdata": {"revealed_states": [], "clicked_states": [], "num_clicks_accrued": [0, 0, 0, 0, 0, 0, 0, 0, 0, 0, 0, 0, 0], "stateRewards": ["", 2, -1, -2, -5, -47, -57, -33, -11, 31, -18, -72, -2, 1, -4, -8, -46, -53, -50, 15, -85, -9, 39, -2, -2, 1, 14, -1, -8, 53, -12, -41, -74, 62], "withholdReward": false, "trial_id": "mdp_trial_20", "block": "test", "trialIndex": 21, "score": -30, "costs": 0, "simulationMode": [null, null, null, null, null], "rewards": [2, -1, -2, -11, -18], "path": ["0", "0", "1", "2", "3", "8", "10"], "rt": [1189, 46, 48, 185, 852], "actions": ["up", "up", "up", "left", "down"], "actionTimes": [2517, 3077, 3670, 4385, 5744], "queries": {"click": {"state": {"target": [], "time": []}, "edge": {"target": [], "time": []}}, "mouseover": {"state": {"target": [], "time": []}, "edge": {"target": [], "time": []}}, "mouseout": {"state": {"target": ["0"], "time": [9098]}, "edge": {"target": [], "time": []}}}, "displayed_time": "15.33", "trialTime": 16188, "trial_type": "mouselab-mdp", "trial_index": 28, "time_elapsed": 916180, "internal_node_id": "0.0-4.0-1.0-19.0"}}, {"uniqueid": "w79792462:a76239719", "current_trial": 29, "dateTime": 1691145927317, "trialdata": {"revealed_states": [], "clicked_states": ["23", "29", "33"], "num_clicks_accrued": [0, 0, 0, 0, 0, 0, 0, 0, 0, 0, 0, 0, 0], "stateRewards": ["", -1, -4, 8, 8, -68, 47, 24, -7, -61, 49, -69, -1, -1, 8, -7, 42, 1, -45, -11, 10, -63, -6, 1, 4, 6, -16, 79, -37, -58, -12, 81, 18, -53], "withholdReward": false, "trial_id": "mdp_trial_21", "block": "test", "trialIndex": 22, "score": -61.2, "costs": -4.199999999999999, "simulationMode": [null, null, null, null, null], "rewards": [-1, -4, 8, 8, -68], "path": ["0", "0", "1", "2", "3", "4", "5"], "rt": [7647, 230, 274, 138, 68], "actions": ["up", "up", "up", "right", "up"], "actionTimes": [8850, 9601, 10395, 11041, 11620], "queries": {"click": {"state": {"target": ["23", "29", "33"], "time": [2865, 4502, 6368]}, "edge": {"target": [], "time": []}}, "mouseover": {"state": {"target": ["23", "24", "26", "29", "33", "0", "17", "17"], "time": [2315, 3197, 3700, 4245, 5193, 6940, 7011, 7640]}, "edge": {"target": [], "time": []}}, "mouseout": {"state": {"target": ["0", "23", "24", "26", "29", "33", "0", "17", "17"], "time": [2065, 3163, 3396, 4179, 5094, 6891, 6960, 7046, 15735]}, "edge": {"target": [], "time": []}}}, "displayed_time": "15.20", "trialTime": 16245, "trial_type": "mouselab-mdp", "trial_index": 29, "time_elapsed": 932822, "internal_node_id": "0.0-4.0-1.0-20.0"}}, {"uniqueid": "w79792462:a76239719", "current_trial": 30, "dateTime": 1691145944668, "trialdata": {"revealed_states": [], "clicked_states": [], "num_clicks_accrued": [0, 0, 0, 0, 0, 0, 0, 0, 0, 0, 0, 0, 0], "stateRewards": ["", 2, -3, -2, 14, -4, 85, 46, 15, -28, 41, 31, -1, -1, -1, 5, 62, 79, 57, 12, -73, -64, 86, -1, 1, -3, -5, 68, 11, -32, 8, -80, -21, -56], "withholdReward": false, "trial_id": "mdp_trial_22", "block": "test", "trialIndex": 23, "score": 53, "costs": 0, "simulationMode": [null, null, null, null, null], "rewards": [2, -3, -2, 15, 41], "path": ["0", "0", "1", "2", "3", "8", "10"], "rt": [1093, 213, 48, 73, 53], "actions": ["up", "up", "up", "left", "down"], "actionTimes": [3188, 3914, 4481, 5087, 5652], "queries": {"click": {"state": {"target": [], "time": []}, "edge": {"target": [], "time": []}}, "mouseover": {"state": {"target": [], "time": []}, "edge": {"target": [], "time": []}}, "mouseout": {"state": {"target": ["17", "0"], "time": [1342, 7275]}, "edge": {"target": [], "time": []}}}, "displayed_time": "16.10", "trialTime": 16973, "trial_type": "mouselab-mdp", "trial_index": 30, "time_elapsed": 950172, "internal_node_id": "0.0-4.0-1.0-21.0"}}, {"uniqueid": "w79792462:a76239719", "current_trial": 31, "dateTime": 1691145961767, "trialdata": {"revealed_states": [], "clicked_states": [], "num_clicks_accrued": [0, 0, 0, 0, 0, 0, 0, 0, 0, 0, 0, 0, 0], "stateRewards": ["", -1, 2, 6, 11, 21, -21, -21, -6, 48, -71, 88, -1, -3, 3, 7, 64, 2, 9, -4, 37, -67, 72, 2, 2, -8, -8, -10, 71, -40, -3, 73, 80, 47], "withholdReward": false, "trial_id": "mdp_trial_23", "block": "test", "trialIndex": 24, "score": 89, "costs": 0, "simulationMode": [null, null, null, null, null], "rewards": [-1, 2, 6, -6, 88], "path": ["0", "0", "1", "2", "3", "8", "11"], "rt": [390, 11, 323, 395, 81], "actions": ["up", "up", "up", "left", "left"], "actionTimes": [2431, 2963, 3808, 4713, 5314], "queries": {"click": {"state": {"target": [], "time": []}, "edge": {"target": [], "time": []}}, "mouseover": {"state": {"target": [], "time": []}, "edge": {"target": [], "time": []}}, "mouseout": {"state": {"target": ["0", "0", "11", "10"], "time": [1768, 6361, 7660, 7744]}, "edge": {"target": [], "time": []}}}, "displayed_time": "16.04", "trialTime": 16686, "trial_type": "mouselab-mdp", "trial_index": 31, "time_elapsed": 967271, "internal_node_id": "0.0-4.0-1.0-22.0"}}, {"uniqueid": "w79792462:a76239719", "current_trial": 32, "dateTime": 1691145983264, "trialdata": {"revealed_states": [], "clicked_states": [], "num_clicks_accrued": [0, 0, 0, 0, 0, 0, 0, 0, 0, 0, 0, 0, 0], "stateRewards": ["", 2, 3, 3, 10, 19, -21, 6, 9, 54, 68, 16, 2, 2, -6, -8, 40, -2, -75, -2, -42, 55, 59, -1, 2, 4, -14, 11, -34, -30, -6, 61, -53, 13], "withholdReward": false, "trial_id": "mdp_trial_24", "block": "test", "trialIndex": 25, "score": 71, "costs": 0, "simulationMode": [null, null, null, null, null], "rewards": [2, 3, 3, 9, 54], "path": ["0", "0", "1", "2", "3", "8", "9"], "rt": [835, 160, 229, 3, 56], "actions": ["up", "up", "up", "left", "up"], "actionTimes": [2511, 3188, 3939, 4459, 5046], "queries": {"click": {"state": {"target": [], "time": []}, "edge": {"target": [], "time": []}}, "mouseover": {"state": {"target": [], "time": []}, "edge": {"target": [], "time": []}}, "mouseout": {"state": {"target": ["0"], "time": [6804]}, "edge": {"target": [], "time": []}}}, "displayed_time": "15.68", "trialTime": 21069, "trial_type": "mouselab-mdp", "trial_index": 32, "time_elapsed": 988768, "internal_node_id": "0.0-4.0-1.0-23.0"}}, {"uniqueid": "w79792462:a76239719", "current_trial": 33, "dateTime": 1691146043498, "trialdata": {"revealed_states": [], "clicked_states": [], "num_clicks_accrued": [0, 0, 0, 0, 0, 0, 0, 0, 0, 0, 0, 0, 0], "stateRewards": ["", 2, 4, 4, 9, -88, -10, 44, 16, -54, 64, 78, 1, 2, 5, 16, 80, 36, 7, -4, 9, -47, -70, -1, -3, 6, -16, 11, 80, 28, 8, -1, 34, -17], "withholdReward": false, "trial_id": "mdp_trial_25", "block": "test", "trialIndex": 26, "score": -69, "costs": 0, "simulationMode": [null, null, null, null, null], "rewards": [2, 4, 4, 9, -88], "path": ["0", "0", "1", "2", "3", "4", "5"], "rt": [1283, 243, 545, 453, 273], "actions": ["up", "up", "up", "right", "up"], "actionTimes": [2821, 3579, 4630, 5602, 6388], "queries": {"click": {"state": {"target": [], "time": []}, "edge": {"target": [], "time": []}}, "mouseover": {"state": {"target": [], "time": []}, "edge": {"target": [], "time": []}}, "mouseout": {"state": {"target": [], "time": []}, "edge": {"target": [], "time": []}}}, "displayed_time": "15.54", "trialTime": 59815, "trial_type": "mouselab-mdp", "trial_index": 33, "time_elapsed": 1049002, "internal_node_id": "0.0-4.0-1.0-24.0"}}, {"uniqueid": "w79792462:a76239719", "current_trial": 34, "dateTime": 1691146061365, "trialdata": {"revealed_states": [], "clicked_states": ["1"], "num_clicks_accrued": [0, 0, 0, 0, 0, 0, 0, 0, 0, 0, 0, 0, 0], "stateRewards": ["", -1, -2, -8, 8, -27, -82, 19, -14, -62, 4, 1, -2, 2, 6, 10, 73, -51, -2, 2, 73, -48, 54, -1, 2, -4, 11, -25, 47, 86, 15, 33, 43, -42], "withholdReward": false, "trial_id": "mdp_trial_26", "block": "test", "trialIndex": 27, "score": 87.6, "costs": -1.4, "simulationMode": [null, null, null, null, null], "rewards": [-2, 2, 6, 10, 73], "path": ["0", "0", "12", "13", "14", "15", "16"], "rt": [3960, 176, 5, 123, 35], "actions": ["right", "right", "right", "up", "up"], "actionTimes": [5001, 5710, 6252, 6903, 7447], "queries": {"click": {"state": {"target": ["1"], "time": [2448]}, "edge": {"target": [], "time": []}}, "mouseover": {"state": {"target": ["1", "2"], "time": [2169, 2935]}, "edge": {"target": [], "time": []}}, "mouseout": {"state": {"target": ["0", "1"], "time": [776, 2702]}, "edge": {"target": [], "time": []}}}, "displayed_time": "15.04", "trialTime": 17449, "trial_type": "mouselab-mdp", "trial_index": 34, "time_elapsed": 1066869, "internal_node_id": "0.0-4.0-1.0-25.0"}}, {"uniqueid": "w79792462:a76239719", "current_trial": 35, "dateTime": 1691146077993, "trialdata": {"revealed_states": [], "clicked_states": [], "num_clicks_accrued": [0, 0, 0, 0, 0, 0, 0, 0, 0, 0, 0, 0, 0], "stateRewards": ["", 1, 4, 7, -16, -84, -6, -46, -12, -7, -49, -26, -1, 2, -4, 2, 22, 37, -64, 1, 88, -13, -10, 1, -4, -2, 5, 2, -10, -34, 9, 66, 55, 38], "withholdReward": false, "trial_id": "mdp_trial_27", "block": "test", "trialIndex": 28, "score": 2, "costs": 0, "simulationMode": [null, null, null, null, null], "rewards": [1, -4, -2, 5, 2], "path": ["0", "0", "23", "24", "25", "26", "27"], "rt": [1159, 202, 132, 163, 808], "actions": ["left", "left", "left", "up", "up"], "actionTimes": [3109, 3819, 4465, 5145, 6471], "queries": {"click": {"state": {"target": [], "time": []}, "edge": {"target": [], "time": []}}, "mouseover": {"state": {"target": [], "time": []}, "edge": {"target": [], "time": []}}, "mouseout": {"state": {"target": ["2", "1", "0"], "time": [819, 1300, 9867]}, "edge": {"target": [], "time": []}}}, "displayed_time": "15.95", "trialTime": 16221, "trial_type": "mouselab-mdp", "trial_index": 35, "time_elapsed": 1083497, "internal_node_id": "0.0-4.0-1.0-26.0"}}, {"uniqueid": "w79792462:a76239719", "current_trial": 36, "dateTime": 1691146094472, "trialdata": {"revealed_states": [], "clicked_states": ["1", "23"], "num_clicks_accrued": [0, 0, 0, 0, 0, 0, 0, 0, 0, 0, 0, 0, 0], "stateRewards": ["", 1, 1, 7, -11, 80, -20, -53, -14, 3, 31, 27, 2, -1, -8, -10, 33, 41, 86, 9, 78, -37, -13, -1, -2, -6, -8, -80, 75, 4, -16, -49, -74, 24], "withholdReward": false, "trial_id": "mdp_trial_28", "block": "test", "trialIndex": 29, "score": -99.8, "costs": -2.8, "simulationMode": [null, null, null, null, null, null, null], "rewards": [-1, -2, -6, -8, -80], "path": ["0", "0", "23", "24", "25", "26", "27"], "rt": [2582, 2175, 282, 110, 43, 263, 60], "actions": ["right", "left", "left", "left", "left", "up", "up"], "actionTimes": [4296, 6476, 6760, 7412, 7980, 8767, 9346], "queries": {"click": {"state": {"target": ["1", "23"], "time": [3038, 5876]}, "edge": {"target": [], "time": []}}, "mouseover": {"state": {"target": ["1", "23"], "time": [2847, 5627]}, "edge": {"target": [], "time": []}}, "mouseout": {"state": {"target": ["0", "1", "23", "0", "22", "21"], "time": [2419, 5311, 12080, 12112, 12162, 12212]}, "edge": {"target": [], "time": []}}}, "displayed_time": "15.72", "trialTime": 16090, "trial_type": "mouselab-mdp", "trial_index": 36, "time_elapsed": 1099977, "internal_node_id": "0.0-4.0-1.0-27.0"}}, {"uniqueid": "w79792462:a76239719", "current_trial": 37, "dateTime": 1691146116590, "trialdata": {"revealed_states": [], "clicked_states": [], "num_clicks_accrued": [0, 0, 0, 0, 0, 0, 0, 0, 0, 0, 0, 0, 0], "stateRewards": ["", -2, 2, -5, 1, 42, -63, -58, -6, 2, 16, 81, -2, 4, 7, -10, 33, 3, -33, -2, -52, -84, -27, 2, -3, -3, 15, -74, -14, -5, -5, -84, 79, -31], "withholdReward": false, "trial_id": "mdp_trial_29", "block": "test", "trialIndex": 30, "score": 32, "costs": 0, "simulationMode": [null, null, null, null, null], "rewards": [-2, 4, 7, -10, 33], "path": ["0", "0", "12", "13", "14", "15", "16"], "rt": [1046, 81, 286, 128, 56], "actions": ["right", "right", "right", "up", "up"], "actionTimes": [2872, 3483, 4287, 4925, 5506], "queries": {"click": {"state": {"target": [], "time": []}, "edge": {"target": [], "time": []}}, "mouseover": {"state": {"target": ["12"], "time": [2528]}, "edge": {"target": [], "time": []}}, "mouseout": {"state": {"target": ["14", "13", "12", "0", "12"], "time": [916, 980, 1081, 2479, 2680]}, "edge": {"target": [], "time": []}}}, "displayed_time": "15.83", "trialTime": 21718, "trial_type": "mouselab-mdp", "trial_index": 37, "time_elapsed": 1122094, "internal_node_id": "0.0-4.0-1.0-28.0"}}, {"uniqueid": "w79792462:a76239719", "current_trial": 38, "dateTime": 1691146139787, "trialdata": {"revealed_states": [], "clicked_states": [], "num_clicks_accrued": [0, 0, 0, 0, 0, 0, 0, 0, 0, 0, 0, 0, 0], "stateRewards": ["", 1, -1, 1, -14, -10, 67, -28, -11, 72, 40, -65, -1, 1, 1, -2, 8, -55, 34, -10, 61, 33, -15, 2, -4, 7, 4, -75, 63, -21, -16, 61, 19, 21], "withholdReward": false, "trial_id": "mdp_trial_30", "block": "test", "trialIndex": 31, "score": 7, "costs": 0, "simulationMode": [null, null, null, null, null], "rewards": [-1, 1, 1, -2, 8], "path": ["0", "0", "12", "13", "14", "15", "16"], "rt": [896, 41, 117, 5003, 135], "actions": ["right", "right", "right", "up", "up"], "actionTimes": [2271, 2818, 3448, 8963, 9622], "queries": {"click": {"state": {"target": [], "time": []}, "edge": {"target": [], "time": []}}, "mouseover": {"state": {"target": [], "time": []}, "edge": {"target": [], "time": []}}, "mouseout": {"state": {"target": ["0", "11"], "time": [6902, 7102]}, "edge": {"target": [], "time": []}}}, "displayed_time": "15.38", "trialTime": 22784, "trial_type": "mouselab-mdp", "trial_index": 38, "time_elapsed": 1145291, "internal_node_id": "0.0-4.0-1.0-29.0"}}, {"uniqueid": "w79792462:a76239719", "current_trial": 39, "dateTime": 1691146158926, "trialdata": {"revealed_states": [], "clicked_states": [], "num_clicks_accrued": [0, 0, 0, 0, 0, 0, 0, 0, 0, 0, 0, 0, 0], "stateRewards": ["", -2, -3, -3, 9, 79, 67, 22, -15, -56, 27, -85, -2, 4, -4, -15, -20, -32, 60, 15, 71, 57, 17, 1, 2, -8, 15, -37, -81, 82, 15, 21, -3, 2], "withholdReward": false, "trial_id": "mdp_trial_31", "block": "test", "trialIndex": 32, "score": -37, "costs": 0, "simulationMode": [null, null, null, null, null], "rewards": [-2, 4, -4, -15, -20], "path": ["0", "0", "12", "13", "14", "15", "16"], "rt": [596, 67, 86, 12070, 5], "actions": ["right", "right", "right", "up", "up"], "actionTimes": [3129, 3713, 4316, 16898, 17412], "queries": {"click": {"state": {"target": [], "time": []}, "edge": {"target": [], "time": []}}, "mouseover": {"state": {"target": [], "time": []}, "edge": {"target": [], "time": []}}, "mouseout": {"state": {"target": ["11", "0"], "time": [1501, 18252]}, "edge": {"target": [], "time": []}}}, "displayed_time": "17.94", "trialTime": 18701, "trial_type": "mouselab-mdp", "trial_index": 39, "time_elapsed": 1164431, "internal_node_id": "0.0-4.0-1.0-30.0"}}, {"uniqueid": "w79792462:a76239719", "current_trial": 40, "dateTime": 1691146175784, "trialdata": {"revealed_states": [], "clicked_states": ["1"], "num_clicks_accrued": [0, 0, 0, 0, 0, 0, 0, 0, 0, 0, 0, 0, 0], "stateRewards": ["", 2, 4, -5, 7, 81, 35, 6, 11, 14, -72, 42, -1, 2, 3, -7, -77, -44, -40, -15, -85, 51, -32, -2, -1, -5, 7, -74, 47, 52, 16, -49, 48, -46], "withholdReward": false, "trial_id": "mdp_trial_32", "block": "test", "trialIndex": 33, "score": -81.4, "costs": -1.4, "simulationMode": [null, null, null, null, null, null], "rewards": [-1, 2, 3, -7, -77], "path": ["0", "0", "12", "13", "14", "15", "16"], "rt": [1671, 545, 67, 28, 15, 138], "actions": ["up", "right", "right", "right", "up", "up"], "actionTimes": [3663, 4211, 4815, 5369, 5889, 6560], "queries": {"click": {"state": {"target": ["1"], "time": [2979]}, "edge": {"target": [], "time": []}}, "mouseover": {"state": {"target": ["1"], "time": [2593]}, "edge": {"target": [], "time": []}}, "mouseout": {"state": {"target": ["0", "0", "1"], "time": [1331, 2543, 9133]}, "edge": {"target": [], "time": []}}}, "displayed_time": "15.99", "trialTime": 16419, "trial_type": "mouselab-mdp", "trial_index": 40, "time_elapsed": 1181288, "internal_node_id": "0.0-4.0-1.0-31.0"}}, {"uniqueid": "w79792462:a76239719", "current_trial": 41, "dateTime": 1691146192029, "trialdata": {"revealed_states": [], "clicked_states": [], "num_clicks_accrued": [0, 0, 0, 0, 0, 0, 0, 0, 0, 0, 0, 0, 0], "stateRewards": ["", -1, 3, -5, -2, -13, -9, -34, -7, -81, 32, 35, -2, -2, 1, -14, -32, 81, 7, 4, 82, 56, -8, -1, 3, -8, 6, -24, -24, -53, 2, 38, 61, 54], "withholdReward": false, "trial_id": "mdp_trial_33", "block": "test", "trialIndex": 34, "score": -49, "costs": 0, "simulationMode": [null, null, null, null, null], "rewards": [-2, -2, 1, -14, -32], "path": ["0", "0", "12", "13", "14", "15", "16"], "rt": [662, 139, 91, 227, 5], "actions": ["right", "right", "right", "up", "up"], "actionTimes": [2165, 2821, 3424, 4173, 4683], "queries": {"click": {"state": {"target": [], "time": []}, "edge": {"target": [], "time": []}}, "mouseover": {"state": {"target": [], "time": []}, "edge": {"target": [], "time": []}}, "mouseout": {"state": {"target": ["0", "0", "23", "24"], "time": [1017, 10687, 10798, 15069]}, "edge": {"target": [], "time": []}}}, "displayed_time": "15.50", "trialTime": 15827, "trial_type": "mouselab-mdp", "trial_index": 41, "time_elapsed": 1197533, "internal_node_id": "0.0-4.0-1.0-32.0"}}, {"uniqueid": "w79792462:a76239719", "current_trial": 42, "dateTime": 1691146208839, "trialdata": {"revealed_states": [], "clicked_states": [], "num_clicks_accrued": [0, 0, 0, 0, 0, 0, 0, 0, 0, 0, 0, 0, 0], "stateRewards": ["", 1, -1, 4, -2, -75, -75, 84, -9, -60, -79, 59, 2, -4, 8, 9, -17, -82, 80, 14, -4, 49, 49, -1, 3, 6, -11, -33, 34, 55, 9, -57, 5, 59], "withholdReward": false, "trial_id": "mdp_trial_34", "block": "test", "trialIndex": 35, "score": -2, "costs": 0, "simulationMode": [null, null, null, null, null], "rewards": [2, -4, 8, 9, -17], "path": ["0", "0", "12", "13", "14", "15", "16"], "rt": [436, 127, 204, 61, 88], "actions": ["right", "right", "right", "up", "up"], "actionTimes": [2507, 3144, 3869, 4441, 5049], "queries": {"click": {"state": {"target": [], "time": []}, "edge": {"target": [], "time": []}}, "mouseover": {"state": {"target": [], "time": []}, "edge": {"target": [], "time": []}}, "mouseout": {"state": {"target": ["24", "31", "0"], "time": [1079, 1115, 8947]}, "edge": {"target": [], "time": []}}}, "displayed_time": "16.07", "trialTime": 16385, "trial_type": "mouselab-mdp", "trial_index": 42, "time_elapsed": 1214343, "internal_node_id": "0.0-4.0-1.0-33.0"}}, {"uniqueid": "w79792462:a76239719", "current_trial": 43, "dateTime": 1691146225839, "trialdata": {"revealed_states": [], "clicked_states": [], "num_clicks_accrued": [0, 0, 0, 0, 0, 0, 0, 0, 0, 0, 0, 0, 0], "stateRewards": ["", 1, -1, 8, 4, 76, -33, -17, -3, -1, -54, -74, -2, 2, -5, 13, -51, 63, 83, 1, 84, 29, -36, 2, -1, 7, -12, -10, -44, -43, -14, 8, -69, 19], "withholdReward": false, "trial_id": "mdp_trial_35", "block": "test", "trialIndex": 36, "score": -43, "costs": 0, "simulationMode": [null, null, null, null, null], "rewards": [-2, 2, -5, 13, -51], "path": ["0", "0", "12", "13", "14", "15", "16"], "rt": [876, 81, 80, 8, 148], "actions": ["right", "right", "right", "up", "up"], "actionTimes": [1839, 2435, 3033, 3558, 4232], "queries": {"click": {"state": {"target": [], "time": []}, "edge": {"target": [], "time": []}}, "mouseover": {"state": {"target": [], "time": []}, "edge": {"target": [], "time": []}}, "mouseout": {"state": {"target": ["0", "0"], "time": [640, 14121]}, "edge": {"target": [], "time": []}}}, "displayed_time": "14.96", "trialTime": 16581, "trial_type": "mouselab-mdp", "trial_index": 43, "time_elapsed": 1231343, "internal_node_id": "0.0-4.0-1.0-34.0"}}, {"uniqueid": "w79792462:a76239719", "current_trial": 44, "dateTime": 1691146242352, "trialdata": {"revealed_states": [], "clicked_states": [], "num_clicks_accrued": [0, 0, 0, 0, 0, 0, 0, 0, 0, 0, 0, 0, 0], "stateRewards": ["", 2, -3, -8, 14, -7, -51, 73, 2, 36, 36, -43, -1, 3, -4, 1, 6, 87, -65, 15, 61, -42, -83, -1, 3, -2, -7, 30, -48, 35, 13, 26, 60, 78], "withholdReward": false, "trial_id": "mdp_trial_36", "block": "test", "trialIndex": 37, "score": 5, "costs": 0, "simulationMode": [null, null, null, null, null], "rewards": [-1, 3, -4, 1, 6], "path": ["0", "0", "12", "13", "14", "15", "16"], "rt": [771, 7, 70, 147, 41], "actions": ["right", "right", "right", "up", "up"], "actionTimes": [2412, 2927, 3522, 4182, 4741], "queries": {"click": {"state": {"target": [], "time": []}, "edge": {"target": [], "time": []}}, "mouseover": {"state": {"target": ["12"], "time": [2052]}, "edge": {"target": [], "time": []}}, "mouseout": {"state": {"target": ["0"], "time": [1974]}, "edge": {"target": [], "time": []}}}, "displayed_time": "15.64", "trialTime": 16072, "trial_type": "mouselab-mdp", "trial_index": 44, "time_elapsed": 1247855, "internal_node_id": "0.0-4.0-1.0-35.0"}}, {"uniqueid": "w79792462:a76239719", "current_trial": 45, "dateTime": 1691146264046, "trialdata": {"revealed_states": [], "clicked_states": [], "num_clicks_accrued": [0, 0, 0, 0, 0, 0, 0, 0, 0, 0, 0, 0, 0], "stateRewards": ["", 1, 1, -5, 10, -31, 73, 14, -8, -23, 63, -70, -1, 2, 8, 7, 25, -59, 27, -10, -40, -71, -15, -2, 3, -8, -5, -19, 77, -34, 7, 67, 63, 19], "withholdReward": false, "trial_id": "mdp_trial_37", "block": "test", "trialIndex": 38, "score": 41, "costs": 0, "simulationMode": [null, null, null, null, null], "rewards": [-1, 2, 8, 7, 25], "path": ["0", "0", "12", "13", "14", "15", "16"], "rt": [471, 24, 88, 70, 104], "actions": ["right", "right", "right", "up", "up"], "actionTimes": [1831, 2368, 2980, 3562, 4194], "queries": {"click": {"state": {"target": [], "time": []}, "edge": {"target": [], "time": []}}, "mouseover": {"state": {"target": [], "time": []}, "edge": {"target": [], "time": []}}, "mouseout": {"state": {"target": ["12"], "time": [763]}, "edge": {"target": [], "time": []}}}, "displayed_time": "15.36", "trialTime": 21267, "trial_type": "mouselab-mdp", "trial_index": 45, "time_elapsed": 1269550, "internal_node_id": "0.0-4.0-1.0-36.0"}}, {"uniqueid": "w79792462:a76239719", "current_trial": 46, "dateTime": 1691146291768, "trialdata": {"revealed_states": [], "clicked_states": [], "num_clicks_accrued": [0, 0, 0, 0, 0, 0, 0, 0, 0, 0, 0, 0, 0], "stateRewards": ["", 2, 1, -3, 7, 46, 11, -36, 16, 71, 5, 1, 2, -2, -8, -3, -4, 6, 55, 7, 68, -54, 2, 1, 1, 6, -6, 42, -4, -84, -11, -65, 63, 25], "withholdReward": false, "trial_id": "mdp_trial_38", "block": "test", "trialIndex": 39, "score": -15, "costs": 0, "simulationMode": [null, null, null, null, null], "rewards": [2, -2, -8, -3, -4], "path": ["0", "0", "12", "13", "14", "15", "16"], "rt": [954, 75, 218, 86, 695], "actions": ["right", "right", "right", "up", "up"], "actionTimes": [4526, 5111, 5858, 6454, 7661], "queries": {"click": {"state": {"target": [], "time": []}, "edge": {"target": [], "time": []}}, "mouseover": {"state": {"target": [], "time": []}, "edge": {"target": [], "time": []}}, "mouseout": {"state": {"target": [], "time": []}, "edge": {"target": [], "time": []}}}, "displayed_time": "17.57", "trialTime": 27289, "trial_type": "mouselab-mdp", "trial_index": 46, "time_elapsed": 1297272, "internal_node_id": "0.0-4.0-1.0-37.0"}}, {"uniqueid": "w79792462:a76239719", "current_trial": 47, "dateTime": 1691146308591, "trialdata": {"revealed_states": [], "clicked_states": [], "num_clicks_accrued": [0, 0, 0, 0, 0, 0, 0, 0, 0, 0, 0, 0, 0], "stateRewards": ["", -1, -2, 8, -6, -79, -6, 87, 9, -5, -66, -38, 2, 2, 5, -6, -82, 74, 85, -8, 67, -30, -15, 1, -2, -2, -2, 87, 64, 49, 7, 2, -38, -9], "withholdReward": false, "trial_id": "mdp_trial_39", "block": "test", "trialIndex": 40, "score": -29, "costs": 0, "simulationMode": [null, null, null, null, null], "rewards": [2, 2, 5, -8, -30], "path": ["0", "0", "12", "13", "14", "19", "21"], "rt": [781, 118, 593, 39, 4], "actions": ["right", "right", "right", "down", "down"], "actionTimes": [2539, 3171, 4277, 4821, 5336], "queries": {"click": {"state": {"target": [], "time": []}, "edge": {"target": [], "time": []}}, "mouseover": {"state": {"target": [], "time": []}, "edge": {"target": [], "time": []}}, "mouseout": {"state": {"target": [], "time": []}, "edge": {"target": [], "time": []}}}, "displayed_time": "15.76", "trialTime": 16389, "trial_type": "mouselab-mdp", "trial_index": 47, "time_elapsed": 1314096, "internal_node_id": "0.0-4.0-1.0-38.0"}}, {"uniqueid": "w79792462:a76239719", "current_trial": 48, "dateTime": 1691146325164, "trialdata": {"revealed_states": [], "clicked_states": [], "num_clicks_accrued": [0, 0, 0, 0, 0, 0, 0, 0, 0, 0, 0, 0, 0], "stateRewards": ["", -1, -3, -3, 1, -38, 2, -53, -2, -1, -81, 70, -1, 1, -5, -9, 46, 15, 35, -1, -22, 38, 59, -2, 4, -8, 13, 1, -83, -43, 4, 76, 13, 48], "withholdReward": false, "trial_id": "mdp_trial_40", "block": "test", "trialIndex": 41, "score": -28, "costs": 0, "simulationMode": [null, null, null, null, null], "rewards": [-1, 1, -5, -1, -22], "path": ["0", "0", "12", "13", "14", "19", "20"], "rt": [1131, 450, 512, 93, 465], "actions": ["right", "right", "right", "down", "right"], "actionTimes": [2685, 3673, 4702, 5319, 6301], "queries": {"click": {"state": {"target": [], "time": []}, "edge": {"target": [], "time": []}}, "mouseover": {"state": {"target": ["12"], "time": [2161]}, "edge": {"target": [], "time": []}}, "mouseout": {"state": {"target": ["0", "0"], "time": [829, 1076]}, "edge": {"target": [], "time": []}}}, "displayed_time": "15.56", "trialTime": 16127, "trial_type": "mouselab-mdp", "trial_index": 48, "time_elapsed": 1330668, "internal_node_id": "0.0-4.0-1.0-39.0"}}, {"uniqueid": "w79792462:a76239719", "current_trial": 49, "dateTime": 1691146359062, "trialdata": {"rt": 33894, "response": {"Q0": "$-2 to $2", "Q1": "$-4 to $4", "Q2": "$-16 to $16", "Q3": "It was less costly to inspect further nodes.", "Q4": "Slightly motivated"}, "question_order": [0, 1, 2, 3, 4], "trial_id": "final_quiz_control", "trial_type": "survey-multi-choice", "trial_index": 49, "time_elapsed": 1364566, "internal_node_id": "0.0-4.0-2.0"}}, {"uniqueid": "w79792462:a76239719", "current_trial": 50, "dateTime": 1691146415880, "trialdata": {"rt": 56810, "response": {"Q0": "Go blindly without opening the nodes", "Q1": "No", "Q2": "the penalty of choosing wrong path was huge"}, "trial_id": "self_report_control", "trial_type": "survey-text", "trial_index": 50, "time_elapsed": 1421385, "internal_node_id": "0.0-4.0-3.0"}}, {"uniqueid": "w79792462:a76239719", "current_trial": 51, "dateTime": 1691146436378, "trialdata": {"rt": 20487, "response": {"gender": "male", "age": "30", "colorblind": "0", "effort": "0"}, "trial_type": "survey-html-form", "trial_index": 51, "time_elapsed": 1441883, "internal_node_id": "0.0-4.0-4.0"}}, {"uniqueid": "w79792462:a76239719", "current_trial": 52, "dateTime": 1691146448219, "trialdata": {"rt": 11830, "response": {"Q0": "NO", "Q1": "No", "Q2": ""}, "trial_type": "survey-text", "trial_index": 52, "time_elapsed": 1453724, "internal_node_id": "0.0-4.0-5.0"}}, {"uniqueid": "w79792462:a76239719", "current_trial": 53, "dateTime": 1691146450112, "trialdata": {"rt": 1877, "stimulus": "Press 'Finish HIT' in order to reach the completion code. Once the data has been saved, you will receive the code either in this window or in the original browser window where you started the experiment.\n", "response": 0, "trial_type": "html-button-response", "trial_index": 53, "time_elapsed": 1455616, "internal_node_id": "0.0-5.0"}}, {"uniqueid": "w79792462:a76239719", "current_trial": 54, "dateTime": 1691146451118, "trialdata": {"success": true, "trial_type": "fullscreen", "trial_index": 54, "time_elapsed": 1456623, "internal_node_id": "0.0-6.0"}}], "questiondata": {"params": {"CODE": "C6DMOQA6", "MIN_TIME": 14, "inspectCost": 1, "startTime": "Fri Aug 04 2023 12:29:53 GMT+0200 (Central European Summer Time)", "bonusRate": 0.002, "variance": "1_2_4_8_44", "branching": "31123"}, "final_score": -198.6}, "eventdata": [{"eventtype": "initialized", "value": null, "timestamp": 1691144992771, "interval": 0}, {"eventtype": "window_resize", "value": [1024, 609], "timestamp": 1691144992771, "interval": 0}, {"eventtype": "window_resize", "value": [1024, 609], "timestamp": 1691144993293, "interval": 522}, {"eventtype": "focus", "value": "off", "timestamp": 1691144996116, "interval": 2823}, {"eventtype": "focus", "value": "on", "timestamp": 1691145001527, "interval": 5411}, {"eventtype": "window_resize", "value": [1366, 625], "timestamp": 1691145001870, "interval": 343}, {"eventtype": "window_resize", "value": [1366, 723], "timestamp": 1691145003455, "interval": 1585}, {"eventtype": "focus", "value": "off", "timestamp": 1691146122655, "interval": 1119200}, {"eventtype": "window_resize", "value": [1366, 722], "timestamp": 1691146122872, "interval": 217}, {"eventtype": "focus", "value": "on", "timestamp": 1691146125268, "interval": 2396}, {"eventtype": "window_resize", "value": [1366, 723], "timestamp": 1691146125490, "interval": 222}, {"eventtype": "window_resize", "value": [1366, 625], "timestamp": 1691146450468, "interval": 324978}], "useragent": "Mozilla/5.0 (Windows NT 10.0; Win64; x64) AppleWebKit/537.36 (KHTML, like Gecko) Chrome/115.0.0.0 Safari/537.36", "mode": "live", "id": "w79792462:a76239719", "status": "user data saved", "Beginhit": "2023-08-04 10:29:50.900109", "Beginexp": null, "Endhit": "2023-08-04 10:54:11.738245", "psiturkStatus": 3, "browser": "<redacted>", "platform": "windows", "language": "en-US"}