{"condition": 1, "counterbalance": 0, "assignmentId": "a66068799", "workerId": "w64651093", "hitId": "h60846237", "currenttrial": 56, "bonus": 0, "data": [{"uniqueid": "w64651093:a66068799", "current_trial": 0, "dateTime": 1693564887434, "trialdata": {"success": true, "trial_type": "fullscreen", "trial_index": 0, "time_elapsed": 6401, "internal_node_id": "0.0-0.0"}}, {"uniqueid": "w64651093:a66068799", "current_trial": 1, "dateTime": 1693564905524, "trialdata": {"view_history": [{"page_index": 0, "viewing_time": 18086}], "rt": 18086, "trial_id": "exp_instructions_misaligned", "trial_type": "instructions", "trial_index": 1, "time_elapsed": 24491, "internal_node_id": "0.0-1.0"}}, {"uniqueid": "w64651093:a66068799", "current_trial": 2, "dateTime": 1693565094514, "trialdata": {"view_history": [{"page_index": 0, "viewing_time": 47941}, {"page_index": 1, "viewing_time": 67480}, {"page_index": 2, "viewing_time": 28704}, {"page_index": 3, "viewing_time": 44864}], "rt": 188989, "trial_id": "mouselab_instructions_1_misaligned", "trial_type": "instructions", "trial_index": 2, "time_elapsed": 213481, "internal_node_id": "0.0-2.0-1.0"}}, {"uniqueid": "w64651093:a66068799", "current_trial": 3, "dateTime": 1693565115005, "trialdata": {"revealed_states": [], "clicked_states": ["12", "13"], "num_clicks_accrued": [0, 0, 0, 0, 0, 0, 0, 0, 0, 0, 0, 0, 0], "stateRewards": ["", 10, 10, -10, -10, 10, 10, 10, 10, -10, 10, -10, -10, 10, -10, -10, 10, -10, 10, 10, 10, 10, 10, -10, 10, 10, 10, 10, -10, 10, -10, 10, -10, -10], "withholdReward": false, "trial_id": "practice_1", "block": "test", "trialIndex": 0, "score": -7.5, "costs": -1, "simulationMode": [null, null, null, null, null], "rewards": [-10, 10, 10, -10, -10], "path": ["0", "0", "23", "24", "25", "30", "32"], "rt": [10156, 379, 521, 591, 385], "actions": ["left", "left", "left", "down", "down"], "actionTimes": [11759, 12636, 13660, 14748, 15626], "queries": {"click": {"state": {"target": ["12", "13"], "time": [3929, 5706]}, "edge": {"target": [], "time": []}}, "mouseover": {"state": {"target": ["12", "13", "18", "12"], "time": [2310, 5157, 6214, 8483]}, "edge": {"target": [], "time": []}}, "mouseout": {"state": {"target": ["0", "12", "13", "18", "12"], "time": [2296, 4800, 6081, 8436, 8500]}, "edge": {"target": [], "time": []}}}, "displayed_time": "16.13", "trialTime": 19371, "trial_type": "mouselab-mdp", "trial_index": 3, "time_elapsed": 233971, "internal_node_id": "0.0-2.0-2.0-0.0"}}, {"uniqueid": "w64651093:a66068799", "current_trial": 4, "dateTime": 1693565129649, "trialdata": {"revealed_states": [], "clicked_states": [], "num_clicks_accrued": [0, 0, 0, 0, 0, 0, 0, 0, 0, 0, 0, 0, 0], "stateRewards": ["", -10, -10, -10, -10, 10, -10, 10, 10, -10, 10, -10, -10, 10, -10, 10, -10, -10, 10, 10, 10, 10, 10, 10, -10, 10, 10, 10, 10, -10, 10, 10, 10, 10], "withholdReward": false, "trial_id": "practice_2", "block": "test", "trialIndex": 1, "score": -26.5, "costs": 0, "simulationMode": [null, null, null, null, null], "rewards": [-10, -10, -10, 10, -10], "path": ["0", "0", "1", "2", "3", "8", "11"], "rt": [4199, 781, 344, 918, 284], "actions": ["up", "up", "up", "left", "left"], "actionTimes": [5870, 7149, 7997, 9405, 10189], "queries": {"click": {"state": {"target": [], "time": []}, "edge": {"target": [], "time": []}}, "mouseover": {"state": {"target": ["0"], "time": [1875]}, "edge": {"target": [], "time": []}}, "mouseout": {"state": {"target": ["0", "0"], "time": [1063, 5234]}, "edge": {"target": [], "time": []}}}, "displayed_time": "10.69", "trialTime": 14462, "trial_type": "mouselab-mdp", "trial_index": 4, "time_elapsed": 248614, "internal_node_id": "0.0-2.0-2.0-1.0"}}, {"uniqueid": "w64651093:a66068799", "current_trial": 5, "dateTime": 1693565184977, "trialdata": {"view_history": [{"page_index": 0, "viewing_time": 40670}, {"page_index": 1, "viewing_time": 14656}], "rt": 55327, "trial_id": "mouselab_instructions_2_misaligned", "trial_type": "instructions", "trial_index": 5, "time_elapsed": 303944, "internal_node_id": "0.0-2.0-3.0"}}, {"uniqueid": "w64651093:a66068799", "current_trial": 6, "dateTime": 1693565215410, "trialdata": {"rt": 30429, "response": {"Q0": "The cost for clicking on nodes may vary between nodes.", "Q1": "The better I perform the higher my bonus will be.", "Q2": "No, the amount of cash at each node of the web may be different each time.", "Q3": "To get the highest total score.", "Q4": "Only before moving the spider.", "Q5": "3 seconds"}, "question_order": [0, 1, 2, 3, 4, 5], "correct": {"Q0": "The cost for clicking on nodes may vary between nodes.", "Q1": "The better I perform the higher my bonus will be.", "Q2": "No, the amount of cash at each node of the web may be different each time.", "Q3": "To get the highest total score.", "Q4": "Only before moving the spider.", "Q5": "3 seconds"}, "trial_id": "mouselab_quiz_misaligned", "trial_type": "survey-multi-choice", "trial_index": 6, "time_elapsed": 334377, "internal_node_id": "0.0-2.0-4.0"}}, {"uniqueid": "w64651093:a66068799", "current_trial": 7, "dateTime": 1693565222274, "trialdata": {"rt": 6857, "response": {"Q0": "No"}, "question_order": [0], "trial_id": "repeat_check", "trial_type": "survey-multi-choice", "trial_index": 7, "time_elapsed": 341240, "internal_node_id": "0.0-4.0-0.0"}}, {"uniqueid": "w64651093:a66068799", "current_trial": 8, "dateTime": 1693565235981, "trialdata": {"rt": 13701, "stimulus": "\n<h1> Get ready to start the game! </h1>\n\nThank you for reading the instructions. Get ready start with the 40 rounds of this game.\n<br><br>\nIf you need to take a break, feel free to take one after the end of a round, before continuing to the next one.\n<br><br>\nRemember, the more money the spider gets, the bigger your bonus will be!\n<br><br>\n<div style='text-align: center;'>Press <code>space</code> to begin.</div>\n\n<br><br>\n(If, at any point, the <code>space</code> key does not take you to the next page, click once on the text and try again.)", "response": " ", "trial_id": "mdp_ready", "trial_type": "html-keyboard-response", "trial_index": 8, "time_elapsed": 354948, "internal_node_id": "0.0-6.0-0.0"}}, {"uniqueid": "w64651093:a66068799", "current_trial": 9, "dateTime": 1693565256637, "trialdata": {"revealed_states": [], "clicked_states": [], "num_clicks_accrued": [0, 0, 0, 0, 0, 0, 0, 0, 0, 0, 0, 0, 0], "stateRewards": ["", 2, -1, -1, 7, 11, -40, -22, -2, 69, 37, 8, -2, 4, -8, -12, -2, -72, -3, -12, 17, 63, 12, 1, 3, -7, 6, 25, 61, 61, -9, 28, -17, 27], "withholdReward": false, "trial_id": "mdp_trial_1", "block": "test", "trialIndex": 2, "score": 64, "costs": 0, "simulationMode": [null, null, null, null, null], "rewards": [1, 3, -7, 6, 61], "path": ["0", "0", "23", "24", "25", "26", "29"], "rt": [4544, 608, 339, 1104, 337], "actions": ["left", "left", "left", "up", "left"], "actionTimes": [6270, 7372, 8203, 9803, 10637], "queries": {"click": {"state": {"target": [], "time": []}, "edge": {"target": [], "time": []}}, "mouseover": {"state": {"target": [], "time": []}, "edge": {"target": [], "time": []}}, "mouseout": {"state": {"target": ["31"], "time": [323]}, "edge": {"target": [], "time": []}}}, "displayed_time": "15.73", "trialTime": 20461, "trial_type": "mouselab-mdp", "trial_index": 9, "time_elapsed": 375603, "internal_node_id": "0.0-6.0-1.0-0.0"}}, {"uniqueid": "w64651093:a66068799", "current_trial": 10, "dateTime": 1693565275802, "trialdata": {"revealed_states": [], "clicked_states": [], "num_clicks_accrued": [0, 0, 0, 0, 0, 0, 0, 0, 0, 0, 0, 0, 0], "stateRewards": ["", 2, 2, 3, -15, 23, -14, 73, -7, -32, -20, -6, 1, 1, -5, -12, 73, 6, -84, 11, -81, -57, 13, -2, -1, -4, -8, -52, -58, 49, 13, 5, -41, -41], "withholdReward": false, "trial_id": "mdp_trial_2", "block": "test", "trialIndex": 3, "score": -99, "costs": 0, "simulationMode": [null, null, null, null, null], "rewards": [1, 1, -5, -12, -84], "path": ["0", "0", "12", "13", "14", "15", "18"], "rt": [2348, 416, 715, 146, 990], "actions": ["right", "right", "right", "up", "left"], "actionTimes": [5147, 6057, 7274, 7930, 9418], "queries": {"click": {"state": {"target": [], "time": []}, "edge": {"target": [], "time": []}}, "mouseover": {"state": {"target": [], "time": []}, "edge": {"target": [], "time": []}}, "mouseout": {"state": {"target": ["0"], "time": [18138]}, "edge": {"target": [], "time": []}}}, "displayed_time": "16.80", "trialTime": 18970, "trial_type": "mouselab-mdp", "trial_index": 10, "time_elapsed": 394769, "internal_node_id": "0.0-6.0-1.0-1.0"}}, {"uniqueid": "w64651093:a66068799", "current_trial": 11, "dateTime": 1693565299599, "trialdata": {"revealed_states": [], "clicked_states": [], "num_clicks_accrued": [0, 0, 0, 0, 0, 0, 0, 0, 0, 0, 0, 0, 0], "stateRewards": ["", 2, 4, 7, -6, -76, -81, 2, 5, -66, -3, 36, -2, -4, 6, -2, -69, 4, -49, -6, 67, 38, -67, 2, 1, 1, 6, -68, -21, 52, -16, -16, 6, -70], "withholdReward": false, "trial_id": "mdp_trial_3", "block": "test", "trialIndex": 4, "score": -6, "costs": 0, "simulationMode": [null, null, null, null, null], "rewards": [2, 1, 1, -16, 6], "path": ["0", "0", "23", "24", "25", "30", "32"], "rt": [3789, 506, 369, 814, 424], "actions": ["left", "left", "left", "down", "down"], "actionTimes": [5664, 6670, 7534, 8846, 9774], "queries": {"click": {"state": {"target": [], "time": []}, "edge": {"target": [], "time": []}}, "mouseover": {"state": {"target": [], "time": []}, "edge": {"target": [], "time": []}}, "mouseout": {"state": {"target": ["0"], "time": [16742]}, "edge": {"target": [], "time": []}}}, "displayed_time": "15.88", "trialTime": 23599, "trial_type": "mouselab-mdp", "trial_index": 11, "time_elapsed": 418564, "internal_node_id": "0.0-6.0-1.0-2.0"}}, {"uniqueid": "w64651093:a66068799", "current_trial": 12, "dateTime": 1693565321565, "trialdata": {"revealed_states": [], "clicked_states": [], "num_clicks_accrued": [0, 0, 0, 0, 0, 0, 0, 0, 0, 0, 0, 0, 0], "stateRewards": ["", -2, -4, 6, 14, -34, 49, 36, -8, -3, 32, -4, 1, -2, 1, -8, -20, -71, -57, -7, -86, -62, -16, -2, -3, -5, 11, 23, -21, 53, 5, -5, 85, 73], "withholdReward": false, "trial_id": "mdp_trial_4", "block": "test", "trialIndex": 5, "score": -20, "costs": 0, "simulationMode": [null, null, null, null, null], "rewards": [-2, -3, -5, 11, -21], "path": ["0", "0", "23", "24", "25", "26", "28"], "rt": [1974, 1170, 495, 1285, 782], "actions": ["left", "left", "left", "up", "right"], "actionTimes": [5082, 6746, 7738, 9514, 10795], "queries": {"click": {"state": {"target": [], "time": []}, "edge": {"target": [], "time": []}}, "mouseover": {"state": {"target": [], "time": []}, "edge": {"target": [], "time": []}}, "mouseout": {"state": {"target": ["0", "0"], "time": [1004, 19424]}, "edge": {"target": [], "time": []}}}, "displayed_time": "17.11", "trialTime": 21739, "trial_type": "mouselab-mdp", "trial_index": 12, "time_elapsed": 440531, "internal_node_id": "0.0-6.0-1.0-3.0"}}, {"uniqueid": "w64651093:a66068799", "current_trial": 13, "dateTime": 1693565342848, "trialdata": {"revealed_states": [], "clicked_states": [], "num_clicks_accrued": [0, 0, 0, 0, 0, 0, 0, 0, 0, 0, 0, 0, 0], "stateRewards": ["", -2, -3, -5, 8, 27, 11, 43, -6, -24, -87, 69, -2, 1, 1, 9, 19, 48, -37, 9, -14, 45, 62, 1, 2, 1, 16, -81, -41, 22, 4, -6, -63, 47], "withholdReward": false, "trial_id": "mdp_trial_5", "block": "test", "trialIndex": 6, "score": 55, "costs": 0, "simulationMode": [null, null, null, null, null], "rewards": [1, 2, 1, 4, 47], "path": ["0", "0", "23", "24", "25", "30", "33"], "rt": [3334, 629, 293, 615, 329], "actions": ["left", "left", "left", "down", "left"], "actionTimes": [4923, 6043, 6843, 7948, 8779], "queries": {"click": {"state": {"target": [], "time": []}, "edge": {"target": [], "time": []}}, "mouseover": {"state": {"target": [], "time": []}, "edge": {"target": [], "time": []}}, "mouseout": {"state": {"target": ["0"], "time": [18496]}, "edge": {"target": [], "time": []}}}, "displayed_time": "15.59", "trialTime": 21054, "trial_type": "mouselab-mdp", "trial_index": 13, "time_elapsed": 461813, "internal_node_id": "0.0-6.0-1.0-4.0"}}, {"uniqueid": "w64651093:a66068799", "current_trial": 14, "dateTime": 1693565363546, "trialdata": {"revealed_states": [], "clicked_states": [], "num_clicks_accrued": [0, 0, 0, 0, 0, 0, 0, 0, 0, 0, 0, 0, 0], "stateRewards": ["", 1, 1, -5, 10, -31, 73, 14, -8, -23, 63, -70, -1, 2, 8, 7, 25, -59, 27, -10, -40, -71, -15, -2, 3, -8, -5, -19, 77, -34, 7, 67, 63, 19], "withholdReward": false, "trial_id": "mdp_trial_6", "block": "test", "trialIndex": 7, "score": -16, "costs": 0, "simulationMode": [null, null, null, null, null], "rewards": [-1, 2, 8, -10, -15], "path": ["0", "0", "12", "13", "14", "19", "22"], "rt": [2963, 782, 652, 317, 1068], "actions": ["right", "right", "right", "down", "left"], "actionTimes": [5633, 6911, 8064, 8880, 10449], "queries": {"click": {"state": {"target": [], "time": []}, "edge": {"target": [], "time": []}}, "mouseover": {"state": {"target": [], "time": []}, "edge": {"target": [], "time": []}}, "mouseout": {"state": {"target": ["22"], "time": [37]}, "edge": {"target": [], "time": []}}}, "displayed_time": "16.67", "trialTime": 20463, "trial_type": "mouselab-mdp", "trial_index": 14, "time_elapsed": 482513, "internal_node_id": "0.0-6.0-1.0-5.0"}}, {"uniqueid": "w64651093:a66068799", "current_trial": 15, "dateTime": 1693565383066, "trialdata": {"revealed_states": [], "clicked_states": [], "num_clicks_accrued": [0, 0, 0, 0, 0, 0, 0, 0, 0, 0, 0, 0, 0], "stateRewards": ["", -2, -3, 8, -4, -30, 31, 69, 9, 66, 87, 64, -2, 2, 8, 5, 47, 16, -39, -8, -54, 51, -19, 1, -2, -2, -11, -25, -26, 43, -9, 19, -84, 86], "withholdReward": false, "trial_id": "mdp_trial_7", "block": "test", "trialIndex": 8, "score": 99, "costs": 0, "simulationMode": [null, null, null, null, null], "rewards": [-2, -3, 8, 9, 87], "path": ["0", "0", "1", "2", "3", "8", "10"], "rt": [1675, 515, 1802, 1179, 1608], "actions": ["up", "up", "up", "left", "down"], "actionTimes": [3603, 4611, 6914, 8593, 10691], "queries": {"click": {"state": {"target": [], "time": []}, "edge": {"target": [], "time": []}}, "mouseover": {"state": {"target": [], "time": []}, "edge": {"target": [], "time": []}}, "mouseout": {"state": {"target": [], "time": []}, "edge": {"target": [], "time": []}}}, "displayed_time": "15.93", "trialTime": 19282, "trial_type": "mouselab-mdp", "trial_index": 15, "time_elapsed": 502033, "internal_node_id": "0.0-6.0-1.0-6.0"}}, {"uniqueid": "w64651093:a66068799", "current_trial": 16, "dateTime": 1693565402142, "trialdata": {"revealed_states": [], "clicked_states": [], "num_clicks_accrued": [0, 0, 0, 0, 0, 0, 0, 0, 0, 0, 0, 0, 0], "stateRewards": ["", -2, -4, -2, -13, -15, 87, -19, -6, -80, 30, 12, 1, 1, -8, 2, 55, 56, 15, 11, -68, -7, 55, -2, 3, -3, -3, 48, 62, 4, 1, -3, 69, -33], "withholdReward": false, "trial_id": "mdp_trial_8", "block": "test", "trialIndex": 9, "score": 51, "costs": 0, "simulationMode": [null, null, null, null, null], "rewards": [1, 1, -8, 2, 55], "path": ["0", "0", "12", "13", "14", "15", "16"], "rt": [3871, 410, 757, 2530, 852], "actions": ["right", "right", "right", "up", "up"], "actionTimes": [5006, 5918, 7167, 10192, 11582], "queries": {"click": {"state": {"target": [], "time": []}, "edge": {"target": [], "time": []}}, "mouseover": {"state": {"target": [], "time": []}, "edge": {"target": [], "time": []}}, "mouseout": {"state": {"target": ["0"], "time": [4172]}, "edge": {"target": [], "time": []}}}, "displayed_time": "15.14", "trialTime": 18849, "trial_type": "mouselab-mdp", "trial_index": 16, "time_elapsed": 521108, "internal_node_id": "0.0-6.0-1.0-7.0"}}, {"uniqueid": "w64651093:a66068799", "current_trial": 17, "dateTime": 1693565422925, "trialdata": {"revealed_states": [], "clicked_states": [], "num_clicks_accrued": [0, 0, 0, 0, 0, 0, 0, 0, 0, 0, 0, 0, 0], "stateRewards": ["", -1, 3, 1, -7, 56, 76, 57, 3, 11, -9, 14, 1, -2, 2, 8, -77, -3, 79, -5, 88, 24, -66, -2, -1, 7, -7, -30, 14, -76, 11, -36, 28, -6], "withholdReward": false, "trial_id": "mdp_trial_9", "block": "test", "trialIndex": 10, "score": 72, "costs": 0, "simulationMode": [null, null, null, null, null], "rewards": [-1, 3, 1, -7, 76], "path": ["0", "0", "1", "2", "3", "4", "6"], "rt": [2901, 746, 2006, 2113, 1475], "actions": ["up", "up", "up", "right", "right"], "actionTimes": [4718, 5965, 8460, 11070, 13036], "queries": {"click": {"state": {"target": [], "time": []}, "edge": {"target": [], "time": []}}, "mouseover": {"state": {"target": [], "time": []}, "edge": {"target": [], "time": []}}, "mouseout": {"state": {"target": [], "time": []}, "edge": {"target": [], "time": []}}}, "displayed_time": "15.82", "trialTime": 20557, "trial_type": "mouselab-mdp", "trial_index": 17, "time_elapsed": 541891, "internal_node_id": "0.0-6.0-1.0-8.0"}}, {"uniqueid": "w64651093:a66068799", "current_trial": 18, "dateTime": 1693565442350, "trialdata": {"revealed_states": [], "clicked_states": [], "num_clicks_accrued": [0, 0, 0, 0, 0, 0, 0, 0, 0, 0, 0, 0, 0], "stateRewards": ["", -1, -3, 4, -10, -5, 79, -87, -2, 53, 29, -20, -2, -1, -5, 10, 27, 86, 46, -16, -29, 40, 3, 2, 4, -1, -6, 37, 79, -29, 7, 86, -62, 29], "withholdReward": false, "trial_id": "mdp_trial_10", "block": "test", "trialIndex": 11, "score": 78, "costs": 0, "simulationMode": [null, null, null, null, null], "rewards": [2, 4, -1, -6, 79], "path": ["0", "0", "23", "24", "25", "26", "28"], "rt": [1410, 1686, 606, 944, 1045], "actions": ["left", "left", "left", "up", "right"], "actionTimes": [2363, 4540, 5644, 7083, 8620], "queries": {"click": {"state": {"target": [], "time": []}, "edge": {"target": [], "time": []}}, "mouseover": {"state": {"target": [], "time": []}, "edge": {"target": [], "time": []}}, "mouseout": {"state": {"target": ["0"], "time": [18834]}, "edge": {"target": [], "time": []}}}, "displayed_time": "14.96", "trialTime": 19196, "trial_type": "mouselab-mdp", "trial_index": 18, "time_elapsed": 561316, "internal_node_id": "0.0-6.0-1.0-9.0"}}, {"uniqueid": "w64651093:a66068799", "current_trial": 19, "dateTime": 1693565461338, "trialdata": {"revealed_states": [], "clicked_states": [], "num_clicks_accrued": [0, 0, 0, 0, 0, 0, 0, 0, 0, 0, 0, 0, 0], "stateRewards": ["", 1, -1, 4, -2, -75, -75, 84, -9, -60, -79, 59, 2, -4, 8, 9, -17, -82, 80, 14, -4, 49, 49, -1, 3, 6, -11, -33, 34, 55, 9, -57, 5, 59], "withholdReward": false, "trial_id": "mdp_trial_11", "block": "test", "trialIndex": 12, "score": 76, "costs": 0, "simulationMode": [null, null, null, null, null], "rewards": [-1, 3, 6, 9, 59], "path": ["0", "0", "23", "24", "25", "30", "33"], "rt": [2295, 1148, 680, 744, 2469], "actions": ["left", "left", "left", "down", "left"], "actionTimes": [3482, 5129, 6313, 7562, 10521], "queries": {"click": {"state": {"target": [], "time": []}, "edge": {"target": [], "time": []}}, "mouseover": {"state": {"target": [], "time": []}, "edge": {"target": [], "time": []}}, "mouseout": {"state": {"target": [], "time": []}, "edge": {"target": [], "time": []}}}, "displayed_time": "15.19", "trialTime": 18744, "trial_type": "mouselab-mdp", "trial_index": 19, "time_elapsed": 580304, "internal_node_id": "0.0-6.0-1.0-10.0"}}, {"uniqueid": "w64651093:a66068799", "current_trial": 20, "dateTime": 1693565480078, "trialdata": {"revealed_states": [], "clicked_states": [], "num_clicks_accrued": [0, 0, 0, 0, 0, 0, 0, 0, 0, 0, 0, 0, 0], "stateRewards": ["", -1, -4, 8, 8, -68, 47, 24, -7, -61, 49, -69, -1, -1, 8, -7, 42, 1, -45, -11, 10, -63, -6, 1, 4, 6, -16, 79, -37, -58, -12, 81, 18, -53], "withholdReward": false, "trial_id": "mdp_trial_12", "block": "test", "trialIndex": 13, "score": 17, "costs": 0, "simulationMode": [null, null, null, null, null], "rewards": [1, 4, 6, -12, 18], "path": ["0", "0", "23", "24", "25", "30", "32"], "rt": [3090, 306, 1427, 1491, 2290], "actions": ["left", "left", "left", "down", "down"], "actionTimes": [4626, 5426, 7345, 9329, 12113], "queries": {"click": {"state": {"target": [], "time": []}, "edge": {"target": [], "time": []}}, "mouseover": {"state": {"target": [], "time": []}, "edge": {"target": [], "time": []}}, "mouseout": {"state": {"target": ["0"], "time": [1318]}, "edge": {"target": [], "time": []}}}, "displayed_time": "15.54", "trialTime": 18498, "trial_type": "mouselab-mdp", "trial_index": 20, "time_elapsed": 599043, "internal_node_id": "0.0-6.0-1.0-11.0"}}, {"uniqueid": "w64651093:a66068799", "current_trial": 21, "dateTime": 1693565498622, "trialdata": {"revealed_states": [], "clicked_states": [], "num_clicks_accrued": [0, 0, 0, 0, 0, 0, 0, 0, 0, 0, 0, 0, 0], "stateRewards": ["", 1, 1, 6, -14, -40, 37, 16, -13, 33, -68, 49, 2, 4, 3, 6, 55, 27, 32, 10, -65, 20, -87, 2, 1, -6, -5, -42, 12, 29, -8, 16, 76, -33], "withholdReward": false, "trial_id": "mdp_trial_13", "block": "test", "trialIndex": 14, "score": -46, "costs": 0, "simulationMode": [null, null, null, null, null], "rewards": [2, 4, 3, 10, -65], "path": ["0", "0", "12", "13", "14", "19", "20"], "rt": [1595, 961, 1252, 477, 1973], "actions": ["right", "right", "right", "down", "right"], "actionTimes": [2382, 3839, 5583, 6559, 9023], "queries": {"click": {"state": {"target": [], "time": []}, "edge": {"target": [], "time": []}}, "mouseover": {"state": {"target": [], "time": []}, "edge": {"target": [], "time": []}}, "mouseout": {"state": {"target": ["0"], "time": [636]}, "edge": {"target": [], "time": []}}}, "displayed_time": "14.79", "trialTime": 18304, "trial_type": "mouselab-mdp", "trial_index": 21, "time_elapsed": 617588, "internal_node_id": "0.0-6.0-1.0-12.0"}}, {"uniqueid": "w64651093:a66068799", "current_trial": 22, "dateTime": 1693565517133, "trialdata": {"revealed_states": [], "clicked_states": [], "num_clicks_accrued": [0, 0, 0, 0, 0, 0, 0, 0, 0, 0, 0, 0, 0], "stateRewards": ["", -1, 4, 3, 12, -27, 34, -33, 3, -63, 1, 6, 2, 2, -6, -11, -77, -85, 68, -6, 51, 81, -60, -2, -2, 1, 15, 20, 15, 68, -10, -14, 6, -4], "withholdReward": false, "trial_id": "mdp_trial_14", "block": "test", "trialIndex": 15, "score": 73, "costs": 0, "simulationMode": [null, null, null, null, null], "rewards": [2, 2, -6, -6, 81], "path": ["0", "0", "12", "13", "14", "19", "21"], "rt": [1431, 931, 1162, 1191, 2914], "actions": ["right", "right", "right", "down", "down"], "actionTimes": [2857, 4280, 5945, 7625, 11034], "queries": {"click": {"state": {"target": [], "time": []}, "edge": {"target": [], "time": []}}, "mouseover": {"state": {"target": [], "time": []}, "edge": {"target": [], "time": []}}, "mouseout": {"state": {"target": ["0"], "time": [1269]}, "edge": {"target": [], "time": []}}}, "displayed_time": "15.43", "trialTime": 18265, "trial_type": "mouselab-mdp", "trial_index": 22, "time_elapsed": 636098, "internal_node_id": "0.0-6.0-1.0-13.0"}}, {"uniqueid": "w64651093:a66068799", "current_trial": 23, "dateTime": 1693565534238, "trialdata": {"revealed_states": [], "clicked_states": [], "num_clicks_accrued": [0, 0, 0, 0, 0, 0, 0, 0, 0, 0, 0, 0, 0], "stateRewards": ["", 2, 3, 8, 14, 69, -27, 17, 2, -71, -65, -10, 2, -3, 7, 8, 65, -10, 65, -12, 73, -12, 13, -2, -2, 6, 10, -79, -69, -18, 10, -85, 67, 74], "withholdReward": false, "trial_id": "mdp_trial_15", "block": "test", "trialIndex": 16, "score": 44, "costs": 0, "simulationMode": [null, null, null, null, null], "rewards": [2, 3, 8, 14, 17], "path": ["0", "0", "1", "2", "3", "4", "7"], "rt": [1468, 721, 1119, 1148, 2665], "actions": ["up", "up", "up", "right", "down"], "actionTimes": [2423, 3640, 5255, 6903, 10071], "queries": {"click": {"state": {"target": [], "time": []}, "edge": {"target": [], "time": []}}, "mouseover": {"state": {"target": [], "time": []}, "edge": {"target": [], "time": []}}, "mouseout": {"state": {"target": ["0"], "time": [796]}, "edge": {"target": [], "time": []}}}, "displayed_time": "14.96", "trialTime": 16856, "trial_type": "mouselab-mdp", "trial_index": 23, "time_elapsed": 653204, "internal_node_id": "0.0-6.0-1.0-14.0"}}, {"uniqueid": "w64651093:a66068799", "current_trial": 24, "dateTime": 1693565554093, "trialdata": {"revealed_states": [], "clicked_states": [], "num_clicks_accrued": [0, 0, 0, 0, 0, 0, 0, 0, 0, 0, 0, 0, 0], "stateRewards": ["", -1, 4, -3, 3, 57, -61, 5, -11, 23, -1, 34, -2, -4, -1, -13, 27, 38, -36, 4, -45, 21, 88, 1, -2, -1, 1, -69, -5, -78, -12, -9, 38, -54], "withholdReward": false, "trial_id": "mdp_trial_16", "block": "test", "trialIndex": 17, "score": -79, "costs": 0, "simulationMode": [null, null, null, null, null], "rewards": [1, -2, -1, 1, -78], "path": ["0", "0", "23", "24", "25", "26", "29"], "rt": [1808, 974, 1522, 1647, 1881], "actions": ["left", "left", "left", "up", "left"], "actionTimes": [2522, 3994, 6010, 8154, 10540], "queries": {"click": {"state": {"target": [], "time": []}, "edge": {"target": [], "time": []}}, "mouseover": {"state": {"target": [], "time": []}, "edge": {"target": [], "time": []}}, "mouseout": {"state": {"target": ["0"], "time": [543]}, "edge": {"target": [], "time": []}}}, "displayed_time": "14.72", "trialTime": 19579, "trial_type": "mouselab-mdp", "trial_index": 24, "time_elapsed": 673059, "internal_node_id": "0.0-6.0-1.0-15.0"}}, {"uniqueid": "w64651093:a66068799", "current_trial": 25, "dateTime": 1693565570846, "trialdata": {"revealed_states": [], "clicked_states": [], "num_clicks_accrued": [0, 0, 0, 0, 0, 0, 0, 0, 0, 0, 0, 0, 0], "stateRewards": ["", 2, 3, -1, 16, -78, -11, 46, 2, -20, 79, -67, 2, 3, 2, 11, -83, -42, -58, -11, -67, -22, 55, 2, -1, -1, -16, -83, -82, 23, -11, -29, 13, 13], "withholdReward": false, "trial_id": "mdp_trial_17", "block": "test", "trialIndex": 18, "score": -71, "costs": 0, "simulationMode": [null, null, null, null, null], "rewards": [2, 3, 2, -11, -67], "path": ["0", "0", "12", "13", "14", "19", "20"], "rt": [2699, 1480, 1430, 1510, 2467], "actions": ["right", "right", "right", "down", "right"], "actionTimes": [3561, 5546, 7499, 9514, 12474], "queries": {"click": {"state": {"target": [], "time": []}, "edge": {"target": [], "time": []}}, "mouseover": {"state": {"target": [], "time": []}, "edge": {"target": [], "time": []}}, "mouseout": {"state": {"target": ["0"], "time": [687]}, "edge": {"target": [], "time": []}}}, "displayed_time": "14.87", "trialTime": 16507, "trial_type": "mouselab-mdp", "trial_index": 25, "time_elapsed": 689812, "internal_node_id": "0.0-6.0-1.0-16.0"}}, {"uniqueid": "w64651093:a66068799", "current_trial": 26, "dateTime": 1693565588910, "trialdata": {"revealed_states": [], "clicked_states": [], "num_clicks_accrued": [0, 0, 0, 0, 0, 0, 0, 0, 0, 0, 0, 0, 0], "stateRewards": ["", 2, 3, -3, 4, 72, -28, 34, -12, 57, -64, -15, 2, 1, -4, -15, 2, 49, 31, -1, -42, -58, 31, -2, 1, -2, -13, -75, -19, -22, -6, 61, 10, -56], "withholdReward": false, "trial_id": "mdp_trial_18", "block": "test", "trialIndex": 19, "score": 52, "costs": 0, "simulationMode": [null, null, null, null, null], "rewards": [-2, 1, -2, -6, 61], "path": ["0", "0", "23", "24", "25", "30", "31"], "rt": [1236, 524, 515, 1386, 3789], "actions": ["left", "left", "left", "down", "right"], "actionTimes": [1941, 2965, 3974, 5861, 10150], "queries": {"click": {"state": {"target": [], "time": []}, "edge": {"target": [], "time": []}}, "mouseover": {"state": {"target": [], "time": []}, "edge": {"target": [], "time": []}}, "mouseout": {"state": {"target": ["0"], "time": [555]}, "edge": {"target": [], "time": []}}}, "displayed_time": "14.71", "trialTime": 17830, "trial_type": "mouselab-mdp", "trial_index": 26, "time_elapsed": 707875, "internal_node_id": "0.0-6.0-1.0-17.0"}}, {"uniqueid": "w64651093:a66068799", "current_trial": 27, "dateTime": 1693565611757, "trialdata": {"revealed_states": [], "clicked_states": ["1"], "num_clicks_accrued": [0, 0, 0, 0, 0, 0, 0, 0, 0, 0, 0, 0, 0], "stateRewards": ["", -1, 1, -1, 2, 19, 85, -18, 2, -3, -26, 36, 2, 4, 7, -9, -18, 70, 72, -5, 35, -20, -28, 1, -2, -4, -3, -59, -11, -63, -2, -72, 59, -69], "withholdReward": false, "trial_id": "mdp_trial_19", "block": "test", "trialIndex": 20, "score": 76.25, "costs": 0.25, "simulationMode": [null, null, null, null, null], "rewards": [2, 4, 7, -9, 72], "path": ["0", "0", "12", "13", "14", "15", "18"], "rt": [4301, 763, 1193, 1464, 2708], "actions": ["right", "right", "right", "up", "left"], "actionTimes": [7695, 8956, 10653, 12610, 15822], "queries": {"click": {"state": {"target": ["1"], "time": [5711]}, "edge": {"target": [], "time": []}}, "mouseover": {"state": {"target": ["1"], "time": [5475]}, "edge": {"target": [], "time": []}}, "mouseout": {"state": {"target": ["0", "1"], "time": [3227, 6425]}, "edge": {"target": [], "time": []}}}, "displayed_time": "17.41", "trialTime": 22589, "trial_type": "mouselab-mdp", "trial_index": 27, "time_elapsed": 730723, "internal_node_id": "0.0-6.0-1.0-18.0"}}, {"uniqueid": "w64651093:a66068799", "current_trial": 28, "dateTime": 1693565634541, "trialdata": {"revealed_states": [], "clicked_states": ["13", "19", "21", "1"], "num_clicks_accrued": [0, 0, 0, 0, 0, 0, 0, 0, 0, 0, 0, 0, 0], "stateRewards": ["", -2, -4, -8, 8, 63, -50, -19, -7, -17, -31, 31, 1, 3, -5, 12, -35, -63, -29, -4, -17, -75, -79, -2, -3, -2, 8, -3, -85, 10, -2, -82, -82, 56], "withholdReward": false, "trial_id": "mdp_trial_20", "block": "test", "trialIndex": 21, "score": -41.8, "costs": -3.8, "simulationMode": [null, null, null, null, null, null], "rewards": [-2, -4, -8, -7, -17], "path": ["0", "0", "1", "2", "3", "8", "9"], "rt": [5755, 3214, 529, 858, 1056, 3709], "actions": ["up", "up", "up", "up", "left", "up"], "actionTimes": [7662, 10879, 11903, 13264, 14815, 19022], "queries": {"click": {"state": {"target": ["13", "19", "21", "1"], "time": [3109, 4603, 5596, 9211]}, "edge": {"target": [], "time": []}}, "mouseover": {"state": {"target": ["12", "13", "19", "21", "22", "12", "0", "1", "13"], "time": [2629, 2798, 4214, 5298, 6299, 6516, 6616, 6850, 10358]}, "edge": {"target": [], "time": []}}, "mouseout": {"state": {"target": ["0", "12", "13", "19", "19", "21", "22", "12", "0", "1", "13"], "time": [2582, 2699, 3514, 4688, 4965, 5688, 6399, 6550, 6700, 10308, 10372]}, "edge": {"target": [], "time": []}}}, "displayed_time": "19.52", "trialTime": 22527, "trial_type": "mouselab-mdp", "trial_index": 28, "time_elapsed": 753507, "internal_node_id": "0.0-6.0-1.0-19.0"}}, {"uniqueid": "w64651093:a66068799", "current_trial": 29, "dateTime": 1693565653694, "trialdata": {"revealed_states": [], "clicked_states": ["24", "23", "28"], "num_clicks_accrued": [0, 0, 0, 0, 0, 0, 0, 0, 0, 0, 0, 0, 0], "stateRewards": ["", -1, 2, -6, 6, -82, -19, -39, -16, -83, 11, -33, -2, -2, 4, -6, -82, -1, -19, -6, -10, -67, -41, -2, 1, -7, 16, -23, -78, -52, 14, 31, -71, 74], "withholdReward": false, "trial_id": "mdp_trial_21", "block": "test", "trialIndex": 22, "score": 34.75, "costs": -2.25, "simulationMode": [null, null, null, null, null], "rewards": [-2, 1, -7, 14, 31], "path": ["0", "0", "23", "24", "25", "30", "31"], "rt": [7637, 305, 368, 2893, 1088], "actions": ["left", "left", "left", "down", "right"], "actionTimes": [9235, 10033, 10897, 14290, 15874], "queries": {"click": {"state": {"target": ["24", "23", "28"], "time": [2957, 4183, 5770]}, "edge": {"target": [], "time": []}}, "mouseover": {"state": {"target": ["23", "24", "23", "28", "0"], "time": [2469, 2839, 4074, 5139, 6424]}, "edge": {"target": [], "time": []}}, "mouseout": {"state": {"target": ["0", "23", "24", "23", "28", "0"], "time": [2438, 2624, 3771, 4756, 6157, 7241]}, "edge": {"target": [], "time": []}}}, "displayed_time": "16.37", "trialTime": 18914, "trial_type": "mouselab-mdp", "trial_index": 29, "time_elapsed": 772660, "internal_node_id": "0.0-6.0-1.0-20.0"}}, {"uniqueid": "w64651093:a66068799", "current_trial": 30, "dateTime": 1693565677182, "trialdata": {"revealed_states": [], "clicked_states": ["5", "6"], "num_clicks_accrued": [0, 0, 0, 0, 0, 0, 0, 0, 0, 0, 0, 0, 0], "stateRewards": ["", 1, 2, -6, -13, -51, 22, -4, -12, -44, -12, 6, -2, -2, -2, -14, -46, -4, -77, -2, 36, -79, 41, 2, -4, 2, -6, -55, 59, 70, -5, 39, -19, 24], "withholdReward": false, "trial_id": "mdp_trial_22", "block": "test", "trialIndex": 23, "score": -28.3, "costs": -4.3, "simulationMode": [null, null, null, null, null], "rewards": [-2, -2, -2, -14, -4], "path": ["0", "0", "12", "13", "14", "15", "17"], "rt": [8409, 2165, 1143, 590, 1592], "actions": ["right", "right", "right", "up", "right"], "actionTimes": [11073, 13743, 15389, 16480, 18575], "queries": {"click": {"state": {"target": ["5", "6"], "time": [4630, 7413]}, "edge": {"target": [], "time": []}}, "mouseover": {"state": {"target": ["1", "2", "3", "5", "6", "4", "6", "7", "1", "12"], "time": [3985, 4018, 4086, 4356, 5422, 6325, 7243, 7739, 8476, 9410]}, "edge": {"target": [], "time": []}}, "mouseout": {"state": {"target": ["0", "1", "2", "3", "5", "6", "4", "6", "7", "1", "12"], "time": [3956, 4002, 4052, 4137, 5306, 6222, 7155, 7658, 8162, 9108, 21293]}, "edge": {"target": [], "time": []}}}, "displayed_time": "19.07", "trialTime": 23247, "trial_type": "mouselab-mdp", "trial_index": 30, "time_elapsed": 796148, "internal_node_id": "0.0-6.0-1.0-21.0"}}, {"uniqueid": "w64651093:a66068799", "current_trial": 31, "dateTime": 1693565696047, "trialdata": {"revealed_states": [], "clicked_states": [], "num_clicks_accrued": [0, 0, 0, 0, 0, 0, 0, 0, 0, 0, 0, 0, 0], "stateRewards": ["", 1, 1, -5, 8, -6, 45, 16, -6, -7, -22, -38, -1, -4, 8, -11, -16, 21, -45, -15, -59, -32, 42, -1, 3, 6, 11, -7, 34, -27, -8, 85, 43, -9], "withholdReward": false, "trial_id": "mdp_trial_23", "block": "test", "trialIndex": 24, "score": -47, "costs": 0, "simulationMode": [null, null, null, null, null], "rewards": [1, 1, -5, -6, -38], "path": ["0", "0", "1", "2", "3", "8", "11"], "rt": [2218, 783, 988, 2207, 2111], "actions": ["up", "up", "up", "left", "left"], "actionTimes": [4903, 6182, 7670, 10374, 12981], "queries": {"click": {"state": {"target": [], "time": []}, "edge": {"target": [], "time": []}}, "mouseover": {"state": {"target": [], "time": []}, "edge": {"target": [], "time": []}}, "mouseout": {"state": {"target": ["0"], "time": [3580]}, "edge": {"target": [], "time": []}}}, "displayed_time": "16.69", "trialTime": 18631, "trial_type": "mouselab-mdp", "trial_index": 31, "time_elapsed": 815013, "internal_node_id": "0.0-6.0-1.0-22.0"}}, {"uniqueid": "w64651093:a66068799", "current_trial": 32, "dateTime": 1693565715566, "trialdata": {"revealed_states": [], "clicked_states": ["16", "25", "32"], "num_clicks_accrued": [0, 0, 0, 0, 0, 0, 0, 0, 0, 0, 0, 0, 0], "stateRewards": ["", -1, -4, -3, 1, -45, -67, -24, 14, 32, 22, 22, -1, 1, -5, -7, 72, 84, -79, -5, 19, -40, -2, -1, -2, 8, -3, 84, -25, -28, 11, 64, -66, 77], "withholdReward": false, "trial_id": "mdp_trial_24", "block": "test", "trialIndex": 25, "score": -55.25, "costs": -5.25, "simulationMode": [null, null, null, null, null], "rewards": [-1, 1, -5, -5, -40], "path": ["0", "0", "12", "13", "14", "19", "21"], "rt": [9372, 1169, 845, 1205, 1649], "actions": ["right", "right", "right", "down", "down"], "actionTimes": [10210, 11871, 13214, 14911, 17056], "queries": {"click": {"state": {"target": ["16", "25", "32"], "time": [1708, 5038, 5956]}, "edge": {"target": [], "time": []}}, "mouseover": {"state": {"target": ["16", "27", "26", "25", "30", "32", "31"], "time": [1461, 2592, 4710, 4777, 5512, 5762, 6680]}, "edge": {"target": [], "time": []}}, "mouseout": {"state": {"target": ["0", "16", "27", "26", "25", "30", "32", "32", "31"], "time": [542, 2177, 4679, 4744, 5412, 5578, 6051, 6563, 7130]}, "edge": {"target": [], "time": []}}}, "displayed_time": "17.56", "trialTime": 19264, "trial_type": "mouselab-mdp", "trial_index": 32, "time_elapsed": 834532, "internal_node_id": "0.0-6.0-1.0-23.0"}}, {"uniqueid": "w64651093:a66068799", "current_trial": 33, "dateTime": 1693565735424, "trialdata": {"revealed_states": [], "clicked_states": [], "num_clicks_accrued": [0, 0, 0, 0, 0, 0, 0, 0, 0, 0, 0, 0, 0], "stateRewards": ["", 1, -2, 4, 7, -43, -83, -60, -5, -86, -80, 83, -1, -2, 6, 11, -15, 21, 13, 9, 29, -49, 11, -1, 4, -6, -11, 87, 40, 63, -8, -39, -11, 62], "withholdReward": false, "trial_id": "mdp_trial_25", "block": "test", "trialIndex": 26, "score": -50, "costs": 0, "simulationMode": [null, null, null, null, null], "rewards": [1, -2, 4, 7, -60], "path": ["0", "0", "1", "2", "3", "4", "7"], "rt": [2131, 477, 679, 1878, 2435], "actions": ["up", "up", "up", "right", "down"], "actionTimes": [3275, 4250, 5434, 7802, 10730], "queries": {"click": {"state": {"target": [], "time": []}, "edge": {"target": [], "time": []}}, "mouseover": {"state": {"target": ["0"], "time": [1185]}, "edge": {"target": [], "time": []}}, "mouseout": {"state": {"target": ["0", "0"], "time": [838, 1219]}, "edge": {"target": [], "time": []}}}, "displayed_time": "15.15", "trialTime": 19627, "trial_type": "mouselab-mdp", "trial_index": 33, "time_elapsed": 854390, "internal_node_id": "0.0-6.0-1.0-24.0"}}, {"uniqueid": "w64651093:a66068799", "current_trial": 34, "dateTime": 1693565752558, "trialdata": {"revealed_states": [], "clicked_states": [], "num_clicks_accrued": [0, 0, 0, 0, 0, 0, 0, 0, 0, 0, 0, 0, 0], "stateRewards": ["", -1, -2, 4, 9, 10, -75, 39, 16, -43, 88, -19, -1, 1, 2, 4, -31, 10, 73, 12, 41, -64, -81, -2, 2, -6, 1, -81, -1, -26, 3, -59, -3, -20], "withholdReward": false, "trial_id": "mdp_trial_26", "block": "test", "trialIndex": 27, "score": -6, "costs": 0, "simulationMode": [null, null, null, null, null], "rewards": [-2, 2, -6, 1, -1], "path": ["0", "0", "23", "24", "25", "26", "28"], "rt": [2421, 1025, 740, 2416, 2443], "actions": ["left", "left", "left", "up", "right"], "actionTimes": [3620, 5139, 6371, 9283, 12228], "queries": {"click": {"state": {"target": [], "time": []}, "edge": {"target": [], "time": []}}, "mouseover": {"state": {"target": ["12", "13"], "time": [1312, 1441]}, "edge": {"target": [], "time": []}}, "mouseout": {"state": {"target": ["0", "12", "13"], "time": [824, 1345, 1462]}, "edge": {"target": [], "time": []}}}, "displayed_time": "15.20", "trialTime": 16867, "trial_type": "mouselab-mdp", "trial_index": 34, "time_elapsed": 871524, "internal_node_id": "0.0-6.0-1.0-25.0"}}, {"uniqueid": "w64651093:a66068799", "current_trial": 35, "dateTime": 1693565770272, "trialdata": {"revealed_states": [], "clicked_states": [], "num_clicks_accrued": [0, 0, 0, 0, 0, 0, 0, 0, 0, 0, 0, 0, 0], "stateRewards": ["", 1, 1, -2, 7, -31, -6, 76, 1, -36, -16, -53, 2, 1, 7, 13, -47, -10, 47, -7, 72, 46, -56, -2, -2, -2, 11, -80, 44, 38, 16, 67, 85, -78], "withholdReward": false, "trial_id": "mdp_trial_27", "block": "test", "trialIndex": 28, "score": -35, "costs": 0, "simulationMode": [null, null, null, null, null], "rewards": [1, 1, -2, 1, -36], "path": ["0", "0", "1", "2", "3", "8", "9"], "rt": [1925, 354, 318, 778, 4041], "actions": ["up", "up", "up", "left", "up"], "actionTimes": [3289, 4138, 4954, 6233, 10778], "queries": {"click": {"state": {"target": [], "time": []}, "edge": {"target": [], "time": []}}, "mouseover": {"state": {"target": ["0", "12"], "time": [1434, 1498]}, "edge": {"target": [], "time": []}}, "mouseout": {"state": {"target": ["12", "0", "12"], "time": [645, 1483, 1514]}, "edge": {"target": [], "time": []}}}, "displayed_time": "15.37", "trialTime": 17451, "trial_type": "mouselab-mdp", "trial_index": 35, "time_elapsed": 889238, "internal_node_id": "0.0-6.0-1.0-26.0"}}, {"uniqueid": "w64651093:a66068799", "current_trial": 36, "dateTime": 1693565787613, "trialdata": {"revealed_states": [], "clicked_states": [], "num_clicks_accrued": [0, 0, 0, 0, 0, 0, 0, 0, 0, 0, 0, 0, 0], "stateRewards": ["", -2, 2, 3, -7, 76, 63, 21, 15, 35, -8, -44, 1, 1, -2, -12, 23, 24, 76, -9, 46, 66, -49, -2, -1, 7, 12, 40, -71, -45, -6, 38, -49, 46], "withholdReward": false, "trial_id": "mdp_trial_28", "block": "test", "trialIndex": 29, "score": 10, "costs": 0, "simulationMode": [null, null, null, null, null], "rewards": [-2, 2, 3, 15, -8], "path": ["0", "0", "1", "2", "3", "8", "10"], "rt": [3703, 439, 480, 1097, 3336], "actions": ["up", "up", "up", "left", "down"], "actionTimes": [5350, 6292, 7268, 8868, 12709], "queries": {"click": {"state": {"target": [], "time": []}, "edge": {"target": [], "time": []}}, "mouseover": {"state": {"target": [], "time": []}, "edge": {"target": [], "time": []}}, "mouseout": {"state": {"target": ["12", "0"], "time": [1183, 1768]}, "edge": {"target": [], "time": []}}}, "displayed_time": "15.65", "trialTime": 17059, "trial_type": "mouselab-mdp", "trial_index": 36, "time_elapsed": 906579, "internal_node_id": "0.0-6.0-1.0-27.0"}}, {"uniqueid": "w64651093:a66068799", "current_trial": 37, "dateTime": 1693565805757, "trialdata": {"revealed_states": [], "clicked_states": [], "num_clicks_accrued": [0, 0, 0, 0, 0, 0, 0, 0, 0, 0, 0, 0, 0], "stateRewards": ["", -2, -2, -7, -13, -10, 49, -68, -1, 84, 70, 88, 1, 4, 4, 12, -57, 25, 30, 8, -1, -77, 57, 2, 3, 2, 3, -18, -80, 23, -15, -41, 70, 11], "withholdReward": false, "trial_id": "mdp_trial_29", "block": "test", "trialIndex": 30, "score": -70, "costs": 0, "simulationMode": [null, null, null, null, null], "rewards": [2, 3, 2, 3, -80], "path": ["0", "0", "23", "24", "25", "26", "28"], "rt": [1694, 280, 345, 1030, 3095], "actions": ["left", "left", "left", "up", "right"], "actionTimes": [3219, 3988, 4837, 6357, 9956], "queries": {"click": {"state": {"target": [], "time": []}, "edge": {"target": [], "time": []}}, "mouseover": {"state": {"target": ["0", "22"], "time": [1592, 1626]}, "edge": {"target": [], "time": []}}, "mouseout": {"state": {"target": ["0", "0", "22"], "time": [1106, 1606, 1639]}, "edge": {"target": [], "time": []}}}, "displayed_time": "15.53", "trialTime": 17860, "trial_type": "mouselab-mdp", "trial_index": 37, "time_elapsed": 924724, "internal_node_id": "0.0-6.0-1.0-28.0"}}, {"uniqueid": "w64651093:a66068799", "current_trial": 38, "dateTime": 1693565823117, "trialdata": {"revealed_states": [], "clicked_states": [], "num_clicks_accrued": [0, 0, 0, 0, 0, 0, 0, 0, 0, 0, 0, 0, 0], "stateRewards": ["", 2, -1, -4, -13, 74, 77, 3, 2, -43, -2, -11, 2, 3, 7, 11, -26, -29, -33, -3, -3, -13, -3, 1, 3, -7, 14, -59, 33, 9, -5, 34, 79, 68], "withholdReward": false, "trial_id": "mdp_trial_30", "block": "test", "trialIndex": 31, "score": 6, "costs": 0, "simulationMode": [null, null, null, null, null], "rewards": [2, 3, 7, -3, -3], "path": ["0", "0", "12", "13", "14", "19", "20"], "rt": [1483, 1887, 507, 2035, 2093], "actions": ["right", "right", "right", "down", "right"], "actionTimes": [2787, 5171, 6178, 8707, 11301], "queries": {"click": {"state": {"target": [], "time": []}, "edge": {"target": [], "time": []}}, "mouseover": {"state": {"target": ["0", "12"], "time": [1385, 1415]}, "edge": {"target": [], "time": []}}, "mouseout": {"state": {"target": ["13", "12", "0"], "time": [666, 816, 1399]}, "edge": {"target": [], "time": []}}}, "displayed_time": "15.31", "trialTime": 16978, "trial_type": "mouselab-mdp", "trial_index": 38, "time_elapsed": 942083, "internal_node_id": "0.0-6.0-1.0-29.0"}}, {"uniqueid": "w64651093:a66068799", "current_trial": 39, "dateTime": 1693565841507, "trialdata": {"revealed_states": [], "clicked_states": [], "num_clicks_accrued": [0, 0, 0, 0, 0, 0, 0, 0, 0, 0, 0, 0, 0], "stateRewards": ["", 1, -3, -4, -11, -56, 61, -47, -16, -28, -9, 69, -2, -3, -4, -8, 40, -86, 59, -4, 80, 27, 54, -1, 3, -1, 8, 67, 23, 50, 6, 83, -43, -29], "withholdReward": false, "trial_id": "mdp_trial_31", "block": "test", "trialIndex": 32, "score": 41, "costs": 0, "simulationMode": [null, null, null, null, null], "rewards": [-2, -3, -4, -4, 54], "path": ["0", "0", "12", "13", "14", "19", "22"], "rt": [3171, 454, 574, 516, 2953], "actions": ["right", "right", "right", "down", "left"], "actionTimes": [4463, 5420, 6492, 7501, 10958], "queries": {"click": {"state": {"target": [], "time": []}, "edge": {"target": [], "time": []}}, "mouseover": {"state": {"target": ["22"], "time": [1964]}, "edge": {"target": [], "time": []}}, "mouseout": {"state": {"target": ["12", "28", "0", "22"], "time": [211, 562, 1777, 16572]}, "edge": {"target": [], "time": []}}}, "displayed_time": "15.29", "trialTime": 18111, "trial_type": "mouselab-mdp", "trial_index": 39, "time_elapsed": 960473, "internal_node_id": "0.0-6.0-1.0-30.0"}}, {"uniqueid": "w64651093:a66068799", "current_trial": 40, "dateTime": 1693565860468, "trialdata": {"revealed_states": [], "clicked_states": [], "num_clicks_accrued": [0, 0, 0, 0, 0, 0, 0, 0, 0, 0, 0, 0, 0], "stateRewards": ["", -2, 2, -2, -7, -50, -62, -45, 7, 36, -24, -72, -1, -1, 8, -1, -67, 20, -52, 2, 35, -50, 80, -1, 1, 6, -6, -70, 6, 88, 8, -47, 74, -19], "withholdReward": false, "trial_id": "mdp_trial_32", "block": "test", "trialIndex": 33, "score": 43, "costs": 0, "simulationMode": [null, null, null, null, null], "rewards": [-1, -1, 8, 2, 35], "path": ["0", "0", "12", "13", "14", "19", "20"], "rt": [1262, 400, 474, 1379, 2807], "actions": ["right", "right", "right", "down", "right"], "actionTimes": [2653, 3549, 4524, 6397, 9709], "queries": {"click": {"state": {"target": [], "time": []}, "edge": {"target": [], "time": []}}, "mouseover": {"state": {"target": [], "time": []}, "edge": {"target": [], "time": []}}, "mouseout": {"state": {"target": ["0"], "time": [17047]}, "edge": {"target": [], "time": []}}}, "displayed_time": "15.39", "trialTime": 18686, "trial_type": "mouselab-mdp", "trial_index": 40, "time_elapsed": 979433, "internal_node_id": "0.0-6.0-1.0-31.0"}}, {"uniqueid": "w64651093:a66068799", "current_trial": 41, "dateTime": 1693565877790, "trialdata": {"revealed_states": [], "clicked_states": [], "num_clicks_accrued": [0, 0, 0, 0, 0, 0, 0, 0, 0, 0, 0, 0, 0], "stateRewards": ["", -1, 3, -4, -14, 78, 67, 2, 13, -32, 28, 39, -2, 1, -4, -4, -4, -42, -86, 11, 64, -29, -32, -1, -4, 2, -7, 5, 68, -61, 2, -21, 85, 50], "withholdReward": false, "trial_id": "mdp_trial_33", "block": "test", "trialIndex": 34, "score": -23, "costs": 0, "simulationMode": [null, null, null, null, null], "rewards": [-2, 1, -4, 11, -29], "path": ["0", "0", "12", "13", "14", "19", "21"], "rt": [1401, 712, 783, 1472, 2769], "actions": ["right", "right", "right", "down", "down"], "actionTimes": [2517, 3733, 5047, 7013, 10276], "queries": {"click": {"state": {"target": [], "time": []}, "edge": {"target": [], "time": []}}, "mouseover": {"state": {"target": ["12"], "time": [1235]}, "edge": {"target": [], "time": []}}, "mouseout": {"state": {"target": ["0", "0", "12", "22"], "time": [683, 1218, 1252, 16501]}, "edge": {"target": [], "time": []}}}, "displayed_time": "15.12", "trialTime": 16980, "trial_type": "mouselab-mdp", "trial_index": 41, "time_elapsed": 996757, "internal_node_id": "0.0-6.0-1.0-32.0"}}, {"uniqueid": "w64651093:a66068799", "current_trial": 42, "dateTime": 1693565894577, "trialdata": {"revealed_states": [], "clicked_states": [], "num_clicks_accrued": [0, 0, 0, 0, 0, 0, 0, 0, 0, 0, 0, 0, 0], "stateRewards": ["", -1, -3, -5, -14, -13, -47, 79, 8, -60, -64, 41, -1, 2, 3, 13, -46, 61, -79, -11, -64, -65, 23, 1, -2, 6, -14, 46, 32, 21, 7, 75, -66, 15], "withholdReward": false, "trial_id": "mdp_trial_34", "block": "test", "trialIndex": 35, "score": 37, "costs": 0, "simulationMode": [null, null, null, null, null], "rewards": [1, -2, 6, -14, 46], "path": ["0", "0", "23", "24", "25", "26", "27"], "rt": [1272, 645, 1398, 1208, 1762], "actions": ["left", "left", "left", "up", "up"], "actionTimes": [2135, 3286, 5189, 6901, 9157], "queries": {"click": {"state": {"target": [], "time": []}, "edge": {"target": [], "time": []}}, "mouseover": {"state": {"target": [], "time": []}, "edge": {"target": [], "time": []}}, "mouseout": {"state": {"target": [], "time": []}, "edge": {"target": [], "time": []}}}, "displayed_time": "14.86", "trialTime": 16471, "trial_type": "mouselab-mdp", "trial_index": 42, "time_elapsed": 1013544, "internal_node_id": "0.0-6.0-1.0-33.0"}}, {"uniqueid": "w64651093:a66068799", "current_trial": 43, "dateTime": 1693565911267, "trialdata": {"revealed_states": [], "clicked_states": [], "num_clicks_accrued": [0, 0, 0, 0, 0, 0, 0, 0, 0, 0, 0, 0, 0], "stateRewards": ["", 1, 2, 7, 13, 88, -71, 27, 3, 60, 5, -53, -2, 2, -6, -1, -30, 79, 47, -4, -14, 46, 68, 1, 1, 8, 10, -14, 86, 48, -11, -67, -44, 5], "withholdReward": false, "trial_id": "mdp_trial_35", "block": "test", "trialIndex": 36, "score": 68, "costs": 0, "simulationMode": [null, null, null, null, null], "rewards": [1, 1, 8, 10, 48], "path": ["0", "0", "23", "24", "25", "26", "29"], "rt": [1322, 861, 1028, 1539, 2660], "actions": ["left", "left", "left", "up", "left"], "actionTimes": [2372, 3731, 5251, 7299, 10452], "queries": {"click": {"state": {"target": [], "time": []}, "edge": {"target": [], "time": []}}, "mouseover": {"state": {"target": [], "time": []}, "edge": {"target": [], "time": []}}, "mouseout": {"state": {"target": [], "time": []}, "edge": {"target": [], "time": []}}}, "displayed_time": "15.05", "trialTime": 16403, "trial_type": "mouselab-mdp", "trial_index": 43, "time_elapsed": 1030234, "internal_node_id": "0.0-6.0-1.0-34.0"}}, {"uniqueid": "w64651093:a66068799", "current_trial": 44, "dateTime": 1693565928069, "trialdata": {"revealed_states": [], "clicked_states": [], "num_clicks_accrued": [0, 0, 0, 0, 0, 0, 0, 0, 0, 0, 0, 0, 0], "stateRewards": ["", 1, 1, 4, 11, 83, -66, 18, -16, -23, 5, 25, 1, -3, 1, -12, 18, 24, -86, -11, -64, 36, 40, 2, 1, -6, 13, 55, 29, 72, -2, 81, -72, -41], "withholdReward": false, "trial_id": "mdp_trial_36", "block": "test", "trialIndex": 37, "score": 39, "costs": 0, "simulationMode": [null, null, null, null, null], "rewards": [2, 1, -6, 13, 29], "path": ["0", "0", "23", "24", "25", "26", "28"], "rt": [1288, 1049, 843, 2066, 1546], "actions": ["left", "left", "left", "up", "right"], "actionTimes": [2197, 3749, 5094, 7653, 9701], "queries": {"click": {"state": {"target": [], "time": []}, "edge": {"target": [], "time": []}}, "mouseover": {"state": {"target": [], "time": []}, "edge": {"target": [], "time": []}}, "mouseout": {"state": {"target": [], "time": []}, "edge": {"target": [], "time": []}}}, "displayed_time": "14.91", "trialTime": 16518, "trial_type": "mouselab-mdp", "trial_index": 44, "time_elapsed": 1047035, "internal_node_id": "0.0-6.0-1.0-35.0"}}, {"uniqueid": "w64651093:a66068799", "current_trial": 45, "dateTime": 1693565945636, "trialdata": {"revealed_states": [], "clicked_states": [], "num_clicks_accrued": [0, 0, 0, 0, 0, 0, 0, 0, 0, 0, 0, 0, 0], "stateRewards": ["", -2, -1, -6, -14, -55, 78, -13, 11, 14, -71, 59, 2, 2, 6, -6, 9, 38, 14, 7, 85, 11, 68, 1, -4, -1, -3, -63, -85, 9, -2, 63, -86, -10], "withholdReward": false, "trial_id": "mdp_trial_37", "block": "test", "trialIndex": 38, "score": 61, "costs": 0, "simulationMode": [null, null, null, null, null], "rewards": [-2, -1, -6, 11, 59], "path": ["0", "0", "1", "2", "3", "8", "11"], "rt": [1402, 658, 761, 1669, 1916], "actions": ["up", "up", "up", "left", "left"], "actionTimes": [2504, 3665, 4929, 7089, 9504], "queries": {"click": {"state": {"target": [], "time": []}, "edge": {"target": [], "time": []}}, "mouseover": {"state": {"target": [], "time": []}, "edge": {"target": [], "time": []}}, "mouseout": {"state": {"target": [], "time": []}, "edge": {"target": [], "time": []}}}, "displayed_time": "15.11", "trialTime": 17186, "trial_type": "mouselab-mdp", "trial_index": 45, "time_elapsed": 1064602, "internal_node_id": "0.0-6.0-1.0-36.0"}}, {"uniqueid": "w64651093:a66068799", "current_trial": 46, "dateTime": 1693565963221, "trialdata": {"revealed_states": [], "clicked_states": [], "num_clicks_accrued": [0, 0, 0, 0, 0, 0, 0, 0, 0, 0, 0, 0, 0], "stateRewards": ["", 1, 3, -2, 15, 51, 15, -19, 11, 67, -45, -73, 2, 4, -2, -13, 36, 9, -28, 10, -30, 31, 16, 1, 2, -1, -16, 14, -22, 36, -1, 88, -5, 45], "withholdReward": false, "trial_id": "mdp_trial_38", "block": "test", "trialIndex": 39, "score": 80, "costs": 0, "simulationMode": [null, null, null, null, null], "rewards": [1, 3, -2, 11, 67], "path": ["0", "0", "1", "2", "3", "8", "9"], "rt": [2047, 897, 1142, 1044, 2278], "actions": ["up", "up", "up", "left", "up"], "actionTimes": [3571, 4977, 6625, 8161, 10931], "queries": {"click": {"state": {"target": [], "time": []}, "edge": {"target": [], "time": []}}, "mouseover": {"state": {"target": [], "time": []}, "edge": {"target": [], "time": []}}, "mouseout": {"state": {"target": [], "time": []}, "edge": {"target": [], "time": []}}}, "displayed_time": "15.53", "trialTime": 17297, "trial_type": "mouselab-mdp", "trial_index": 46, "time_elapsed": 1082186, "internal_node_id": "0.0-6.0-1.0-37.0"}}, {"uniqueid": "w64651093:a66068799", "current_trial": 47, "dateTime": 1693565980789, "trialdata": {"revealed_states": [], "clicked_states": [], "num_clicks_accrued": [0, 0, 0, 0, 0, 0, 0, 0, 0, 0, 0, 0, 0], "stateRewards": ["", 1, 1, 1, 15, -76, 52, -32, 14, -57, 37, 49, 1, -4, -3, 6, 83, -76, 25, 9, 36, -1, -17, -1, 4, 4, -2, -22, -21, 58, -15, -57, 49, -24], "withholdReward": false, "trial_id": "mdp_trial_39", "block": "test", "trialIndex": 40, "score": 54, "costs": 0, "simulationMode": [null, null, null, null, null], "rewards": [1, 1, 1, 14, 37], "path": ["0", "0", "1", "2", "3", "8", "10"], "rt": [1697, 1448, 1207, 1615, 2074], "actions": ["up", "up", "up", "left", "down"], "actionTimes": [3030, 4983, 6694, 8804, 11381], "queries": {"click": {"state": {"target": [], "time": []}, "edge": {"target": [], "time": []}}, "mouseover": {"state": {"target": [], "time": []}, "edge": {"target": [], "time": []}}, "mouseout": {"state": {"target": [], "time": []}, "edge": {"target": [], "time": []}}}, "displayed_time": "15.33", "trialTime": 17270, "trial_type": "mouselab-mdp", "trial_index": 47, "time_elapsed": 1099755, "internal_node_id": "0.0-6.0-1.0-38.0"}}, {"uniqueid": "w64651093:a66068799", "current_trial": 48, "dateTime": 1693565997589, "trialdata": {"revealed_states": [], "clicked_states": [], "num_clicks_accrued": [0, 0, 0, 0, 0, 0, 0, 0, 0, 0, 0, 0, 0], "stateRewards": ["", 2, -3, -4, -1, 25, -16, 16, 10, -71, -20, -55, 1, 3, -4, -9, 1, 32, 11, -6, 32, -50, -41, -1, 4, 4, -8, 7, -81, 70, 2, -52, 45, -10], "withholdReward": false, "trial_id": "mdp_trial_40", "block": "test", "trialIndex": 41, "score": -22, "costs": 0, "simulationMode": [null, null, null, null, null], "rewards": [2, -3, -4, -1, -16], "path": ["0", "0", "1", "2", "3", "4", "6"], "rt": [1348, 578, 663, 856, 2880], "actions": ["up", "up", "up", "right", "right"], "actionTimes": [2337, 3408, 4562, 5922, 9297], "queries": {"click": {"state": {"target": [], "time": []}, "edge": {"target": [], "time": []}}, "mouseover": {"state": {"target": [], "time": []}, "edge": {"target": [], "time": []}}, "mouseout": {"state": {"target": [], "time": []}, "edge": {"target": [], "time": []}}}, "displayed_time": "14.99", "trialTime": 16498, "trial_type": "mouselab-mdp", "trial_index": 48, "time_elapsed": 1116555, "internal_node_id": "0.0-6.0-1.0-39.0"}}, {"uniqueid": "w64651093:a66068799", "current_trial": 49, "dateTime": 1693566063299, "trialdata": {"rt": 65703, "response": {"Q0": "$-2 to $2", "Q1": "$-4 to $4", "Q2": "$-16 to $16", "Q3": "The cost for clicking on nodes varied between nodes.", "Q4": "Very motivated"}, "question_order": [0, 1, 2, 3, 4], "trial_id": "final_quiz_control", "trial_type": "survey-multi-choice", "trial_index": 49, "time_elapsed": 1182266, "internal_node_id": "0.0-6.0-2.0"}}, {"uniqueid": "w64651093:a66068799", "current_trial": 50, "dateTime": 1693566346292, "trialdata": {"rt": 282961, "response": {"Q0": "Initially I just took random routes without clicking on nodes before moving. I went in opposite directions every time.", "Q1": "After 5 rounds or so, I tried clicking on nodes before moving but I didn't have any luck with that so I stopped. I tried doing one section at a time and that seemed to work better for me. I tried taking as long as possible to move because I thought I was doing better the longer I took to move but that may just have been a coincidence.", "Q2": "I found it very difficult to improve because I couldn't figure out the pattern or the best strategy to use."}, "trial_id": "self_report_control", "trial_type": "survey-text", "trial_index": 50, "time_elapsed": 1465259, "internal_node_id": "0.0-6.0-3.0"}}, {"uniqueid": "w64651093:a66068799", "current_trial": 51, "dateTime": 1693566397541, "trialdata": {"rt": 51244, "response": {"Q0": "Disagree", "Q1": "Disagree", "Q2": "Agree", "Q3": "Agree", "Q4": "Neither disagree nor agree", "Q5": "Strongly agree", "Q6": "Strongly disagree"}, "question_order": [0, 1, 2, 3, 4, 5, 6], "trial_id": "self_report_2", "trial_type": "survey-multi-choice", "trial_index": 51, "time_elapsed": 1516508, "internal_node_id": "0.0-6.0-4.0"}}, {"uniqueid": "w64651093:a66068799", "current_trial": 52, "dateTime": 1693566420965, "trialdata": {"rt": 23418, "response": {"gender": "female", "age": "54", "colorblind": "0", "effort": "0"}, "trial_type": "survey-html-form", "trial_index": 52, "time_elapsed": 1539931, "internal_node_id": "0.0-6.0-5.0"}}, {"uniqueid": "w64651093:a66068799", "current_trial": 53, "dateTime": 1693566578996, "trialdata": {"rt": 158025, "response": {"Q0": "Not really - I took a few rounds to work out how to use the nodes but it was not a difficult game to play. ", "Q1": "No - I have never played this game before.", "Q2": "I enjoyed the game and became quite invested in it but I am not very competitive so I wasn't that upset when I lost money."}, "trial_type": "survey-text", "trial_index": 53, "time_elapsed": 1697963, "internal_node_id": "0.0-6.0-6.0"}}, {"uniqueid": "w64651093:a66068799", "current_trial": 54, "dateTime": 1693566611589, "trialdata": {"rt": 32589, "stimulus": "<h1>Completion Code Instructions (1/2)</h1>\n<br><br><br><br>\nYou have reached the end of the experiment! The completion code consists of two parts: (1) a code with 2 characters (2) a code with 6 characters. On this page, you will receive the second part of the code. The first part of the completion code will be on the next page.\n<br><br>\nThe second part of your completion code is: <b>EWEK22</b>\n<br><br>\nPlease note this down. Then, press 'Finish HIT' in order to find the first part of your completion code. Once the data has been saved, you will receive this code either in this window or in the original browser window where you started the experiment.\n", "response": 0, "trial_type": "html-button-response", "trial_index": 54, "time_elapsed": 1730556, "internal_node_id": "0.0-6.0-7.0"}}, {"uniqueid": "w64651093:a66068799", "current_trial": 55, "dateTime": 1693566612607, "trialdata": {"success": true, "trial_type": "fullscreen", "trial_index": 55, "time_elapsed": 1731574, "internal_node_id": "0.0-7.0"}}], "questiondata": {"params": {"CODE": "C6DMOQA6", "MIN_TIME": 14, "inspectCost": 1, "startTime": "Fri Sep 01 2023 12:41:18 GMT+0200 (South Africa Standard Time)", "bonusRate": 0.002, "variance": "1_2_4_8_44", "branching": "31123"}, "final_score": 515.65}, "eventdata": [{"eventtype": "initialized", "value": null, "timestamp": 1693564877440, "interval": 0}, {"eventtype": "window_resize", "value": [1024, 767], "timestamp": 1693564877440, "interval": 0}, {"eventtype": "window_resize", "value": [1024, 767], "timestamp": 1693564877930, "interval": 490}, {"eventtype": "window_resize", "value": [1920, 1080], "timestamp": 1693564886662, "interval": 8732}, {"eventtype": "window_resize", "value": [1024, 767], "timestamp": 1693566611991, "interval": 1725329}], "useragent": "Mozilla/5.0 (Windows NT 10.0; Win64; x64) AppleWebKit/537.36 (KHTML, like Gecko) Chrome/116.0.0.0 Safari/537.36", "mode": "live", "id": "w64651093:a66068799", "status": "user data saved", "Beginhit": "2023-09-01 10:41:12.521873", "Beginexp": "2023-09-01 10:41:27.617309", "Endhit": "2023-09-01 11:10:14.592459", "psiturkStatus": 3, "browser": "<redacted>", "platform": "windows", "language": "en-ZA"}