{"condition": 1, "counterbalance": 0, "assignmentId": "a67802358", "workerId": "w33055757", "hitId": "h47188462", "currenttrial": 62, "bonus": 0, "data": [{"uniqueid": "w33055757:a67802358", "current_trial": 0, "dateTime": 1693564645992, "trialdata": {"success": true, "trial_type": "fullscreen", "trial_index": 0, "time_elapsed": 6566, "internal_node_id": "0.0-0.0"}}, {"uniqueid": "w33055757:a67802358", "current_trial": 1, "dateTime": 1693564671910, "trialdata": {"view_history": [{"page_index": 0, "viewing_time": 25913}], "rt": 25913, "trial_id": "exp_instructions_misaligned", "trial_type": "instructions", "trial_index": 1, "time_elapsed": 32485, "internal_node_id": "0.0-1.0"}}, {"uniqueid": "w33055757:a67802358", "current_trial": 2, "dateTime": 1693564937411, "trialdata": {"view_history": [{"page_index": 0, "viewing_time": 71197}, {"page_index": 1, "viewing_time": 82661}, {"page_index": 2, "viewing_time": 47894}, {"page_index": 3, "viewing_time": 63746}], "rt": 265498, "trial_id": "mouselab_instructions_1_misaligned", "trial_type": "instructions", "trial_index": 2, "time_elapsed": 297985, "internal_node_id": "0.0-2.0-1.0"}}, {"uniqueid": "w33055757:a67802358", "current_trial": 3, "dateTime": 1693564975120, "trialdata": {"revealed_states": [], "clicked_states": ["12"], "num_clicks_accrued": [0, 0, 0, 0, 0, 0, 0, 0, 0, 0, 0, 0, 0], "stateRewards": ["", 10, -10, 10, 10, 10, -10, -10, -10, 10, 10, 10, -10, 10, -10, -10, 10, 10, -10, 10, 10, -10, -10, -10, 10, 10, -10, -10, 10, -10, -10, 10, 10, 10], "withholdReward": false, "trial_id": "practice_1", "block": "test", "trialIndex": 0, "score": -7, "costs": -0.5, "simulationMode": [null, null, null, null, null], "rewards": [-10, 10, -10, -10, 10], "path": ["0", "0", "12", "13", "14", "15", "16"], "rt": [22266, 2596, 1692, 444, 98], "actions": ["right", "right", "right", "up", "up"], "actionTimes": [24609, 27701, 29909, 30861, 31477], "queries": {"click": {"state": {"target": ["12"], "time": [5612]}, "edge": {"target": [], "time": []}}, "mouseover": {"state": {"target": ["12", "12", "12"], "time": [5038, 12848, 19774]}, "edge": {"target": [], "time": []}}, "mouseout": {"state": {"target": ["0", "0", "12", "12"], "time": [1691, 4920, 5826, 12964]}, "edge": {"target": [], "time": []}}}, "displayed_time": "32.00", "trialTime": 36589, "trial_type": "mouselab-mdp", "trial_index": 3, "time_elapsed": 335694, "internal_node_id": "0.0-2.0-2.0-0.0"}}, {"uniqueid": "w33055757:a67802358", "current_trial": 4, "dateTime": 1693564985540, "trialdata": {"revealed_states": [], "clicked_states": [], "num_clicks_accrued": [0, 0, 0, 0, 0, 0, 0, 0, 0, 0, 0, 0, 0], "stateRewards": ["", -10, 10, 10, -10, -10, -10, -10, -10, 10, 10, 10, -10, 10, -10, 10, 10, -10, -10, 10, -10, -10, -10, 10, -10, -10, 10, -10, 10, -10, -10, -10, -10, -10], "withholdReward": false, "trial_id": "practice_2", "block": "test", "trialIndex": 1, "score": 13.5, "costs": 0, "simulationMode": [null, null, null, null, null], "rewards": [-10, 10, 10, -10, 10], "path": ["0", "0", "1", "2", "3", "8", "9"], "rt": [953, 444, 219, 723, 344], "actions": ["up", "up", "up", "left", "up"], "actionTimes": [3201, 4165, 4888, 6127, 6980], "queries": {"click": {"state": {"target": [], "time": []}, "edge": {"target": [], "time": []}}, "mouseover": {"state": {"target": [], "time": []}, "edge": {"target": [], "time": []}}, "mouseout": {"state": {"target": ["12", "0"], "time": [1638, 1821]}, "edge": {"target": [], "time": []}}}, "displayed_time": "7.50", "trialTime": 10291, "trial_type": "mouselab-mdp", "trial_index": 4, "time_elapsed": 346114, "internal_node_id": "0.0-2.0-2.0-1.0"}}, {"uniqueid": "w33055757:a67802358", "current_trial": 5, "dateTime": 1693565036959, "trialdata": {"view_history": [{"page_index": 0, "viewing_time": 31285}, {"page_index": 1, "viewing_time": 20132}], "rt": 51417, "trial_id": "mouselab_instructions_2_misaligned", "trial_type": "instructions", "trial_index": 5, "time_elapsed": 397534, "internal_node_id": "0.0-2.0-3.0"}}, {"uniqueid": "w33055757:a67802358", "current_trial": 6, "dateTime": 1693565089834, "trialdata": {"rt": 52869, "response": {"Q0": "The cost for clicking on nodes may vary between nodes.", "Q1": "The better I perform the higher my bonus will be.", "Q2": "No, the amount of cash at each node of the web may be different each time.", "Q3": "To click on the least number of nodes.", "Q4": "Only before moving the spider.", "Q5": "3 seconds"}, "question_order": [0, 1, 2, 3, 4, 5], "correct": {"Q0": "The cost for clicking on nodes may vary between nodes.", "Q1": "The better I perform the higher my bonus will be.", "Q2": "No, the amount of cash at each node of the web may be different each time.", "Q3": "To get the highest total score.", "Q4": "Only before moving the spider.", "Q5": "3 seconds"}, "trial_id": "mouselab_quiz_misaligned", "trial_type": "survey-multi-choice", "trial_index": 6, "time_elapsed": 450409, "internal_node_id": "0.0-2.0-4.0"}}, {"uniqueid": "w33055757:a67802358", "current_trial": 7, "dateTime": 1693565100940, "trialdata": {"success": true, "trial_type": "fullscreen", "trial_index": 7, "time_elapsed": 461515, "internal_node_id": "0.0-2.1-0.1-0.1"}}, {"uniqueid": "w33055757:a67802358", "current_trial": 8, "dateTime": 1693565156354, "trialdata": {"view_history": [{"page_index": 0, "viewing_time": 12939}, {"page_index": 1, "viewing_time": 13122}, {"page_index": 2, "viewing_time": 11654}, {"page_index": 3, "viewing_time": 17697}], "rt": 55413, "trial_id": "mouselab_instructions_1_misaligned", "trial_type": "instructions", "trial_index": 8, "time_elapsed": 516929, "internal_node_id": "0.0-2.1-1.1"}}, {"uniqueid": "w33055757:a67802358", "current_trial": 9, "dateTime": 1693565167335, "trialdata": {"revealed_states": [], "clicked_states": [], "num_clicks_accrued": [0, 0, 0, 0, 0, 0, 0, 0, 0, 0, 0, 0, 0], "stateRewards": ["", 10, -10, 10, 10, 10, -10, -10, -10, 10, 10, 10, -10, 10, -10, -10, 10, 10, -10, 10, 10, -10, -10, -10, 10, 10, -10, -10, 10, -10, -10, 10, 10, 10], "withholdReward": false, "trial_id": "practice_1", "block": "test", "trialIndex": 2, "score": -6.5, "costs": 0, "simulationMode": [null, null, null, null, null], "rewards": [-10, 10, -10, 10, -10], "path": ["0", "0", "12", "13", "14", "19", "21"], "rt": [1057, 362, 56, 539, 830], "actions": ["right", "right", "right", "down", "down"], "actionTimes": [3772, 4645, 5220, 6272, 7611], "queries": {"click": {"state": {"target": [], "time": []}, "edge": {"target": [], "time": []}}, "mouseover": {"state": {"target": [], "time": []}, "edge": {"target": [], "time": []}}, "mouseout": {"state": {"target": ["0"], "time": [2334]}, "edge": {"target": [], "time": []}}}, "displayed_time": "8.13", "trialTime": 10821, "trial_type": "mouselab-mdp", "trial_index": 9, "time_elapsed": 527910, "internal_node_id": "0.0-2.1-2.1-0.1"}}, {"uniqueid": "w33055757:a67802358", "current_trial": 10, "dateTime": 1693565178286, "trialdata": {"revealed_states": [], "clicked_states": [], "num_clicks_accrued": [0, 0, 0, 0, 0, 0, 0, 0, 0, 0, 0, 0, 0], "stateRewards": ["", -10, 10, 10, -10, -10, -10, -10, -10, 10, 10, 10, -10, 10, -10, 10, 10, -10, -10, 10, -10, -10, -10, 10, -10, -10, 10, -10, 10, -10, -10, -10, -10, -10], "withholdReward": false, "trial_id": "practice_2", "block": "test", "trialIndex": 3, "score": 13.5, "costs": 0, "simulationMode": [null, null, null, null, null], "rewards": [-10, 10, 10, -10, 10], "path": ["0", "0", "1", "2", "3", "8", "11"], "rt": [937, 347, 74, 370, 198], "actions": ["up", "up", "up", "left", "left"], "actionTimes": [4169, 5023, 5617, 6496, 7206], "queries": {"click": {"state": {"target": [], "time": []}, "edge": {"target": [], "time": []}}, "mouseover": {"state": {"target": [], "time": []}, "edge": {"target": [], "time": []}}, "mouseout": {"state": {"target": ["0"], "time": [3143]}, "edge": {"target": [], "time": []}}}, "displayed_time": "7.72", "trialTime": 10825, "trial_type": "mouselab-mdp", "trial_index": 10, "time_elapsed": 538860, "internal_node_id": "0.0-2.1-2.1-1.1"}}, {"uniqueid": "w33055757:a67802358", "current_trial": 11, "dateTime": 1693565200067, "trialdata": {"view_history": [{"page_index": 0, "viewing_time": 19794}, {"page_index": 1, "viewing_time": 1984}], "rt": 21778, "trial_id": "mouselab_instructions_2_misaligned", "trial_type": "instructions", "trial_index": 11, "time_elapsed": 560642, "internal_node_id": "0.0-2.1-3.1"}}, {"uniqueid": "w33055757:a67802358", "current_trial": 12, "dateTime": 1693565228204, "trialdata": {"rt": 28134, "response": {"Q0": "The cost for clicking on nodes may vary between nodes.", "Q1": "The better I perform the higher my bonus will be.", "Q2": "No, the amount of cash at each node of the web may be different each time.", "Q3": "To get the highest total score.", "Q4": "Only before moving the spider.", "Q5": "3 seconds"}, "question_order": [0, 1, 2, 3, 4, 5], "correct": {"Q0": "The cost for clicking on nodes may vary between nodes.", "Q1": "The better I perform the higher my bonus will be.", "Q2": "No, the amount of cash at each node of the web may be different each time.", "Q3": "To get the highest total score.", "Q4": "Only before moving the spider.", "Q5": "3 seconds"}, "trial_id": "mouselab_quiz_misaligned", "trial_type": "survey-multi-choice", "trial_index": 12, "time_elapsed": 588779, "internal_node_id": "0.0-2.1-4.1"}}, {"uniqueid": "w33055757:a67802358", "current_trial": 13, "dateTime": 1693565237993, "trialdata": {"rt": 9783, "response": {"Q0": "No"}, "question_order": [0], "trial_id": "repeat_check", "trial_type": "survey-multi-choice", "trial_index": 13, "time_elapsed": 598568, "internal_node_id": "0.0-4.0-0.0"}}, {"uniqueid": "w33055757:a67802358", "current_trial": 14, "dateTime": 1693565246151, "trialdata": {"rt": 8152, "stimulus": "\n<h1> Get ready to start the game! </h1>\n\nThank you for reading the instructions. Get ready start with the 40 rounds of this game.\n<br><br>\nIf you need to take a break, feel free to take one after the end of a round, before continuing to the next one.\n<br><br>\nRemember, the more money the spider gets, the bigger your bonus will be!\n<br><br>\n<div style='text-align: center;'>Press <code>space</code> to begin.</div>\n\n<br><br>\n(If, at any point, the <code>space</code> key does not take you to the next page, click once on the text and try again.)", "response": " ", "trial_id": "mdp_ready", "trial_type": "html-keyboard-response", "trial_index": 14, "time_elapsed": 606726, "internal_node_id": "0.0-6.0-0.0"}}, {"uniqueid": "w33055757:a67802358", "current_trial": 15, "dateTime": 1693565265923, "trialdata": {"revealed_states": [], "clicked_states": [], "num_clicks_accrued": [0, 0, 0, 0, 0, 0, 0, 0, 0, 0, 0, 0, 0], "stateRewards": ["", -1, -3, -7, -7, -76, 30, -49, 11, -70, 56, 2, 1, 4, -3, -14, -59, -83, -25, -9, -21, -67, -73, -2, 4, 4, -9, -11, -32, 60, 9, -87, 22, -64], "withholdReward": false, "trial_id": "mdp_trial_1", "block": "test", "trialIndex": 4, "score": -94, "costs": 0, "simulationMode": [null, null, null, null, null], "rewards": [-1, -3, -7, -7, -76], "path": ["0", "0", "1", "2", "3", "4", "5"], "rt": [1534, 216, 45, 52, 61], "actions": ["up", "up", "up", "right", "up"], "actionTimes": [3672, 4399, 4959, 5533, 6108], "queries": {"click": {"state": {"target": [], "time": []}, "edge": {"target": [], "time": []}}, "mouseover": {"state": {"target": [], "time": []}, "edge": {"target": [], "time": []}}, "mouseout": {"state": {"target": ["0", "1"], "time": [983, 1266]}, "edge": {"target": [], "time": []}}}, "displayed_time": "16.14", "trialTime": 19638, "trial_type": "mouselab-mdp", "trial_index": 15, "time_elapsed": 626497, "internal_node_id": "0.0-6.0-1.0-0.0"}}, {"uniqueid": "w33055757:a67802358", "current_trial": 16, "dateTime": 1693565283650, "trialdata": {"revealed_states": [], "clicked_states": [], "num_clicks_accrued": [0, 0, 0, 0, 0, 0, 0, 0, 0, 0, 0, 0, 0], "stateRewards": ["", -1, 2, -6, 6, -82, -19, -39, -16, -83, 11, -33, -2, -2, 4, -6, -82, -1, -19, -6, -10, -67, -41, -2, 1, -7, 16, -23, -78, -52, 14, 31, -71, 74], "withholdReward": false, "trial_id": "mdp_trial_2", "block": "test", "trialIndex": 5, "score": -15, "costs": 0, "simulationMode": [null, null, null, null, null], "rewards": [-2, 1, -7, 16, -23], "path": ["0", "0", "23", "24", "25", "26", "27"], "rt": [785, 456, 284, 493, 65], "actions": ["left", "left", "left", "up", "up"], "actionTimes": [2525, 3494, 4287, 5295, 5866], "queries": {"click": {"state": {"target": [], "time": []}, "edge": {"target": [], "time": []}}, "mouseover": {"state": {"target": [], "time": []}, "edge": {"target": [], "time": []}}, "mouseout": {"state": {"target": ["0"], "time": [1640]}, "edge": {"target": [], "time": []}}}, "displayed_time": "15.74", "trialTime": 17588, "trial_type": "mouselab-mdp", "trial_index": 16, "time_elapsed": 644224, "internal_node_id": "0.0-6.0-1.0-1.0"}}, {"uniqueid": "w33055757:a67802358", "current_trial": 17, "dateTime": 1693565300304, "trialdata": {"revealed_states": [], "clicked_states": [], "num_clicks_accrued": [0, 0, 0, 0, 0, 0, 0, 0, 0, 0, 0, 0, 0], "stateRewards": ["", -1, 1, -5, -6, -78, 47, -13, 12, 48, -88, 20, 2, -3, -2, 13, -20, 37, -57, 14, -38, 30, 31, -2, -2, 8, 2, -23, 78, 28, 12, -74, -88, 8], "withholdReward": false, "trial_id": "mdp_trial_3", "block": "test", "trialIndex": 6, "score": -10, "costs": 0, "simulationMode": [null, null, null, null, null], "rewards": [2, -3, -2, 13, -20], "path": ["0", "0", "12", "13", "14", "15", "16"], "rt": [1120, 286, 136, 169, 125], "actions": ["right", "right", "right", "up", "up"], "actionTimes": [2041, 2841, 3490, 4174, 4812], "queries": {"click": {"state": {"target": [], "time": []}, "edge": {"target": [], "time": []}}, "mouseover": {"state": {"target": [], "time": []}, "edge": {"target": [], "time": []}}, "mouseout": {"state": {"target": ["0"], "time": [826]}, "edge": {"target": [], "time": []}}}, "displayed_time": "14.92", "trialTime": 16511, "trial_type": "mouselab-mdp", "trial_index": 17, "time_elapsed": 660879, "internal_node_id": "0.0-6.0-1.0-2.0"}}, {"uniqueid": "w33055757:a67802358", "current_trial": 18, "dateTime": 1693565317713, "trialdata": {"revealed_states": [], "clicked_states": [], "num_clicks_accrued": [0, 0, 0, 0, 0, 0, 0, 0, 0, 0, 0, 0, 0], "stateRewards": ["", 1, -1, 1, -14, -10, 67, -28, -11, 72, 40, -65, -1, 1, 1, -2, 8, -55, 34, -10, 61, 33, -15, 2, -4, 7, 4, -75, 63, -21, -16, 61, 19, 21], "withholdReward": false, "trial_id": "mdp_trial_4", "block": "test", "trialIndex": 7, "score": -75, "costs": 0, "simulationMode": [null, null, null, null, null], "rewards": [1, -1, 1, -11, -65], "path": ["0", "0", "1", "2", "3", "8", "11"], "rt": [753, 242, 142, 515, 133], "actions": ["up", "up", "up", "left", "left"], "actionTimes": [2883, 3642, 4291, 5315, 5964], "queries": {"click": {"state": {"target": [], "time": []}, "edge": {"target": [], "time": []}}, "mouseover": {"state": {"target": [], "time": []}, "edge": {"target": [], "time": []}}, "mouseout": {"state": {"target": ["0"], "time": [1659]}, "edge": {"target": [], "time": []}}}, "displayed_time": "16.13", "trialTime": 17263, "trial_type": "mouselab-mdp", "trial_index": 18, "time_elapsed": 678287, "internal_node_id": "0.0-6.0-1.0-3.0"}}, {"uniqueid": "w33055757:a67802358", "current_trial": 19, "dateTime": 1693565335978, "trialdata": {"revealed_states": [], "clicked_states": [], "num_clicks_accrued": [0, 0, 0, 0, 0, 0, 0, 0, 0, 0, 0, 0, 0], "stateRewards": ["", 1, 1, -3, 7, 49, 78, 26, -5, 26, 48, -43, -1, -3, 2, -5, 4, -1, -60, 10, -35, 51, 81, -2, 1, -7, -5, -39, -86, -54, 4, -3, 74, 77], "withholdReward": false, "trial_id": "mdp_trial_5", "block": "test", "trialIndex": 8, "score": -67, "costs": 0, "simulationMode": [null, null, null, null, null], "rewards": [-2, 1, -7, -5, -54], "path": ["0", "0", "23", "24", "25", "26", "29"], "rt": [2342, 305, 98, 182, 559], "actions": ["left", "left", "left", "up", "left"], "actionTimes": [5527, 6345, 6953, 7653, 8730], "queries": {"click": {"state": {"target": [], "time": []}, "edge": {"target": [], "time": []}}, "mouseover": {"state": {"target": [], "time": []}, "edge": {"target": [], "time": []}}, "mouseout": {"state": {"target": [], "time": []}, "edge": {"target": [], "time": []}}}, "displayed_time": "17.19", "trialTime": 18120, "trial_type": "mouselab-mdp", "trial_index": 19, "time_elapsed": 696552, "internal_node_id": "0.0-6.0-1.0-4.0"}}, {"uniqueid": "w33055757:a67802358", "current_trial": 20, "dateTime": 1693565352462, "trialdata": {"revealed_states": [], "clicked_states": [], "num_clicks_accrued": [0, 0, 0, 0, 0, 0, 0, 0, 0, 0, 0, 0, 0], "stateRewards": ["", -2, -3, 1, -7, 39, -67, 16, 5, -20, 73, 66, -1, 4, 5, -3, 23, -68, -87, -8, 3, -3, 17, 1, -4, -2, -13, -32, 34, 61, -5, -11, -18, 12], "withholdReward": false, "trial_id": "mdp_trial_6", "block": "test", "trialIndex": 9, "score": 16, "costs": 0, "simulationMode": [null, null, null, null, null], "rewards": [1, -4, -2, -13, 34], "path": ["0", "0", "23", "24", "25", "26", "28"], "rt": [1519, 633, 223, 260, 83], "actions": ["left", "left", "left", "up", "right"], "actionTimes": [2493, 3641, 4379, 5148, 5737], "queries": {"click": {"state": {"target": [], "time": []}, "edge": {"target": [], "time": []}}, "mouseover": {"state": {"target": [], "time": []}, "edge": {"target": [], "time": []}}, "mouseout": {"state": {"target": [], "time": []}, "edge": {"target": [], "time": []}}}, "displayed_time": "14.98", "trialTime": 16336, "trial_type": "mouselab-mdp", "trial_index": 20, "time_elapsed": 713037, "internal_node_id": "0.0-6.0-1.0-5.0"}}, {"uniqueid": "w33055757:a67802358", "current_trial": 21, "dateTime": 1693565370308, "trialdata": {"revealed_states": [], "clicked_states": [], "num_clicks_accrued": [0, 0, 0, 0, 0, 0, 0, 0, 0, 0, 0, 0, 0], "stateRewards": ["", -1, -3, 4, -10, -5, 79, -87, -2, 53, 29, -20, -2, -1, -5, 10, 27, 86, 46, -16, -29, 40, 3, 2, 4, -1, -6, 37, 79, -29, 7, 86, -62, 29], "withholdReward": false, "trial_id": "mdp_trial_7", "block": "test", "trialIndex": 10, "score": -97, "costs": 0, "simulationMode": [null, null, null, null, null], "rewards": [-1, -3, 4, -10, -87], "path": ["0", "0", "1", "2", "3", "4", "7"], "rt": [2092, 2, 123, 13, 55], "actions": ["up", "up", "up", "right", "down"], "actionTimes": [4642, 5152, 5805, 6328, 6903], "queries": {"click": {"state": {"target": [], "time": []}, "edge": {"target": [], "time": []}}, "mouseover": {"state": {"target": [], "time": []}, "edge": {"target": [], "time": []}}, "mouseout": {"state": {"target": [], "time": []}, "edge": {"target": [], "time": []}}}, "displayed_time": "16.55", "trialTime": 17691, "trial_type": "mouselab-mdp", "trial_index": 21, "time_elapsed": 730882, "internal_node_id": "0.0-6.0-1.0-6.0"}}, {"uniqueid": "w33055757:a67802358", "current_trial": 22, "dateTime": 1693565387274, "trialdata": {"revealed_states": [], "clicked_states": [], "num_clicks_accrued": [0, 0, 0, 0, 0, 0, 0, 0, 0, 0, 0, 0, 0], "stateRewards": ["", 1, -1, 8, 4, 76, -33, -17, -3, -1, -54, -74, -2, 2, -5, 13, -51, 63, 83, 1, 84, 29, -36, 2, -1, 7, -12, -10, -44, -43, -14, 8, -69, 19], "withholdReward": false, "trial_id": "mdp_trial_8", "block": "test", "trialIndex": 11, "score": -40, "costs": 0, "simulationMode": [null, null, null, null, null], "rewards": [-2, 2, -5, 1, -36], "path": ["0", "0", "12", "13", "14", "19", "22"], "rt": [731, 97, 200, 238, 123], "actions": ["right", "right", "right", "down", "left"], "actionTimes": [2134, 2747, 3466, 4219, 4854], "queries": {"click": {"state": {"target": [], "time": []}, "edge": {"target": [], "time": []}}, "mouseover": {"state": {"target": [], "time": []}, "edge": {"target": [], "time": []}}, "mouseout": {"state": {"target": [], "time": []}, "edge": {"target": [], "time": []}}}, "displayed_time": "15.40", "trialTime": 16804, "trial_type": "mouselab-mdp", "trial_index": 22, "time_elapsed": 747848, "internal_node_id": "0.0-6.0-1.0-7.0"}}, {"uniqueid": "w33055757:a67802358", "current_trial": 23, "dateTime": 1693565409353, "trialdata": {"revealed_states": [], "clicked_states": ["27", "32"], "num_clicks_accrued": [0, 0, 0, 0, 0, 0, 0, 0, 0, 0, 0, 0, 0], "stateRewards": ["", -1, 4, -8, 12, 14, 69, -8, 5, -72, -14, 56, -1, -1, -1, 9, 67, 19, 11, -9, -88, -58, 3, 2, -4, -8, 4, 62, 77, -74, 5, -31, 65, 88], "withholdReward": false, "trial_id": "mdp_trial_9", "block": "test", "trialIndex": 12, "score": 55.7, "costs": -4.3, "simulationMode": [null, null, null, null, null], "rewards": [2, -4, -8, 5, 65], "path": ["0", "0", "23", "24", "25", "30", "32"], "rt": [12884, 471, 192, 37, 36], "actions": ["left", "left", "left", "down", "down"], "actionTimes": [15390, 16368, 17071, 17614, 18163], "queries": {"click": {"state": {"target": ["27", "32"], "time": [5470, 8746]}, "edge": {"target": [], "time": []}}, "mouseover": {"state": {"target": ["23", "26", "27", "26", "25", "30", "32", "32", "31", "30", "23", "0", "31", "24"], "time": [3139, 3255, 3606, 7419, 7469, 7652, 7802, 8185, 10398, 10515, 10798, 11215, 12630, 14314]}, "edge": {"target": [], "time": []}}, "mouseout": {"state": {"target": ["0", "23", "26", "27", "26", "25", "30", "32", "32", "31", "30", "23", "0", "31", "24"], "time": [3130, 3156, 3306, 7402, 7438, 7536, 7752, 7919, 9616, 10432, 10749, 10881, 11231, 12815, 14328]}, "edge": {"target": [], "time": []}}}, "displayed_time": "18.69", "trialTime": 21909, "trial_type": "mouselab-mdp", "trial_index": 23, "time_elapsed": 769928, "internal_node_id": "0.0-6.0-1.0-8.0"}}, {"uniqueid": "w33055757:a67802358", "current_trial": 24, "dateTime": 1693565430040, "trialdata": {"revealed_states": [], "clicked_states": ["21", "22", "20"], "num_clicks_accrued": [0, 0, 0, 0, 0, 0, 0, 0, 0, 0, 0, 0, 0], "stateRewards": ["", -1, 4, 3, 12, -27, 34, -33, 3, -63, 1, 6, 2, 2, -6, -11, -77, -85, 68, -6, 51, 81, -60, -2, -2, 1, 15, 20, 15, 68, -10, -14, 6, -4], "withholdReward": false, "trial_id": "mdp_trial_10", "block": "test", "trialIndex": 13, "score": 66.55, "costs": -6.449999999999999, "simulationMode": [null, null, null, null, null], "rewards": [2, 2, -6, -6, 81], "path": ["0", "0", "12", "13", "14", "19", "21"], "rt": [11723, 311, 82, 44, 855], "actions": ["right", "right", "right", "down", "down"], "actionTimes": [13315, 14161, 14747, 15309, 16687], "queries": {"click": {"state": {"target": ["21", "22", "20"], "time": [3203, 6330, 9495]}, "edge": {"target": [], "time": []}}, "mouseover": {"state": {"target": ["12", "22", "21", "22", "19", "20", "21"], "time": [2076, 2194, 2627, 5689, 7455, 7654, 10651]}, "edge": {"target": [], "time": []}}, "mouseout": {"state": {"target": ["0", "12", "22", "21", "22", "19", "20", "20"], "time": [2061, 2110, 2277, 5306, 6552, 7555, 9723, 10351]}, "edge": {"target": [], "time": []}}}, "displayed_time": "17.20", "trialTime": 20552, "trial_type": "mouselab-mdp", "trial_index": 24, "time_elapsed": 790614, "internal_node_id": "0.0-6.0-1.0-9.0"}}, {"uniqueid": "w33055757:a67802358", "current_trial": 25, "dateTime": 1693565446992, "trialdata": {"revealed_states": [], "clicked_states": [], "num_clicks_accrued": [0, 0, 0, 0, 0, 0, 0, 0, 0, 0, 0, 0, 0], "stateRewards": ["", -1, 1, -2, 5, 73, 15, 61, 8, 7, 38, 76, 2, 2, -4, -6, -6, -26, 43, -5, -45, -85, -35, -2, 1, -4, 15, -10, 69, 72, -11, 84, -49, -38], "withholdReward": false, "trial_id": "mdp_trial_11", "block": "test", "trialIndex": 14, "score": -90, "costs": 0, "simulationMode": [null, null, null, null, null], "rewards": [2, 2, -4, -5, -85], "path": ["0", "0", "12", "13", "14", "19", "21"], "rt": [8974, 403, 131, 560, 229], "actions": ["right", "right", "right", "down", "down"], "actionTimes": [10601, 11512, 12156, 13235, 13969], "queries": {"click": {"state": {"target": [], "time": []}, "edge": {"target": [], "time": []}}, "mouseover": {"state": {"target": ["12", "22", "21"], "time": [4516, 4814, 4914]}, "edge": {"target": [], "time": []}}, "mouseout": {"state": {"target": ["21", "0", "12", "22", "21"], "time": [867, 4402, 4800, 4830, 9428]}, "edge": {"target": [], "time": []}}}, "displayed_time": "15.63", "trialTime": 16815, "trial_type": "mouselab-mdp", "trial_index": 25, "time_elapsed": 807566, "internal_node_id": "0.0-6.0-1.0-10.0"}}, {"uniqueid": "w33055757:a67802358", "current_trial": 26, "dateTime": 1693565463304, "trialdata": {"revealed_states": [], "clicked_states": [], "num_clicks_accrued": [0, 0, 0, 0, 0, 0, 0, 0, 0, 0, 0, 0, 0], "stateRewards": ["", -1, -4, -6, -15, 21, -67, -63, 9, 51, 69, -14, -1, 3, 8, -8, 39, 72, 63, 15, 19, 47, 15, 1, 4, 5, 16, -18, 34, 35, -14, -80, 40, 1], "withholdReward": false, "trial_id": "mdp_trial_12", "block": "test", "trialIndex": 15, "score": 41, "costs": 0, "simulationMode": [null, null, null, null, null], "rewards": [-1, 3, 8, -8, 39], "path": ["0", "0", "12", "13", "14", "15", "16"], "rt": [1774, 138, 85, 91, 125], "actions": ["right", "right", "right", "up", "up"], "actionTimes": [3129, 3774, 4372, 4975, 5610], "queries": {"click": {"state": {"target": [], "time": []}, "edge": {"target": [], "time": []}}, "mouseover": {"state": {"target": [], "time": []}, "edge": {"target": [], "time": []}}, "mouseout": {"state": {"target": ["0"], "time": [1904]}, "edge": {"target": [], "time": []}}}, "displayed_time": "15.36", "trialTime": 16163, "trial_type": "mouselab-mdp", "trial_index": 26, "time_elapsed": 823878, "internal_node_id": "0.0-6.0-1.0-11.0"}}, {"uniqueid": "w33055757:a67802358", "current_trial": 27, "dateTime": 1693565481023, "trialdata": {"revealed_states": [], "clicked_states": ["16", "19", "21"], "num_clicks_accrued": [0, 0, 0, 0, 0, 0, 0, 0, 0, 0, 0, 0, 0], "stateRewards": ["", 2, -4, -4, 13, -80, 62, 13, -11, 57, -13, -44, 1, 4, 3, -4, -29, -88, 15, 16, -58, 68, -45, -1, -3, -1, -9, -44, -86, -19, -7, -36, 59, 66], "withholdReward": false, "trial_id": "mdp_trial_13", "block": "test", "trialIndex": 16, "score": 86.15, "costs": -5.85, "simulationMode": [null, null, null, null, null], "rewards": [1, 4, 3, 16, 68], "path": ["0", "0", "12", "13", "14", "19", "21"], "rt": [10591, 275, 39, 40, 42], "actions": ["right", "right", "right", "down", "down"], "actionTimes": [12012, 12798, 13345, 13895, 14464], "queries": {"click": {"state": {"target": ["16", "19", "21"], "time": [3082, 7746, 8814]}, "edge": {"target": [], "time": []}}, "mouseover": {"state": {"target": ["16", "15", "14", "19", "21"], "time": [2216, 6844, 6893, 7029, 8310]}, "edge": {"target": [], "time": []}}, "mouseout": {"state": {"target": ["23", "16", "15", "14", "19", "21"], "time": [883, 6829, 6878, 6962, 8243, 9707]}, "edge": {"target": [], "time": []}}}, "displayed_time": "15.42", "trialTime": 17559, "trial_type": "mouselab-mdp", "trial_index": 27, "time_elapsed": 841598, "internal_node_id": "0.0-6.0-1.0-12.0"}}, {"uniqueid": "w33055757:a67802358", "current_trial": 28, "dateTime": 1693565503939, "trialdata": {"revealed_states": [], "clicked_states": ["30", "32", "26", "27"], "num_clicks_accrued": [0, 0, 0, 0, 0, 0, 0, 0, 0, 0, 0, 0, 0], "stateRewards": ["", -1, -1, 4, -16, -75, 81, -51, -7, -84, 73, -30, -2, 1, -3, -16, -77, 33, 14, 1, 45, 87, -66, 2, 2, -5, -7, -19, -17, 79, -3, 8, 49, 47], "withholdReward": false, "trial_id": "mdp_trial_14", "block": "test", "trialIndex": 17, "score": -96.4, "costs": -7.4, "simulationMode": [null, null, null, null, null], "rewards": [-1, -1, 4, -16, -75], "path": ["0", "0", "1", "2", "3", "4", "5"], "rt": [15875, 481, 311, 74, 120], "actions": ["up", "up", "up", "right", "up"], "actionTimes": [17631, 18628, 19457, 20037, 20666], "queries": {"click": {"state": {"target": ["30", "32", "26", "27"], "time": [2875, 3928, 7951, 10795]}, "edge": {"target": [], "time": []}}, "mouseover": {"state": {"target": ["31", "30", "32", "31", "24", "26", "25", "29", "27", "29", "26", "25"], "time": [2324, 2443, 3457, 7072, 7154, 7521, 9087, 10086, 10286, 11882, 11982, 12115]}, "edge": {"target": [], "time": []}}, "mouseout": {"state": {"target": ["0", "31", "30", "32", "31", "24", "26", "25", "26", "29", "27", "29", "26", "25"], "time": [2227, 2358, 3324, 5173, 7122, 7205, 8986, 9820, 9886, 10220, 11483, 11933, 12015, 12149]}, "edge": {"target": [], "time": []}}}, "displayed_time": "21.18", "trialTime": 22751, "trial_type": "mouselab-mdp", "trial_index": 28, "time_elapsed": 864513, "internal_node_id": "0.0-6.0-1.0-13.0"}}, {"uniqueid": "w33055757:a67802358", "current_trial": 29, "dateTime": 1693565520315, "trialdata": {"revealed_states": [], "clicked_states": ["16"], "num_clicks_accrued": [0, 0, 0, 0, 0, 0, 0, 0, 0, 0, 0, 0, 0], "stateRewards": ["", -1, 2, 5, -6, 13, -64, -47, 8, -79, -80, -33, 1, 2, -2, -16, 56, -71, -10, 3, 29, 44, 85, -1, 4, 5, 4, -36, -56, 19, 8, 52, -13, -2], "withholdReward": false, "trial_id": "mdp_trial_15", "block": "test", "trialIndex": 18, "score": 38.85, "costs": -2.15, "simulationMode": [null, null, null, null, null], "rewards": [1, 2, -2, -16, 56], "path": ["0", "0", "12", "13", "14", "15", "16"], "rt": [6587, 414, 137, 50, 14], "actions": ["right", "right", "right", "up", "up"], "actionTimes": [7809, 8735, 9391, 9953, 10483], "queries": {"click": {"state": {"target": ["16"], "time": [3444]}, "edge": {"target": [], "time": []}}, "mouseover": {"state": {"target": ["18", "15", "16"], "time": [2309, 2492, 2993]}, "edge": {"target": [], "time": []}}, "mouseout": {"state": {"target": ["24", "23", "18", "15"], "time": [710, 742, 2442, 2507]}, "edge": {"target": [], "time": []}}}, "displayed_time": "15.22", "trialTime": 16231, "trial_type": "mouselab-mdp", "trial_index": 29, "time_elapsed": 880889, "internal_node_id": "0.0-6.0-1.0-14.0"}}, {"uniqueid": "w33055757:a67802358", "current_trial": 30, "dateTime": 1693565538810, "trialdata": {"revealed_states": [], "clicked_states": ["18", "17", "16"], "num_clicks_accrued": [0, 0, 0, 0, 0, 0, 0, 0, 0, 0, 0, 0, 0], "stateRewards": ["", 1, 4, 7, -16, -84, -6, -46, -12, -7, -49, -26, -1, 2, -4, 2, 22, 37, -64, 1, 88, -13, -10, 1, -4, -2, 5, 2, -10, -34, 9, 66, 55, 38], "withholdReward": false, "trial_id": "mdp_trial_16", "block": "test", "trialIndex": 19, "score": 29.55, "costs": -6.449999999999999, "simulationMode": [null, null, null, null, null], "rewards": [-1, 2, -4, 2, 37], "path": ["0", "0", "12", "13", "14", "15", "17"], "rt": [11253, 388, 113, 73, 620], "actions": ["right", "right", "right", "up", "right"], "actionTimes": [13065, 13967, 14590, 15183, 16313], "queries": {"click": {"state": {"target": ["18", "17", "16"], "time": [3371, 6981, 9834]}, "edge": {"target": [], "time": []}}, "mouseover": {"state": {"target": ["18", "18", "15", "17", "15", "14", "15", "16"], "time": [2755, 3021, 4254, 6402, 7632, 8065, 9297, 9547]}, "edge": {"target": [], "time": []}}, "mouseout": {"state": {"target": ["16", "18", "18", "18", "15", "17", "15", "14", "15", "16", "18"], "time": [941, 971, 2787, 4118, 6319, 7599, 8031, 9264, 9381, 17774, 17789]}, "edge": {"target": [], "time": []}}}, "displayed_time": "16.82", "trialTime": 18354, "trial_type": "mouselab-mdp", "trial_index": 30, "time_elapsed": 899385, "internal_node_id": "0.0-6.0-1.0-15.0"}}, {"uniqueid": "w33055757:a67802358", "current_trial": 31, "dateTime": 1693565563218, "trialdata": {"revealed_states": [], "clicked_states": ["11", "9", "10", "5"], "num_clicks_accrued": [0, 0, 0, 0, 0, 0, 0, 0, 0, 0, 0, 0, 0], "stateRewards": ["", -1, 4, -5, 9, 29, -75, -42, -16, 24, -28, -41, 2, -3, 1, 10, 60, 47, 55, -1, -53, 22, -40, 2, -3, -6, 4, -26, 44, 54, 15, -76, 42, 14], "withholdReward": false, "trial_id": "mdp_trial_17", "block": "test", "trialIndex": 20, "score": 27.4, "costs": -8.6, "simulationMode": [null, null, null, null, null], "rewards": [-1, 4, -5, 9, 29], "path": ["0", "0", "1", "2", "3", "4", "5"], "rt": [15095, 289, 10, 47, 86], "actions": ["up", "up", "up", "right", "up"], "actionTimes": [19683, 20490, 21012, 21582, 22202], "queries": {"click": {"state": {"target": ["11", "9", "10", "5"], "time": [5846, 8896, 12251, 15381]}, "edge": {"target": [], "time": []}}, "mouseover": {"state": {"target": ["1", "2", "3", "8", "11", "9", "8", "10", "3", "4", "5", "5", "4", "7"], "time": [4982, 4999, 5015, 5199, 5482, 6514, 9577, 9943, 13123, 13190, 13356, 13623, 16587, 16920]}, "edge": {"target": [], "time": []}}, "mouseout": {"state": {"target": ["0", "1", "2", "3", "8", "11", "9", "8", "10", "3", "4", "5", "5", "5", "4"], "time": [4000, 4998, 5014, 5130, 5299, 6068, 9544, 9694, 13090, 13157, 13207, 13423, 15598, 16554, 16608]}, "edge": {"target": [], "time": []}}}, "displayed_time": "22.72", "trialTime": 24259, "trial_type": "mouselab-mdp", "trial_index": 31, "time_elapsed": 923793, "internal_node_id": "0.0-6.0-1.0-16.0"}}, {"uniqueid": "w33055757:a67802358", "current_trial": 32, "dateTime": 1693565582702, "trialdata": {"revealed_states": [], "clicked_states": ["29", "27", "26", "25"], "num_clicks_accrued": [0, 0, 0, 0, 0, 0, 0, 0, 0, 0, 0, 0, 0], "stateRewards": ["", -2, 2, -2, -7, -50, -62, -45, 7, 36, -24, -72, -1, -1, 8, -1, -67, 20, -52, 2, 35, -50, 80, -1, 1, 6, -6, -70, 6, 88, 8, -47, 74, -19], "withholdReward": false, "trial_id": "mdp_trial_18", "block": "test", "trialIndex": 21, "score": 81.2, "costs": -6.8, "simulationMode": [null, null, null, null, null], "rewards": [-1, 1, 6, -6, 88], "path": ["0", "0", "23", "24", "25", "26", "29"], "rt": [12981, 423, 189, 154, 65], "actions": ["left", "left", "left", "up", "left"], "actionTimes": [14838, 15777, 16474, 17138, 17718], "queries": {"click": {"state": {"target": ["29", "27", "26", "25"], "time": [2934, 6387, 9195, 11405]}, "edge": {"target": [], "time": []}}, "mouseover": {"state": {"target": ["23", "24", "26", "29", "27", "26", "25", "24"], "time": [2231, 2263, 2365, 2498, 3497, 7642, 11008, 13537]}, "edge": {"target": [], "time": []}}, "mouseout": {"state": {"target": ["7", "0", "23", "24", "26", "29", "27", "26", "25", "25"], "time": [984, 1365, 2247, 2280, 2380, 3147, 7542, 10841, 11619, 13455]}, "edge": {"target": [], "time": []}}}, "displayed_time": "18.23", "trialTime": 19330, "trial_type": "mouselab-mdp", "trial_index": 32, "time_elapsed": 943276, "internal_node_id": "0.0-6.0-1.0-17.0"}}, {"uniqueid": "w33055757:a67802358", "current_trial": 33, "dateTime": 1693565609302, "trialdata": {"revealed_states": [], "clicked_states": ["33", "32", "31", "29", "27"], "num_clicks_accrued": [0, 0, 0, 0, 0, 0, 0, 0, 0, 0, 0, 0, 0], "stateRewards": ["", 1, 4, -8, -13, -13, -87, -77, -10, -44, 54, 42, 2, -3, -4, 12, -9, -80, 52, 9, 84, -2, -65, 1, -4, -5, -6, 8, 80, 32, 13, -59, -5, -13], "withholdReward": false, "trial_id": "mdp_trial_19", "block": "test", "trialIndex": 22, "score": 7.25, "costs": -10.75, "simulationMode": [null, null, null, null, null], "rewards": [1, -4, -5, -6, 32], "path": ["0", "0", "23", "24", "25", "26", "29"], "rt": [18348, 566, 218, 48, 745], "actions": ["left", "left", "left", "up", "left"], "actionTimes": [19995, 21078, 21812, 22375, 23638], "queries": {"click": {"state": {"target": ["33", "32", "31", "29", "27"], "time": [2691, 5843, 9188, 13016, 16100]}, "edge": {"target": [], "time": []}}, "mouseover": {"state": {"target": ["0", "31", "30", "33", "32", "31", "29", "27"], "time": [2004, 2028, 2061, 2162, 3542, 8689, 12535, 13816]}, "edge": {"target": [], "time": []}}, "mouseout": {"state": {"target": ["24", "23", "0", "0", "31", "30", "33", "32", "31", "29", "27"], "time": [881, 929, 1312, 2011, 2045, 2078, 3276, 6049, 11774, 13750, 25058]}, "edge": {"target": [], "time": []}}}, "displayed_time": "24.16", "trialTime": 26445, "trial_type": "mouselab-mdp", "trial_index": 33, "time_elapsed": 969876, "internal_node_id": "0.0-6.0-1.0-18.0"}}, {"uniqueid": "w33055757:a67802358", "current_trial": 34, "dateTime": 1693565628840, "trialdata": {"revealed_states": [], "clicked_states": ["6", "5", "7"], "num_clicks_accrued": [0, 0, 0, 0, 0, 0, 0, 0, 0, 0, 0, 0, 0], "stateRewards": ["", -1, 4, -3, 3, 57, -61, 5, -11, 23, -1, 34, -2, -4, -1, -13, 27, 38, -36, 4, -45, 21, 88, 1, -2, -1, 1, -69, -5, -78, -12, -9, 38, -54], "withholdReward": false, "trial_id": "mdp_trial_20", "block": "test", "trialIndex": 23, "score": 53.55, "costs": -6.449999999999999, "simulationMode": [null, null, null, null, null], "rewards": [-1, 4, -3, 3, 57], "path": ["0", "0", "1", "2", "3", "4", "5"], "rt": [11701, 451, 203, 630, 118], "actions": ["up", "up", "up", "right", "up"], "actionTimes": [13223, 14180, 14898, 16041, 16680], "queries": {"click": {"state": {"target": ["6", "5", "7"], "time": [3301, 6924, 10139]}, "edge": {"target": [], "time": []}}, "mouseover": {"state": {"target": ["1", "6", "5", "4", "7"], "time": [2372, 2973, 4619, 8299, 8516]}, "edge": {"target": [], "time": []}}, "mouseout": {"state": {"target": ["0", "1", "6", "5", "5", "4", "7", "0"], "time": [708, 2388, 3526, 7143, 8250, 8383, 18541, 18673]}, "edge": {"target": [], "time": []}}}, "displayed_time": "17.19", "trialTime": 19386, "trial_type": "mouselab-mdp", "trial_index": 34, "time_elapsed": 989414, "internal_node_id": "0.0-6.0-1.0-19.0"}}, {"uniqueid": "w33055757:a67802358", "current_trial": 35, "dateTime": 1693565665589, "trialdata": {"revealed_states": [], "clicked_states": ["3", "11", "6", "17", "16", "18", "20", "21", "22"], "num_clicks_accrued": [0, 0, 0, 0, 0, 0, 0, 0, 0, 0, 0, 0, 0], "stateRewards": ["", 2, -2, -3, 10, -4, -1, -11, -8, -9, -36, -78, 2, 1, 7, -7, 44, -1, -31, -1, 26, 47, 83, 2, -4, -4, -6, -52, -76, -81, -1, -59, 45, 67], "withholdReward": false, "trial_id": "mdp_trial_21", "block": "test", "trialIndex": 24, "score": 73.85, "costs": -18.15, "simulationMode": [null, null, null, null, null], "rewards": [2, 1, 7, -1, 83], "path": ["0", "0", "12", "13", "14", "19", "22"], "rt": [28140, 351, 141, 60, 177], "actions": ["right", "right", "right", "down", "left"], "actionTimes": [30414, 31275, 31930, 32499, 33198], "queries": {"click": {"state": {"target": ["3", "11", "6", "17", "16", "18", "20", "21", "22"], "time": [3683, 5190, 8354, 11803, 14675, 17777, 20845, 24052, 27219]}, "edge": {"target": [], "time": []}}, "mouseover": {"state": {"target": ["1", "2", "3", "3", "8", "11", "8", "4", "6", "16", "15", "17", "16", "15", "14", "18", "14", "20", "21", "22"], "time": [2815, 2967, 3117, 3299, 4364, 4647, 5863, 5979, 6479, 10491, 10708, 11342, 12639, 15354, 15488, 16137, 18350, 18667, 21930, 24845]}, "edge": {"target": [], "time": []}}, "mouseout": {"state": {"target": ["0", "1", "2", "3", "3", "8", "11", "8", "3", "4", "6", "16", "15", "17", "16", "15", "14", "18", "14", "20", "21", "22"], "time": [2802, 2866, 3050, 3132, 3892, 4514, 5845, 5895, 5963, 6362, 10442, 10525, 10924, 12028, 15337, 15404, 15986, 18318, 18418, 21631, 24529, 35152]}, "edge": {"target": [], "time": []}}}, "displayed_time": "33.70", "trialTime": 36579, "trial_type": "mouselab-mdp", "trial_index": 35, "time_elapsed": 1026163, "internal_node_id": "0.0-6.0-1.0-20.0"}}, {"uniqueid": "w33055757:a67802358", "current_trial": 36, "dateTime": 1693565693179, "trialdata": {"revealed_states": [], "clicked_states": ["16", "18", "17", "20", "21", "22"], "num_clicks_accrued": [0, 0, 0, 0, 0, 0, 0, 0, 0, 0, 0, 0, 0], "stateRewards": ["", 2, 4, 4, -8, -36, -33, 38, 16, -51, 57, 57, 1, 3, 4, -6, 45, 68, 87, 1, 63, 24, -55, -2, 2, -6, -13, -63, -50, 8, 2, 80, 6, 60], "withholdReward": false, "trial_id": "mdp_trial_22", "block": "test", "trialIndex": 25, "score": 76.1, "costs": -12.9, "simulationMode": [null, null, null, null, null], "rewards": [1, 3, 4, -6, 87], "path": ["0", "0", "12", "13", "14", "15", "18"], "rt": [20784, 484, 184, 285, 197], "actions": ["right", "right", "right", "up", "left"], "actionTimes": [22205, 23196, 23895, 24695, 25408], "queries": {"click": {"state": {"target": ["16", "18", "17", "20", "21", "22"], "time": [3104, 6274, 9452, 12651, 15834, 19052]}, "edge": {"target": [], "time": []}}, "mouseover": {"state": {"target": ["12", "17", "16", "18", "15", "17", "20", "21", "22"], "time": [1864, 2315, 2680, 3746, 6893, 7159, 10556, 13636, 16750]}, "edge": {"target": [], "time": []}}, "mouseout": {"state": {"target": ["0", "12", "17", "16", "18", "15", "17", "20", "21", "22"], "time": [1849, 1880, 2432, 3679, 6859, 7009, 10139, 13353, 16367, 27176]}, "edge": {"target": [], "time": []}}}, "displayed_time": "25.93", "trialTime": 27419, "trial_type": "mouselab-mdp", "trial_index": 36, "time_elapsed": 1053754, "internal_node_id": "0.0-6.0-1.0-21.0"}}, {"uniqueid": "w33055757:a67802358", "current_trial": 37, "dateTime": 1693565728875, "trialdata": {"revealed_states": [], "clicked_states": ["18", "16", "17", "7", "6", "5", "3"], "num_clicks_accrued": [0, 0, 0, 0, 0, 0, 0, 0, 0, 0, 0, 0, 0], "stateRewards": ["", -1, 2, -7, -12, -62, 12, -13, 5, 77, -71, 83, 1, -4, 7, 15, -42, -87, -4, 5, -25, 44, 88, -1, 4, -5, -8, 14, 51, 8, -5, 83, -24, -19], "withholdReward": false, "trial_id": "mdp_trial_23", "block": "test", "trialIndex": 26, "score": -93.85, "costs": -13.85, "simulationMode": [null, null, null, null, null], "rewards": [-1, 2, -7, -12, -62], "path": ["0", "0", "1", "2", "3", "4", "5"], "rt": [26556, 460, 65, 715, 1544], "actions": ["up", "up", "up", "right", "up"], "actionTimes": [28160, 29138, 29708, 30940, 33002], "queries": {"click": {"state": {"target": ["18", "16", "17", "7", "6", "5", "3"], "time": [4153, 7383, 10587, 13706, 16919, 20142, 23309]}, "edge": {"target": [], "time": []}}, "mouseover": {"state": {"target": ["12", "13", "13", "15", "15", "18", "16", "17", "15", "7", "6", "5", "3", "9"], "time": [2221, 2284, 2885, 3118, 3618, 3717, 5748, 9844, 11277, 11475, 14539, 17536, 21167, 24031]}, "edge": {"target": [], "time": []}}, "mouseout": {"state": {"target": ["0", "12", "13", "13", "15", "15", "18", "16", "17", "15", "7", "6", "5", "3"], "time": [2219, 2269, 2735, 2934, 3518, 3632, 4376, 9761, 11275, 11293, 14256, 17437, 21000, 23798]}, "edge": {"target": [], "time": []}}}, "displayed_time": "33.51", "trialTime": 35510, "trial_type": "mouselab-mdp", "trial_index": 37, "time_elapsed": 1089449, "internal_node_id": "0.0-6.0-1.0-22.0"}}, {"uniqueid": "w33055757:a67802358", "current_trial": 38, "dateTime": 1693565761626, "trialdata": {"revealed_states": [], "clicked_states": ["25", "29", "27", "28", "33", "32", "31", "11"], "num_clicks_accrued": [0, 0, 0, 0, 0, 0, 0, 0, 0, 0, 0, 0, 0], "stateRewards": ["", 1, -2, -2, 10, -31, -77, 35, 9, -47, 8, 48, -2, 1, -4, -3, -26, -50, 43, -11, 76, -38, 17, 1, -1, 6, 10, 15, -9, 12, -8, 85, 11, -55], "withholdReward": false, "trial_id": "mdp_trial_24", "block": "test", "trialIndex": 27, "score": 67, "costs": -16, "simulationMode": [null, null, null, null, null], "rewards": [1, -1, 6, -8, 85], "path": ["0", "0", "23", "24", "25", "30", "31"], "rt": [26635, 28, 86, 56, 79], "actions": ["left", "left", "left", "down", "right"], "actionTimes": [28466, 29013, 29603, 30173, 30761], "queries": {"click": {"state": {"target": ["25", "29", "27", "28", "33", "32", "31", "11"], "time": [4611, 6236, 9457, 12667, 15834, 19055, 22383, 25183]}, "edge": {"target": [], "time": []}}, "mouseover": {"state": {"target": ["23", "26", "25", "25", "29", "27", "28", "25", "33", "32", "31", "2", "8", "11"], "time": [2710, 2858, 3192, 4125, 5807, 8337, 11649, 13531, 13764, 17461, 20191, 24304, 24420, 24620]}, "edge": {"target": [], "time": []}}, "mouseout": {"state": {"target": ["9", "1", "23", "26", "25", "25", "29", "27", "28", "28", "25", "33", "32", "31", "2", "8", "11", "10", "23"], "time": [694, 793, 2742, 2959, 3342, 5639, 8036, 11299, 12893, 13465, 13598, 16445, 20041, 24170, 24370, 24487, 32064, 32265, 32364]}, "edge": {"target": [], "time": []}}}, "displayed_time": "31.27", "trialTime": 32587, "trial_type": "mouselab-mdp", "trial_index": 38, "time_elapsed": 1122200, "internal_node_id": "0.0-6.0-1.0-23.0"}}, {"uniqueid": "w33055757:a67802358", "current_trial": 39, "dateTime": 1693565795109, "trialdata": {"revealed_states": [], "clicked_states": ["25", "28", "27", "29", "33", "32", "31"], "num_clicks_accrued": [0, 0, 0, 0, 0, 0, 0, 0, 0, 0, 0, 0, 0], "stateRewards": ["", -2, -4, -8, 8, 63, -50, -19, -7, -17, -31, 31, 1, 3, -5, 12, -35, -63, -29, -4, -17, -75, -79, -2, -3, -2, 8, -3, -85, 10, -2, -82, -82, 56], "withholdReward": false, "trial_id": "mdp_trial_25", "block": "test", "trialIndex": 28, "score": 33.15, "costs": -13.850000000000001, "simulationMode": [null, null, null, null, null], "rewards": [-2, -3, -2, -2, 56], "path": ["0", "0", "23", "24", "25", "30", "33"], "rt": [23087, 538, 236, 226, 152], "actions": ["left", "left", "left", "down", "left"], "actionTimes": [26454, 27501, 28249, 28988, 29646], "queries": {"click": {"state": {"target": ["25", "28", "27", "29", "33", "32", "31"], "time": [4785, 7312, 10545, 13694, 16809, 19978, 23269]}, "edge": {"target": [], "time": []}}, "mouseover": {"state": {"target": ["23", "24", "25", "28", "27", "29", "33", "32", "31"], "time": [4069, 4099, 4301, 5782, 8347, 11576, 14391, 17771, 22901]}, "edge": {"target": [], "time": []}}, "mouseout": {"state": {"target": ["0", "23", "24", "25", "28", "27", "29", "29", "33", "32"], "time": [1154, 4083, 4166, 5464, 8262, 11360, 13912, 14224, 17355, 20434]}, "edge": {"target": [], "time": []}}}, "displayed_time": "30.16", "trialTime": 33277, "trial_type": "mouselab-mdp", "trial_index": 39, "time_elapsed": 1155683, "internal_node_id": "0.0-6.0-1.0-24.0"}}, {"uniqueid": "w33055757:a67802358", "current_trial": 40, "dateTime": 1693565824186, "trialdata": {"revealed_states": [], "clicked_states": ["3", "11", "9", "10", "5", "6", "7"], "num_clicks_accrued": [0, 0, 0, 0, 0, 0, 0, 0, 0, 0, 0, 0, 0], "stateRewards": ["", -1, 2, -2, 5, 80, -61, -27, 12, 44, -26, -75, -2, -4, 1, -16, 42, -49, -50, 4, -44, 2, 80, -2, -2, 5, -2, 59, 10, 24, 7, -48, -86, -44], "withholdReward": false, "trial_id": "mdp_trial_26", "block": "test", "trialIndex": 29, "score": 70.15, "costs": -13.850000000000001, "simulationMode": [null, null, null, null, null], "rewards": [-1, 2, -2, 5, 80], "path": ["0", "0", "1", "2", "3", "4", "5"], "rt": [22228, 503, 192, 145, 134], "actions": ["up", "up", "up", "right", "up"], "actionTimes": [23668, 24690, 25394, 26048, 26702], "queries": {"click": {"state": {"target": ["3", "11", "9", "10", "5", "6", "7"], "time": [2876, 4341, 7484, 10627, 14079, 17312, 20549]}, "edge": {"target": [], "time": []}}, "mouseover": {"state": {"target": ["2", "3", "8", "11", "9", "8", "10", "3", "5", "6", "7"], "time": [2373, 2490, 3622, 3771, 5337, 8001, 8350, 13112, 13663, 15709, 18175]}, "edge": {"target": [], "time": []}}, "mouseout": {"state": {"target": ["31", "0", "2", "3", "8", "11", "9", "8", "10", "3", "5", "6", "6", "7", "7", "12"], "time": [759, 2191, 2406, 3088, 3688, 5220, 7967, 8217, 13062, 13329, 15277, 17533, 17891, 20770, 27817, 27849]}, "edge": {"target": [], "time": []}}}, "displayed_time": "27.22", "trialTime": 28888, "trial_type": "mouselab-mdp", "trial_index": 40, "time_elapsed": 1184760, "internal_node_id": "0.0-6.0-1.0-25.0"}}, {"uniqueid": "w33055757:a67802358", "current_trial": 41, "dateTime": 1693565854398, "trialdata": {"revealed_states": [], "clicked_states": ["3", "5", "6", "7", "10", "11", "9"], "num_clicks_accrued": [0, 0, 0, 0, 0, 0, 0, 0, 0, 0, 0, 0, 0], "stateRewards": ["", -2, -1, -1, 5, -54, -87, 35, 2, -8, 20, -22, 1, 3, 6, 13, -75, -32, -55, -3, 56, 62, -22, -1, -4, -1, -7, -51, 84, 70, 7, -15, 5, 55], "withholdReward": false, "trial_id": "mdp_trial_27", "block": "test", "trialIndex": 30, "score": 22.15, "costs": -13.850000000000001, "simulationMode": [null, null, null, null, null], "rewards": [-2, -1, -1, 5, 35], "path": ["0", "0", "1", "2", "3", "4", "7"], "rt": [23855, 353, 121, 565, 282], "actions": ["up", "up", "up", "right", "down"], "actionTimes": [25131, 26004, 26638, 27715, 28514], "queries": {"click": {"state": {"target": ["3", "5", "6", "7", "10", "11", "9"], "time": [3141, 4735, 7994, 11185, 14367, 17603, 20802]}, "edge": {"target": [], "time": []}}, "mouseover": {"state": {"target": ["1", "3", "5", "6", "7", "2", "10", "11", "11", "9"], "time": [2355, 2820, 4302, 6003, 8616, 11796, 12063, 16659, 17042, 18340]}, "edge": {"target": [], "time": []}}, "mouseout": {"state": {"target": ["1", "0", "1", "3", "5", "6", "6", "7", "2", "10", "11", "11", "9"], "time": [674, 2339, 2371, 4186, 5737, 8213, 8466, 11780, 11863, 16525, 16875, 18140, 21653]}, "edge": {"target": [], "time": []}}}, "displayed_time": "29.03", "trialTime": 30043, "trial_type": "mouselab-mdp", "trial_index": 41, "time_elapsed": 1214972, "internal_node_id": "0.0-6.0-1.0-26.0"}}, {"uniqueid": "w33055757:a67802358", "current_trial": 42, "dateTime": 1693565871648, "trialdata": {"revealed_states": [], "clicked_states": [], "num_clicks_accrued": [0, 0, 0, 0, 0, 0, 0, 0, 0, 0, 0, 0, 0], "stateRewards": ["", 1, 1, -6, -2, 7, 77, 3, 16, -16, 66, 31, -1, 3, -8, -6, 33, -50, -48, 7, -60, -66, 36, 2, -3, 3, -7, -12, -61, -79, -4, 8, 74, -70], "withholdReward": false, "trial_id": "mdp_trial_28", "block": "test", "trialIndex": 31, "score": -17, "costs": 0, "simulationMode": [null, null, null, null, null], "rewards": [2, -3, 3, -7, -12], "path": ["0", "0", "23", "24", "25", "26", "27"], "rt": [1850, 47, 507, 137, 193], "actions": ["left", "left", "left", "up", "up"], "actionTimes": [4207, 4770, 5795, 6444, 7147], "queries": {"click": {"state": {"target": [], "time": []}, "edge": {"target": [], "time": []}}, "mouseover": {"state": {"target": ["23", "24", "25"], "time": [3160, 3173, 3240]}, "edge": {"target": [], "time": []}}, "mouseout": {"state": {"target": ["7", "0", "23", "24"], "time": [1609, 3159, 3172, 3190]}, "edge": {"target": [], "time": []}}}, "displayed_time": "16.36", "trialTime": 17074, "trial_type": "mouselab-mdp", "trial_index": 42, "time_elapsed": 1232222, "internal_node_id": "0.0-6.0-1.0-27.0"}}, {"uniqueid": "w33055757:a67802358", "current_trial": 43, "dateTime": 1693565889177, "trialdata": {"revealed_states": [], "clicked_states": [], "num_clicks_accrued": [0, 0, 0, 0, 0, 0, 0, 0, 0, 0, 0, 0, 0], "stateRewards": ["", -2, -3, -3, 9, 79, 67, 22, -15, -56, 27, -85, -2, 4, -4, -15, -20, -32, 60, 15, 71, 57, 17, 1, 2, -8, 15, -37, -81, 82, 15, 21, -3, 2], "withholdReward": false, "trial_id": "mdp_trial_29", "block": "test", "trialIndex": 32, "score": -37, "costs": 0, "simulationMode": [null, null, null, null, null], "rewards": [-2, 4, -4, -15, -20], "path": ["0", "0", "12", "13", "14", "15", "16"], "rt": [1124, 446, 115, 69, 156], "actions": ["right", "right", "right", "up", "up"], "actionTimes": [2797, 3760, 4394, 4982, 5651], "queries": {"click": {"state": {"target": [], "time": []}, "edge": {"target": [], "time": []}}, "mouseover": {"state": {"target": [], "time": []}, "edge": {"target": [], "time": []}}, "mouseout": {"state": {"target": ["25", "24", "23", "0"], "time": [566, 615, 665, 715]}, "edge": {"target": [], "time": []}}}, "displayed_time": "15.67", "trialTime": 17325, "trial_type": "mouselab-mdp", "trial_index": 43, "time_elapsed": 1249751, "internal_node_id": "0.0-6.0-1.0-28.0"}}, {"uniqueid": "w33055757:a67802358", "current_trial": 44, "dateTime": 1693565909271, "trialdata": {"revealed_states": [], "clicked_states": ["11", "9", "10"], "num_clicks_accrued": [0, 0, 0, 0, 0, 0, 0, 0, 0, 0, 0, 0, 0], "stateRewards": ["", 1, 2, 2, -15, -84, 28, -26, 13, 31, 86, 30, -2, 1, -1, -8, 66, -40, -1, -10, -32, 57, -17, 1, 2, -2, 9, -23, 77, 85, 12, -32, -62, -35], "withholdReward": false, "trial_id": "mdp_trial_30", "block": "test", "trialIndex": 33, "score": 97.55, "costs": -6.449999999999999, "simulationMode": [null, null, null, null, null], "rewards": [1, 2, 2, 13, 86], "path": ["0", "0", "1", "2", "3", "8", "10"], "rt": [12006, 78, 30, 112, 97], "actions": ["up", "up", "up", "left", "down"], "actionTimes": [13828, 14411, 14946, 15579, 16195], "queries": {"click": {"state": {"target": ["11", "9", "10"], "time": [3064, 6293, 9525]}, "edge": {"target": [], "time": []}}, "mouseover": {"state": {"target": ["1", "2", "8", "11", "9", "8", "10", "3", "5"], "time": [2212, 2260, 2394, 2761, 3576, 6873, 7106, 10136, 10502]}, "edge": {"target": [], "time": []}}, "mouseout": {"state": {"target": ["0", "12", "1", "2", "8", "11", "9", "8", "10", "3", "5", "4", "7"], "time": [480, 1162, 2226, 2293, 2444, 3509, 6823, 6972, 10086, 10203, 17647, 17697, 17730]}, "edge": {"target": [], "time": []}}}, "displayed_time": "16.71", "trialTime": 19883, "trial_type": "mouselab-mdp", "trial_index": 44, "time_elapsed": 1269846, "internal_node_id": "0.0-6.0-1.0-29.0"}}, {"uniqueid": "w33055757:a67802358", "current_trial": 45, "dateTime": 1693565938266, "trialdata": {"revealed_states": [], "clicked_states": ["6", "5", "7", "16", "18", "17"], "num_clicks_accrued": [0, 0, 0, 0, 0, 0, 0, 0, 0, 0, 0, 0, 0], "stateRewards": ["", -2, -4, -2, 10, -8, -15, -47, 7, -84, 53, 5, -1, 2, -7, 3, 83, 31, 47, -1, 30, -8, 69, 2, -4, -1, 8, -7, 12, -8, -8, -13, 30, -84], "withholdReward": false, "trial_id": "mdp_trial_31", "block": "test", "trialIndex": 34, "score": 67.1, "costs": -12.9, "simulationMode": [null, null, null, null, null], "rewards": [-1, 2, -7, 3, 83], "path": ["0", "0", "12", "13", "14", "15", "16"], "rt": [20679, 140, 13, 651, 30], "actions": ["right", "right", "right", "up", "up"], "actionTimes": [21962, 22621, 23143, 24313, 24860], "queries": {"click": {"state": {"target": ["6", "5", "7", "16", "18", "17"], "time": [2534, 5911, 9121, 12342, 15485, 18790]}, "edge": {"target": [], "time": []}}, "mouseover": {"state": {"target": ["1", "7", "6", "5", "4", "7", "16", "18", "15", "17"], "time": [1766, 1915, 2031, 3380, 6428, 6494, 10174, 13022, 16068, 16352]}, "edge": {"target": [], "time": []}}, "mouseout": {"state": {"target": ["0", "1", "7", "6", "5", "4", "7", "16", "16", "18", "15", "17", "13"], "time": [1703, 1848, 1932, 3030, 6427, 6461, 9858, 12565, 12756, 16002, 16252, 26444, 26476]}, "edge": {"target": [], "time": []}}}, "displayed_time": "25.39", "trialTime": 28801, "trial_type": "mouselab-mdp", "trial_index": 45, "time_elapsed": 1298840, "internal_node_id": "0.0-6.0-1.0-30.0"}}, {"uniqueid": "w33055757:a67802358", "current_trial": 46, "dateTime": 1693565965727, "trialdata": {"revealed_states": [], "clicked_states": ["32", "31", "33", "29", "27", "28"], "num_clicks_accrued": [0, 0, 0, 0, 0, 0, 0, 0, 0, 0, 0, 0, 0], "stateRewards": ["", 2, 1, -3, 7, 46, 11, -36, 16, 71, 5, 1, 2, -2, -8, -3, -4, 6, 55, 7, 68, -54, 2, 1, 1, 6, -6, 42, -4, -84, -11, -65, 63, 25], "withholdReward": false, "trial_id": "mdp_trial_32", "block": "test", "trialIndex": 35, "score": 47.1, "costs": -12.9, "simulationMode": [null, null, null, null, null], "rewards": [1, 1, 6, -11, 63], "path": ["0", "0", "23", "24", "25", "30", "32"], "rt": [20793, 474, 166, 91, 50], "actions": ["left", "left", "left", "down", "down"], "actionTimes": [22389, 23382, 24056, 24663, 25222], "queries": {"click": {"state": {"target": ["32", "31", "33", "29", "27", "28"], "time": [2809, 6100, 9356, 12739, 15987, 19214]}, "edge": {"target": [], "time": []}}, "mouseover": {"state": {"target": ["0", "31", "32", "31", "30", "33", "29", "27", "28"], "time": [2127, 2176, 2460, 3776, 6605, 6772, 10286, 15448, 16879]}, "edge": {"target": [], "time": []}}, "mouseout": {"state": {"target": ["0", "0", "31", "32", "31", "30", "33", "29", "27", "28", "1"], "time": [1126, 2144, 2209, 3592, 6589, 6689, 9920, 15132, 16563, 19423, 26388]}, "edge": {"target": [], "time": []}}}, "displayed_time": "25.75", "trialTime": 27266, "trial_type": "mouselab-mdp", "trial_index": 46, "time_elapsed": 1326301, "internal_node_id": "0.0-6.0-1.0-31.0"}}, {"uniqueid": "w33055757:a67802358", "current_trial": 47, "dateTime": 1693565994490, "trialdata": {"revealed_states": [], "clicked_states": ["33", "32", "31", "29", "27", "28"], "num_clicks_accrued": [0, 0, 0, 0, 0, 0, 0, 0, 0, 0, 0, 0, 0], "stateRewards": ["", -2, -4, -2, -13, -15, 87, -19, -6, -80, 30, 12, 1, 1, -8, 2, 55, 56, 15, 11, -68, -7, 55, -2, 3, -3, -3, 48, 62, 4, 1, -3, 69, -33], "withholdReward": false, "trial_id": "mdp_trial_33", "block": "test", "trialIndex": 36, "score": 55.1, "costs": -12.9, "simulationMode": [null, null, null, null, null], "rewards": [-2, 3, -3, 1, 69], "path": ["0", "0", "23", "24", "25", "30", "32"], "rt": [20665, 22, 72, 33, 1125], "actions": ["left", "left", "left", "down", "down"], "actionTimes": [21673, 22199, 22799, 23343, 25001], "queries": {"click": {"state": {"target": ["33", "32", "31", "29", "27", "28"], "time": [2828, 6007, 9156, 12327, 15595, 18590]}, "edge": {"target": [], "time": []}}, "mouseover": {"state": {"target": ["0", "30", "33", "32", "31", "25", "29", "29", "27", "28"], "time": [1847, 2164, 2413, 3477, 6775, 9689, 9739, 10072, 12985, 16332]}, "edge": {"target": [], "time": []}}, "mouseout": {"state": {"target": ["0", "0", "30", "33", "33", "32", "31", "25", "29", "29", "27", "28", "23"], "time": [491, 1862, 2280, 3050, 3394, 6625, 9656, 9707, 9789, 12786, 16049, 26485, 26522]}, "edge": {"target": [], "time": []}}}, "displayed_time": "25.51", "trialTime": 28557, "trial_type": "mouselab-mdp", "trial_index": 47, "time_elapsed": 1355064, "internal_node_id": "0.0-6.0-1.0-32.0"}}, {"uniqueid": "w33055757:a67802358", "current_trial": 48, "dateTime": 1693566045611, "trialdata": {"revealed_states": [], "clicked_states": ["18", "16", "17", "20", "21", "22", "6", "7", "5", "9", "11", "10"], "num_clicks_accrued": [0, 0, 0, 0, 0, 0, 0, 0, 0, 0, 0, 0, 0], "stateRewards": ["", -2, -3, 8, 14, -73, 73, 84, -12, -2, -50, -17, 2, 1, -2, -9, -44, -27, -33, 16, -63, -47, -66, -2, 1, 4, -5, -33, -11, 50, 9, 38, -79, 31], "withholdReward": false, "trial_id": "mdp_trial_34", "block": "test", "trialIndex": 37, "score": -55.8, "costs": -25.799999999999994, "simulationMode": [null, null, null, null, null], "rewards": [2, 1, -2, 16, -47], "path": ["0", "0", "12", "13", "14", "19", "21"], "rt": [40421, 2575, 803, 86, 1456], "actions": ["right", "right", "right", "down", "down"], "actionTimes": [42161, 45241, 46549, 47148, 49117], "queries": {"click": {"state": {"target": ["18", "16", "17", "20", "21", "22", "6", "7", "5", "9", "11", "10"], "time": [2832, 6046, 9309, 12543, 15795, 19007, 22185, 25398, 28616, 31992, 35217, 38362]}, "edge": {"target": [], "time": []}}, "mouseover": {"state": {"target": ["12", "18", "16", "17", "20", "21", "22", "13", "18", "6", "7", "4", "5", "9", "11", "10"], "time": [2187, 2487, 3435, 6781, 10195, 13227, 17022, 19470, 19488, 19570, 22733, 25848, 26114, 29510, 32990, 36353]}, "edge": {"target": [], "time": []}}, "mouseout": {"state": {"target": ["0", "12", "18", "16", "17", "20", "21", "22", "13", "18", "6", "7", "4", "5", "5", "9", "9", "11", "10"], "time": [1088, 2202, 3044, 6548, 9862, 13010, 16010, 19454, 19487, 19504, 22600, 25815, 25981, 28838, 29161, 32202, 32624, 36037, 38577]}, "edge": {"target": [], "time": []}}}, "displayed_time": "49.63", "trialTime": 50929, "trial_type": "mouselab-mdp", "trial_index": 48, "time_elapsed": 1406185, "internal_node_id": "0.0-6.0-1.0-33.0"}}, {"uniqueid": "w33055757:a67802358", "current_trial": 49, "dateTime": 1693566095474, "trialdata": {"revealed_states": [], "clicked_states": ["6", "7", "5", "9", "11", "10", "16", "18", "17", "20", "21", "22"], "num_clicks_accrued": [0, 0, 0, 0, 0, 0, 0, 0, 0, 0, 0, 0, 0], "stateRewards": ["", -1, 3, 8, 9, -53, 20, -84, 2, -28, -62, -31, -1, -2, -7, 2, 51, 58, 45, -4, -17, -41, 36, 2, -2, -7, -15, 29, -54, -37, -16, -43, 65, -17], "withholdReward": false, "trial_id": "mdp_trial_35", "block": "test", "trialIndex": 38, "score": 24.200000000000003, "costs": -25.799999999999994, "simulationMode": [null, null, null, null, null], "rewards": [-1, -2, -7, 2, 58], "path": ["0", "0", "12", "13", "14", "15", "17"], "rt": [41948, 411, 166, 314, 178], "actions": ["right", "right", "right", "up", "right"], "actionTimes": [44675, 45597, 46281, 47113, 47809], "queries": {"click": {"state": {"target": ["6", "7", "5", "9", "11", "10", "16", "18", "17", "20", "21", "22"], "time": [4183, 7600, 10875, 14388, 17570, 20713, 23860, 27059, 30320, 34277, 38168, 41458]}, "edge": {"target": [], "time": []}}, "mouseover": {"state": {"target": ["1", "2", "4", "6", "7", "4", "5", "9", "11", "10", "2", "7", "16", "18", "18", "15", "17", "20", "21", "22"], "time": [3289, 3423, 3539, 3739, 4903, 8118, 8284, 11514, 15193, 18291, 21073, 21105, 21588, 24319, 24652, 27482, 27715, 33661, 37341, 39054]}, "edge": {"target": [], "time": []}}, "mouseout": {"state": {"target": ["10", "10", "23", "1", "2", "4", "6", "6", "7", "4", "5", "9", "11", "10", "2", "7", "16", "18", "18", "15", "17", "17", "20", "20", "21"], "time": [625, 790, 1141, 3304, 3455, 3572, 4400, 4603, 7823, 8151, 11380, 15110, 18007, 21071, 21088, 21138, 24302, 24469, 27465, 27549, 30534, 33262, 34491, 37023, 38938]}, "edge": {"target": [], "time": []}}}, "displayed_time": "48.31", "trialTime": 49676, "trial_type": "mouselab-mdp", "trial_index": 49, "time_elapsed": 1456048, "internal_node_id": "0.0-6.0-1.0-34.0"}}, {"uniqueid": "w33055757:a67802358", "current_trial": 50, "dateTime": 1693566122934, "trialdata": {"revealed_states": [], "clicked_states": ["11", "9", "10", "7", "6", "5"], "num_clicks_accrued": [0, 0, 0, 0, 0, 0, 0, 0, 0, 0, 0, 0, 0], "stateRewards": ["", -2, -4, 4, -11, -63, -60, -7, 2, -14, 81, -43, -1, -1, -5, 7, 10, 69, 40, 8, -83, 52, 60, 1, 2, 5, -5, 16, 64, 14, -3, 29, 7, -51], "withholdReward": false, "trial_id": "mdp_trial_36", "block": "test", "trialIndex": 39, "score": 68.1, "costs": -12.9, "simulationMode": [null, null, null, null, null], "rewards": [-2, -4, 4, 2, 81], "path": ["0", "0", "1", "2", "3", "8", "10"], "rt": [20562, 32, 178, 204, 152], "actions": ["up", "up", "up", "left", "down"], "actionTimes": [22149, 22690, 23385, 24094, 24758], "queries": {"click": {"state": {"target": ["11", "9", "10", "7", "6", "5"], "time": [2579, 5763, 8890, 12082, 15604, 18832]}, "edge": {"target": [], "time": []}}, "mouseover": {"state": {"target": ["10", "11", "9", "8", "10", "2", "7", "7", "6", "5"], "time": [2027, 2161, 3076, 6289, 6472, 9453, 9869, 10419, 14566, 16563]}, "edge": {"target": [], "time": []}}, "mouseout": {"state": {"target": ["22", "0", "0", "10", "11", "9", "9", "8", "10", "2", "7", "7", "6", "5", "18", "13", "22"], "time": [479, 794, 1986, 2060, 2797, 5983, 6256, 6339, 9436, 9536, 10086, 14449, 15825, 25989, 26171, 26288, 26371]}, "edge": {"target": [], "time": []}}}, "displayed_time": "25.27", "trialTime": 27270, "trial_type": "mouselab-mdp", "trial_index": 50, "time_elapsed": 1483508, "internal_node_id": "0.0-6.0-1.0-35.0"}}, {"uniqueid": "w33055757:a67802358", "current_trial": 51, "dateTime": 1693566141394, "trialdata": {"revealed_states": [], "clicked_states": ["11", "9", "10"], "num_clicks_accrued": [0, 0, 0, 0, 0, 0, 0, 0, 0, 0, 0, 0, 0], "stateRewards": ["", 1, 2, 7, 13, 88, -71, 27, 3, 60, 5, -53, -2, 2, -6, -1, -30, 79, 47, -4, -14, 46, 68, 1, 1, 8, 10, -14, 86, 48, -11, -67, -44, 5], "withholdReward": false, "trial_id": "mdp_trial_37", "block": "test", "trialIndex": 40, "score": 66.55, "costs": -6.449999999999999, "simulationMode": [null, null, null, null, null], "rewards": [1, 2, 7, 3, 60], "path": ["0", "0", "1", "2", "3", "8", "9"], "rt": [11974, 489, 210, 257, 160], "actions": ["up", "up", "up", "left", "up"], "actionTimes": [13402, 14404, 15123, 15886, 16556], "queries": {"click": {"state": {"target": ["11", "9", "10"], "time": [3791, 7028, 10307]}, "edge": {"target": [], "time": []}}, "mouseover": {"state": {"target": ["10", "11", "9", "8", "10"], "time": [3140, 3441, 4923, 7403, 7469]}, "edge": {"target": [], "time": []}}, "mouseout": {"state": {"target": ["0", "10", "11", "9", "8"], "time": [3046, 3172, 4672, 7386, 7435]}, "edge": {"target": [], "time": []}}}, "displayed_time": "17.06", "trialTime": 18272, "trial_type": "mouselab-mdp", "trial_index": 51, "time_elapsed": 1501969, "internal_node_id": "0.0-6.0-1.0-36.0"}}, {"uniqueid": "w33055757:a67802358", "current_trial": 52, "dateTime": 1693566170171, "trialdata": {"revealed_states": [], "clicked_states": ["7", "6", "5", "9", "11", "10"], "num_clicks_accrued": [0, 0, 0, 0, 0, 0, 0, 0, 0, 0, 0, 0, 0], "stateRewards": ["", 2, 3, 3, 10, 19, -21, 6, 9, 54, 68, 16, 2, 2, -6, -8, 40, -2, -75, -2, -42, 55, 59, -1, 2, 4, -14, 11, -34, -30, -6, 61, -53, 13], "withholdReward": false, "trial_id": "mdp_trial_38", "block": "test", "trialIndex": 41, "score": 72.1, "costs": -12.9, "simulationMode": [null, null, null, null, null], "rewards": [2, 3, 3, 9, 68], "path": ["0", "0", "1", "2", "3", "8", "10"], "rt": [20025, 219, 780, 75, 172], "actions": ["up", "up", "up", "left", "down"], "actionTimes": [21263, 21991, 23285, 23878, 24559], "queries": {"click": {"state": {"target": ["7", "6", "5", "9", "11", "10"], "time": [2387, 5627, 8614, 11796, 14924, 18131]}, "edge": {"target": [], "time": []}}, "mouseover": {"state": {"target": ["7", "6", "5", "9", "11", "10"], "time": [1924, 3055, 6101, 10265, 12314, 15725]}, "edge": {"target": [], "time": []}}, "mouseout": {"state": {"target": ["10", "1", "0", "7", "6", "5", "9", "11", "10", "10", "0"], "time": [491, 657, 1661, 2906, 6035, 8833, 12180, 15476, 18353, 25685, 25785]}, "edge": {"target": [], "time": []}}}, "displayed_time": "25.07", "trialTime": 28579, "trial_type": "mouselab-mdp", "trial_index": 52, "time_elapsed": 1530745, "internal_node_id": "0.0-6.0-1.0-37.0"}}, {"uniqueid": "w33055757:a67802358", "current_trial": 53, "dateTime": 1693566198078, "trialdata": {"revealed_states": [], "clicked_states": ["29", "27", "28", "33", "32", "31"], "num_clicks_accrued": [0, 0, 0, 0, 0, 0, 0, 0, 0, 0, 0, 0, 0], "stateRewards": ["", 1, -3, 4, 13, -72, 52, 5, 5, -58, 5, 14, 2, 1, 3, -14, -86, -4, 73, 6, -58, -50, 49, 2, -3, -4, 2, 33, -41, 42, -11, 81, 45, 53], "withholdReward": false, "trial_id": "mdp_trial_39", "block": "test", "trialIndex": 42, "score": 52.1, "costs": -12.9, "simulationMode": [null, null, null, null, null], "rewards": [2, -3, -4, -11, 81], "path": ["0", "0", "23", "24", "25", "30", "31"], "rt": [22084, 109, 46, 95, 141], "actions": ["left", "left", "left", "down", "right"], "actionTimes": [23493, 24119, 24672, 25270, 25916], "queries": {"click": {"state": {"target": ["29", "27", "28", "33", "32", "31"], "time": [2643, 5962, 9218, 12486, 15733, 19308]}, "edge": {"target": [], "time": []}}, "mouseover": {"state": {"target": ["28", "29", "27", "28", "25", "33", "33", "32", "31"], "time": [1848, 2230, 3279, 6726, 9672, 9722, 9988, 13270, 16733]}, "edge": {"target": [], "time": []}}, "mouseout": {"state": {"target": ["0", "0", "28", "29", "27", "28", "25", "33", "33", "33", "32", "31", "31"], "time": [882, 963, 1897, 3130, 6509, 9433, 9689, 9806, 12709, 12970, 16201, 19524, 22560]}, "edge": {"target": [], "time": []}}}, "displayed_time": "26.43", "trialTime": 27704, "trial_type": "mouselab-mdp", "trial_index": 53, "time_elapsed": 1558652, "internal_node_id": "0.0-6.0-1.0-38.0"}}, {"uniqueid": "w33055757:a67802358", "current_trial": 54, "dateTime": 1693566249854, "trialdata": {"revealed_states": [], "clicked_states": ["29", "27", "28", "31", "32", "33", "11", "9", "10", "5", "6", "7"], "num_clicks_accrued": [0, 0, 0, 0, 0, 0, 0, 0, 0, 0, 0, 0, 0], "stateRewards": ["", 1, 4, -8, -5, -15, -7, 21, 13, -30, 40, -65, 1, 1, 5, -14, 35, 27, -38, -11, 36, -58, -47, -2, 4, -3, 13, -16, -49, 22, 15, -56, -44, -10], "withholdReward": false, "trial_id": "mdp_trial_40", "block": "test", "trialIndex": 43, "score": 24.200000000000006, "costs": -25.799999999999994, "simulationMode": [null, null, null, null, null], "rewards": [1, 4, -8, 13, 40], "path": ["0", "0", "1", "2", "3", "8", "10"], "rt": [40564, 348, 96, 255, 77], "actions": ["up", "up", "up", "left", "down"], "actionTimes": [42769, 43631, 44245, 45019, 45608], "queries": {"click": {"state": {"target": ["29", "27", "28", "31", "32", "33", "11", "9", "10", "5", "6", "7"], "time": [4018, 7263, 10412, 13633, 16801, 19977, 23161, 26177, 29458, 32708, 36087, 39529]}, "edge": {"target": [], "time": []}}, "mouseover": {"state": {"target": ["24", "26", "29", "27", "28", "24", "31", "32", "33", "25", "26", "11", "9", "8", "10", "3", "5", "6", "7"], "time": [2755, 2955, 3685, 5036, 8065, 10897, 11097, 14260, 17623, 20454, 20472, 20770, 23733, 26731, 27130, 30047, 30177, 34091, 36639]}, "edge": {"target": [], "time": []}}, "mouseout": {"state": {"target": ["0", "1", "0", "24", "26", "29", "27", "27", "28", "28", "24", "31", "32", "33", "25", "26", "11", "9", "8", "10", "3", "5", "6", "6"], "time": [1322, 1622, 2622, 2804, 3104, 4241, 7473, 7766, 10630, 10864, 10947, 14077, 17290, 20438, 20471, 20504, 23377, 26697, 26963, 29994, 30094, 33242, 36311, 36589]}, "edge": {"target": [], "time": []}}}, "displayed_time": "46.11", "trialTime": 51581, "trial_type": "mouselab-mdp", "trial_index": 54, "time_elapsed": 1610428, "internal_node_id": "0.0-6.0-1.0-39.0"}}, {"uniqueid": "w33055757:a67802358", "current_trial": 55, "dateTime": 1693566355570, "trialdata": {"rt": 105711, "response": {"Q0": "$-88 to $88", "Q1": "$-16 to $16", "Q2": "$-88 to $88", "Q3": "The cost for clicking on nodes varied between nodes.", "Q4": "Very motivated"}, "question_order": [0, 1, 2, 3, 4], "trial_id": "final_quiz_control", "trial_type": "survey-multi-choice", "trial_index": 55, "time_elapsed": 1716144, "internal_node_id": "0.0-6.0-2.0"}}, {"uniqueid": "w33055757:a67802358", "current_trial": 56, "dateTime": 1693566422050, "trialdata": {"rt": 66472, "response": {"Q0": "Inspecting all the possible nodes before moving.", "Q1": "Yes. At first I was not clicking on  nodes but as time went by I started clicking on them to see where I should go.", "Q2": "Not difficult."}, "trial_id": "self_report_control", "trial_type": "survey-text", "trial_index": 56, "time_elapsed": 1782625, "internal_node_id": "0.0-6.0-3.0"}}, {"uniqueid": "w33055757:a67802358", "current_trial": 57, "dateTime": 1693566487682, "trialdata": {"rt": 65626, "response": {"Q0": "Neither disagree nor agree", "Q1": "Strongly disagree", "Q2": "Agree", "Q3": "Strongly agree", "Q4": "Strongly disagree", "Q5": "Strongly agree", "Q6": "Strongly disagree"}, "question_order": [0, 1, 2, 3, 4, 5, 6], "trial_id": "self_report_2", "trial_type": "survey-multi-choice", "trial_index": 57, "time_elapsed": 1848257, "internal_node_id": "0.0-6.0-4.0"}}, {"uniqueid": "w33055757:a67802358", "current_trial": 58, "dateTime": 1693566520886, "trialdata": {"rt": 33199, "response": {"gender": "female", "age": "22", "colorblind": "0", "effort": "0"}, "trial_type": "survey-html-form", "trial_index": 58, "time_elapsed": 1881461, "internal_node_id": "0.0-6.0-5.0"}}, {"uniqueid": "w33055757:a67802358", "current_trial": 59, "dateTime": 1693566538176, "trialdata": {"rt": 17286, "response": {"Q0": "No.", "Q1": "no.", "Q2": ""}, "trial_type": "survey-text", "trial_index": 59, "time_elapsed": 1898751, "internal_node_id": "0.0-6.0-6.0"}}, {"uniqueid": "w33055757:a67802358", "current_trial": 60, "dateTime": 1693566581694, "trialdata": {"rt": 43514, "stimulus": "<h1>Completion Code Instructions (1/2)</h1>\n<br><br><br><br>\nYou have reached the end of the experiment! The completion code consists of two parts: (1) a code with 2 characters (2) a code with 6 characters. On this page, you will receive the second part of the code. The first part of the completion code will be on the next page.\n<br><br>\nThe second part of your completion code is: <b>EWEK22</b>\n<br><br>\nPlease note this down. Then, press 'Finish HIT' in order to find the first part of your completion code. Once the data has been saved, you will receive this code either in this window or in the original browser window where you started the experiment.\n", "response": 0, "trial_type": "html-button-response", "trial_index": 60, "time_elapsed": 1942269, "internal_node_id": "0.0-6.0-7.0"}}, {"uniqueid": "w33055757:a67802358", "current_trial": 61, "dateTime": 1693566582698, "trialdata": {"success": true, "trial_type": "fullscreen", "trial_index": 61, "time_elapsed": 1943273, "internal_node_id": "0.0-7.0"}}], "questiondata": {"params": {"CODE": "C6DMOQA6", "MIN_TIME": 14, "inspectCost": 1, "startTime": "Fri Sep 01 2023 12:37:12 GMT+0200 (South Africa Standard Time)", "bonusRate": 0.002, "variance": "1_2_4_8_44", "branching": "31123"}, "final_score": 631.65}, "eventdata": [{"eventtype": "initialized", "value": null, "timestamp": 1693564632050, "interval": 0}, {"eventtype": "window_resize", "value": [1028, 778], "timestamp": 1693564632050, "interval": 0}, {"eventtype": "window_resize", "value": [1028, 778], "timestamp": 1693564632603, "interval": 553}, {"eventtype": "window_resize", "value": [1536, 806], "timestamp": 1693564639282, "interval": 6679}, {"eventtype": "window_resize", "value": [1536, 864], "timestamp": 1693564645218, "interval": 5936}, {"eventtype": "focus", "value": "off", "timestamp": 1693565097143, "interval": 451925}, {"eventtype": "focus", "value": "on", "timestamp": 1693565097143, "interval": 0}, {"eventtype": "window_resize", "value": [1536, 806], "timestamp": 1693565097348, "interval": 205}, {"eventtype": "window_resize", "value": [1536, 864], "timestamp": 1693565100168, "interval": 2820}, {"eventtype": "window_resize", "value": [1536, 806], "timestamp": 1693566581918, "interval": 1481750}], "useragent": "Mozilla/5.0 (Windows NT 10.0; Win64; x64) AppleWebKit/537.36 (KHTML, like Gecko) Chrome/116.0.0.0 Safari/537.36", "mode": "live", "id": "w33055757:a67802358", "status": "user data saved", "Beginhit": "2023-09-01 10:36:18.785193", "Beginexp": "2023-09-01 10:36:41.215457", "Endhit": "2023-09-01 11:08:59.131171", "psiturkStatus": 3, "browser": "<redacted>", "platform": "windows", "language": "en-GB"}