{"condition": 1, "counterbalance": 0, "assignmentId": "a20659364", "workerId": "w35427330", "hitId": "h52793386", "currenttrial": 56, "bonus": 0, "data": [{"uniqueid": "w35427330:a20659364", "current_trial": 0, "dateTime": 1693660266318, "trialdata": {"success": true, "trial_type": "fullscreen", "trial_index": 0, "time_elapsed": 3607, "internal_node_id": "0.0-0.0"}}, {"uniqueid": "w35427330:a20659364", "current_trial": 1, "dateTime": 1693660280257, "trialdata": {"view_history": [{"page_index": 0, "viewing_time": 13925}], "rt": 13926, "trial_id": "exp_instructions_misaligned", "trial_type": "instructions", "trial_index": 1, "time_elapsed": 17547, "internal_node_id": "0.0-1.0"}}, {"uniqueid": "w35427330:a20659364", "current_trial": 2, "dateTime": 1693660458571, "trialdata": {"view_history": [{"page_index": 0, "viewing_time": 74532}, {"page_index": 1, "viewing_time": 48744}, {"page_index": 2, "viewing_time": 20374}, {"page_index": 3, "viewing_time": 34657}], "rt": 178309, "trial_id": "mouselab_instructions_1_misaligned", "trial_type": "instructions", "trial_index": 2, "time_elapsed": 195860, "internal_node_id": "0.0-2.0-1.0"}}, {"uniqueid": "w35427330:a20659364", "current_trial": 3, "dateTime": 1693660507050, "trialdata": {"revealed_states": [], "clicked_states": ["23", "12", "14", "24", "25", "26", "27"], "num_clicks_accrued": [0, 0, 0, 0, 0, 0, 0, 0, 0, 0, 0, 0, 0], "stateRewards": ["", -10, -10, 10, 10, -10, -10, -10, -10, -10, -10, 10, 10, 10, -10, -10, -10, -10, 10, 10, 10, 10, -10, 10, 10, 10, 10, 10, -10, -10, -10, 10, -10, 10], "withholdReward": false, "trial_id": "practice_1", "block": "test", "trialIndex": 0, "score": 50, "costs": -3.5, "simulationMode": [null, null, null, null, null], "rewards": [10, 10, 10, 10, 10], "path": ["0", "0", "23", "24", "25", "26", "27"], "rt": [36201, 260, 281, 938, 85], "actions": ["left", "left", "left", "up", "up"], "actionTimes": [39233, 40002, 40789, 42231, 42837], "queries": {"click": {"state": {"target": ["23", "12", "14", "24", "25", "26", "27"], "time": [4400, 6243, 9259, 15765, 17861, 20883, 23842]}, "edge": {"target": [], "time": []}}, "mouseover": {"state": {"target": ["23", "0", "12", "13", "14", "13", "12", "0", "23", "24", "23", "23", "24", "25", "26", "27", "1", "12", "0", "23", "0", "0", "23", "24", "23", "24", "25", "26", "26", "24", "31", "23", "0"], "time": [3897, 5566, 5800, 8035, 8369, 11625, 11756, 11874, 11940, 12007, 12357, 13328, 14375, 16797, 20247, 23483, 25702, 25903, 25986, 26202, 28839, 29756, 29856, 30807, 31124, 31558, 31925, 32387, 32909, 33042, 33109, 35496, 36714]}, "edge": {"target": [], "time": []}}, "mouseout": {"state": {"target": ["0", "23", "0", "12", "13", "14", "14", "13", "12", "0", "23", "24", "23", "23", "24", "25", "25", "26", "27", "1", "12", "0", "23", "0", "0", "23", "24", "23", "24", "25", "26", "26", "24", "31", "23", "0", "0", "0"], "time": [3248, 5517, 5683, 7902, 8302, 10437, 11556, 11739, 11839, 11906, 11973, 12224, 13127, 14192, 16662, 19481, 19935, 23259, 25569, 25719, 25919, 26119, 28699, 29091, 29806, 29940, 31107, 31491, 31842, 32208, 32659, 32959, 33059, 33143, 36597, 37118, 41603, 44624]}, "edge": {"target": [], "time": []}}}, "displayed_time": "43.34", "trialTime": 47421, "trial_type": "mouselab-mdp", "trial_index": 3, "time_elapsed": 244339, "internal_node_id": "0.0-2.0-2.0-0.0"}}, {"uniqueid": "w35427330:a20659364", "current_trial": 4, "dateTime": 1693660539966, "trialdata": {"revealed_states": [], "clicked_states": ["1", "12", "23", "30", "26", "27"], "num_clicks_accrued": [0, 0, 0, 0, 0, 0, 0, 0, 0, 0, 0, 0, 0], "stateRewards": ["", -10, 10, 10, -10, -10, -10, -10, 10, -10, -10, -10, -10, -10, 10, 10, -10, -10, -10, 10, -10, -10, -10, 10, 10, 10, 10, 10, -10, 10, -10, -10, -10, 10], "withholdReward": false, "trial_id": "practice_2", "block": "test", "trialIndex": 1, "score": 50.5, "costs": -3, "simulationMode": [null, null, null, null, null], "rewards": [10, 10, 10, 10, 10], "path": ["0", "0", "23", "24", "25", "26", "27"], "rt": [21354, 225, 223, 755, 279], "actions": ["left", "left", "left", "up", "up"], "actionTimes": [23675, 24422, 25165, 26447, 27235], "queries": {"click": {"state": {"target": ["1", "12", "23", "30", "26", "27"], "time": [4386, 6818, 9083, 13974, 16739, 19642]}, "edge": {"target": [], "time": []}}, "mouseover": {"state": {"target": ["12", "1", "2", "12", "23", "24", "25", "30", "25", "26", "27", "28", "24", "23"], "time": [3698, 4065, 5634, 6484, 8770, 10738, 12307, 13134, 15778, 15880, 19347, 21416, 21499, 21549]}, "edge": {"target": [], "time": []}}, "mouseout": {"state": {"target": ["0", "12", "1", "2", "12", "23", "24", "25", "30", "25", "26", "27", "28", "24", "23"], "time": [3631, 3915, 5450, 6317, 8570, 10688, 12163, 13041, 15680, 15828, 19149, 19866, 21466, 21515, 21882]}, "edge": {"target": [], "time": []}}}, "displayed_time": "27.74", "trialTime": 32224, "trial_type": "mouselab-mdp", "trial_index": 4, "time_elapsed": 277255, "internal_node_id": "0.0-2.0-2.0-1.0"}}, {"uniqueid": "w35427330:a20659364", "current_trial": 5, "dateTime": 1693660561600, "trialdata": {"view_history": [{"page_index": 0, "viewing_time": 14197}, {"page_index": 1, "viewing_time": 7432}], "rt": 21630, "trial_id": "mouselab_instructions_2_misaligned", "trial_type": "instructions", "trial_index": 5, "time_elapsed": 298890, "internal_node_id": "0.0-2.0-3.0"}}, {"uniqueid": "w35427330:a20659364", "current_trial": 6, "dateTime": 1693660595133, "trialdata": {"rt": 33524, "response": {"Q0": "The cost for clicking on nodes may vary between nodes.", "Q1": "The better I perform the higher my bonus will be.", "Q2": "No, the amount of cash at each node of the web may be different each time.", "Q3": "To get the highest total score.", "Q4": "Only before moving the spider.", "Q5": "3 seconds"}, "question_order": [0, 1, 2, 3, 4, 5], "correct": {"Q0": "The cost for clicking on nodes may vary between nodes.", "Q1": "The better I perform the higher my bonus will be.", "Q2": "No, the amount of cash at each node of the web may be different each time.", "Q3": "To get the highest total score.", "Q4": "Only before moving the spider.", "Q5": "3 seconds"}, "trial_id": "mouselab_quiz_misaligned", "trial_type": "survey-multi-choice", "trial_index": 6, "time_elapsed": 332423, "internal_node_id": "0.0-2.0-4.0"}}, {"uniqueid": "w35427330:a20659364", "current_trial": 7, "dateTime": 1693660600240, "trialdata": {"rt": 5094, "response": {"Q0": "No"}, "question_order": [0], "trial_id": "repeat_check", "trial_type": "survey-multi-choice", "trial_index": 7, "time_elapsed": 337530, "internal_node_id": "0.0-4.0-0.0"}}, {"uniqueid": "w35427330:a20659364", "current_trial": 8, "dateTime": 1693660605956, "trialdata": {"rt": 5704, "stimulus": "\n<h1> Get ready to start the game! </h1>\n\nThank you for reading the instructions. Get ready start with the 40 rounds of this game.\n<br><br>\nIf you need to take a break, feel free to take one after the end of a round, before continuing to the next one.\n<br><br>\nRemember, the more money the spider gets, the bigger your bonus will be!\n<br><br>\n<div style='text-align: center;'>Press <code>space</code> to begin.</div>\n\n<br><br>\n(If, at any point, the <code>space</code> key does not take you to the next page, click once on the text and try again.)", "response": " ", "trial_id": "mdp_ready", "trial_type": "html-keyboard-response", "trial_index": 8, "time_elapsed": 343245, "internal_node_id": "0.0-6.0-0.0"}}, {"uniqueid": "w35427330:a20659364", "current_trial": 9, "dateTime": 1693660632888, "trialdata": {"revealed_states": [], "clicked_states": ["23", "24", "25", "26", "30", "32"], "num_clicks_accrued": [0, 0, 0, 0, 0, 0, 0, 0, 0, 0, 0, 0, 0], "stateRewards": ["", -2, -1, -4, -15, -14, -67, 32, -3, -59, 63, 31, 2, -1, -7, -15, 71, -66, -27, -3, -54, -39, 72, 2, 1, 1, -13, 77, -40, 35, -9, 35, 75, 57], "withholdReward": false, "trial_id": "mdp_trial_1", "block": "test", "trialIndex": 2, "score": -42.3, "costs": -6.299999999999999, "simulationMode": [null, null, null, null, null], "rewards": [-2, -1, -4, -15, -14], "path": ["0", "0", "1", "2", "3", "4", "5"], "rt": [15227, 1585, 288, 1308, 846], "actions": ["up", "up", "up", "right", "up"], "actionTimes": [16805, 18901, 19689, 21511, 22884], "queries": {"click": {"state": {"target": ["23", "24", "25", "26", "30", "32"], "time": [2817, 4399, 5757, 7280, 8673, 11490]}, "edge": {"target": [], "time": []}}, "mouseover": {"state": {"target": ["23", "24", "25", "26", "30", "31", "23", "31", "32"], "time": [2095, 3516, 5333, 6718, 8219, 9546, 9739, 11005, 11256]}, "edge": {"target": [], "time": []}}, "mouseout": {"state": {"target": ["24", "0", "23", "24", "25", "26", "25", "30", "31", "23", "31", "32", "19"], "time": [241, 2028, 3414, 5202, 6439, 8058, 8150, 9515, 9568, 10922, 11055, 11772, 25368]}, "edge": {"target": [], "time": []}}}, "displayed_time": "23.39", "trialTime": 26231, "trial_type": "mouselab-mdp", "trial_index": 9, "time_elapsed": 370178, "internal_node_id": "0.0-6.0-1.0-0.0"}}, {"uniqueid": "w35427330:a20659364", "current_trial": 10, "dateTime": 1693660650735, "trialdata": {"revealed_states": [], "clicked_states": [], "num_clicks_accrued": [0, 0, 0, 0, 0, 0, 0, 0, 0, 0, 0, 0, 0], "stateRewards": ["", -1, -3, -7, -7, -76, 30, -49, 11, -70, 56, 2, 1, 4, -3, -14, -59, -83, -25, -9, -21, -67, -73, -2, 4, 4, -9, -11, -32, 60, 9, -87, 22, -64], "withholdReward": false, "trial_id": "mdp_trial_2", "block": "test", "trialIndex": 3, "score": -14, "costs": 0, "simulationMode": [null, null, null, null, null], "rewards": [-2, 4, 4, -9, -11], "path": ["0", "0", "23", "24", "25", "26", "27"], "rt": [9843, 262, 209, 1051, 220], "actions": ["left", "left", "left", "up", "up"], "actionTimes": [11368, 12159, 12902, 14477, 15197], "queries": {"click": {"state": {"target": [], "time": []}, "edge": {"target": [], "time": []}}, "mouseover": {"state": {"target": ["0", "1", "0", "23", "24", "23", "0", "0", "23", "24", "23"], "time": [2292, 2710, 3510, 3577, 3727, 4295, 6488, 8984, 9150, 9617, 9984]}, "edge": {"target": [], "time": []}}, "mouseout": {"state": {"target": ["0", "0", "1", "0", "23", "24", "23", "0", "0", "23", "24", "23"], "time": [1555, 2392, 3210, 3544, 3594, 4147, 6200, 8500, 9050, 9568, 9967, 10002]}, "edge": {"target": [], "time": []}}}, "displayed_time": "15.70", "trialTime": 17199, "trial_type": "mouselab-mdp", "trial_index": 10, "time_elapsed": 388025, "internal_node_id": "0.0-6.0-1.0-1.0"}}, {"uniqueid": "w35427330:a20659364", "current_trial": 11, "dateTime": 1693660669861, "trialdata": {"revealed_states": [], "clicked_states": ["24", "26", "27"], "num_clicks_accrued": [0, 0, 0, 0, 0, 0, 0, 0, 0, 0, 0, 0, 0], "stateRewards": ["", 1, 4, 5, -5, 58, -80, 75, 6, 25, -39, 46, 2, -2, 4, 2, 59, 31, -22, -12, -61, 15, 72, 1, -2, -7, 8, 77, 76, -23, -7, 71, -15, -3], "withholdReward": false, "trial_id": "mdp_trial_3", "block": "test", "trialIndex": 4, "score": 72.95, "costs": -4.05, "simulationMode": [null, null, null, null, null], "rewards": [1, -2, -7, 8, 77], "path": ["0", "0", "23", "24", "25", "26", "27"], "rt": [8111, 176, 195, 477, 176], "actions": ["left", "left", "left", "up", "up"], "actionTimes": [10073, 10774, 11494, 12484, 13159], "queries": {"click": {"state": {"target": ["24", "26", "27"], "time": [2905, 4385, 5306]}, "edge": {"target": [], "time": []}}, "mouseover": {"state": {"target": ["24", "25", "26", "27", "28", "28", "25"], "time": [2549, 3569, 4083, 4953, 6122, 6841, 8439]}, "edge": {"target": [], "time": []}}, "mouseout": {"state": {"target": ["0", "24", "25", "26", "27", "28", "28", "25"], "time": [1983, 3502, 4001, 4903, 5604, 6155, 6956, 8722]}, "edge": {"target": [], "time": []}}}, "displayed_time": "15.96", "trialTime": 18445, "trial_type": "mouselab-mdp", "trial_index": 11, "time_elapsed": 407150, "internal_node_id": "0.0-6.0-1.0-2.0"}}, {"uniqueid": "w35427330:a20659364", "current_trial": 12, "dateTime": 1693660689700, "trialdata": {"revealed_states": [], "clicked_states": ["27"], "num_clicks_accrued": [0, 0, 0, 0, 0, 0, 0, 0, 0, 0, 0, 0, 0], "stateRewards": ["", 1, -3, -4, -11, -56, 61, -47, -16, -28, -9, 69, -2, -3, -4, -8, 40, -86, 59, -4, 80, 27, 54, -1, 3, -1, 8, 67, 23, 50, 6, 83, -43, -29], "withholdReward": false, "trial_id": "mdp_trial_4", "block": "test", "trialIndex": 5, "score": 73.85, "costs": -2.15, "simulationMode": [null, null, null, null, null], "rewards": [-1, 3, -1, 8, 67], "path": ["0", "0", "23", "24", "25", "26", "27"], "rt": [6031, 104, 176, 405, 172], "actions": ["left", "left", "left", "up", "up"], "actionTimes": [7798, 8411, 9107, 10030, 10705], "queries": {"click": {"state": {"target": ["27"], "time": [3048]}, "edge": {"target": [], "time": []}}, "mouseover": {"state": {"target": ["23", "28", "27", "1", "13", "19", "22", "31", "32"], "time": [2429, 2545, 2695, 3932, 4015, 4054, 4582, 4799, 6416]}, "edge": {"target": [], "time": []}}, "mouseout": {"state": {"target": ["31", "23", "0", "23", "28", "27", "1", "13", "19", "22", "31", "32", "30", "33", "33", "33", "30", "32"], "time": [25, 192, 2412, 2462, 2612, 3792, 3965, 4049, 4132, 4650, 4847, 6592, 13976, 14074, 15331, 18097, 18213, 18281]}, "edge": {"target": [], "time": []}}}, "displayed_time": "15.77", "trialTime": 18980, "trial_type": "mouselab-mdp", "trial_index": 12, "time_elapsed": 426989, "internal_node_id": "0.0-6.0-1.0-3.0"}}, {"uniqueid": "w35427330:a20659364", "current_trial": 13, "dateTime": 1693660710606, "trialdata": {"revealed_states": [], "clicked_states": ["27", "32", "21"], "num_clicks_accrued": [0, 0, 0, 0, 0, 0, 0, 0, 0, 0, 0, 0, 0], "stateRewards": ["", -1, 2, 7, 8, 75, 67, -11, 6, 52, -17, 38, -1, 4, -8, 14, 74, -37, -17, -12, 52, 55, 71, -2, -1, -5, 2, 21, 6, -88, -14, 64, -61, -47], "withholdReward": false, "trial_id": "mdp_trial_5", "block": "test", "trialIndex": 6, "score": 31.55, "costs": -6.449999999999999, "simulationMode": [null, null, null, null, null], "rewards": [-1, 4, -8, -12, 55], "path": ["0", "0", "12", "13", "14", "19", "21"], "rt": [12870, 188, 254, 627, 257], "actions": ["right", "right", "right", "down", "down"], "actionTimes": [14619, 15321, 16086, 17211, 17976], "queries": {"click": {"state": {"target": ["27", "32", "21"], "time": [2618, 6015, 9414]}, "edge": {"target": [], "time": []}}, "mouseover": {"state": {"target": ["27", "26", "25", "30", "32", "21", "21", "15", "16", "13"], "time": [2414, 3101, 3200, 3325, 3555, 6620, 7239, 9956, 10123, 13174]}, "edge": {"target": [], "time": []}}, "mouseout": {"state": {"target": ["0", "27", "26", "25", "30", "32", "21", "21", "15", "16"], "time": [1780, 3052, 3157, 3296, 3389, 6287, 6937, 9672, 10006, 13074]}, "edge": {"target": [], "time": []}}}, "displayed_time": "18.48", "trialTime": 20068, "trial_type": "mouselab-mdp", "trial_index": 13, "time_elapsed": 447895, "internal_node_id": "0.0-6.0-1.0-4.0"}}, {"uniqueid": "w35427330:a20659364", "current_trial": 14, "dateTime": 1693660731975, "trialdata": {"revealed_states": [], "clicked_states": ["27", "32", "21"], "num_clicks_accrued": [0, 0, 0, 0, 0, 0, 0, 0, 0, 0, 0, 0, 0], "stateRewards": ["", 1, -1, 4, -2, -75, -75, 84, -9, -60, -79, 59, 2, -4, 8, 9, -17, -82, 80, 14, -4, 49, 49, -1, 3, 6, -11, -33, 34, 55, 9, -57, 5, 59], "withholdReward": false, "trial_id": "mdp_trial_6", "block": "test", "trialIndex": 7, "score": 62.55, "costs": -6.449999999999999, "simulationMode": [null, null, null, null, null], "rewards": [2, -4, 8, 14, 49], "path": ["0", "0", "12", "13", "14", "19", "21"], "rt": [12454, 106, 165, 291, 166], "actions": ["right", "right", "right", "down", "down"], "actionTimes": [14357, 14991, 15666, 16476, 17151], "queries": {"click": {"state": {"target": ["27", "32", "21"], "time": [2635, 6372, 9766]}, "edge": {"target": [], "time": []}}, "mouseover": {"state": {"target": ["25", "26", "27", "28", "24", "23", "24", "32", "21", "16"], "time": [2133, 2203, 2317, 3615, 3709, 4626, 5854, 6103, 7910, 10396]}, "edge": {"target": [], "time": []}}, "mouseout": {"state": {"target": ["0", "12", "13", "12", "23", "0", "25", "26", "27", "28", "24", "23", "24", "32", "21", "16", "17", "15"], "time": [22, 56, 564, 649, 897, 1934, 2171, 2275, 3554, 3685, 3736, 4655, 5888, 6741, 10027, 13326, 19782, 19799]}, "edge": {"target": [], "time": []}}}, "displayed_time": "17.67", "trialTime": 20385, "trial_type": "mouselab-mdp", "trial_index": 14, "time_elapsed": 469264, "internal_node_id": "0.0-6.0-1.0-5.0"}}, {"uniqueid": "w35427330:a20659364", "current_trial": 15, "dateTime": 1693660759222, "trialdata": {"revealed_states": [], "clicked_states": ["27", "32", "21", "16", "5"], "num_clicks_accrued": [0, 0, 0, 0, 0, 0, 0, 0, 0, 0, 0, 0, 0], "stateRewards": ["", -1, -2, 4, 9, 10, -75, 39, 16, -43, 88, -19, -1, 1, 2, 4, -31, 10, 73, 12, 41, -64, -81, -2, 2, -6, 1, -81, -1, -26, 3, -59, -3, -20], "withholdReward": false, "trial_id": "mdp_trial_7", "block": "test", "trialIndex": 8, "score": 9.25, "costs": -10.75, "simulationMode": [null, null, null, null, null], "rewards": [-1, -2, 4, 9, 10], "path": ["0", "0", "1", "2", "3", "4", "5"], "rt": [19512, 60, 174, 255, 153], "actions": ["up", "up", "up", "right", "up"], "actionTimes": [21150, 21717, 22414, 23179, 23877], "queries": {"click": {"state": {"target": ["27", "32", "21", "16", "5"], "time": [2299, 6126, 9527, 12870, 16669]}, "edge": {"target": [], "time": []}}, "mouseover": {"state": {"target": ["25", "27", "26", "25", "30", "32", "21", "19", "15", "16", "15", "15", "6", "5"], "time": [1669, 2031, 2966, 3018, 3054, 5889, 6775, 9847, 10007, 10175, 13353, 14163, 16180, 16379]}, "edge": {"target": [], "time": []}}, "mouseout": {"state": {"target": ["24", "23", "0", "25", "27", "26", "25", "30", "32", "21", "19", "15", "16", "15", "15", "6", "5"], "time": [712, 762, 1660, 1720, 2933, 2983, 3036, 3085, 6338, 9773, 9881, 10095, 13311, 13396, 15033, 16197, 16966]}, "edge": {"target": [], "time": []}}}, "displayed_time": "24.38", "trialTime": 26594, "trial_type": "mouselab-mdp", "trial_index": 15, "time_elapsed": 496511, "internal_node_id": "0.0-6.0-1.0-6.0"}}, {"uniqueid": "w35427330:a20659364", "current_trial": 16, "dateTime": 1693660780168, "trialdata": {"revealed_states": [], "clicked_states": ["27", "32"], "num_clicks_accrued": [0, 0, 0, 0, 0, 0, 0, 0, 0, 0, 0, 0, 0], "stateRewards": ["", 2, -4, -4, 13, -80, 62, 13, -11, 57, -13, -44, 1, 4, 3, -4, -29, -88, 15, 16, -58, 68, -45, -1, -3, -1, -9, -44, -86, -19, -7, -36, 59, 66], "withholdReward": false, "trial_id": "mdp_trial_8", "block": "test", "trialIndex": 9, "score": 42.7, "costs": -4.3, "simulationMode": [null, null, null, null, null], "rewards": [-1, -3, -1, -7, 59], "path": ["0", "0", "23", "24", "25", "30", "32"], "rt": [9487, 60, 120, 140, 141], "actions": ["left", "left", "left", "down", "down"], "actionTimes": [13609, 14187, 14828, 15481, 16133], "queries": {"click": {"state": {"target": ["27", "32"], "time": [5821, 9141]}, "edge": {"target": [], "time": []}}, "mouseover": {"state": {"target": ["24", "26", "27", "28", "24", "32", "32", "21"], "time": [5054, 5356, 5421, 6095, 6171, 6526, 7028, 9905]}, "edge": {"target": [], "time": []}}, "mouseout": {"state": {"target": ["0", "0", "0", "24", "26", "27", "28", "24", "32", "32", "21"], "time": [null, 65, 4304, 5121, 5371, 6074, 6126, 6196, 6975, 9429, 12630]}, "edge": {"target": [], "time": []}}}, "displayed_time": "18.12", "trialTime": 20267, "trial_type": "mouselab-mdp", "trial_index": 16, "time_elapsed": 517458, "internal_node_id": "0.0-6.0-1.0-7.0"}}, {"uniqueid": "w35427330:a20659364", "current_trial": 17, "dateTime": 1693660807983, "trialdata": {"revealed_states": [], "clicked_states": ["27", "32", "21", "16", "9"], "num_clicks_accrued": [0, 0, 0, 0, 0, 0, 0, 0, 0, 0, 0, 0, 0], "stateRewards": ["", -2, -3, 8, 14, -73, 73, 84, -12, -2, -50, -17, 2, 1, -2, -9, -44, -27, -33, 16, -63, -47, -66, -2, 1, 4, -5, -33, -11, 50, 9, 38, -79, 31], "withholdReward": false, "trial_id": "mdp_trial_9", "block": "test", "trialIndex": 10, "score": -66.75, "costs": -10.75, "simulationMode": [null, null, null, null, null], "rewards": [-2, -3, 8, 14, -73], "path": ["0", "0", "1", "2", "3", "4", "5"], "rt": [19157, 109, 197, 176, 436], "actions": ["up", "up", "up", "right", "up"], "actionTimes": [22306, 22919, 23638, 24336, 25281], "queries": {"click": {"state": {"target": ["27", "32", "21", "16", "9"], "time": [4118, 7470, 10782, 14112, 17439]}, "edge": {"target": [], "time": []}}, "mouseover": {"state": {"target": ["31", "30", "25", "26", "27", "24", "30", "32", "21", "21", "16", "18", "18", "7", "3", "9", "4", "18"], "time": [3215, 3334, 3600, 3701, 3918, 4820, 5020, 5160, 8107, 9207, 11494, 14801, 15199, 15315, 15385, 15621, 17840, 18450]}, "edge": {"target": [], "time": []}}, "mouseout": {"state": {"target": ["0", "31", "30", "25", "26", "27", "24", "30", "32", "21", "21", "16", "18", "18", "7", "3", "9", "4", "18"], "time": [3171, 3284, 3384, 3634, 3851, 4436, 4888, 5095, 7706, 8574, 11026, 14583, 14822, 15231, 15334, 15408, 17757, 17901, 18484]}, "edge": {"target": [], "time": []}}}, "displayed_time": "25.79", "trialTime": 27126, "trial_type": "mouselab-mdp", "trial_index": 17, "time_elapsed": 545272, "internal_node_id": "0.0-6.0-1.0-8.0"}}, {"uniqueid": "w35427330:a20659364", "current_trial": 18, "dateTime": 1693660831631, "trialdata": {"revealed_states": [], "clicked_states": ["27", "32", "21", "16"], "num_clicks_accrued": [0, 0, 0, 0, 0, 0, 0, 0, 0, 0, 0, 0, 0], "stateRewards": ["", -2, 4, -7, -3, -76, 39, -28, 10, 14, 12, 60, 2, -3, 6, -10, 88, -34, -41, -3, 72, -13, -56, 1, 3, 2, 8, -51, 23, -57, 1, 14, -46, -16], "withholdReward": false, "trial_id": "mdp_trial_10", "block": "test", "trialIndex": 11, "score": 74.4, "costs": -8.6, "simulationMode": [null, null, null, null, null], "rewards": [2, -3, 6, -10, 88], "path": ["0", "0", "12", "13", "14", "15", "16"], "rt": [15719, 58, 149, 342, 72], "actions": ["right", "right", "right", "up", "up"], "actionTimes": [18192, 18759, 19434, 20289, 20874], "queries": {"click": {"state": {"target": ["27", "32", "21", "16"], "time": [3387, 6731, 10218, 13536]}, "edge": {"target": [], "time": []}}, "mouseover": {"state": {"target": ["24", "27", "30", "32", "32", "21", "14", "15", "16", "14", "22"], "time": [2921, 3155, 3891, 3958, 4724, 7390, 10684, 10803, 10936, 14025, 14519]}, "edge": {"target": [], "time": []}}, "mouseout": {"state": {"target": ["13", "0", "24", "27", "30", "32", "32", "21", "14", "15", "16", "14", "22"], "time": [218, 2500, 2971, 3725, 3909, 4158, 6977, 10483, 10738, 10872, 13903, 14420, 14538]}, "edge": {"target": [], "time": []}}}, "displayed_time": "21.42", "trialTime": 23035, "trial_type": "mouselab-mdp", "trial_index": 18, "time_elapsed": 568920, "internal_node_id": "0.0-6.0-1.0-9.0"}}, {"uniqueid": "w35427330:a20659364", "current_trial": 19, "dateTime": 1693660850929, "trialdata": {"revealed_states": [], "clicked_states": ["27"], "num_clicks_accrued": [0, 0, 0, 0, 0, 0, 0, 0, 0, 0, 0, 0, 0], "stateRewards": ["", 1, -2, -3, 14, -42, -87, -37, -11, -50, 33, -44, -2, 4, -7, 13, 48, -75, -66, 12, 23, -2, 82, 1, -4, 3, 12, 51, -15, -26, -11, -52, -29, 82], "withholdReward": false, "trial_id": "mdp_trial_11", "block": "test", "trialIndex": 12, "score": 60.85, "costs": -2.15, "simulationMode": [null, null, null, null, null], "rewards": [1, -4, 3, 12, 51], "path": ["0", "0", "23", "24", "25", "26", "27"], "rt": [5186, 4, 165, 263, 193], "actions": ["left", "left", "left", "up", "up"], "actionTimes": [7541, 8043, 8738, 9503, 10201], "queries": {"click": {"state": {"target": ["27"], "time": [3127]}, "edge": {"target": [], "time": []}}, "mouseover": {"state": {"target": ["24", "25", "26", "27", "30", "32", "21"], "time": [2383, 2494, 2544, 2861, 4248, 4415, 6765]}, "edge": {"target": [], "time": []}}, "mouseout": {"state": {"target": ["0", "24", "25", "26", "27", "30", "32", "21", "21"], "time": [2379, 2428, 2511, 2661, 3948, 4281, 6665, 6799, 13191]}, "edge": {"target": [], "time": []}}}, "displayed_time": "16.37", "trialTime": 18633, "trial_type": "mouselab-mdp", "trial_index": 19, "time_elapsed": 588218, "internal_node_id": "0.0-6.0-1.0-10.0"}}, {"uniqueid": "w35427330:a20659364", "current_trial": 20, "dateTime": 1693660879262, "trialdata": {"revealed_states": [], "clicked_states": ["27", "32", "21", "16", "9"], "num_clicks_accrued": [0, 0, 0, 0, 0, 0, 0, 0, 0, 0, 0, 0, 0], "stateRewards": ["", -2, 2, -4, -4, -59, 88, 62, -3, 69, -15, -34, 1, -2, -5, 7, -54, -20, 78, -16, -74, -53, -21, 2, -4, 2, 13, -8, -44, 26, 9, 72, 4, 17], "withholdReward": false, "trial_id": "mdp_trial_12", "block": "test", "trialIndex": 13, "score": 51.25, "costs": -10.75, "simulationMode": [null, null, null, null, null], "rewards": [-2, 2, -4, -3, 69], "path": ["0", "0", "1", "2", "3", "8", "9"], "rt": [20858, 95, 209, 1011, 100], "actions": ["up", "up", "up", "left", "up"], "actionTimes": [22523, 23135, 23855, 25385, 25993], "queries": {"click": {"state": {"target": ["27", "32", "21", "16", "9"], "time": [2653, 6531, 9996, 13350, 17691]}, "edge": {"target": [], "time": []}}, "mouseover": {"state": {"target": ["23", "28", "27", "26", "30", "32", "21", "19", "14", "15", "16", "15", "13", "12", "3", "9", "3", "12"], "time": [2094, 2194, 2379, 5998, 6114, 6248, 8635, 10287, 10372, 10460, 10652, 13807, 13891, 16120, 17108, 17375, 18194, 18302]}, "edge": {"target": [], "time": []}}, "mouseout": {"state": {"target": ["0", "23", "28", "27", "26", "30", "32", "21", "19", "14", "15", "16", "16", "15", "13", "12", "3", "9", "3", "12"], "time": [2028, 2111, 2317, 5964, 6015, 6148, 6799, 10236, 10344, 10418, 10553, 13468, 13773, 13840, 13914, 16159, 17159, 18144, 18245, 18329]}, "edge": {"target": [], "time": []}}}, "displayed_time": "26.49", "trialTime": 27545, "trial_type": "mouselab-mdp", "trial_index": 20, "time_elapsed": 616551, "internal_node_id": "0.0-6.0-1.0-11.0"}}, {"uniqueid": "w35427330:a20659364", "current_trial": 21, "dateTime": 1693660911232, "trialdata": {"revealed_states": [], "clicked_states": ["27", "32", "21", "16", "5", "9"], "num_clicks_accrued": [0, 0, 0, 0, 0, 0, 0, 0, 0, 0, 0, 0, 0], "stateRewards": ["", -2, -4, 2, 10, -17, 18, 73, 11, -32, 23, -13, -2, -4, 7, 12, -25, 66, -23, 15, 40, -76, -9, 1, 2, -7, -5, -20, 24, 3, -5, 16, -73, 70], "withholdReward": false, "trial_id": "mdp_trial_13", "block": "test", "trialIndex": 14, "score": 11.100000000000001, "costs": -12.9, "simulationMode": [null, null, null, null, null], "rewards": [-2, -4, 2, 10, 18], "path": ["0", "0", "1", "2", "3", "4", "6"], "rt": [24044, 119, 263, 240, 284], "actions": ["up", "up", "up", "right", "right"], "actionTimes": [25902, 26537, 27325, 28089, 28899], "queries": {"click": {"state": {"target": ["27", "32", "21", "16", "5", "9"], "time": [2867, 6194, 9529, 12954, 16828, 21876]}, "edge": {"target": [], "time": []}}, "mouseover": {"state": {"target": ["31", "24", "28", "27", "30", "32", "21", "19", "16", "15", "12", "0", "12", "7", "4", "5", "4", "7", "7", "3", "9", "6", "6", "9", "4", "6"], "time": [2264, 2331, 2398, 2631, 3686, 3869, 7004, 10324, 10741, 13610, 14082, 14145, 16100, 16214, 16330, 16446, 17902, 17987, 20099, 20183, 20333, 21017, 21334, 21672, 22240, 22288]}, "edge": {"target": [], "time": []}}, "mouseout": {"state": {"target": ["0", "31", "24", "28", "27", "30", "32", "21", "19", "16", "15", "12", "0", "12", "7", "4", "5", "4", "7", "7", "3", "9", "6", "6", "5", "9", "4", "6"], "time": [1882, 2298, 2364, 2431, 3467, 3784, 6472, 10275, 10373, 13561, 13679, 14102, 14162, 16148, 16296, 16363, 17331, 17965, 18032, 20133, 20202, 20917, 21034, 21358, 21397, 22084, 22277, 22317]}, "edge": {"target": [], "time": []}}}, "displayed_time": "29.40", "trialTime": 31059, "trial_type": "mouselab-mdp", "trial_index": 21, "time_elapsed": 648521, "internal_node_id": "0.0-6.0-1.0-12.0"}}, {"uniqueid": "w35427330:a20659364", "current_trial": 22, "dateTime": 1693660929902, "trialdata": {"revealed_states": [], "clicked_states": ["27"], "num_clicks_accrued": [0, 0, 0, 0, 0, 0, 0, 0, 0, 0, 0, 0, 0], "stateRewards": ["", -1, 2, -2, 5, 80, -61, -27, 12, 44, -26, -75, -2, -4, 1, -16, 42, -49, -50, 4, -44, 2, 80, -2, -2, 5, -2, 59, 10, 24, 7, -48, -86, -44], "withholdReward": false, "trial_id": "mdp_trial_14", "block": "test", "trialIndex": 15, "score": 55.85, "costs": -2.15, "simulationMode": [null, null, null, null, null], "rewards": [-2, -2, 5, -2, 59], "path": ["0", "0", "23", "24", "25", "26", "27"], "rt": [6167, 10, 168, 275, 164], "actions": ["left", "left", "left", "up", "up"], "actionTimes": [8556, 9078, 9753, 10564, 11238], "queries": {"click": {"state": {"target": ["27"], "time": [3998]}, "edge": {"target": [], "time": []}}, "mouseover": {"state": {"target": ["23", "27", "30", "32", "19"], "time": [3123, 3407, 5009, 5176, 7577]}, "edge": {"target": [], "time": []}}, "mouseout": {"state": {"target": ["19", "0", "23", "27", "30", "32", "19", "0", "23", "31"], "time": [1270, 3073, 3156, 4876, 5060, 7444, 7594, 13969, 14019, 14786]}, "edge": {"target": [], "time": []}}}, "displayed_time": "16.39", "trialTime": 18005, "trial_type": "mouselab-mdp", "trial_index": 22, "time_elapsed": 667191, "internal_node_id": "0.0-6.0-1.0-13.0"}}, {"uniqueid": "w35427330:a20659364", "current_trial": 23, "dateTime": 1693660949475, "trialdata": {"revealed_states": [], "clicked_states": ["27"], "num_clicks_accrued": [0, 0, 0, 0, 0, 0, 0, 0, 0, 0, 0, 0, 0], "stateRewards": ["", 1, 1, -3, 2, 22, -25, -11, -5, 50, 49, 3, 1, -1, 8, 14, -85, -30, 57, -6, -39, -16, 59, -2, -1, 5, 5, 59, -16, 8, 4, 67, 56, -9], "withholdReward": false, "trial_id": "mdp_trial_15", "block": "test", "trialIndex": 16, "score": 63.85, "costs": -2.15, "simulationMode": [null, null, null, null, null], "rewards": [-2, -1, 5, 5, 59], "path": ["0", "0", "23", "24", "25", "26", "27"], "rt": [5791, 41, 219, 133, 152], "actions": ["left", "left", "left", "up", "up"], "actionTimes": [9345, 9891, 10636, 11285, 11937], "queries": {"click": {"state": {"target": ["27"], "time": [4870]}, "edge": {"target": [], "time": []}}, "mouseover": {"state": {"target": ["23", "24", "25", "29", "27", "30", "32"], "time": [3738, 3806, 3843, 4106, 4222, 5335, 5542]}, "edge": {"target": [], "time": []}}, "mouseout": {"state": {"target": ["0", "23", "24", "25", "29", "27", "30", "32"], "time": [3705, 3788, 3839, 3872, 4123, 5176, 5372, 8427]}, "edge": {"target": [], "time": []}}}, "displayed_time": "17.56", "trialTime": 18659, "trial_type": "mouselab-mdp", "trial_index": 23, "time_elapsed": 686765, "internal_node_id": "0.0-6.0-1.0-14.0"}}, {"uniqueid": "w35427330:a20659364", "current_trial": 24, "dateTime": 1693660968284, "trialdata": {"revealed_states": [], "clicked_states": ["27"], "num_clicks_accrued": [0, 0, 0, 0, 0, 0, 0, 0, 0, 0, 0, 0, 0], "stateRewards": ["", -1, -3, 1, 13, -64, -29, 12, -4, -33, 50, 56, 2, -3, 4, 11, -64, -58, -55, 12, 47, 38, -25, -2, 2, 5, -15, 85, 7, 84, 10, 8, 57, 26], "withholdReward": false, "trial_id": "mdp_trial_16", "block": "test", "trialIndex": 17, "score": 72.85, "costs": -2.15, "simulationMode": [null, null, null, null, null], "rewards": [-2, 2, 5, -15, 85], "path": ["0", "0", "23", "24", "25", "26", "27"], "rt": [5190, 9, 196, 102, 133], "actions": ["left", "left", "left", "up", "up"], "actionTimes": [7435, 7958, 8677, 9285, 9915], "queries": {"click": {"state": {"target": ["27"], "time": [2947]}, "edge": {"target": [], "time": []}}, "mouseover": {"state": {"target": ["26", "27", "28", "25", "30", "32", "32"], "time": [2278, 2705, 3376, 3884, 3978, 4282, 5718]}, "edge": {"target": [], "time": []}}, "mouseout": {"state": {"target": ["0", "26", "27", "28", "25", "30", "32", "32"], "time": [2272, 2307, 3276, 3775, 3926, 4009, 4511, 6490]}, "edge": {"target": [], "time": []}}}, "displayed_time": "16.25", "trialTime": 18031, "trial_type": "mouselab-mdp", "trial_index": 24, "time_elapsed": 705574, "internal_node_id": "0.0-6.0-1.0-15.0"}}, {"uniqueid": "w35427330:a20659364", "current_trial": 25, "dateTime": 1693660995081, "trialdata": {"revealed_states": [], "clicked_states": ["27", "32", "21", "16", "5"], "num_clicks_accrued": [0, 0, 0, 0, 0, 0, 0, 0, 0, 0, 0, 0, 0], "stateRewards": ["", 1, -1, 8, 4, 76, -33, -17, -3, -1, -54, -74, -2, 2, -5, 13, -51, 63, 83, 1, 84, 29, -36, 2, -1, 7, -12, -10, -44, -43, -14, 8, -69, 19], "withholdReward": false, "trial_id": "mdp_trial_17", "block": "test", "trialIndex": 18, "score": 77.25, "costs": -10.75, "simulationMode": [null, null, null, null, null], "rewards": [1, -1, 8, 4, 76], "path": ["0", "0", "1", "2", "3", "4", "5"], "rt": [19427, 66, 119, 131, 106], "actions": ["up", "up", "up", "right", "up"], "actionTimes": [21133, 21722, 22375, 23005, 23614], "queries": {"click": {"state": {"target": ["27", "32", "21", "16", "5"], "time": [2674, 6415, 9737, 13155, 16510]}, "edge": {"target": [], "time": []}}, "mouseover": {"state": {"target": ["25", "31", "24", "28", "27", "26", "25", "30", "32", "21", "19", "15", "16", "4", "5", "4", "8", "9", "6"], "time": [1786, 1852, 2198, 2300, 2431, 5152, 5242, 5503, 5919, 7188, 10102, 10286, 10576, 13880, 13945, 17047, 17330, 17464, 20116]}, "edge": {"target": [], "time": []}}, "mouseout": {"state": {"target": ["0", "25", "31", "24", "28", "27", "26", "25", "30", "32", "21", "19", "15", "16", "4", "5", "4", "8", "9", "6"], "time": [1743, 1817, 2165, 2232, 2318, 4724, 5202, 5341, 5735, 6587, 10059, 10126, 10411, 13635, 13899, 16914, 17131, 17381, 20065, 20133]}, "edge": {"target": [], "time": []}}}, "displayed_time": "24.12", "trialTime": 26104, "trial_type": "mouselab-mdp", "trial_index": 25, "time_elapsed": 732370, "internal_node_id": "0.0-6.0-1.0-16.0"}}, {"uniqueid": "w35427330:a20659364", "current_trial": 26, "dateTime": 1693661021726, "trialdata": {"revealed_states": [], "clicked_states": ["27", "32", "21", "16", "5"], "num_clicks_accrued": [0, 0, 0, 0, 0, 0, 0, 0, 0, 0, 0, 0, 0], "stateRewards": ["", -1, 1, 8, -3, -24, 11, -65, -6, -77, 48, 44, -2, 1, -2, -7, -55, -35, 33, 8, -28, 19, -53, -1, -1, -5, -5, -70, 10, 44, 8, -58, -70, 51], "withholdReward": false, "trial_id": "mdp_trial_18", "block": "test", "trialIndex": 19, "score": -85.75, "costs": -10.75, "simulationMode": [null, null, null, null, null], "rewards": [-1, 1, 8, -6, -77], "path": ["0", "0", "1", "2", "3", "8", "9"], "rt": [18767, 22, 123, 749, 196], "actions": ["up", "up", "up", "left", "up"], "actionTimes": [20772, 21295, 21947, 23207, 23905], "queries": {"click": {"state": {"target": ["27", "32", "21", "16", "5"], "time": [2925, 6319, 9568, 13006, 16308]}, "edge": {"target": [], "time": []}}, "mouseover": {"state": {"target": ["28", "26", "29", "27", "28", "24", "31", "32", "21", "15", "16", "18", "6", "5", "9"], "time": [2151, 2188, 2300, 2583, 3221, 3268, 3923, 5344, 7373, 10160, 10328, 13637, 14362, 14612, 16982]}, "edge": {"target": [], "time": []}}, "mouseout": {"state": {"target": ["25", "30", "31", "0", "28", "26", "29", "27", "28", "24", "31", "32", "21", "15", "16", "18", "6", "5"], "time": [195, 262, 295, 2051, 2183, 2234, 2483, 3168, 3245, 3854, 4106, 6480, 9864, 10213, 13577, 13683, 14382, 16732]}, "edge": {"target": [], "time": []}}}, "displayed_time": "24.43", "trialTime": 25907, "trial_type": "mouselab-mdp", "trial_index": 26, "time_elapsed": 759016, "internal_node_id": "0.0-6.0-1.0-17.0"}}, {"uniqueid": "w35427330:a20659364", "current_trial": 27, "dateTime": 1693661039902, "trialdata": {"revealed_states": [], "clicked_states": ["27", "32"], "num_clicks_accrued": [0, 0, 0, 0, 0, 0, 0, 0, 0, 0, 0, 0, 0], "stateRewards": ["", 2, -3, -8, 14, -7, -51, 73, 2, 36, 36, -43, -1, 3, -4, 1, 6, 87, -65, 15, 61, -42, -83, -1, 3, -2, -7, 30, -48, 35, 13, 26, 60, 78], "withholdReward": false, "trial_id": "mdp_trial_19", "block": "test", "trialIndex": 20, "score": 68.7, "costs": -4.3, "simulationMode": [null, null, null, null, null], "rewards": [-1, 3, -2, 13, 60], "path": ["0", "0", "23", "24", "25", "30", "32"], "rt": [9528, 8, 93, 117, 129], "actions": ["left", "left", "left", "down", "down"], "actionTimes": [11633, 12157, 12787, 13415, 14046], "queries": {"click": {"state": {"target": ["27", "32"], "time": [3681, 7194]}, "edge": {"target": [], "time": []}}, "mouseover": {"state": {"target": ["22", "23", "24", "26", "27", "30", "32", "32", "21", "21"], "time": [2133, 2401, 3016, 3117, 3400, 4459, 4538, 5222, 7826, 8461]}, "edge": {"target": [], "time": []}}, "mouseout": {"state": {"target": ["10", "23", "0", "22", "23", "24", "26", "27", "30", "32", "32", "21", "21"], "time": [144, 661, 2128, 2231, 2966, 3034, 3266, 4270, 4502, 4640, 7374, 7879, 16262]}, "edge": {"target": [], "time": []}}}, "displayed_time": "16.11", "trialTime": 17439, "trial_type": "mouselab-mdp", "trial_index": 27, "time_elapsed": 777191, "internal_node_id": "0.0-6.0-1.0-18.0"}}, {"uniqueid": "w35427330:a20659364", "current_trial": 28, "dateTime": 1693661066950, "trialdata": {"revealed_states": [], "clicked_states": ["27", "32", "21", "16", "5"], "num_clicks_accrued": [0, 0, 0, 0, 0, 0, 0, 0, 0, 0, 0, 0, 0], "stateRewards": ["", 2, -3, -4, -1, 25, -16, 16, 10, -71, -20, -55, 1, 3, -4, -9, 1, 32, 11, -6, 32, -50, -41, -1, 4, 4, -8, 7, -81, 70, 2, -52, 45, -10], "withholdReward": false, "trial_id": "mdp_trial_20", "block": "test", "trialIndex": 21, "score": 43.25, "costs": -10.75, "simulationMode": [null, null, null, null, null], "rewards": [-1, 4, 4, 2, 45], "path": ["0", "0", "23", "24", "25", "30", "32"], "rt": [18870, 626, 295, 330, 177], "actions": ["left", "left", "left", "down", "down"], "actionTimes": [20914, 22089, 22897, 23730, 24428], "queries": {"click": {"state": {"target": ["27", "32", "21", "16", "5"], "time": [3448, 6848, 10304, 13620, 17021]}, "edge": {"target": [], "time": []}}, "mouseover": {"state": {"target": ["26", "27", "28", "24", "31", "32", "21", "19", "14", "15", "16", "15", "15", "5", "6"], "time": [3058, 3208, 3876, 3914, 4010, 4177, 7447, 10647, 10706, 10825, 10903, 14022, 14495, 14924, 17370]}, "edge": {"target": [], "time": []}}, "mouseout": {"state": {"target": ["0", "26", "27", "28", "24", "31", "32", "21", "19", "14", "15", "16", "15", "15", "5", "6"], "time": [2067, 3108, 3826, 3895, 3977, 4029, 7046, 10563, 10684, 10772, 10855, 13944, 14103, 14554, 17285, 17398]}, "edge": {"target": [], "time": []}}}, "displayed_time": "24.95", "trialTime": 26295, "trial_type": "mouselab-mdp", "trial_index": 28, "time_elapsed": 804239, "internal_node_id": "0.0-6.0-1.0-19.0"}}, {"uniqueid": "w35427330:a20659364", "current_trial": 29, "dateTime": 1693661094377, "trialdata": {"revealed_states": [], "clicked_states": ["27", "32", "21", "16", "5"], "num_clicks_accrued": [0, 0, 0, 0, 0, 0, 0, 0, 0, 0, 0, 0, 0], "stateRewards": ["", -1, -3, -5, -14, -13, -47, 79, 8, -60, -64, 41, -1, 2, 3, 13, -46, 61, -79, -11, -64, -65, 23, 1, -2, 6, -14, 46, 32, 21, 7, 75, -66, 15], "withholdReward": false, "trial_id": "mdp_trial_21", "block": "test", "trialIndex": 22, "score": 26.25, "costs": -10.75, "simulationMode": [null, null, null, null, null], "rewards": [1, -2, 6, -14, 46], "path": ["0", "0", "23", "24", "25", "26", "27"], "rt": [19461, 79, 114, 512, 868], "actions": ["left", "left", "left", "up", "up"], "actionTimes": [21462, 22052, 22703, 23716, 25088], "queries": {"click": {"state": {"target": ["27", "32", "21", "16", "5"], "time": [3401, 7049, 10388, 13717, 17026]}, "edge": {"target": [], "time": []}}, "mouseover": {"state": {"target": ["31", "26", "27", "31", "32", "21", "20", "17", "16", "15", "15", "18", "7", "4", "5", "5", "6", "23", "24", "25", "26", "27", "18", "15", "17"], "time": [2726, 3060, 3160, 4197, 6613, 7699, 10736, 10839, 11028, 14147, 14593, 14864, 15023, 15087, 15165, 15482, 17414, 17926, 17988, 18034, 18158, 18310, 18852, 19376, 19440]}, "edge": {"target": [], "time": []}}, "mouseout": {"state": {"target": ["1", "12", "0", "31", "26", "27", "31", "32", "21", "20", "17", "16", "15", "15", "18", "7", "4", "5", "5", "6", "23", "24", "25", "26", "27", "18", "15", "17"], "time": [240, 1023, 2276, 2860, 3116, 3678, 4230, 7215, 10610, 10791, 10887, 14096, 14215, 14825, 14950, 15047, 15126, 15258, 17348, 17441, 17966, 18012, 18088, 18222, 18675, 19335, 19400, 19467]}, "edge": {"target": [], "time": []}}}, "displayed_time": "25.59", "trialTime": 26731, "trial_type": "mouselab-mdp", "trial_index": 29, "time_elapsed": 831666, "internal_node_id": "0.0-6.0-1.0-20.0"}}, {"uniqueid": "w35427330:a20659364", "current_trial": 30, "dateTime": 1693661116741, "trialdata": {"revealed_states": [], "clicked_states": ["27", "32", "21", "16"], "num_clicks_accrued": [0, 0, 0, 0, 0, 0, 0, 0, 0, 0, 0, 0, 0], "stateRewards": ["", -1, 4, -5, 9, 29, -75, -42, -16, 24, -28, -41, 2, -3, 1, 10, 60, 47, 55, -1, -53, 22, -40, 2, -3, -6, 4, -26, 44, 54, 15, -76, 42, 14], "withholdReward": false, "trial_id": "mdp_trial_22", "block": "test", "trialIndex": 23, "score": 61.4, "costs": -8.6, "simulationMode": [null, null, null, null, null], "rewards": [2, -3, 1, 10, 60], "path": ["0", "0", "12", "13", "14", "15", "16"], "rt": [15769, 8, 139, 202, 123], "actions": ["right", "right", "right", "up", "up"], "actionTimes": [17696, 18219, 18916, 19636, 20266], "queries": {"click": {"state": {"target": ["27", "32", "21", "16"], "time": [2716, 6067, 9789, 13123]}, "edge": {"target": [], "time": []}}, "mouseover": {"state": {"target": ["25", "27", "28", "24", "32", "32", "21", "21", "19", "15", "16", "17", "15", "4", "3", "9", "6"], "time": [1958, 2434, 3056, 3136, 3654, 4171, 6773, 7224, 10051, 10246, 10332, 13629, 14253, 14474, 14535, 14868, 16716]}, "edge": {"target": [], "time": []}}, "mouseout": {"state": {"target": ["23", "0", "25", "27", "28", "24", "32", "32", "21", "21", "19", "15", "16", "17", "15", "4", "3", "9", "6"], "time": [632, 1953, 1970, 3037, 3090, 3156, 3889, 6240, 6874, 10028, 10091, 10275, 13589, 13718, 14323, 14503, 14611, 16650, 16733]}, "edge": {"target": [], "time": []}}}, "displayed_time": "20.79", "trialTime": 21593, "trial_type": "mouselab-mdp", "trial_index": 30, "time_elapsed": 854030, "internal_node_id": "0.0-6.0-1.0-21.0"}}, {"uniqueid": "w35427330:a20659364", "current_trial": 31, "dateTime": 1693661136788, "trialdata": {"revealed_states": [], "clicked_states": ["27", "32", "21"], "num_clicks_accrued": [0, 0, 0, 0, 0, 0, 0, 0, 0, 0, 0, 0, 0], "stateRewards": ["", 1, 2, 2, -15, -84, 28, -26, 13, 31, 86, 30, -2, 1, -1, -8, 66, -40, -1, -10, -32, 57, -17, 1, 2, -2, 9, -23, 77, 85, 12, -32, -62, -35], "withholdReward": false, "trial_id": "mdp_trial_23", "block": "test", "trialIndex": 24, "score": 38.55, "costs": -6.449999999999999, "simulationMode": [null, null, null, null, null], "rewards": [-2, 1, -1, -10, 57], "path": ["0", "0", "12", "13", "14", "19", "21"], "rt": [12274, 626, 256, 134, 213], "actions": ["right", "right", "right", "down", "down"], "actionTimes": [14219, 15348, 16115, 16766, 17486], "queries": {"click": {"state": {"target": ["27", "32", "21"], "time": [3154, 6482, 9793]}, "edge": {"target": [], "time": []}}, "mouseover": {"state": {"target": ["30", "25", "26", "27", "28", "30", "32", "21", "19", "14", "15", "16"], "time": [2586, 2619, 2686, 2936, 3489, 4673, 4806, 7226, 10147, 10212, 10295, 10497]}, "edge": {"target": [], "time": []}}, "mouseout": {"state": {"target": ["30", "24", "23", "0", "30", "25", "26", "27", "28", "30", "32", "21", "19", "14", "15"], "time": [266, 799, 983, 1973, 2603, 2669, 2786, 3422, 3573, 4693, 6727, 10095, 10181, 10261, 10379]}, "edge": {"target": [], "time": []}}}, "displayed_time": "17.99", "trialTime": 19286, "trial_type": "mouselab-mdp", "trial_index": 31, "time_elapsed": 874077, "internal_node_id": "0.0-6.0-1.0-22.0"}}, {"uniqueid": "w35427330:a20659364", "current_trial": 32, "dateTime": 1693661157064, "trialdata": {"revealed_states": [], "clicked_states": ["27", "32", "21"], "num_clicks_accrued": [0, 0, 0, 0, 0, 0, 0, 0, 0, 0, 0, 0, 0], "stateRewards": ["", -2, -3, -3, 9, 79, 67, 22, -15, -56, 27, -85, -2, 4, -4, -15, -20, -32, 60, 15, 71, 57, 17, 1, 2, -8, 15, -37, -81, 82, 15, 21, -3, 2], "withholdReward": false, "trial_id": "mdp_trial_24", "block": "test", "trialIndex": 25, "score": 63.55, "costs": -6.449999999999999, "simulationMode": [null, null, null, null, null], "rewards": [-2, 4, -4, 15, 57], "path": ["0", "0", "12", "13", "14", "19", "21"], "rt": [12753, 601, 240, 195, 237], "actions": ["right", "right", "right", "down", "down"], "actionTimes": [14637, 15743, 16508, 17206, 17948], "queries": {"click": {"state": {"target": ["27", "32", "21"], "time": [3311, 7080, 10439]}, "edge": {"target": [], "time": []}}, "mouseover": {"state": {"target": ["25", "29", "27", "28", "24", "31", "32", "21", "21", "19", "16"], "time": [1920, 2291, 3068, 3712, 3841, 3918, 5798, 8181, 8666, 10833, 11134]}, "edge": {"target": [], "time": []}}, "mouseout": {"state": {"target": ["28", "0", "25", "29", "27", "28", "24", "31", "32", "21", "21", "19"], "time": [138, 1914, 2080, 2758, 3614, 3795, 3880, 3987, 7730, 8230, 10579, 10855]}, "edge": {"target": [], "time": []}}}, "displayed_time": "18.45", "trialTime": 19280, "trial_type": "mouselab-mdp", "trial_index": 32, "time_elapsed": 894353, "internal_node_id": "0.0-6.0-1.0-23.0"}}, {"uniqueid": "w35427330:a20659364", "current_trial": 33, "dateTime": 1693661183046, "trialdata": {"revealed_states": [], "clicked_states": ["27", "32", "21", "16", "5"], "num_clicks_accrued": [0, 0, 0, 0, 0, 0, 0, 0, 0, 0, 0, 0, 0], "stateRewards": ["", 2, -2, -3, 10, -4, -1, -11, -8, -9, -36, -78, 2, 1, 7, -7, 44, -1, -31, -1, 26, 47, 83, 2, -4, -4, -6, -52, -76, -81, -1, -59, 45, 67], "withholdReward": false, "trial_id": "mdp_trial_25", "block": "test", "trialIndex": 26, "score": 45.25, "costs": -10.75, "simulationMode": [null, null, null, null, null], "rewards": [2, 1, 7, -1, 47], "path": ["0", "0", "12", "13", "14", "19", "21"], "rt": [19118, 5, 103, 138, 134], "actions": ["right", "right", "right", "down", "down"], "actionTimes": [20874, 21378, 22026, 22679, 23308], "queries": {"click": {"state": {"target": ["27", "32", "21", "16", "5"], "time": [2654, 5967, 9654, 13156, 16509]}, "edge": {"target": [], "time": []}}, "mouseover": {"state": {"target": ["29", "27", "28", "24", "32", "21", "15", "16", "15", "5", "17"], "time": [1799, 2332, 2884, 2956, 3642, 7192, 10305, 10423, 13727, 14144, 20549]}, "edge": {"target": [], "time": []}}, "mouseout": {"state": {"target": ["28", "28", "0", "29", "27", "28", "24", "32", "21", "15", "16", "15", "16", "5", "16", "17"], "time": [63, 500, 1783, 1832, 2821, 2926, 3022, 6166, 10060, 10377, 13594, 13778, 13862, 16797, 16998, 20566]}, "edge": {"target": [], "time": []}}}, "displayed_time": "23.81", "trialTime": 24883, "trial_type": "mouselab-mdp", "trial_index": 33, "time_elapsed": 920336, "internal_node_id": "0.0-6.0-1.0-24.0"}}, {"uniqueid": "w35427330:a20659364", "current_trial": 34, "dateTime": 1693661211013, "trialdata": {"revealed_states": [], "clicked_states": ["27", "32", "21", "16", "5"], "num_clicks_accrued": [0, 0, 0, 0, 0, 0, 0, 0, 0, 0, 0, 0, 0], "stateRewards": ["", -1, -2, -1, -10, -57, 73, -72, -16, 75, -14, -46, -2, -3, -7, -1, -61, -60, 76, -4, 50, 4, 14, 2, 2, -7, 12, -65, -32, 15, -8, -76, -25, -61], "withholdReward": false, "trial_id": "mdp_trial_26", "block": "test", "trialIndex": 27, "score": 44.25, "costs": -10.75, "simulationMode": [null, null, null, null, null], "rewards": [-1, -2, -1, -16, 75], "path": ["0", "0", "1", "2", "3", "8", "9"], "rt": [20256, 202, 379, 754, 266], "actions": ["up", "up", "up", "left", "up"], "actionTimes": [22058, 22760, 23638, 24898, 25686], "queries": {"click": {"state": {"target": ["27", "32", "21", "16", "5"], "time": [3346, 6766, 10116, 13564, 16859]}, "edge": {"target": [], "time": []}}, "mouseover": {"state": {"target": ["30", "25", "26", "27", "24", "32", "21", "16", "17", "22", "13", "7", "4", "5", "6", "17"], "time": [2117, 2750, 2867, 3101, 3691, 3954, 7860, 10720, 14041, 14897, 14953, 14997, 15041, 15114, 17283, 17932]}, "edge": {"target": [], "time": []}}, "mouseout": {"state": {"target": ["18", "12", "0", "30", "25", "26", "27", "24", "32", "21", "16", "17", "22", "13", "7", "4", "5", "6", "16", "17"], "time": [246, 346, 1837, 2716, 2784, 2901, 3587, 3720, 6984, 10377, 13998, 14080, 14947, 14976, 15018, 15092, 17166, 17303, 17883, 17966]}, "edge": {"target": [], "time": []}}}, "displayed_time": "26.20", "trialTime": 27193, "trial_type": "mouselab-mdp", "trial_index": 34, "time_elapsed": 948302, "internal_node_id": "0.0-6.0-1.0-25.0"}}, {"uniqueid": "w35427330:a20659364", "current_trial": 35, "dateTime": 1693661230042, "trialdata": {"revealed_states": [], "clicked_states": ["27", "32"], "num_clicks_accrued": [0, 0, 0, 0, 0, 0, 0, 0, 0, 0, 0, 0, 0], "stateRewards": ["", -2, 2, -1, -6, 22, 6, 6, -5, 70, -42, 65, 1, 3, 5, -6, -67, -9, 3, 14, 7, -62, -13, -2, 4, 1, 16, 42, -21, -52, -8, 32, 53, 81], "withholdReward": false, "trial_id": "mdp_trial_27", "block": "test", "trialIndex": 28, "score": 43.7, "costs": -4.3, "simulationMode": [null, null, null, null, null], "rewards": [-2, 4, 1, -8, 53], "path": ["0", "0", "23", "24", "25", "30", "32"], "rt": [9431, 6, 109, 105, 138], "actions": ["left", "left", "left", "down", "down"], "actionTimes": [12010, 12525, 13161, 13790, 14443], "queries": {"click": {"state": {"target": ["27", "32"], "time": [3979, 7713]}, "edge": {"target": [], "time": []}}, "mouseover": {"state": {"target": ["28", "27", "26", "25", "30", "32", "21", "21"], "time": [3370, 3604, 4685, 4742, 5239, 5459, 8232, 8843]}, "edge": {"target": [], "time": []}}, "mouseout": {"state": {"target": ["14", "13", "12", "28", "27", "26", "25", "30", "32", "21", "21"], "time": [1539, 1600, 1650, 3422, 4210, 4711, 4800, 5415, 7963, 8329, 16552]}, "edge": {"target": [], "time": []}}}, "displayed_time": "16.58", "trialTime": 18330, "trial_type": "mouselab-mdp", "trial_index": 35, "time_elapsed": 967331, "internal_node_id": "0.0-6.0-1.0-26.0"}}, {"uniqueid": "w35427330:a20659364", "current_trial": 36, "dateTime": 1693661248381, "trialdata": {"revealed_states": [], "clicked_states": ["27", "32"], "num_clicks_accrued": [0, 0, 0, 0, 0, 0, 0, 0, 0, 0, 0, 0, 0], "stateRewards": ["", 2, 3, 6, -5, -74, -53, 17, -12, 46, 44, 18, -2, 4, 1, -8, 22, -23, -49, 9, -45, 55, 81, 1, -1, -7, -16, -83, -71, -45, 2, 51, 82, 61], "withholdReward": false, "trial_id": "mdp_trial_28", "block": "test", "trialIndex": 29, "score": 72.7, "costs": -4.3, "simulationMode": [null, null, null, null, null], "rewards": [1, -1, -7, 2, 82], "path": ["0", "0", "23", "24", "25", "30", "32"], "rt": [9152, 142, 252, 255, 218], "actions": ["left", "left", "left", "down", "down"], "actionTimes": [10719, 11376, 12141, 12906, 13648], "queries": {"click": {"state": {"target": ["27", "32"], "time": [2877, 6182]}, "edge": {"target": [], "time": []}}, "mouseover": {"state": {"target": ["28", "27", "28", "24", "31", "32", "21"], "time": [2349, 2584, 4186, 4243, 4307, 4391, 6705]}, "edge": {"target": [], "time": []}}, "mouseout": {"state": {"target": ["0", "28", "27", "28", "24", "31", "32", "21"], "time": [2166, 2399, 4103, 4221, 4286, 4337, 6422, 16014]}, "edge": {"target": [], "time": []}}}, "displayed_time": "15.57", "trialTime": 17513, "trial_type": "mouselab-mdp", "trial_index": 36, "time_elapsed": 985669, "internal_node_id": "0.0-6.0-1.0-27.0"}}, {"uniqueid": "w35427330:a20659364", "current_trial": 37, "dateTime": 1693661266423, "trialdata": {"revealed_states": [], "clicked_states": ["27"], "num_clicks_accrued": [0, 0, 0, 0, 0, 0, 0, 0, 0, 0, 0, 0, 0], "stateRewards": ["", 1, -3, -6, -5, 47, 80, -29, 11, -71, 10, -29, -2, 3, -6, 12, 2, -78, -6, 8, 34, -16, -5, -1, 3, 3, -13, 84, -36, -62, -3, -27, 66, 15], "withholdReward": false, "trial_id": "mdp_trial_29", "block": "test", "trialIndex": 30, "score": 73.85, "costs": -2.15, "simulationMode": [null, null, null, null, null], "rewards": [-1, 3, 3, -13, 84], "path": ["0", "0", "23", "24", "25", "26", "27"], "rt": [5983, 133, 219, 177, 190], "actions": ["left", "left", "left", "up", "up"], "actionTimes": [7970, 8605, 9324, 9999, 10697], "queries": {"click": {"state": {"target": ["27"], "time": [3597]}, "edge": {"target": [], "time": []}}, "mouseover": {"state": {"target": ["31", "25", "26", "27", "26", "25", "30", "32"], "time": [2643, 2843, 3177, 3244, 4046, 4087, 4182, 4430]}, "edge": {"target": [], "time": []}}, "mouseout": {"state": {"target": ["0", "31", "25", "26", "27", "26", "25", "30", "32"], "time": [2039, 2693, 2861, 3227, 3963, 4067, 4115, 4235, 7231]}, "edge": {"target": [], "time": []}}}, "displayed_time": "15.99", "trialTime": 17148, "trial_type": "mouselab-mdp", "trial_index": 37, "time_elapsed": 1003712, "internal_node_id": "0.0-6.0-1.0-28.0"}}, {"uniqueid": "w35427330:a20659364", "current_trial": 38, "dateTime": 1693661293540, "trialdata": {"revealed_states": [], "clicked_states": ["27", "32", "21", "16", "5"], "num_clicks_accrued": [0, 0, 0, 0, 0, 0, 0, 0, 0, 0, 0, 0, 0], "stateRewards": ["", -2, 3, -1, 2, -72, 63, 20, -1, 62, -66, 39, -2, 3, -6, 14, 22, 47, 1, 8, -49, -1, -41, 2, 2, -6, -16, -64, -60, -34, 16, 54, 22, -7], "withholdReward": false, "trial_id": "mdp_trial_30", "block": "test", "trialIndex": 31, "score": 50.25, "costs": -10.75, "simulationMode": [null, null, null, null, null], "rewards": [-2, 3, -1, -1, 62], "path": ["0", "0", "1", "2", "3", "8", "9"], "rt": [19081, 58, 90, 967, 210], "actions": ["up", "up", "up", "left", "up"], "actionTimes": [20883, 21449, 22079, 23542, 24262], "queries": {"click": {"state": {"target": ["27", "32", "21", "16", "5"], "time": [2698, 6058, 9359, 12688, 16014]}, "edge": {"target": [], "time": []}}, "mouseover": {"state": {"target": ["27", "25", "31", "32", "21", "15", "16", "15", "18", "12", "7", "4", "5", "7", "1", "22", "12", "2", "3", "9", "4"], "time": [2488, 3090, 3432, 4409, 7064, 9877, 9993, 13062, 13125, 13432, 13979, 14038, 14312, 16433, 16493, 17033, 19250, 19350, 19389, 19534, 20018]}, "edge": {"target": [], "time": []}}, "mouseout": {"state": {"target": ["31", "27", "28", "0", "27", "25", "31", "32", "21", "15", "16", "15", "18", "12", "7", "4", "5", "7", "1", "22", "12", "2", "3", "9", "4"], "time": [99, 615, 698, 1828, 2896, 3328, 3458, 6300, 9609, 9907, 13012, 13085, 13198, 13701, 14002, 14179, 16298, 16455, 16849, 17055, 19268, 19384, 19404, 20001, 20034]}, "edge": {"target": [], "time": []}}}, "displayed_time": "24.76", "trialTime": 25972, "trial_type": "mouselab-mdp", "trial_index": 38, "time_elapsed": 1030829, "internal_node_id": "0.0-6.0-1.0-29.0"}}, {"uniqueid": "w35427330:a20659364", "current_trial": 39, "dateTime": 1693661324454, "trialdata": {"revealed_states": [], "clicked_states": ["27", "32", "21", "16", "5"], "num_clicks_accrued": [0, 0, 0, 0, 0, 0, 0, 0, 0, 0, 0, 0, 0], "stateRewards": ["", -2, 1, -7, 9, 8, 25, 61, -7, -17, 69, -81, 1, 4, -4, -11, 16, 67, 44, 3, 6, -45, -54, -2, 3, 6, -11, -15, 32, -47, 3, -39, -6, -88], "withholdReward": false, "trial_id": "mdp_trial_31", "block": "test", "trialIndex": 32, "score": -42.75, "costs": -10.75, "simulationMode": [null, null, null, null, null], "rewards": [-2, 1, -7, -7, -17], "path": ["0", "0", "1", "2", "3", "8", "9"], "rt": [20940, 43, 82, 353, 141], "actions": ["up", "up", "up", "left", "up"], "actionTimes": [22785, 23330, 23938, 24793, 25468], "queries": {"click": {"state": {"target": ["27", "32", "21", "16", "5"], "time": [3394, 6939, 10767, 14317, 17657]}, "edge": {"target": [], "time": []}}, "mouseover": {"state": {"target": ["23", "26", "27", "27", "26", "32", "25", "26", "26", "25", "30", "21", "16", "5", "4", "8", "9", "4", "6"], "time": [2366, 2663, 2698, 2997, 4787, 6334, 7906, 7987, 8370, 8403, 8461, 10322, 11240, 15079, 18099, 18363, 18580, 21432, 21466]}, "edge": {"target": [], "time": []}}, "mouseout": {"state": {"target": ["26", "31", "31", "23", "0", "23", "26", "27", "27", "26", "32", "25", "26", "27", "26", "25", "30", "32", "21", "16", "5", "4", "8", "9", "4", "6"], "time": [43, 210, 559, 709, 2214, 2396, 2681, 2897, 4757, 4835, 7152, 7954, 8124, 8343, 8396, 8431, 8487, 10122, 11073, 14726, 18033, 18128, 18480, 21381, 21450, 21548]}, "edge": {"target": [], "time": []}}}, "displayed_time": "25.99", "trialTime": 29854, "trial_type": "mouselab-mdp", "trial_index": 39, "time_elapsed": 1061743, "internal_node_id": "0.0-6.0-1.0-30.0"}}, {"uniqueid": "w35427330:a20659364", "current_trial": 40, "dateTime": 1693661342476, "trialdata": {"revealed_states": [], "clicked_states": [], "num_clicks_accrued": [0, 0, 0, 0, 0, 0, 0, 0, 0, 0, 0, 0, 0], "stateRewards": ["", -1, 3, 1, -11, -22, -36, 19, -5, -70, -52, 50, -2, -4, 4, -2, -41, -83, 29, -2, 22, 10, -6, -2, 3, -2, 14, 54, 44, 77, -9, -65, -37, -40], "withholdReward": false, "trial_id": "mdp_trial_32", "block": "test", "trialIndex": 33, "score": -30, "costs": 0, "simulationMode": [null, null, null, null, null], "rewards": [-1, 3, 1, -11, -22], "path": ["0", "0", "1", "2", "3", "4", "5"], "rt": [10754, 142, 120, 201, 83], "actions": ["up", "up", "up", "right", "up"], "actionTimes": [12930, 13586, 14216, 14914, 15499], "queries": {"click": {"state": {"target": [], "time": []}, "edge": {"target": [], "time": []}}, "mouseover": {"state": {"target": ["0", "23", "24", "25", "26", "10", "8", "9", "8", "28", "27", "28", "0", "23", "28", "26", "27", "28", "23", "0", "23", "24", "25", "30", "32", "31", "10", "3", "5", "4", "3", "2", "1", "2", "5"], "time": [2207, 2329, 2402, 2798, 2863, 2997, 3047, 3336, 3664, 3732, 4215, 4666, 5099, 5515, 5632, 5715, 5915, 7150, 7383, 7750, 8751, 8901, 9085, 9302, 9552, 9835, 9986, 10186, 10386, 11237, 11337, 11788, 11921, 12088, 12139]}, "edge": {"target": [], "time": []}}, "mouseout": {"state": {"target": ["18", "12", "0", "23", "24", "25", "26", "10", "8", "9", "8", "28", "27", "28", "0", "23", "28", "26", "27", "28", "23", "0", "23", "24", "25", "30", "32", "31", "10", "3", "5", "4", "3", "2", "1", "2", "5"], "time": [710, 910, 2297, 2396, 2430, 2847, 2898, 3013, 3198, 3647, 3690, 3797, 4648, 4699, 5465, 5548, 5649, 5748, 6532, 7300, 7517, 8618, 8869, 8952, 9219, 9419, 9802, 9853, 10103, 10286, 11204, 11254, 11738, 11854, 11990, 12122, 12155]}, "edge": {"target": [], "time": []}}}, "displayed_time": "16.18", "trialTime": 17096, "trial_type": "mouselab-mdp", "trial_index": 40, "time_elapsed": 1079765, "internal_node_id": "0.0-6.0-1.0-31.0"}}, {"uniqueid": "w35427330:a20659364", "current_trial": 41, "dateTime": 1693661360291, "trialdata": {"revealed_states": [], "clicked_states": [], "num_clicks_accrued": [0, 0, 0, 0, 0, 0, 0, 0, 0, 0, 0, 0, 0], "stateRewards": ["", -2, -1, 3, -3, 71, -58, -21, 7, -10, -75, -37, 2, 4, -1, -12, -79, -29, -48, 3, -41, -10, -30, -1, -2, 1, -15, 13, 66, 22, -1, -42, -86, -55], "withholdReward": false, "trial_id": "mdp_trial_33", "block": "test", "trialIndex": 34, "score": 68, "costs": 0, "simulationMode": [null, null, null, null, null], "rewards": [-2, -1, 3, -3, 71], "path": ["0", "0", "1", "2", "3", "4", "5"], "rt": [8415, 90, 163, 36, 155], "actions": ["up", "up", "up", "right", "up"], "actionTimes": [10133, 10746, 11421, 11961, 12613], "queries": {"click": {"state": {"target": [], "time": []}, "edge": {"target": [], "time": []}}, "mouseover": {"state": {"target": ["28", "28", "28", "24", "23", "0", "0"], "time": [1869, 2326, 2428, 2827, 3010, 3127, 5346]}, "edge": {"target": [], "time": []}}, "mouseout": {"state": {"target": ["10", "23", "28", "28", "28", "24", "23", "0", "0"], "time": [156, 623, 1914, 2393, 2476, 2927, 3044, 3630, 6715]}, "edge": {"target": [], "time": []}}}, "displayed_time": "15.72", "trialTime": 17040, "trial_type": "mouselab-mdp", "trial_index": 41, "time_elapsed": 1097580, "internal_node_id": "0.0-6.0-1.0-32.0"}}, {"uniqueid": "w35427330:a20659364", "current_trial": 42, "dateTime": 1693661379414, "trialdata": {"revealed_states": [], "clicked_states": [], "num_clicks_accrued": [0, 0, 0, 0, 0, 0, 0, 0, 0, 0, 0, 0, 0], "stateRewards": ["", -2, -1, -1, 5, -54, -87, 35, 2, -8, 20, -22, 1, 3, 6, 13, -75, -32, -55, -3, 56, 62, -22, -1, -4, -1, -7, -51, 84, 70, 7, -15, 5, 55], "withholdReward": false, "trial_id": "mdp_trial_34", "block": "test", "trialIndex": 35, "score": -64, "costs": 0, "simulationMode": [null, null, null, null, null], "rewards": [-1, -4, -1, -7, -51], "path": ["0", "0", "23", "24", "25", "26", "27"], "rt": [8663, 29, 174, 590, 158], "actions": ["left", "left", "left", "up", "up"], "actionTimes": [10247, 10793, 11489, 12641, 13311], "queries": {"click": {"state": {"target": [], "time": []}, "edge": {"target": [], "time": []}}, "mouseover": {"state": {"target": ["23", "28", "27", "28", "23"], "time": [6797, 6964, 7131, 8053, 8199]}, "edge": {"target": [], "time": []}}, "mouseout": {"state": {"target": ["0", "23", "28", "27", "28", "23"], "time": [5696, 6848, 6982, 7899, 8099, 8216]}, "edge": {"target": [], "time": []}}}, "displayed_time": "15.59", "trialTime": 18030, "trial_type": "mouselab-mdp", "trial_index": 42, "time_elapsed": 1116703, "internal_node_id": "0.0-6.0-1.0-33.0"}}, {"uniqueid": "w35427330:a20659364", "current_trial": 43, "dateTime": 1693661397576, "trialdata": {"revealed_states": [], "clicked_states": ["27"], "num_clicks_accrued": [0, 0, 0, 0, 0, 0, 0, 0, 0, 0, 0, 0, 0], "stateRewards": ["", -1, -3, -6, -2, -7, 80, -45, -3, -38, -72, 76, 2, 1, 7, 4, -62, 14, -74, 14, -87, -21, -88, -2, 1, -7, -10, 66, 56, -76, 10, -29, -72, -70], "withholdReward": false, "trial_id": "mdp_trial_35", "block": "test", "trialIndex": 36, "score": 45.85, "costs": -2.15, "simulationMode": [null, null, null, null, null], "rewards": [-2, 1, -7, -10, 66], "path": ["0", "0", "23", "24", "25", "26", "27"], "rt": [5085, 41, 193, 263, 169], "actions": ["left", "left", "left", "up", "up"], "actionTimes": [6628, 7174, 7893, 8681, 9356], "queries": {"click": {"state": {"target": ["27"], "time": [2360]}, "edge": {"target": [], "time": []}}, "mouseover": {"state": {"target": ["26", "27", "28", "23", "32"], "time": [1638, 2055, 2624, 2707, 3676]}, "edge": {"target": [], "time": []}}, "mouseout": {"state": {"target": ["0", "26", "27", "28", "23", "32"], "time": [1568, 1705, 2593, 2647, 3008, 5843]}, "edge": {"target": [], "time": []}}}, "displayed_time": "15.54", "trialTime": 17319, "trial_type": "mouselab-mdp", "trial_index": 43, "time_elapsed": 1134865, "internal_node_id": "0.0-6.0-1.0-34.0"}}, {"uniqueid": "w35427330:a20659364", "current_trial": 44, "dateTime": 1693661420323, "trialdata": {"revealed_states": [], "clicked_states": ["27", "32", "21", "16"], "num_clicks_accrued": [0, 0, 0, 0, 0, 0, 0, 0, 0, 0, 0, 0, 0], "stateRewards": ["", -2, 3, -5, -7, 66, 43, -60, -4, -70, -75, 4, -1, 2, 2, -13, 54, 11, -40, -1, 77, 32, 15, -2, 3, -8, -9, -35, 83, -27, 6, -74, -34, 44], "withholdReward": false, "trial_id": "mdp_trial_36", "block": "test", "trialIndex": 37, "score": 35.4, "costs": -8.6, "simulationMode": [null, null, null, null, null], "rewards": [-1, 2, 2, -13, 54], "path": ["0", "0", "12", "13", "14", "15", "16"], "rt": [15136, 751, 289, 179, 171], "actions": ["right", "right", "right", "up", "up"], "actionTimes": [16317, 17582, 18370, 19045, 19720], "queries": {"click": {"state": {"target": ["27", "32", "21", "16"], "time": [2241, 5479, 8774, 12143]}, "edge": {"target": [], "time": []}}, "mouseover": {"state": {"target": ["0", "28", "27", "31", "32", "32", "21", "16", "5"], "time": [1267, 1810, 2028, 3302, 3471, 4085, 6239, 9336, 12773]}, "edge": {"target": [], "time": []}}, "mouseout": {"state": {"target": ["0", "0", "28", "27", "27", "31", "32", "32", "21", "16"], "time": [159, 1694, 1929, 2343, 2513, 3331, 3769, 5723, 9019, 12474]}, "edge": {"target": [], "time": []}}}, "displayed_time": "20.22", "trialTime": 21587, "trial_type": "mouselab-mdp", "trial_index": 44, "time_elapsed": 1157612, "internal_node_id": "0.0-6.0-1.0-35.0"}}, {"uniqueid": "w35427330:a20659364", "current_trial": 45, "dateTime": 1693661439128, "trialdata": {"revealed_states": [], "clicked_states": ["27", "32"], "num_clicks_accrued": [0, 0, 0, 0, 0, 0, 0, 0, 0, 0, 0, 0, 0], "stateRewards": ["", 2, -1, -1, -9, -81, -30, 55, -6, 78, 25, 62, 2, 4, -1, 9, -85, 1, -19, 1, -60, 12, -34, 1, 4, -1, -13, -24, -16, -83, -8, 16, 43, 9], "withholdReward": false, "trial_id": "mdp_trial_37", "block": "test", "trialIndex": 38, "score": 34.7, "costs": -4.3, "simulationMode": [null, null, null, null, null], "rewards": [1, 4, -1, -8, 43], "path": ["0", "0", "23", "24", "25", "30", "32"], "rt": [8309, 14, 120, 173, 182], "actions": ["left", "left", "left", "down", "down"], "actionTimes": [9952, 10482, 11129, 11825, 12523], "queries": {"click": {"state": {"target": ["27", "32"], "time": [2427, 5684]}, "edge": {"target": [], "time": []}}, "mouseover": {"state": {"target": ["26", "27", "26", "24", "31", "32", "21", "21"], "time": [1688, 1876, 2851, 3462, 3516, 4102, 6353, 6898]}, "edge": {"target": [], "time": []}}, "mouseout": {"state": {"target": ["10", "0", "26", "27", "26", "24", "31", "32", "21", "21", "21"], "time": [111, 1674, 1775, 2813, 2883, 3490, 3562, 5920, 6389, 9167, 15155]}, "edge": {"target": [], "time": []}}}, "displayed_time": "15.64", "trialTime": 17918, "trial_type": "mouselab-mdp", "trial_index": 45, "time_elapsed": 1176417, "internal_node_id": "0.0-6.0-1.0-36.0"}}, {"uniqueid": "w35427330:a20659364", "current_trial": 46, "dateTime": 1693661463842, "trialdata": {"revealed_states": [], "clicked_states": ["27", "32", "21", "16", "5"], "num_clicks_accrued": [0, 0, 0, 0, 0, 0, 0, 0, 0, 0, 0, 0, 0], "stateRewards": ["", 2, 4, -3, 16, -58, 30, -35, 11, -60, 47, 27, -2, -1, -7, -16, 23, -70, 68, -10, -65, -43, -34, -2, 1, 7, 9, -63, 34, -31, -8, -12, -86, 59], "withholdReward": false, "trial_id": "mdp_trial_38", "block": "test", "trialIndex": 39, "score": -13.75, "costs": -10.75, "simulationMode": [null, null, null, null, null], "rewards": [-2, -1, -7, -16, 23], "path": ["0", "0", "12", "13", "14", "15", "16"], "rt": [17944, 40, 172, 185, 83], "actions": ["right", "right", "right", "up", "up"], "actionTimes": [19654, 20222, 20896, 21593, 22179], "queries": {"click": {"state": {"target": ["27", "32", "21", "16", "5"], "time": [2384, 5703, 8993, 12328, 15697]}, "edge": {"target": [], "time": []}}, "mouseover": {"state": {"target": ["27", "27", "25", "30", "32", "32", "21", "21", "16", "5"], "time": [1744, 2103, 2886, 2961, 3205, 3670, 6377, 6911, 9623, 13232]}, "edge": {"target": [], "time": []}}, "mouseout": {"state": {"target": ["0", "0", "27", "27", "25", "30", "32", "32", "21", "21", "16", "5"], "time": [664, 1739, 1900, 2720, 2936, 3055, 3272, 5922, 6492, 9281, 12793, 16053]}, "edge": {"target": [], "time": []}}}, "displayed_time": "22.70", "trialTime": 23938, "trial_type": "mouselab-mdp", "trial_index": 46, "time_elapsed": 1201131, "internal_node_id": "0.0-6.0-1.0-37.0"}}, {"uniqueid": "w35427330:a20659364", "current_trial": 47, "dateTime": 1693661482709, "trialdata": {"revealed_states": [], "clicked_states": ["27", "32"], "num_clicks_accrued": [0, 0, 0, 0, 0, 0, 0, 0, 0, 0, 0, 0, 0], "stateRewards": ["", -2, 2, -2, -7, -50, -62, -45, 7, 36, -24, -72, -1, -1, 8, -1, -67, 20, -52, 2, 35, -50, 80, -1, 1, 6, -6, -70, 6, 88, 8, -47, 74, -19], "withholdReward": false, "trial_id": "mdp_trial_39", "block": "test", "trialIndex": 40, "score": -74.3, "costs": -4.3, "simulationMode": [null, null, null, null, null], "rewards": [-1, 1, 6, -6, -70], "path": ["0", "0", "23", "24", "25", "26", "27"], "rt": [8794, 24, 136, 265, 1253], "actions": ["left", "left", "left", "up", "up"], "actionTimes": [10909, 11454, 12106, 12871, 14649], "queries": {"click": {"state": {"target": ["27", "32"], "time": [2822, 6309]}, "edge": {"target": [], "time": []}}, "mouseover": {"state": {"target": ["25", "26", "27", "24", "31", "32", "21"], "time": [2171, 2209, 2605, 3129, 3185, 4661, 7430]}, "edge": {"target": [], "time": []}}, "mouseout": {"state": {"target": ["18", "0", "25", "26", "27", "24", "31", "32", "21", "21"], "time": [null, 2145, 2204, 2227, 3025, 3159, 3243, 6513, 16820, 17204]}, "edge": {"target": [], "time": []}}}, "displayed_time": "16.12", "trialTime": 18018, "trial_type": "mouselab-mdp", "trial_index": 47, "time_elapsed": 1219999, "internal_node_id": "0.0-6.0-1.0-38.0"}}, {"uniqueid": "w35427330:a20659364", "current_trial": 48, "dateTime": 1693661501234, "trialdata": {"revealed_states": [], "clicked_states": ["27", "32"], "num_clicks_accrued": [0, 0, 0, 0, 0, 0, 0, 0, 0, 0, 0, 0, 0], "stateRewards": ["", -1, 2, 6, 11, 21, -21, -21, -6, 48, -71, 88, -1, -3, 3, 7, 64, 2, 9, -4, 37, -67, 72, 2, 2, -8, -8, -10, 71, -40, -3, 73, 80, 47], "withholdReward": false, "trial_id": "mdp_trial_40", "block": "test", "trialIndex": 41, "score": 68.7, "costs": -4.3, "simulationMode": [null, null, null, null, null], "rewards": [2, 2, -8, -3, 80], "path": ["0", "0", "23", "24", "25", "30", "32"], "rt": [10531, 506, 314, 350, 198], "actions": ["left", "left", "left", "down", "down"], "actionTimes": [12350, 13368, 14178, 15032, 15729], "queries": {"click": {"state": {"target": ["27", "32"], "time": [4587, 7947]}, "edge": {"target": [], "time": []}}, "mouseover": {"state": {"target": ["0", "0", "22", "21", "21", "23", "28", "27", "23", "31", "32", "32", "21"], "time": [2847, 3147, 3548, 3631, 3948, 4148, 4248, 4382, 4967, 5367, 5573, 6154, 8959]}, "edge": {"target": [], "time": []}}, "mouseout": {"state": {"target": ["0", "0", "0", "22", "21", "21", "23", "28", "27", "23", "31", "32", "32", "21"], "time": [1853, 2930, 3498, 3598, 3781, 3998, 4181, 4300, 4783, 5237, 5410, 5684, 8201, 17260]}, "edge": {"target": [], "time": []}}}, "displayed_time": "16.23", "trialTime": 17533, "trial_type": "mouselab-mdp", "trial_index": 48, "time_elapsed": 1238523, "internal_node_id": "0.0-6.0-1.0-39.0"}}, {"uniqueid": "w35427330:a20659364", "current_trial": 49, "dateTime": 1693661539918, "trialdata": {"rt": 38675, "response": {"Q0": "$-2 to $2", "Q1": "$-32 to $32", "Q2": "$-88 to $88", "Q3": "The cost for clicking on nodes varied between nodes.", "Q4": "Very motivated"}, "question_order": [0, 1, 2, 3, 4], "trial_id": "final_quiz_control", "trial_type": "survey-multi-choice", "trial_index": 49, "time_elapsed": 1277208, "internal_node_id": "0.0-6.0-2.0"}}, {"uniqueid": "w35427330:a20659364", "current_trial": 50, "dateTime": 1693661763832, "trialdata": {"rt": 223887, "response": {"Q0": "Click on the left up node then then the left down node, then the right up node, then the right down node and finally the right highest up node, if any were decent green values then I would take the spider that way, if none were any good then I'd go left highest up node as I hadn't clicked that and hope for the best.", "Q1": "No, I kept it the same all of the way through.", "Q2": "Quite difficult, just not knowing what was on the nodes I hadn't clicked on."}, "trial_id": "self_report_control", "trial_type": "survey-text", "trial_index": 50, "time_elapsed": 1501122, "internal_node_id": "0.0-6.0-3.0"}}, {"uniqueid": "w35427330:a20659364", "current_trial": 51, "dateTime": 1693661796089, "trialdata": {"rt": 32238, "response": {"Q0": "Disagree", "Q1": "Strongly disagree", "Q2": "Strongly agree", "Q3": "Neither disagree nor agree", "Q4": "Neither disagree nor agree", "Q5": "Neither disagree nor agree", "Q6": "Neither disagree nor agree"}, "question_order": [0, 1, 2, 3, 4, 5, 6], "trial_id": "self_report_2", "trial_type": "survey-multi-choice", "trial_index": 51, "time_elapsed": 1533379, "internal_node_id": "0.0-6.0-4.0"}}, {"uniqueid": "w35427330:a20659364", "current_trial": 52, "dateTime": 1693661811053, "trialdata": {"rt": 14950, "response": {"gender": "male", "age": "55", "colorblind": "0", "effort": "0"}, "trial_type": "survey-html-form", "trial_index": 52, "time_elapsed": 1548343, "internal_node_id": "0.0-6.0-5.0"}}, {"uniqueid": "w35427330:a20659364", "current_trial": 53, "dateTime": 1693661823360, "trialdata": {"rt": 12292, "response": {"Q0": "Nothing", "Q1": "No", "Q2": ""}, "trial_type": "survey-text", "trial_index": 53, "time_elapsed": 1560650, "internal_node_id": "0.0-6.0-6.0"}}, {"uniqueid": "w35427330:a20659364", "current_trial": 54, "dateTime": 1693661862369, "trialdata": {"rt": 39000, "stimulus": "<h1>Completion Code Instructions (1/2)</h1>\n<br><br><br><br>\nYou have reached the end of the experiment! The completion code consists of two parts: (1) a code with 2 characters (2) a code with 6 characters. On this page, you will receive the second part of the code. The first part of the completion code will be on the next page.\n<br><br>\nThe second part of your completion code is: <b>EWEK22</b>\n<br><br>\nPlease note this down. Then, press 'Next' in order to find the first part of your completion code. Once the data has been saved, you will receive this code either in this window or in the original browser window where you started the experiment.\n <br><br>\n<h2 style='color: red;'>Note: this is <strong>NOT</strong> the full completion code. Copy this down and click 'Next' to get the full completion code on the next page.</h2>", "response": 0, "trial_type": "html-button-response", "trial_index": 54, "time_elapsed": 1599658, "internal_node_id": "0.0-6.0-7.0"}}, {"uniqueid": "w35427330:a20659364", "current_trial": 55, "dateTime": 1693661863376, "trialdata": {"success": true, "trial_type": "fullscreen", "trial_index": 55, "time_elapsed": 1600665, "internal_node_id": "0.0-7.0"}}], "questiondata": {"params": {"CODE": "C6DMOQA6", "MIN_TIME": 14, "inspectCost": 1, "startTime": "Sat Sep 02 2023 14:11:01 GMT+0100 (British Summer Time)", "bonusRate": 0.002, "variance": "1_2_4_8_44", "branching": "31123"}, "final_score": 1211}, "eventdata": [{"eventtype": "initialized", "value": null, "timestamp": 1693660260729, "interval": 0}, {"eventtype": "window_resize", "value": [941, 723], "timestamp": 1693660260729, "interval": 0}, {"eventtype": "window_resize", "value": [941, 723], "timestamp": 1693660261363, "interval": 634}, {"eventtype": "window_resize", "value": [1996, 1123], "timestamp": 1693660265602, "interval": 4239}, {"eventtype": "window_resize", "value": [941, 723], "timestamp": 1693661862782, "interval": 1597180}], "useragent": "Mozilla/5.0 (Windows NT 10.0; Win64; x64) AppleWebKit/537.36 (KHTML, like Gecko) Chrome/116.0.0.0 Safari/537.36", "mode": "live", "id": "w35427330:a20659364", "status": "user data saved", "Beginhit": "2023-09-02 13:11:00.064226", "Beginexp": "2023-09-02 13:11:07.051011", "Endhit": "2023-09-02 13:37:44.654559", "psiturkStatus": 3, "browser": "<redacted>", "platform": "windows", "language": "en-US"}