{"condition": 0, "counterbalance": 0, "assignmentId": "a81403954", "workerId": "w54893015", "hitId": "h92171785", "currenttrial": 55, "bonus": 0, "data": [{"uniqueid": "w54893015:a81403954", "current_trial": 0, "dateTime": 1691159570540, "trialdata": {"success": true, "trial_type": "fullscreen", "trial_index": 0, "time_elapsed": 59560, "internal_node_id": "0.0-0.0"}}, {"uniqueid": "w54893015:a81403954", "current_trial": 1, "dateTime": 1691159659645, "trialdata": {"view_history": [{"page_index": 0, "viewing_time": 89102}], "rt": 89102, "trial_id": "exp_instructions_control", "trial_type": "instructions", "trial_index": 1, "time_elapsed": 148666, "internal_node_id": "0.0-1.0"}}, {"uniqueid": "w54893015:a81403954", "current_trial": 2, "dateTime": 1691159663828, "trialdata": {"success": true, "trial_type": "fullscreen", "trial_index": 2, "time_elapsed": 152849, "internal_node_id": "0.0-2.0-0.0"}}, {"uniqueid": "w54893015:a81403954", "current_trial": 3, "dateTime": 1691160569146, "trialdata": {"view_history": [{"page_index": 0, "viewing_time": 408404}, {"page_index": 1, "viewing_time": 60894}, {"page_index": 2, "viewing_time": 260421}, {"page_index": 3, "viewing_time": 175599}], "rt": 905317, "trial_id": "mouselab_instructions_1_control", "trial_type": "instructions", "trial_index": 3, "time_elapsed": 1058167, "internal_node_id": "0.0-2.0-1.0"}}, {"uniqueid": "w54893015:a81403954", "current_trial": 4, "dateTime": 1691160605475, "trialdata": {"revealed_states": [], "clicked_states": [], "num_clicks_accrued": [0, 0, 0, 0, 0, 0, 0, 0, 0, 0, 0, 0, 0], "stateRewards": ["", 10, -10, -10, -10, 10, -10, -10, 10, 10, -10, 10, 10, -10, 10, 10, -10, 10, 10, -10, -10, -10, -10, -10, 10, 10, 10, 10, 10, -10, -10, 10, -10, -10], "withholdReward": false, "trial_id": "practice_1", "block": "test", "trialIndex": 0, "score": -6.5, "costs": 0, "simulationMode": [null, null, null, null, null], "rewards": [10, -10, 10, -10, -10], "path": ["0", "0", "12", "13", "14", "19", "20"], "rt": [5064, 5435, 787, 1020, 788], "actions": ["right", "right", "right", "down", "right"], "actionTimes": [17367, 23317, 24612, 26140, 27436], "queries": {"click": {"state": {"target": [], "time": []}, "edge": {"target": [], "time": []}}, "mouseover": {"state": {"target": [], "time": []}, "edge": {"target": [], "time": []}}, "mouseout": {"state": {"target": ["0", "7", "2", "1", "12", "0"], "time": [655, 7502, 7868, 7919, 8351, 34144]}, "edge": {"target": [], "time": []}}}, "displayed_time": "27.95", "trialTime": 35294, "trial_type": "mouselab-mdp", "trial_index": 4, "time_elapsed": 1094495, "internal_node_id": "0.0-2.0-2.0-0.0"}}, {"uniqueid": "w54893015:a81403954", "current_trial": 5, "dateTime": 1691160629507, "trialdata": {"revealed_states": [], "clicked_states": ["1", "23"], "num_clicks_accrued": [0, 0, 0, 0, 0, 0, 0, 0, 0, 0, 0, 0, 0], "stateRewards": ["", 10, -10, -10, -10, 10, 10, -10, -10, 10, -10, 10, -10, -10, 10, -10, -10, -10, 10, 10, 10, -10, 10, 10, 10, 10, -10, -10, 10, -10, -10, 10, -10, -10], "withholdReward": false, "trial_id": "practice_2", "block": "test", "trialIndex": 1, "score": 12.5, "costs": -1, "simulationMode": [null, null, null, null, null], "rewards": [10, 10, 10, -10, -10], "path": ["0", "0", "23", "24", "25", "30", "33"], "rt": [11299, 1008, 1515, 818, 121], "actions": ["left", "left", "left", "down", "left"], "actionTimes": [14769, 16285, 18308, 19633, 20263], "queries": {"click": {"state": {"target": ["1", "23"], "time": [5838, 13374]}, "edge": {"target": [], "time": []}}, "mouseover": {"state": {"target": ["1", "23", "23"], "time": [4365, 7827, 8533]}, "edge": {"target": [], "time": []}}, "mouseout": {"state": {"target": ["0", "1", "23", "23"], "time": [4215, 7743, 7960, 22640]}, "edge": {"target": [], "time": []}}}, "displayed_time": "20.77", "trialTime": 23832, "trial_type": "mouselab-mdp", "trial_index": 5, "time_elapsed": 1118527, "internal_node_id": "0.0-2.0-2.0-1.0"}}, {"uniqueid": "w54893015:a81403954", "current_trial": 6, "dateTime": 1691160735977, "trialdata": {"view_history": [{"page_index": 0, "viewing_time": 97956}, {"page_index": 1, "viewing_time": 8512}], "rt": 106468, "trial_id": "mouselab_instructions_2_control", "trial_type": "instructions", "trial_index": 6, "time_elapsed": 1224998, "internal_node_id": "0.0-2.0-3.0"}}, {"uniqueid": "w54893015:a81403954", "current_trial": 7, "dateTime": 1691160790114, "trialdata": {"rt": 54135, "response": {"Q0": "The cost for clicking on nodes may vary between nodes.", "Q1": "The better I perform the higher my bonus will be.", "Q2": "No, the amount of cash at each node of the web may be different each time.", "Q3": "To get the highest total score.", "Q4": "Only before moving the spider.", "Q5": "3 seconds"}, "question_order": [0, 1, 2, 3, 4, 5], "correct": {"Q0": "The cost for clicking on nodes may vary between nodes.", "Q1": "The better I perform the higher my bonus will be.", "Q2": "No, the amount of cash at each node of the web may be different each time.", "Q3": "To get the highest total score.", "Q4": "Only before moving the spider.", "Q5": "3 seconds"}, "trial_id": "mouselab_quiz_control", "trial_type": "survey-multi-choice", "trial_index": 7, "time_elapsed": 1279135, "internal_node_id": "0.0-2.0-4.0"}}, {"uniqueid": "w54893015:a81403954", "current_trial": 8, "dateTime": 1691160804731, "trialdata": {"rt": 14611, "stimulus": "\n<h1> Get ready to start the game! </h1>\n\nThank you for reading the instructions. Get ready start with the 40 rounds of this game.\n<br><br>\nIf you need to take a break, feel free to take one after the end of a round, before continuing to the next one.\n<br><br>\nRemember, the more money the spider gets, the bigger your bonus will be!\n<br><br>\n<div style='text-align: center;'>Press <code>space</code> to begin.</div>\n\n<br><br>\n(If, at any point, the <code>space</code> key does not take you to the next page, click once on the text and try again.)", "response": " ", "trial_id": "mdp_ready", "trial_type": "html-keyboard-response", "trial_index": 8, "time_elapsed": 1293751, "internal_node_id": "0.0-4.0-0.0"}}, {"uniqueid": "w54893015:a81403954", "current_trial": 9, "dateTime": 1691160826237, "trialdata": {"revealed_states": [], "clicked_states": [], "num_clicks_accrued": [0, 0, 0, 0, 0, 0, 0, 0, 0, 0, 0, 0, 0], "stateRewards": ["", 2, -3, 5, 11, -79, 54, 11, -9, -78, 33, 22, -2, -1, 2, 14, 43, 34, 1, 10, 49, -65, 39, -1, 1, -1, 3, -16, -2, 11, 2, 12, 48, -65], "withholdReward": false, "trial_id": "mdp_trial_1", "block": "test", "trialIndex": 2, "score": -64, "costs": 0, "simulationMode": [null, null, null, null, null], "rewards": [2, -3, 5, 11, -79], "path": ["0", "0", "1", "2", "3", "4", "5"], "rt": [9959, 485, 2422, 656, 460], "actions": ["up", "up", "up", "right", "up"], "actionTimes": [11680, 12673, 15602, 16766, 17734], "queries": {"click": {"state": {"target": [], "time": []}, "edge": {"target": [], "time": []}}, "mouseover": {"state": {"target": ["1"], "time": [5172]}, "edge": {"target": [], "time": []}}, "mouseout": {"state": {"target": ["2", "1", "0", "1"], "time": [886, 985, 5097, 19323]}, "edge": {"target": [], "time": []}}}, "displayed_time": "18.23", "trialTime": 21285, "trial_type": "mouselab-mdp", "trial_index": 9, "time_elapsed": 1315258, "internal_node_id": "0.0-4.0-1.0-0.0"}}, {"uniqueid": "w54893015:a81403954", "current_trial": 10, "dateTime": 1691160844787, "trialdata": {"revealed_states": [], "clicked_states": ["23"], "num_clicks_accrued": [0, 0, 0, 0, 0, 0, 0, 0, 0, 0, 0, 0, 0], "stateRewards": ["", -2, -2, -3, -6, -15, -11, 41, -12, -63, -76, 2, -2, -3, 8, 9, -36, -2, -18, -16, -32, -85, -17, -2, 1, 5, -16, 82, 35, -88, -1, 80, -82, -20], "withholdReward": false, "trial_id": "mdp_trial_2", "block": "test", "trialIndex": 3, "score": 81.6, "costs": -1.4, "simulationMode": [null, null, null, null, null], "rewards": [-2, 1, 5, -1, 80], "path": ["0", "0", "23", "24", "25", "30", "31"], "rt": [2845, 626, 702, 101, 504], "actions": ["left", "left", "left", "down", "right"], "actionTimes": [5430, 6564, 7758, 8367, 9387], "queries": {"click": {"state": {"target": ["23"], "time": [3781]}, "edge": {"target": [], "time": []}}, "mouseover": {"state": {"target": ["23"], "time": [3471]}, "edge": {"target": [], "time": []}}, "mouseout": {"state": {"target": ["1", "0", "0", "23"], "time": [977, 1621, 3371, 11396]}, "edge": {"target": [], "time": []}}}, "displayed_time": "16.60", "trialTime": 18338, "trial_type": "mouselab-mdp", "trial_index": 10, "time_elapsed": 1333808, "internal_node_id": "0.0-4.0-1.0-1.0"}}, {"uniqueid": "w54893015:a81403954", "current_trial": 11, "dateTime": 1691160864295, "trialdata": {"revealed_states": [], "clicked_states": [], "num_clicks_accrued": [0, 0, 0, 0, 0, 0, 0, 0, 0, 0, 0, 0, 0], "stateRewards": ["", 2, -2, 7, -11, -76, -65, -23, 16, -58, 30, 81, 1, 2, 7, 14, 9, 55, -2, 6, 11, -15, 31, -1, -1, -3, 2, 15, 2, 46, 15, 18, 45, -34], "withholdReward": false, "trial_id": "mdp_trial_3", "block": "test", "trialIndex": 4, "score": 79, "costs": 0, "simulationMode": [null, null, null, null, null], "rewards": [1, 2, 7, 14, 55], "path": ["0", "0", "12", "13", "14", "15", "17"], "rt": [2620, 198, 978, 1570, 65], "actions": ["right", "right", "right", "up", "right"], "actionTimes": [4610, 5300, 6787, 8849, 9424], "queries": {"click": {"state": {"target": [], "time": []}, "edge": {"target": [], "time": []}}, "mouseover": {"state": {"target": [], "time": []}, "edge": {"target": [], "time": []}}, "mouseout": {"state": {"target": ["23", "0"], "time": [1321, 11775]}, "edge": {"target": [], "time": []}}}, "displayed_time": "15.99", "trialTime": 19260, "trial_type": "mouselab-mdp", "trial_index": 11, "time_elapsed": 1353315, "internal_node_id": "0.0-4.0-1.0-2.0"}}, {"uniqueid": "w54893015:a81403954", "current_trial": 12, "dateTime": 1691160884630, "trialdata": {"revealed_states": [], "clicked_states": [], "num_clicks_accrued": [0, 0, 0, 0, 0, 0, 0, 0, 0, 0, 0, 0, 0], "stateRewards": ["", -1, -3, 1, 13, -64, -29, 12, -4, -33, 50, 56, 2, -3, 4, 11, -64, -58, -55, 12, 47, 38, -25, -2, 2, 5, -15, 85, 7, 84, 10, 8, 57, 26], "withholdReward": false, "trial_id": "mdp_trial_4", "block": "test", "trialIndex": 5, "score": 43, "costs": 0, "simulationMode": [null, null, null, null, null], "rewards": [-1, -3, 1, -4, 50], "path": ["0", "0", "1", "2", "3", "8", "10"], "rt": [2231, 404, 1028, 82, 371], "actions": ["up", "up", "up", "left", "down"], "actionTimes": [6273, 7185, 8721, 9296, 10184], "queries": {"click": {"state": {"target": [], "time": []}, "edge": {"target": [], "time": []}}, "mouseover": {"state": {"target": [], "time": []}, "edge": {"target": [], "time": []}}, "mouseout": {"state": {"target": ["0", "0", "0"], "time": [3501, 11575, 19563]}, "edge": {"target": [], "time": []}}}, "displayed_time": "18.04", "trialTime": 20086, "trial_type": "mouselab-mdp", "trial_index": 12, "time_elapsed": 1373650, "internal_node_id": "0.0-4.0-1.0-3.0"}}, {"uniqueid": "w54893015:a81403954", "current_trial": 13, "dateTime": 1691161419294, "trialdata": {"revealed_states": [], "clicked_states": [], "num_clicks_accrued": [0, 0, 0, 0, 0, 0, 0, 0, 0, 0, 0, 0, 0], "stateRewards": ["", -2, 2, -1, -6, 22, 6, 6, -5, 70, -42, 65, 1, 3, 5, -6, -67, -9, 3, 14, 7, -62, -13, -2, 4, 1, 16, 42, -21, -52, -8, 32, 53, 81], "withholdReward": false, "trial_id": "mdp_trial_5", "block": "test", "trialIndex": 6, "score": 76, "costs": 0, "simulationMode": [null, null, null, null, null], "rewards": [-2, 4, 1, -8, 81], "path": ["0", "0", "23", "24", "25", "30", "33"], "rt": [2807, 265, 491, 10, 248], "actions": ["left", "left", "left", "down", "left"], "actionTimes": [6592, 7368, 8367, 8886, 9657], "queries": {"click": {"state": {"target": [], "time": []}, "edge": {"target": [], "time": []}}, "mouseover": {"state": {"target": [], "time": []}, "edge": {"target": [], "time": []}}, "mouseout": {"state": {"target": ["0"], "time": [10995]}, "edge": {"target": [], "time": []}}}, "displayed_time": "17.79", "trialTime": 534416, "trial_type": "mouselab-mdp", "trial_index": 13, "time_elapsed": 1908315, "internal_node_id": "0.0-4.0-1.0-4.0"}}, {"uniqueid": "w54893015:a81403954", "current_trial": 14, "dateTime": 1691161436627, "trialdata": {"revealed_states": [], "clicked_states": [], "num_clicks_accrued": [0, 0, 0, 0, 0, 0, 0, 0, 0, 0, 0, 0, 0], "stateRewards": ["", -2, 4, -3, -13, 63, -36, 62, 11, 78, 34, -51, 2, -2, 8, -6, -40, -18, 31, 9, 64, 39, 79, 1, 4, -4, 15, -12, 76, 73, -10, -77, 86, -4], "withholdReward": false, "trial_id": "mdp_trial_6", "block": "test", "trialIndex": 7, "score": 96, "costs": 0, "simulationMode": [null, null, null, null, null], "rewards": [2, -2, 8, 9, 79], "path": ["0", "0", "12", "13", "14", "19", "22"], "rt": [1816, 297, 578, 1, 705], "actions": ["right", "right", "right", "down", "left"], "actionTimes": [3772, 4578, 5675, 6182, 7418], "queries": {"click": {"state": {"target": [], "time": []}, "edge": {"target": [], "time": []}}, "mouseover": {"state": {"target": [], "time": []}, "edge": {"target": [], "time": []}}, "mouseout": {"state": {"target": ["0"], "time": [2615]}, "edge": {"target": [], "time": []}}}, "displayed_time": "15.96", "trialTime": 16956, "trial_type": "mouselab-mdp", "trial_index": 14, "time_elapsed": 1925648, "internal_node_id": "0.0-4.0-1.0-5.0"}}, {"uniqueid": "w54893015:a81403954", "current_trial": 15, "dateTime": 1691161461003, "trialdata": {"revealed_states": [], "clicked_states": [], "num_clicks_accrued": [0, 0, 0, 0, 0, 0, 0, 0, 0, 0, 0, 0, 0], "stateRewards": ["", -2, -3, 4, 1, 33, -53, 15, 9, -12, 61, -6, -2, 4, 6, -11, 47, -43, -7, -11, 46, 23, -28, -1, -1, 3, -10, 11, 76, -76, 10, 18, -38, 87], "withholdReward": false, "trial_id": "mdp_trial_7", "block": "test", "trialIndex": 8, "score": 20, "costs": 0, "simulationMode": [null, null, null, null, null], "rewards": [-2, 4, 6, -11, 23], "path": ["0", "0", "12", "13", "14", "19", "21"], "rt": [1354, 247, 196, 121, 1752], "actions": ["right", "right", "right", "down", "down"], "actionTimes": [3045, 3807, 4522, 5163, 7428], "queries": {"click": {"state": {"target": [], "time": []}, "edge": {"target": [], "time": []}}, "mouseover": {"state": {"target": [], "time": []}, "edge": {"target": [], "time": []}}, "mouseout": {"state": {"target": ["0"], "time": [2060]}, "edge": {"target": [], "time": []}}}, "displayed_time": "15.69", "trialTime": 24120, "trial_type": "mouselab-mdp", "trial_index": 15, "time_elapsed": 1950023, "internal_node_id": "0.0-4.0-1.0-6.0"}}, {"uniqueid": "w54893015:a81403954", "current_trial": 16, "dateTime": 1691161486557, "trialdata": {"revealed_states": [], "clicked_states": [], "num_clicks_accrued": [0, 0, 0, 0, 0, 0, 0, 0, 0, 0, 0, 0, 0], "stateRewards": ["", -2, -4, -2, 10, -8, -15, -47, 7, -84, 53, 5, -1, 2, -7, 3, 83, 31, 47, -1, 30, -8, 69, 2, -4, -1, 8, -7, 12, -8, -8, -13, 30, -84], "withholdReward": false, "trial_id": "mdp_trial_8", "block": "test", "trialIndex": 9, "score": 17, "costs": 0, "simulationMode": [null, null, null, null, null], "rewards": [2, -4, -1, 8, 12], "path": ["0", "0", "23", "24", "25", "26", "28"], "rt": [1053, 30, 538, 1188, 190], "actions": ["left", "left", "left", "up", "right"], "actionTimes": [4541, 5081, 6123, 7822, 8523], "queries": {"click": {"state": {"target": [], "time": []}, "edge": {"target": [], "time": []}}, "mouseover": {"state": {"target": [], "time": []}, "edge": {"target": [], "time": []}}, "mouseout": {"state": {"target": ["0", "0"], "time": [2018, 9897]}, "edge": {"target": [], "time": []}}}, "displayed_time": "17.49", "trialTime": 25296, "trial_type": "mouselab-mdp", "trial_index": 16, "time_elapsed": 1975578, "internal_node_id": "0.0-4.0-1.0-7.0"}}, {"uniqueid": "w54893015:a81403954", "current_trial": 17, "dateTime": 1691161503490, "trialdata": {"revealed_states": [], "clicked_states": [], "num_clicks_accrued": [0, 0, 0, 0, 0, 0, 0, 0, 0, 0, 0, 0, 0], "stateRewards": ["", -2, 3, -1, 2, -72, 63, 20, -1, 62, -66, 39, -2, 3, -6, 14, 22, 47, 1, 8, -49, -1, -41, 2, 2, -6, -16, -64, -60, -34, 16, 54, 22, -7], "withholdReward": false, "trial_id": "mdp_trial_9", "block": "test", "trialIndex": 10, "score": 7, "costs": 0, "simulationMode": [null, null, null, null, null], "rewards": [2, 2, -6, 16, -7], "path": ["0", "0", "23", "24", "25", "30", "33"], "rt": [1789, 193, 312, 70, 399], "actions": ["left", "left", "left", "down", "left"], "actionTimes": [3297, 4002, 4820, 5411, 6323], "queries": {"click": {"state": {"target": [], "time": []}, "edge": {"target": [], "time": []}}, "mouseover": {"state": {"target": [], "time": []}, "edge": {"target": [], "time": []}}, "mouseout": {"state": {"target": ["0"], "time": [1775]}, "edge": {"target": [], "time": []}}}, "displayed_time": "15.51", "trialTime": 16666, "trial_type": "mouselab-mdp", "trial_index": 17, "time_elapsed": 1992511, "internal_node_id": "0.0-4.0-1.0-8.0"}}, {"uniqueid": "w54893015:a81403954", "current_trial": 18, "dateTime": 1691161521192, "trialdata": {"revealed_states": [], "clicked_states": [], "num_clicks_accrued": [0, 0, 0, 0, 0, 0, 0, 0, 0, 0, 0, 0, 0], "stateRewards": ["", 2, -1, -1, -9, -81, -30, 55, -6, 78, 25, 62, 2, 4, -1, 9, -85, 1, -19, 1, -60, 12, -34, 1, 4, -1, -13, -24, -16, -83, -8, 16, 43, 9], "withholdReward": false, "trial_id": "mdp_trial_10", "block": "test", "trialIndex": 11, "score": 46, "costs": 0, "simulationMode": [null, null, null, null, null], "rewards": [2, -1, -1, -9, 55], "path": ["0", "0", "1", "2", "3", "4", "7"], "rt": [1149, 213, 256, 861, 115], "actions": ["up", "up", "up", "right", "down"], "actionTimes": [3484, 4215, 4992, 6362, 6983], "queries": {"click": {"state": {"target": [], "time": []}, "edge": {"target": [], "time": []}}, "mouseover": {"state": {"target": [], "time": []}, "edge": {"target": [], "time": []}}, "mouseout": {"state": {"target": ["0"], "time": [8416]}, "edge": {"target": [], "time": []}}}, "displayed_time": "16.34", "trialTime": 17438, "trial_type": "mouselab-mdp", "trial_index": 18, "time_elapsed": 2010213, "internal_node_id": "0.0-4.0-1.0-9.0"}}, {"uniqueid": "w54893015:a81403954", "current_trial": 19, "dateTime": 1691161540489, "trialdata": {"revealed_states": [], "clicked_states": [], "num_clicks_accrued": [0, 0, 0, 0, 0, 0, 0, 0, 0, 0, 0, 0, 0], "stateRewards": ["", -2, 4, -5, -12, 85, -24, -18, -15, -78, -22, 26, -1, -1, 2, 14, -45, 52, -23, 7, -33, 24, -6, -2, -4, 5, -7, -16, 36, -39, 5, 71, -87, -23], "withholdReward": false, "trial_id": "mdp_trial_11", "block": "test", "trialIndex": 12, "score": -24, "costs": 0, "simulationMode": [null, null, null, null, null], "rewards": [-2, -4, 5, -7, -16], "path": ["0", "0", "23", "24", "25", "26", "27"], "rt": [1332, 7, 253, 611, 1], "actions": ["left", "left", "left", "up", "up"], "actionTimes": [4589, 5114, 5890, 7015, 7522], "queries": {"click": {"state": {"target": [], "time": []}, "edge": {"target": [], "time": []}}, "mouseover": {"state": {"target": [], "time": []}, "edge": {"target": [], "time": []}}, "mouseout": {"state": {"target": ["0"], "time": [8601]}, "edge": {"target": [], "time": []}}}, "displayed_time": "17.26", "trialTime": 19031, "trial_type": "mouselab-mdp", "trial_index": 19, "time_elapsed": 2029510, "internal_node_id": "0.0-4.0-1.0-10.0"}}, {"uniqueid": "w54893015:a81403954", "current_trial": 20, "dateTime": 1691161563495, "trialdata": {"revealed_states": [], "clicked_states": [], "num_clicks_accrued": [0, 0, 0, 0, 0, 0, 0, 0, 0, 0, 0, 0, 0], "stateRewards": ["", -2, -4, -8, 8, 63, -50, -19, -7, -17, -31, 31, 1, 3, -5, 12, -35, -63, -29, -4, -17, -75, -79, -2, -3, -2, 8, -3, -85, 10, -2, -82, -82, 56], "withholdReward": false, "trial_id": "mdp_trial_12", "block": "test", "trialIndex": 13, "score": -84, "costs": 0, "simulationMode": [null, null, null, null, null], "rewards": [1, 3, -5, -4, -79], "path": ["0", "0", "12", "13", "14", "19", "22"], "rt": [1855, 81, 31, 1095, 194], "actions": ["right", "right", "right", "down", "left"], "actionTimes": [3817, 4417, 4967, 6597, 7313], "queries": {"click": {"state": {"target": [], "time": []}, "edge": {"target": [], "time": []}}, "mouseover": {"state": {"target": [], "time": []}, "edge": {"target": [], "time": []}}, "mouseout": {"state": {"target": ["0"], "time": [8953]}, "edge": {"target": [], "time": []}}}, "displayed_time": "15.96", "trialTime": 22729, "trial_type": "mouselab-mdp", "trial_index": 20, "time_elapsed": 2052516, "internal_node_id": "0.0-4.0-1.0-11.0"}}, {"uniqueid": "w54893015:a81403954", "current_trial": 21, "dateTime": 1691161580858, "trialdata": {"revealed_states": [], "clicked_states": [], "num_clicks_accrued": [0, 0, 0, 0, 0, 0, 0, 0, 0, 0, 0, 0, 0], "stateRewards": ["", 1, -4, 6, -3, 40, 76, -51, 5, -24, -63, 44, -2, -2, 8, 1, 76, -85, -58, 10, 59, 20, 11, -2, 3, -3, 3, -82, -10, 54, -7, -57, -6, -32], "withholdReward": false, "trial_id": "mdp_trial_13", "block": "test", "trialIndex": 14, "score": -80, "costs": 0, "simulationMode": [null, null, null, null, null], "rewards": [-2, -2, 8, 1, -85], "path": ["0", "0", "12", "13", "14", "15", "17"], "rt": [1149, 157, 101, 23, 66], "actions": ["right", "right", "right", "up", "right"], "actionTimes": [2937, 3608, 4217, 4756, 5336], "queries": {"click": {"state": {"target": [], "time": []}, "edge": {"target": [], "time": []}}, "mouseover": {"state": {"target": [], "time": []}, "edge": {"target": [], "time": []}}, "mouseout": {"state": {"target": ["0"], "time": [6182]}, "edge": {"target": [], "time": []}}}, "displayed_time": "15.79", "trialTime": 17085, "trial_type": "mouselab-mdp", "trial_index": 21, "time_elapsed": 2069879, "internal_node_id": "0.0-4.0-1.0-12.0"}}, {"uniqueid": "w54893015:a81403954", "current_trial": 22, "dateTime": 1691161602969, "trialdata": {"revealed_states": [], "clicked_states": [], "num_clicks_accrued": [0, 0, 0, 0, 0, 0, 0, 0, 0, 0, 0, 0, 0], "stateRewards": ["", 1, 2, 8, -2, 23, -69, -18, -16, 54, -21, 71, -1, -4, 7, 11, 43, -6, 88, 6, -55, 72, 43, 1, -3, -2, -1, 68, -31, -54, 4, -8, 25, -2], "withholdReward": false, "trial_id": "mdp_trial_14", "block": "test", "trialIndex": 15, "score": 25, "costs": 0, "simulationMode": [null, null, null, null, null], "rewards": [1, -3, -2, 4, 25], "path": ["0", "0", "23", "24", "25", "30", "32"], "rt": [1202, 367, 145, 398, 530], "actions": ["left", "left", "left", "down", "down"], "actionTimes": [2992, 3865, 4525, 5428, 6476], "queries": {"click": {"state": {"target": [], "time": []}, "edge": {"target": [], "time": []}}, "mouseover": {"state": {"target": [], "time": []}, "edge": {"target": [], "time": []}}, "mouseout": {"state": {"target": ["0"], "time": [7610]}, "edge": {"target": [], "time": []}}}, "displayed_time": "15.79", "trialTime": 21852, "trial_type": "mouselab-mdp", "trial_index": 22, "time_elapsed": 2091989, "internal_node_id": "0.0-4.0-1.0-13.0"}}, {"uniqueid": "w54893015:a81403954", "current_trial": 23, "dateTime": 1691161626401, "trialdata": {"revealed_states": [], "clicked_states": [], "num_clicks_accrued": [0, 0, 0, 0, 0, 0, 0, 0, 0, 0, 0, 0, 0], "stateRewards": ["", -2, -1, 3, -3, 71, -58, -21, 7, -10, -75, -37, 2, 4, -1, -12, -79, -29, -48, 3, -41, -10, -30, -1, -2, 1, -15, 13, 66, 22, -1, -42, -86, -55], "withholdReward": false, "trial_id": "mdp_trial_15", "block": "test", "trialIndex": 16, "score": 5, "costs": 0, "simulationMode": [null, null, null, null, null], "rewards": [-1, -2, 1, -15, 22], "path": ["0", "0", "23", "24", "25", "26", "29"], "rt": [1460, 110, 317, 100, 22], "actions": ["left", "left", "left", "up", "left"], "actionTimes": [2926, 3541, 4365, 4980, 5519], "queries": {"click": {"state": {"target": [], "time": []}, "edge": {"target": [], "time": []}}, "mouseover": {"state": {"target": [], "time": []}, "edge": {"target": [], "time": []}}, "mouseout": {"state": {"target": ["0"], "time": [7428]}, "edge": {"target": [], "time": []}}}, "displayed_time": "15.47", "trialTime": 23147, "trial_type": "mouselab-mdp", "trial_index": 23, "time_elapsed": 2115422, "internal_node_id": "0.0-4.0-1.0-14.0"}}, {"uniqueid": "w54893015:a81403954", "current_trial": 24, "dateTime": 1691161644705, "trialdata": {"revealed_states": [], "clicked_states": [], "num_clicks_accrued": [0, 0, 0, 0, 0, 0, 0, 0, 0, 0, 0, 0, 0], "stateRewards": ["", -1, 4, -5, 9, 29, -75, -42, -16, 24, -28, -41, 2, -3, 1, 10, 60, 47, 55, -1, -53, 22, -40, 2, -3, -6, 4, -26, 44, 54, 15, -76, 42, 14], "withholdReward": false, "trial_id": "mdp_trial_16", "block": "test", "trialIndex": 17, "score": -46, "costs": 0, "simulationMode": [null, null, null, null, null], "rewards": [-1, 4, -5, -16, -28], "path": ["0", "0", "1", "2", "3", "8", "10"], "rt": [2061, 84, 134, 66, 363], "actions": ["up", "up", "up", "left", "down"], "actionTimes": [3874, 4474, 5125, 5705, 6587], "queries": {"click": {"state": {"target": [], "time": []}, "edge": {"target": [], "time": []}}, "mouseover": {"state": {"target": [], "time": []}, "edge": {"target": [], "time": []}}, "mouseout": {"state": {"target": ["0"], "time": [12835]}, "edge": {"target": [], "time": []}}}, "displayed_time": "15.81", "trialTime": 18006, "trial_type": "mouselab-mdp", "trial_index": 24, "time_elapsed": 2133726, "internal_node_id": "0.0-4.0-1.0-15.0"}}, {"uniqueid": "w54893015:a81403954", "current_trial": 25, "dateTime": 1691161667412, "trialdata": {"revealed_states": [], "clicked_states": [], "num_clicks_accrued": [0, 0, 0, 0, 0, 0, 0, 0, 0, 0, 0, 0, 0], "stateRewards": ["", 1, -1, -7, -7, -22, 15, -13, 13, 26, -32, 38, -1, 1, -7, -4, 16, -62, 86, 12, -54, 56, 64, -2, -1, 6, 14, -57, 37, 62, -6, -25, 50, -70], "withholdReward": false, "trial_id": "mdp_trial_17", "block": "test", "trialIndex": 18, "score": 5, "costs": 0, "simulationMode": [null, null, null, null, null], "rewards": [-1, 1, -7, -4, 16], "path": ["0", "0", "12", "13", "14", "15", "16"], "rt": [1053, 309, 36, 209, 26], "actions": ["right", "right", "right", "up", "up"], "actionTimes": [2626, 3448, 3997, 4714, 5248], "queries": {"click": {"state": {"target": [], "time": []}, "edge": {"target": [], "time": []}}, "mouseover": {"state": {"target": [], "time": []}, "edge": {"target": [], "time": []}}, "mouseout": {"state": {"target": ["0"], "time": [2137]}, "edge": {"target": [], "time": []}}}, "displayed_time": "15.57", "trialTime": 22405, "trial_type": "mouselab-mdp", "trial_index": 25, "time_elapsed": 2156433, "internal_node_id": "0.0-4.0-1.0-16.0"}}, {"uniqueid": "w54893015:a81403954", "current_trial": 26, "dateTime": 1691161689259, "trialdata": {"revealed_states": [], "clicked_states": [], "num_clicks_accrued": [0, 0, 0, 0, 0, 0, 0, 0, 0, 0, 0, 0, 0], "stateRewards": ["", 2, -3, 5, -14, -63, -9, -24, -11, -54, -43, 68, 2, -2, -4, 7, -64, 30, 47, 12, -74, 11, 86, 1, -3, 3, 10, -71, -42, -52, -1, -29, -16, 69], "withholdReward": false, "trial_id": "mdp_trial_18", "block": "test", "trialIndex": 19, "score": -34, "costs": 0, "simulationMode": [null, null, null, null, null], "rewards": [2, -3, 5, -14, -24], "path": ["0", "0", "1", "2", "3", "4", "7"], "rt": [1286, 581, 643, 167, 39], "actions": ["up", "up", "up", "right", "down"], "actionTimes": [2974, 4068, 5229, 5904, 6458], "queries": {"click": {"state": {"target": [], "time": []}, "edge": {"target": [], "time": []}}, "mouseover": {"state": {"target": [], "time": []}, "edge": {"target": [], "time": []}}, "mouseout": {"state": {"target": ["0"], "time": [7352]}, "edge": {"target": [], "time": []}}}, "displayed_time": "15.69", "trialTime": 21546, "trial_type": "mouselab-mdp", "trial_index": 26, "time_elapsed": 2178279, "internal_node_id": "0.0-4.0-1.0-17.0"}}, {"uniqueid": "w54893015:a81403954", "current_trial": 27, "dateTime": 1691161705924, "trialdata": {"revealed_states": [], "clicked_states": ["12", "23", "1"], "num_clicks_accrued": [0, 0, 0, 0, 0, 0, 0, 0, 0, 0, 0, 0, 0], "stateRewards": ["", -1, 3, 1, -11, -22, -36, 19, -5, -70, -52, 50, -2, -4, 4, -2, -41, -83, 29, -2, 22, 10, -6, -2, 3, -2, 14, 54, 44, 77, -9, -65, -37, -40], "withholdReward": false, "trial_id": "mdp_trial_19", "block": "test", "trialIndex": 20, "score": -76.2, "costs": -4.199999999999999, "simulationMode": [null, null, null, null, null], "rewards": [-1, 3, 1, -5, -70], "path": ["0", "0", "1", "2", "3", "8", "9"], "rt": [10194, 161, 165, 631, 61], "actions": ["up", "up", "up", "left", "up"], "actionTimes": [11320, 11989, 12660, 13808, 14387], "queries": {"click": {"state": {"target": ["12", "23", "1"], "time": [2013, 4927, 8193]}, "edge": {"target": [], "time": []}}, "mouseover": {"state": {"target": ["12", "0", "23", "0", "1", "12", "12"], "time": [1581, 3230, 3654, 5996, 7494, 10309, 10643]}, "edge": {"target": [], "time": []}}, "mouseout": {"state": {"target": ["0", "12", "0", "23", "0", "1", "12", "12"], "time": [1531, 3180, 3397, 5964, 6046, 10043, 10459, 10660]}, "edge": {"target": [], "time": []}}}, "displayed_time": "15.13", "trialTime": 16368, "trial_type": "mouselab-mdp", "trial_index": 27, "time_elapsed": 2194945, "internal_node_id": "0.0-4.0-1.0-18.0"}}, {"uniqueid": "w54893015:a81403954", "current_trial": 28, "dateTime": 1691161724702, "trialdata": {"revealed_states": [], "clicked_states": [], "num_clicks_accrued": [0, 0, 0, 0, 0, 0, 0, 0, 0, 0, 0, 0, 0], "stateRewards": ["", 1, 4, -8, -5, -15, -7, 21, 13, -30, 40, -65, 1, 1, 5, -14, 35, 27, -38, -11, 36, -58, -47, -2, 4, -3, 13, -16, -49, 22, 15, -56, -44, -10], "withholdReward": false, "trial_id": "mdp_trial_20", "block": "test", "trialIndex": 21, "score": 34, "costs": 0, "simulationMode": [null, null, null, null, null], "rewards": [-2, 4, -3, 13, 22], "path": ["0", "0", "23", "24", "25", "26", "29"], "rt": [1751, 103, 323, 291, 2], "actions": ["left", "left", "left", "up", "left"], "actionTimes": [4516, 5137, 5973, 6774, 7286], "queries": {"click": {"state": {"target": [], "time": []}, "edge": {"target": [], "time": []}}, "mouseover": {"state": {"target": [], "time": []}, "edge": {"target": [], "time": []}}, "mouseout": {"state": {"target": ["1", "0", "0"], "time": [1184, 1501, 8865]}, "edge": {"target": [], "time": []}}}, "displayed_time": "16.77", "trialTime": 18492, "trial_type": "mouselab-mdp", "trial_index": 28, "time_elapsed": 2213723, "internal_node_id": "0.0-4.0-1.0-19.0"}}, {"uniqueid": "w54893015:a81403954", "current_trial": 29, "dateTime": 1691161745515, "trialdata": {"revealed_states": [], "clicked_states": [], "num_clicks_accrued": [0, 0, 0, 0, 0, 0, 0, 0, 0, 0, 0, 0, 0], "stateRewards": ["", -2, 1, -5, 2, -68, 80, 33, 10, 67, -59, 20, -1, -3, 3, 14, 74, -2, 24, -16, 63, 80, 46, -1, 4, 6, 12, 83, -38, -43, -4, 43, 14, -79], "withholdReward": false, "trial_id": "mdp_trial_21", "block": "test", "trialIndex": 22, "score": -74, "costs": 0, "simulationMode": [null, null, null, null, null], "rewards": [-1, 4, 6, -4, -79], "path": ["0", "0", "23", "24", "25", "30", "33"], "rt": [1293, 24, 455, 100, 414], "actions": ["left", "left", "left", "down", "left"], "actionTimes": [6450, 6994, 7958, 8569, 9500], "queries": {"click": {"state": {"target": [], "time": []}, "edge": {"target": [], "time": []}}, "mouseover": {"state": {"target": [], "time": []}, "edge": {"target": [], "time": []}}, "mouseout": {"state": {"target": ["0"], "time": [14381]}, "edge": {"target": [], "time": []}}}, "displayed_time": "19.16", "trialTime": 20518, "trial_type": "mouselab-mdp", "trial_index": 29, "time_elapsed": 2234536, "internal_node_id": "0.0-4.0-1.0-20.0"}}, {"uniqueid": "w54893015:a81403954", "current_trial": 30, "dateTime": 1691161764365, "trialdata": {"revealed_states": [], "clicked_states": [], "num_clicks_accrued": [0, 0, 0, 0, 0, 0, 0, 0, 0, 0, 0, 0, 0], "stateRewards": ["", -2, -2, -7, -13, -10, 49, -68, -1, 84, 70, 88, 1, 4, 4, 12, -57, 25, 30, 8, -1, -77, 57, 2, 3, 2, 3, -18, -80, 23, -15, -41, 70, 11], "withholdReward": false, "trial_id": "mdp_trial_22", "block": "test", "trialIndex": 23, "score": -70, "costs": 0, "simulationMode": [null, null, null, null, null], "rewards": [2, 3, 2, 3, -80], "path": ["0", "0", "23", "24", "25", "26", "28"], "rt": [1564, 84, 452, 460, 484], "actions": ["left", "left", "left", "up", "right"], "actionTimes": [2785, 3384, 4351, 5325, 6316], "queries": {"click": {"state": {"target": [], "time": []}, "edge": {"target": [], "time": []}}, "mouseover": {"state": {"target": [], "time": []}, "edge": {"target": [], "time": []}}, "mouseout": {"state": {"target": ["0"], "time": [13793]}, "edge": {"target": [], "time": []}}}, "displayed_time": "15.22", "trialTime": 18541, "trial_type": "mouselab-mdp", "trial_index": 30, "time_elapsed": 2253385, "internal_node_id": "0.0-4.0-1.0-21.0"}}, {"uniqueid": "w54893015:a81403954", "current_trial": 31, "dateTime": 1691161781760, "trialdata": {"revealed_states": [], "clicked_states": [], "num_clicks_accrued": [0, 0, 0, 0, 0, 0, 0, 0, 0, 0, 0, 0, 0], "stateRewards": ["", 1, -2, 4, 7, -43, -83, -60, -5, -86, -80, 83, -1, -2, 6, 11, -15, 21, 13, 9, 29, -49, 11, -1, 4, -6, -11, 87, 40, 63, -8, -39, -11, 62], "withholdReward": false, "trial_id": "mdp_trial_23", "block": "test", "trialIndex": 24, "score": 35, "costs": 0, "simulationMode": [null, null, null, null, null], "rewards": [-1, -2, 6, 11, 21], "path": ["0", "0", "12", "13", "14", "15", "17"], "rt": [1064, 379, 131, 158, 554], "actions": ["right", "right", "right", "up", "right"], "actionTimes": [2770, 3662, 4314, 4991, 6053], "queries": {"click": {"state": {"target": [], "time": []}, "edge": {"target": [], "time": []}}, "mouseover": {"state": {"target": [], "time": []}, "edge": {"target": [], "time": []}}, "mouseout": {"state": {"target": ["0"], "time": [11162]}, "edge": {"target": [], "time": []}}}, "displayed_time": "15.71", "trialTime": 17097, "trial_type": "mouselab-mdp", "trial_index": 31, "time_elapsed": 2270781, "internal_node_id": "0.0-4.0-1.0-22.0"}}, {"uniqueid": "w54893015:a81403954", "current_trial": 32, "dateTime": 1691161802277, "trialdata": {"revealed_states": [], "clicked_states": ["25", "14"], "num_clicks_accrued": [0, 0, 0, 0, 0, 0, 0, 0, 0, 0, 0, 0, 0], "stateRewards": ["", 2, 4, -3, 16, -58, 30, -35, 11, -60, 47, 27, -2, -1, -7, -16, 23, -70, 68, -10, -65, -43, -34, -2, 1, 7, 9, -63, 34, -31, -8, -12, -86, 59], "withholdReward": false, "trial_id": "mdp_trial_24", "block": "test", "trialIndex": 25, "score": 46.2, "costs": -2.8, "simulationMode": [null, null, null, null, null], "rewards": [-2, 1, 7, 9, 34], "path": ["0", "0", "23", "24", "25", "26", "28"], "rt": [6016, 75, 183, 382, 1056], "actions": ["left", "left", "left", "up", "right"], "actionTimes": [7594, 8183, 8874, 9789, 11363], "queries": {"click": {"state": {"target": ["25", "14"], "time": [2712, 4341]}, "edge": {"target": [], "time": []}}, "mouseover": {"state": {"target": ["23", "25", "24", "23", "14", "22"], "time": [2043, 2393, 3128, 3145, 3659, 5709]}, "edge": {"target": [], "time": []}}, "mouseout": {"state": {"target": ["0", "23", "25", "24", "23", "14", "14", "22"], "time": [2010, 2059, 3126, 3143, 3160, 4567, 5642, 12388]}, "edge": {"target": [], "time": []}}}, "displayed_time": "15.58", "trialTime": 20201, "trial_type": "mouselab-mdp", "trial_index": 32, "time_elapsed": 2291298, "internal_node_id": "0.0-4.0-1.0-23.0"}}, {"uniqueid": "w54893015:a81403954", "current_trial": 33, "dateTime": 1691161821020, "trialdata": {"revealed_states": [], "clicked_states": [], "num_clicks_accrued": [0, 0, 0, 0, 0, 0, 0, 0, 0, 0, 0, 0, 0], "stateRewards": ["", -2, -4, 2, 10, -17, 18, 73, 11, -32, 23, -13, -2, -4, 7, 12, -25, 66, -23, 15, 40, -76, -9, 1, 2, -7, -5, -20, 24, 3, -5, 16, -73, 70], "withholdReward": false, "trial_id": "mdp_trial_25", "block": "test", "trialIndex": 26, "score": 61, "costs": 0, "simulationMode": [null, null, null, null, null], "rewards": [1, 2, -7, -5, 70], "path": ["0", "0", "23", "24", "25", "30", "33"], "rt": [1212, 122, 44, 18, 142], "actions": ["left", "left", "left", "down", "left"], "actionTimes": [3697, 4337, 4892, 5433, 6089], "queries": {"click": {"state": {"target": [], "time": []}, "edge": {"target": [], "time": []}}, "mouseover": {"state": {"target": [], "time": []}, "edge": {"target": [], "time": []}}, "mouseout": {"state": {"target": ["22", "0"], "time": [1764, 1980]}, "edge": {"target": [], "time": []}}}, "displayed_time": "16.49", "trialTime": 18411, "trial_type": "mouselab-mdp", "trial_index": 33, "time_elapsed": 2310041, "internal_node_id": "0.0-4.0-1.0-24.0"}}, {"uniqueid": "w54893015:a81403954", "current_trial": 34, "dateTime": 1691161840059, "trialdata": {"revealed_states": [], "clicked_states": [], "num_clicks_accrued": [0, 0, 0, 0, 0, 0, 0, 0, 0, 0, 0, 0, 0], "stateRewards": ["", -1, 1, -5, -6, -78, 47, -13, 12, 48, -88, 20, 2, -3, -2, 13, -20, 37, -57, 14, -38, 30, 31, -2, -2, 8, 2, -23, 78, 28, 12, -74, -88, 8], "withholdReward": false, "trial_id": "mdp_trial_26", "block": "test", "trialIndex": 27, "score": 84, "costs": 0, "simulationMode": [null, null, null, null, null], "rewards": [-2, -2, 8, 2, 78], "path": ["0", "0", "23", "24", "25", "26", "28"], "rt": [1342, 114, 56, 7, 1057], "actions": ["left", "left", "left", "up", "right"], "actionTimes": [4688, 5307, 5882, 6416, 7999], "queries": {"click": {"state": {"target": [], "time": []}, "edge": {"target": [], "time": []}}, "mouseover": {"state": {"target": [], "time": []}, "edge": {"target": [], "time": []}}, "mouseout": {"state": {"target": ["0", "0", "0"], "time": [1627, 1676, 2992]}, "edge": {"target": [], "time": []}}}, "displayed_time": "17.35", "trialTime": 18721, "trial_type": "mouselab-mdp", "trial_index": 34, "time_elapsed": 2329079, "internal_node_id": "0.0-4.0-1.0-25.0"}}, {"uniqueid": "w54893015:a81403954", "current_trial": 35, "dateTime": 1691161890612, "trialdata": {"revealed_states": [], "clicked_states": [], "num_clicks_accrued": [0, 0, 0, 0, 0, 0, 0, 0, 0, 0, 0, 0, 0], "stateRewards": ["", 1, -4, -4, 8, 1, -79, 68, -10, -79, 8, -74, -1, -3, -6, 14, 43, 23, 9, 5, -51, 63, 61, -2, 4, 6, -10, 69, -32, 57, 15, -80, -80, -77], "withholdReward": false, "trial_id": "mdp_trial_27", "block": "test", "trialIndex": 28, "score": -57, "costs": 0, "simulationMode": [null, null, null, null, null], "rewards": [-2, 4, 6, 15, -80], "path": ["0", "0", "23", "24", "25", "30", "31"], "rt": [1760, 328, 35, 151, 532], "actions": ["left", "left", "left", "down", "right"], "actionTimes": [32983, 33820, 34360, 35025, 36074], "queries": {"click": {"state": {"target": [], "time": []}, "edge": {"target": [], "time": []}}, "mouseover": {"state": {"target": [], "time": []}, "edge": {"target": [], "time": []}}, "mouseout": {"state": {"target": ["1", "0"], "time": [29842, 37772]}, "edge": {"target": [], "time": []}}}, "displayed_time": "45.22", "trialTime": 50231, "trial_type": "mouselab-mdp", "trial_index": 35, "time_elapsed": 2379632, "internal_node_id": "0.0-4.0-1.0-26.0"}}, {"uniqueid": "w54893015:a81403954", "current_trial": 36, "dateTime": 1691161908246, "trialdata": {"revealed_states": [], "clicked_states": [], "num_clicks_accrued": [0, 0, 0, 0, 0, 0, 0, 0, 0, 0, 0, 0, 0], "stateRewards": ["", -2, -3, -5, 8, 27, 11, 43, -6, -24, -87, 69, -2, 1, 1, 9, 19, 48, -37, 9, -14, 45, 62, 1, 2, 1, 16, -81, -41, 22, 4, -6, -63, 47], "withholdReward": false, "trial_id": "mdp_trial_28", "block": "test", "trialIndex": 29, "score": 41, "costs": 0, "simulationMode": [null, null, null, null, null], "rewards": [-2, -3, -5, 8, 43], "path": ["0", "0", "1", "2", "3", "4", "7"], "rt": [1306, 371, 109, 566, 617], "actions": ["up", "up", "up", "right", "down"], "actionTimes": [2965, 3848, 4469, 5543, 6677], "queries": {"click": {"state": {"target": [], "time": []}, "edge": {"target": [], "time": []}}, "mouseover": {"state": {"target": [], "time": []}, "edge": {"target": [], "time": []}}, "mouseout": {"state": {"target": [], "time": []}, "edge": {"target": [], "time": []}}}, "displayed_time": "15.66", "trialTime": 17313, "trial_type": "mouselab-mdp", "trial_index": 36, "time_elapsed": 2397267, "internal_node_id": "0.0-4.0-1.0-27.0"}}, {"uniqueid": "w54893015:a81403954", "current_trial": 37, "dateTime": 1691161932032, "trialdata": {"revealed_states": [], "clicked_states": [], "num_clicks_accrued": [0, 0, 0, 0, 0, 0, 0, 0, 0, 0, 0, 0, 0], "stateRewards": ["", -1, -2, 4, 9, 10, -75, 39, 16, -43, 88, -19, -1, 1, 2, 4, -31, 10, 73, 12, 41, -64, -81, -2, 2, -6, 1, -81, -1, -26, 3, -59, -3, -20], "withholdReward": false, "trial_id": "mdp_trial_29", "block": "test", "trialIndex": 30, "score": -26, "costs": 0, "simulationMode": [null, null, null, null, null], "rewards": [-1, -2, 4, 16, -43], "path": ["0", "0", "1", "2", "3", "8", "9"], "rt": [1414, 233, 74, 187, 487], "actions": ["up", "up", "up", "left", "up"], "actionTimes": [3883, 4631, 5222, 5918, 6918], "queries": {"click": {"state": {"target": [], "time": []}, "edge": {"target": [], "time": []}}, "mouseover": {"state": {"target": [], "time": []}, "edge": {"target": [], "time": []}}, "mouseout": {"state": {"target": ["0", "0"], "time": [1837, 7630]}, "edge": {"target": [], "time": []}}}, "displayed_time": "16.47", "trialTime": 23463, "trial_type": "mouselab-mdp", "trial_index": 37, "time_elapsed": 2421052, "internal_node_id": "0.0-4.0-1.0-28.0"}}, {"uniqueid": "w54893015:a81403954", "current_trial": 38, "dateTime": 1691161965373, "trialdata": {"revealed_states": [], "clicked_states": [], "num_clicks_accrued": [0, 0, 0, 0, 0, 0, 0, 0, 0, 0, 0, 0, 0], "stateRewards": ["", -1, 4, 3, 12, -27, 34, -33, 3, -63, 1, 6, 2, 2, -6, -11, -77, -85, 68, -6, 51, 81, -60, -2, -2, 1, 15, 20, 15, 68, -10, -14, 6, -4], "withholdReward": false, "trial_id": "mdp_trial_30", "block": "test", "trialIndex": 31, "score": 55, "costs": 0, "simulationMode": [null, null, null, null, null], "rewards": [2, 2, -6, -11, 68], "path": ["0", "0", "12", "13", "14", "15", "18"], "rt": [1349, 17, 507, 283, 361], "actions": ["right", "right", "right", "up", "left"], "actionTimes": [14644, 15173, 16196, 16988, 17866], "queries": {"click": {"state": {"target": [], "time": []}, "edge": {"target": [], "time": []}}, "mouseover": {"state": {"target": [], "time": []}, "edge": {"target": [], "time": []}}, "mouseout": {"state": {"target": ["0", "0"], "time": [13068, 21485]}, "edge": {"target": [], "time": []}}}, "displayed_time": "27.30", "trialTime": 33014, "trial_type": "mouselab-mdp", "trial_index": 38, "time_elapsed": 2454394, "internal_node_id": "0.0-4.0-1.0-29.0"}}, {"uniqueid": "w54893015:a81403954", "current_trial": 39, "dateTime": 1691162017887, "trialdata": {"revealed_states": [], "clicked_states": [], "num_clicks_accrued": [0, 0, 0, 0, 0, 0, 0, 0, 0, 0, 0, 0, 0], "stateRewards": ["", -2, 2, 8, -6, -25, 3, 87, 2, -62, -2, 74, -2, -1, 2, -1, 79, 49, -37, -14, 5, 67, -9, -1, 2, -2, 5, 15, 38, 32, -14, -38, -38, 30], "withholdReward": false, "trial_id": "mdp_trial_31", "block": "test", "trialIndex": 32, "score": 84, "costs": 0, "simulationMode": [null, null, null, null, null], "rewards": [-2, 2, 8, 2, 74], "path": ["0", "0", "1", "2", "3", "8", "11"], "rt": [1677, 592, 149, 235, 592], "actions": ["up", "up", "up", "left", "left"], "actionTimes": [38643, 39752, 40408, 41160, 42266], "queries": {"click": {"state": {"target": [], "time": []}, "edge": {"target": [], "time": []}}, "mouseover": {"state": {"target": [], "time": []}, "edge": {"target": [], "time": []}}, "mouseout": {"state": {"target": ["0", "0"], "time": [36735, 44622]}, "edge": {"target": [], "time": []}}}, "displayed_time": "50.97", "trialTime": 52180, "trial_type": "mouselab-mdp", "trial_index": 39, "time_elapsed": 2506908, "internal_node_id": "0.0-4.0-1.0-30.0"}}, {"uniqueid": "w54893015:a81403954", "current_trial": 40, "dateTime": 1691162053207, "trialdata": {"revealed_states": [], "clicked_states": [], "num_clicks_accrued": [0, 0, 0, 0, 0, 0, 0, 0, 0, 0, 0, 0, 0], "stateRewards": ["", -1, -4, 8, 8, -68, 47, 24, -7, -61, 49, -69, -1, -1, 8, -7, 42, 1, -45, -11, 10, -63, -6, 1, 4, 6, -16, 79, -37, -58, -12, 81, 18, -53], "withholdReward": false, "trial_id": "mdp_trial_32", "block": "test", "trialIndex": 33, "score": -57, "costs": 0, "simulationMode": [null, null, null, null, null], "rewards": [-1, -4, 8, 8, -68], "path": ["0", "0", "1", "2", "3", "4", "5"], "rt": [993, 363, 601, 86, 80], "actions": ["up", "up", "up", "right", "up"], "actionTimes": [4001, 4872, 5992, 6593, 7187], "queries": {"click": {"state": {"target": [], "time": []}, "edge": {"target": [], "time": []}}, "mouseover": {"state": {"target": [], "time": []}, "edge": {"target": [], "time": []}}, "mouseout": {"state": {"target": ["0", "0", "0"], "time": [2436, 7972, 8023]}, "edge": {"target": [], "time": []}}}, "displayed_time": "17.01", "trialTime": 34975, "trial_type": "mouselab-mdp", "trial_index": 40, "time_elapsed": 2542228, "internal_node_id": "0.0-4.0-1.0-31.0"}}, {"uniqueid": "w54893015:a81403954", "current_trial": 41, "dateTime": 1691162072403, "trialdata": {"revealed_states": [], "clicked_states": [], "num_clicks_accrued": [0, 0, 0, 0, 0, 0, 0, 0, 0, 0, 0, 0, 0], "stateRewards": ["", -2, 1, 6, -2, -10, -78, -69, 14, -15, 7, -1, 1, -1, -2, 13, 77, 32, 87, 5, -74, 30, -26, 1, 3, 4, 12, 39, 54, -43, 2, 10, 23, 13], "withholdReward": false, "trial_id": "mdp_trial_33", "block": "test", "trialIndex": 34, "score": 59, "costs": 0, "simulationMode": [null, null, null, null, null], "rewards": [1, 3, 4, 12, 39], "path": ["0", "0", "23", "24", "25", "26", "27"], "rt": [820, 133, 189, 177, 99], "actions": ["left", "left", "left", "up", "up"], "actionTimes": [2466, 3106, 3811, 4499, 5104], "queries": {"click": {"state": {"target": [], "time": []}, "edge": {"target": [], "time": []}}, "mouseover": {"state": {"target": [], "time": []}, "edge": {"target": [], "time": []}}, "mouseout": {"state": {"target": ["0"], "time": [5871]}, "edge": {"target": [], "time": []}}}, "displayed_time": "15.65", "trialTime": 18854, "trial_type": "mouselab-mdp", "trial_index": 41, "time_elapsed": 2561423, "internal_node_id": "0.0-4.0-1.0-32.0"}}, {"uniqueid": "w54893015:a81403954", "current_trial": 42, "dateTime": 1691162093559, "trialdata": {"revealed_states": [], "clicked_states": [], "num_clicks_accrued": [0, 0, 0, 0, 0, 0, 0, 0, 0, 0, 0, 0, 0], "stateRewards": ["", 1, -4, -6, 11, -20, 8, -30, 1, -38, 88, 42, 2, 3, 5, -12, -8, -74, 30, -8, 67, -19, 42, 2, -1, 4, 13, 50, -68, 2, -8, -15, 87, -46], "withholdReward": false, "trial_id": "mdp_trial_34", "block": "test", "trialIndex": 35, "score": 28, "costs": 0, "simulationMode": [null, null, null, null, null], "rewards": [2, 3, 5, -12, 30], "path": ["0", "0", "12", "13", "14", "15", "18"], "rt": [1348, 395, 125, 66, 467], "actions": ["right", "right", "right", "up", "left"], "actionTimes": [2778, 3685, 4315, 4890, 5872], "queries": {"click": {"state": {"target": [], "time": []}, "edge": {"target": [], "time": []}}, "mouseover": {"state": {"target": [], "time": []}, "edge": {"target": [], "time": []}}, "mouseout": {"state": {"target": ["0", "0"], "time": [1228, 7037]}, "edge": {"target": [], "time": []}}}, "displayed_time": "15.43", "trialTime": 20805, "trial_type": "mouselab-mdp", "trial_index": 42, "time_elapsed": 2582579, "internal_node_id": "0.0-4.0-1.0-33.0"}}, {"uniqueid": "w54893015:a81403954", "current_trial": 43, "dateTime": 1691162131522, "trialdata": {"revealed_states": [], "clicked_states": [], "num_clicks_accrued": [0, 0, 0, 0, 0, 0, 0, 0, 0, 0, 0, 0, 0], "stateRewards": ["", 2, 3, -3, 4, 72, -28, 34, -12, 57, -64, -15, 2, 1, -4, -15, 2, 49, 31, -1, -42, -58, 31, -2, 1, -2, -13, -75, -19, -22, -6, 61, 10, -56], "withholdReward": false, "trial_id": "mdp_trial_35", "block": "test", "trialIndex": 36, "score": 40, "costs": 0, "simulationMode": [null, null, null, null, null], "rewards": [2, 3, -3, 4, 34], "path": ["0", "0", "1", "2", "3", "4", "7"], "rt": [930, 670, 450, 82, 74], "actions": ["up", "up", "up", "right", "down"], "actionTimes": [2178, 3355, 4317, 4917, 5507], "queries": {"click": {"state": {"target": [], "time": []}, "edge": {"target": [], "time": []}}, "mouseover": {"state": {"target": [], "time": []}, "edge": {"target": [], "time": []}}, "mouseout": {"state": {"target": ["0", "0"], "time": [1045, 36948]}, "edge": {"target": [], "time": []}}}, "displayed_time": "15.25", "trialTime": 37607, "trial_type": "mouselab-mdp", "trial_index": 43, "time_elapsed": 2620543, "internal_node_id": "0.0-4.0-1.0-34.0"}}, {"uniqueid": "w54893015:a81403954", "current_trial": 44, "dateTime": 1691162149415, "trialdata": {"revealed_states": [], "clicked_states": [], "num_clicks_accrued": [0, 0, 0, 0, 0, 0, 0, 0, 0, 0, 0, 0, 0], "stateRewards": ["", 1, 4, -4, 14, 35, 51, 19, -13, 54, 78, -74, -2, -1, -3, 13, -11, -42, -73, -15, -24, -3, -69, 2, -1, 5, 16, -27, 73, 58, 9, -60, 5, -60], "withholdReward": false, "trial_id": "mdp_trial_36", "block": "test", "trialIndex": 37, "score": 95, "costs": 0, "simulationMode": [null, null, null, null, null], "rewards": [2, -1, 5, 16, 73], "path": ["0", "0", "23", "24", "25", "26", "28"], "rt": [1438, 20, 26, 478, 498], "actions": ["left", "left", "left", "up", "right"], "actionTimes": [2884, 3420, 3958, 4944, 5947], "queries": {"click": {"state": {"target": [], "time": []}, "edge": {"target": [], "time": []}}, "mouseover": {"state": {"target": [], "time": []}, "edge": {"target": [], "time": []}}, "mouseout": {"state": {"target": ["0", "0"], "time": [1076, 14343]}, "edge": {"target": [], "time": []}}}, "displayed_time": "15.45", "trialTime": 17536, "trial_type": "mouselab-mdp", "trial_index": 44, "time_elapsed": 2638436, "internal_node_id": "0.0-4.0-1.0-35.0"}}, {"uniqueid": "w54893015:a81403954", "current_trial": 45, "dateTime": 1691162172559, "trialdata": {"revealed_states": [], "clicked_states": [], "num_clicks_accrued": [0, 0, 0, 0, 0, 0, 0, 0, 0, 0, 0, 0, 0], "stateRewards": ["", 1, -2, -8, -13, 4, 34, -84, -4, -49, 88, -70, -1, 3, -4, 10, -77, 13, -34, 15, -21, -16, 27, 1, -2, 8, -8, -6, 38, -26, 6, -15, 66, -3], "withholdReward": false, "trial_id": "mdp_trial_37", "block": "test", "trialIndex": 38, "score": 21, "costs": 0, "simulationMode": [null, null, null, null, null], "rewards": [-1, 3, -4, 10, 13], "path": ["0", "0", "12", "13", "14", "15", "17"], "rt": [1230, 19, 97, 276, 144], "actions": ["right", "right", "right", "up", "right"], "actionTimes": [2579, 3112, 3723, 4520, 5171], "queries": {"click": {"state": {"target": [], "time": []}, "edge": {"target": [], "time": []}}, "mouseover": {"state": {"target": [], "time": []}, "edge": {"target": [], "time": []}}, "mouseout": {"state": {"target": ["0"], "time": [21916]}, "edge": {"target": [], "time": []}}}, "displayed_time": "15.35", "trialTime": 22800, "trial_type": "mouselab-mdp", "trial_index": 45, "time_elapsed": 2661580, "internal_node_id": "0.0-4.0-1.0-36.0"}}, {"uniqueid": "w54893015:a81403954", "current_trial": 46, "dateTime": 1691162203510, "trialdata": {"revealed_states": [], "clicked_states": [], "num_clicks_accrued": [0, 0, 0, 0, 0, 0, 0, 0, 0, 0, 0, 0, 0], "stateRewards": ["", -1, 4, -3, 3, 57, -61, 5, -11, 23, -1, 34, -2, -4, -1, -13, 27, 38, -36, 4, -45, 21, 88, 1, -2, -1, 1, -69, -5, -78, -12, -9, 38, -54], "withholdReward": false, "trial_id": "mdp_trial_38", "block": "test", "trialIndex": 39, "score": -12, "costs": 0, "simulationMode": [null, null, null, null, null], "rewards": [-1, 4, -3, -11, -1], "path": ["0", "0", "1", "2", "3", "8", "10"], "rt": [1470, 92, 62, 574, 13], "actions": ["up", "up", "up", "left", "down"], "actionTimes": [16893, 17504, 18074, 19169, 19691], "queries": {"click": {"state": {"target": [], "time": []}, "edge": {"target": [], "time": []}}, "mouseover": {"state": {"target": [], "time": []}, "edge": {"target": [], "time": []}}, "mouseout": {"state": {"target": ["12", "0"], "time": [14845, 15896]}, "edge": {"target": [], "time": []}}}, "displayed_time": "29.42", "trialTime": 30607, "trial_type": "mouselab-mdp", "trial_index": 46, "time_elapsed": 2692531, "internal_node_id": "0.0-4.0-1.0-37.0"}}, {"uniqueid": "w54893015:a81403954", "current_trial": 47, "dateTime": 1691162223594, "trialdata": {"revealed_states": [], "clicked_states": [], "num_clicks_accrued": [0, 0, 0, 0, 0, 0, 0, 0, 0, 0, 0, 0, 0], "stateRewards": ["", 1, 2, -8, 9, 18, -83, -11, 6, -64, -48, 17, -2, -2, -5, -3, -24, -3, -86, -2, 48, -41, -22, -2, 4, 7, 8, 81, 13, -48, 10, 61, 19, 57], "withholdReward": false, "trial_id": "mdp_trial_39", "block": "test", "trialIndex": 40, "score": 30, "costs": 0, "simulationMode": [null, null, null, null, null], "rewards": [-2, 4, 7, 8, 13], "path": ["0", "0", "23", "24", "25", "26", "28"], "rt": [552, 399, 178, 323, 544], "actions": ["left", "left", "left", "up", "right"], "actionTimes": [1736, 2644, 3340, 4169, 5222], "queries": {"click": {"state": {"target": [], "time": []}, "edge": {"target": [], "time": []}}, "mouseover": {"state": {"target": [], "time": []}, "edge": {"target": [], "time": []}}, "mouseout": {"state": {"target": ["0"], "time": [7492]}, "edge": {"target": [], "time": []}}}, "displayed_time": "15.19", "trialTime": 19733, "trial_type": "mouselab-mdp", "trial_index": 47, "time_elapsed": 2712615, "internal_node_id": "0.0-4.0-1.0-38.0"}}, {"uniqueid": "w54893015:a81403954", "current_trial": 48, "dateTime": 1691162246859, "trialdata": {"revealed_states": [], "clicked_states": [], "num_clicks_accrued": [0, 0, 0, 0, 0, 0, 0, 0, 0, 0, 0, 0, 0], "stateRewards": ["", -1, -1, 7, -15, -43, -21, -84, -9, -45, -66, 2, 1, -2, 2, 8, -27, 44, -52, -5, -84, 11, 53, 1, 4, -4, 16, 83, -82, -15, -16, 68, -43, 81], "withholdReward": false, "trial_id": "mdp_trial_40", "block": "test", "trialIndex": 41, "score": 49, "costs": 0, "simulationMode": [null, null, null, null, null], "rewards": [1, -2, 2, -5, 53], "path": ["0", "0", "12", "13", "14", "19", "22"], "rt": [1250, 10, 152, 60, 53], "actions": ["right", "right", "right", "down", "left"], "actionTimes": [2705, 3235, 3910, 4484, 5061], "queries": {"click": {"state": {"target": [], "time": []}, "edge": {"target": [], "time": []}}, "mouseover": {"state": {"target": [], "time": []}, "edge": {"target": [], "time": []}}, "mouseout": {"state": {"target": ["0", "0"], "time": [1107, 21764]}, "edge": {"target": [], "time": []}}}, "displayed_time": "15.46", "trialTime": 22906, "trial_type": "mouselab-mdp", "trial_index": 48, "time_elapsed": 2735880, "internal_node_id": "0.0-4.0-1.0-39.0"}}, {"uniqueid": "w54893015:a81403954", "current_trial": 49, "dateTime": 1691162303493, "trialdata": {"rt": 56630, "response": {"Q0": "$-16 to 16", "Q1": "$-4 to $4", "Q2": "$-16 to $16", "Q3": "The cost for clicking on nodes varied between nodes.", "Q4": "Very motivated"}, "question_order": [0, 1, 2, 3, 4], "trial_id": "final_quiz_control", "trial_type": "survey-multi-choice", "trial_index": 49, "time_elapsed": 2792514, "internal_node_id": "0.0-4.0-2.0"}}, {"uniqueid": "w54893015:a81403954", "current_trial": 50, "dateTime": 1691162403180, "trialdata": {"rt": 99680, "response": {"Q0": "There were sections I suspected often had large sums of cash", "Q1": "No I did not improve it", "Q2": "I tried to not use the node inspector as much as often"}, "trial_id": "self_report_control", "trial_type": "survey-text", "trial_index": 50, "time_elapsed": 2892201, "internal_node_id": "0.0-4.0-3.0"}}, {"uniqueid": "w54893015:a81403954", "current_trial": 51, "dateTime": 1691162441720, "trialdata": {"rt": 38537, "response": {"gender": "male", "age": "24", "colorblind": "0", "effort": "1"}, "trial_type": "survey-html-form", "trial_index": 51, "time_elapsed": 2930741, "internal_node_id": "0.0-4.0-4.0"}}, {"uniqueid": "w54893015:a81403954", "current_trial": 52, "dateTime": 1691162477740, "trialdata": {"rt": 36015, "response": {"Q0": "No", "Q1": "I did not realize", "Q2": ""}, "trial_type": "survey-text", "trial_index": 52, "time_elapsed": 2966761, "internal_node_id": "0.0-4.0-5.0"}}, {"uniqueid": "w54893015:a81403954", "current_trial": 53, "dateTime": 1691162485888, "trialdata": {"rt": 8145, "stimulus": "Press 'Finish HIT' in order to reach the completion code. Once the data has been saved, you will receive the code either in this window or in the original browser window where you started the experiment.\n", "response": 0, "trial_type": "html-button-response", "trial_index": 53, "time_elapsed": 2974908, "internal_node_id": "0.0-5.0"}}, {"uniqueid": "w54893015:a81403954", "current_trial": 54, "dateTime": 1691162486890, "trialdata": {"success": true, "trial_type": "fullscreen", "trial_index": 54, "time_elapsed": 2975911, "internal_node_id": "0.0-6.0"}}], "questiondata": {"params": {"CODE": "C6DMOQA6", "MIN_TIME": 14, "inspectCost": 1, "startTime": "Fri Aug 04 2023 16:31:49 GMT+0200 (South Africa Standard Time)", "bonusRate": 0.002, "variance": "1_2_4_8_44", "branching": "31123"}, "final_score": 558.6}, "eventdata": [{"eventtype": "initialized", "value": null, "timestamp": 1691159508386, "interval": 0}, {"eventtype": "window_resize", "value": [1280, 632], "timestamp": 1691159508387, "interval": 1}, {"eventtype": "window_resize", "value": [1280, 632], "timestamp": 1691159508874, "interval": 487}, {"eventtype": "window_resize", "value": [1280, 720], "timestamp": 1691159569760, "interval": 60886}, {"eventtype": "window_resize", "value": [1280, 632], "timestamp": 1691162486111, "interval": 2916351}], "useragent": "Mozilla/5.0 (Windows NT 10.0; Win64; x64) AppleWebKit/537.36 (KHTML, like Gecko) Chrome/115.0.0.0 Safari/537.36", "mode": "live", "id": "w54893015:a81403954", "status": "user data saved", "Beginhit": "2023-08-04 14:31:42.814618", "Beginexp": "2023-08-04 14:32:48.205559", "Endhit": "2023-08-04 15:21:25.311968", "psiturkStatus": 3, "browser": "<redacted>", "platform": "windows", "language": "en-GB"}