{"condition": 1, "counterbalance": 0, "assignmentId": "a15330621", "workerId": "w42007853", "hitId": "h42118428", "currenttrial": 56, "bonus": 0, "data": [{"uniqueid": "w42007853:a15330621", "current_trial": 0, "dateTime": 1693480918693, "trialdata": {"success": true, "trial_type": "fullscreen", "trial_index": 0, "time_elapsed": 4962, "internal_node_id": "0.0-0.0"}}, {"uniqueid": "w42007853:a15330621", "current_trial": 1, "dateTime": 1693480928870, "trialdata": {"view_history": [{"page_index": 0, "viewing_time": 10173}], "rt": 10173, "trial_id": "exp_instructions_misaligned", "trial_type": "instructions", "trial_index": 1, "time_elapsed": 15140, "internal_node_id": "0.0-1.0"}}, {"uniqueid": "w42007853:a15330621", "current_trial": 2, "dateTime": 1693481151067, "trialdata": {"view_history": [{"page_index": 0, "viewing_time": 83007}, {"page_index": 1, "viewing_time": 77410}, {"page_index": 2, "viewing_time": 28060}, {"page_index": 3, "viewing_time": 33720}], "rt": 222197, "trial_id": "mouselab_instructions_1_misaligned", "trial_type": "instructions", "trial_index": 2, "time_elapsed": 237337, "internal_node_id": "0.0-2.0-1.0"}}, {"uniqueid": "w42007853:a15330621", "current_trial": 3, "dateTime": 1693481186650, "trialdata": {"revealed_states": [], "clicked_states": ["25"], "num_clicks_accrued": [0, 0, 0, 0, 0, 0, 0, 0, 0, 0, 0, 0, 0], "stateRewards": ["", -10, 10, -10, -10, -10, -10, -10, 10, -10, 10, 10, -10, 10, -10, -10, 10, 10, -10, 10, -10, 10, 10, 10, -10, 10, 10, -10, -10, -10, 10, 10, 10, -10], "withholdReward": false, "trial_id": "practice_1", "block": "test", "trialIndex": 0, "score": 13, "costs": -0.5, "simulationMode": [null, null, null, null, null], "rewards": [10, -10, 10, 10, -10], "path": ["0", "0", "23", "24", "25", "26", "28"], "rt": [7735, 749, 2349, 10947, 1274], "actions": ["left", "left", "left", "up", "right"], "actionTimes": [11588, 12857, 15728, 27201, 29009], "queries": {"click": {"state": {"target": ["25"], "time": [8381]}, "edge": {"target": [], "time": []}}, "mouseover": {"state": {"target": ["0", "24", "25", "24", "23", "0", "23", "24", "25", "25", "13", "14", "13"], "time": [5420, 6070, 6171, 6587, 6620, 6671, 7590, 7873, 7925, 8008, 9714, 9798, 10322]}, "edge": {"target": [], "time": []}}, "mouseout": {"state": {"target": ["0", "0", "24", "25", "24", "23", "0", "23", "24", "25", "25", "13", "14", "13", "31", "30", "24", "28", "26", "27"], "time": [2396, 5468, 6104, 6572, 6604, 6655, 6686, 7708, 7906, 7956, 9066, 9749, 10269, 10371, 17555, 20984, 23525, 23811, 23911, 25982]}, "edge": {"target": [], "time": []}}}, "displayed_time": "29.53", "trialTime": 34872, "trial_type": "mouselab-mdp", "trial_index": 3, "time_elapsed": 272919, "internal_node_id": "0.0-2.0-2.0-0.0"}}, {"uniqueid": "w42007853:a15330621", "current_trial": 4, "dateTime": 1693481223750, "trialdata": {"revealed_states": [], "clicked_states": ["23", "14", "2", "21"], "num_clicks_accrued": [0, 0, 0, 0, 0, 0, 0, 0, 0, 0, 0, 0, 0], "stateRewards": ["", 10, 10, 10, 10, -10, -10, 10, -10, 10, -10, 10, -10, -10, 10, -10, 10, 10, -10, 10, 10, 10, 10, 10, -10, 10, 10, 10, 10, 10, -10, -10, -10, 10], "withholdReward": false, "trial_id": "practice_2", "block": "test", "trialIndex": 1, "score": 11.5, "costs": -2, "simulationMode": [null, null, null, null, null], "rewards": [-10, -10, 10, 10, 10], "path": ["0", "0", "12", "13", "14", "19", "21"], "rt": [16390, 243, 400, 308, 694], "actions": ["right", "right", "right", "down", "down"], "actionTimes": [21416, 22313, 23407, 24349, 25681], "queries": {"click": {"state": {"target": ["23", "14", "2", "21"], "time": [6725, 9519, 12220, 15669]}, "edge": {"target": [], "time": []}}, "mouseover": {"state": {"target": ["23", "14", "1", "2", "1", "12", "22", "19", "21", "20", "12", "0"], "time": [6157, 8028, 10805, 11033, 14212, 14363, 14487, 14904, 15118, 17089, 18557, 19248]}, "edge": {"target": [], "time": []}}, "mouseout": {"state": {"target": ["0", "23", "14", "1", "2", "1", "12", "22", "19", "21", "20", "12", "0"], "time": [5191, 7504, 10531, 10907, 14150, 14271, 14428, 14844, 15001, 16980, 18492, 18619, 20428]}, "edge": {"target": [], "time": []}}}, "displayed_time": "26.31", "trialTime": 33435, "trial_type": "mouselab-mdp", "trial_index": 4, "time_elapsed": 310020, "internal_node_id": "0.0-2.0-2.0-1.0"}}, {"uniqueid": "w42007853:a15330621", "current_trial": 5, "dateTime": 1693481257879, "trialdata": {"view_history": [{"page_index": 0, "viewing_time": 27071}, {"page_index": 1, "viewing_time": 7054}], "rt": 34125, "trial_id": "mouselab_instructions_2_misaligned", "trial_type": "instructions", "trial_index": 5, "time_elapsed": 344149, "internal_node_id": "0.0-2.0-3.0"}}, {"uniqueid": "w42007853:a15330621", "current_trial": 6, "dateTime": 1693481293929, "trialdata": {"rt": 36046, "response": {"Q0": "The cost for clicking on nodes may vary between nodes.", "Q1": "The better I perform the higher my bonus will be.", "Q2": "No, the amount of cash at each node of the web may be different each time.", "Q3": "To get the highest total score.", "Q4": "Only before moving the spider.", "Q5": "3 seconds"}, "question_order": [0, 1, 2, 3, 4, 5], "correct": {"Q0": "The cost for clicking on nodes may vary between nodes.", "Q1": "The better I perform the higher my bonus will be.", "Q2": "No, the amount of cash at each node of the web may be different each time.", "Q3": "To get the highest total score.", "Q4": "Only before moving the spider.", "Q5": "3 seconds"}, "trial_id": "mouselab_quiz_misaligned", "trial_type": "survey-multi-choice", "trial_index": 6, "time_elapsed": 380199, "internal_node_id": "0.0-2.0-4.0"}}, {"uniqueid": "w42007853:a15330621", "current_trial": 7, "dateTime": 1693481304584, "trialdata": {"rt": 10652, "response": {"Q0": "No"}, "question_order": [0], "trial_id": "repeat_check", "trial_type": "survey-multi-choice", "trial_index": 7, "time_elapsed": 390854, "internal_node_id": "0.0-4.0-0.0"}}, {"uniqueid": "w42007853:a15330621", "current_trial": 8, "dateTime": 1693481312939, "trialdata": {"rt": 8351, "stimulus": "\n<h1> Get ready to start the game! </h1>\n\nThank you for reading the instructions. Get ready start with the 40 rounds of this game.\n<br><br>\nIf you need to take a break, feel free to take one after the end of a round, before continuing to the next one.\n<br><br>\nRemember, the more money the spider gets, the bigger your bonus will be!\n<br><br>\n<div style='text-align: center;'>Press <code>space</code> to begin.</div>\n\n<br><br>\n(If, at any point, the <code>space</code> key does not take you to the next page, click once on the text and try again.)", "response": " ", "trial_id": "mdp_ready", "trial_type": "html-keyboard-response", "trial_index": 8, "time_elapsed": 399209, "internal_node_id": "0.0-6.0-0.0"}}, {"uniqueid": "w42007853:a15330621", "current_trial": 9, "dateTime": 1693481340977, "trialdata": {"revealed_states": [], "clicked_states": [], "num_clicks_accrued": [0, 0, 0, 0, 0, 0, 0, 0, 0, 0, 0, 0, 0], "stateRewards": ["", 2, 4, 7, -6, -76, -81, 2, 5, -66, -3, 36, -2, -4, 6, -2, -69, 4, -49, -6, 67, 38, -67, 2, 1, 1, 6, -68, -21, 52, -16, -16, 6, -70], "withholdReward": false, "trial_id": "mdp_trial_1", "block": "test", "trialIndex": 2, "score": 15, "costs": 0, "simulationMode": [null, null, null, null, null], "rewards": [2, 4, 7, 5, -3], "path": ["0", "0", "1", "2", "3", "8", "10"], "rt": [2343, 308, 1766, 648, 306], "actions": ["up", "up", "up", "left", "down"], "actionTimes": [7602, 8571, 10984, 12296, 13248], "queries": {"click": {"state": {"target": [], "time": []}, "edge": {"target": [], "time": []}}, "mouseover": {"state": {"target": [], "time": []}, "edge": {"target": [], "time": []}}, "mouseout": {"state": {"target": ["1", "0"], "time": [1487, 5452]}, "edge": {"target": [], "time": []}}}, "displayed_time": "19.58", "trialTime": 24298, "trial_type": "mouselab-mdp", "trial_index": 9, "time_elapsed": 427247, "internal_node_id": "0.0-6.0-1.0-0.0"}}, {"uniqueid": "w42007853:a15330621", "current_trial": 10, "dateTime": 1693481368034, "trialdata": {"revealed_states": [], "clicked_states": [], "num_clicks_accrued": [0, 0, 0, 0, 0, 0, 0, 0, 0, 0, 0, 0, 0], "stateRewards": ["", -1, -3, 4, -10, -5, 79, -87, -2, 53, 29, -20, -2, -1, -5, 10, 27, 86, 46, -16, -29, 40, 3, 2, 4, -1, -6, 37, 79, -29, 7, 86, -62, 29], "withholdReward": false, "trial_id": "mdp_trial_2", "block": "test", "trialIndex": 3, "score": 41, "costs": 0, "simulationMode": [null, null, null, null, null], "rewards": [2, 4, -1, 7, 29], "path": ["0", "0", "23", "24", "25", "30", "33"], "rt": [1060, 160, 177, 103, 197], "actions": ["left", "left", "left", "down", "left"], "actionTimes": [5961, 6778, 7600, 8360, 9200], "queries": {"click": {"state": {"target": [], "time": []}, "edge": {"target": [], "time": []}}, "mouseover": {"state": {"target": [], "time": []}, "edge": {"target": [], "time": []}}, "mouseout": {"state": {"target": ["0"], "time": [1423]}, "edge": {"target": [], "time": []}}}, "displayed_time": "19.70", "trialTime": 23336, "trial_type": "mouselab-mdp", "trial_index": 10, "time_elapsed": 454304, "internal_node_id": "0.0-6.0-1.0-1.0"}}, {"uniqueid": "w42007853:a15330621", "current_trial": 11, "dateTime": 1693481395606, "trialdata": {"revealed_states": [], "clicked_states": [], "num_clicks_accrued": [0, 0, 0, 0, 0, 0, 0, 0, 0, 0, 0, 0, 0], "stateRewards": ["", -2, -3, -6, -7, 9, 16, 65, 5, -41, 20, -25, -1, -4, 1, -11, -49, -4, 71, 1, 39, -62, 52, -2, -3, 7, -9, -28, -70, 84, 8, 24, -58, 82], "withholdReward": false, "trial_id": "mdp_trial_3", "block": "test", "trialIndex": 4, "score": 56, "costs": 0, "simulationMode": [null, null, null, null, null], "rewards": [-1, -4, 1, -11, 71], "path": ["0", "0", "12", "13", "14", "15", "18"], "rt": [959, 191, 366, 253, 374], "actions": ["right", "right", "right", "up", "left"], "actionTimes": [6143, 6999, 7995, 8893, 9916], "queries": {"click": {"state": {"target": [], "time": []}, "edge": {"target": [], "time": []}}, "mouseover": {"state": {"target": [], "time": []}, "edge": {"target": [], "time": []}}, "mouseout": {"state": {"target": ["23"], "time": [21462]}, "edge": {"target": [], "time": []}}}, "displayed_time": "19.59", "trialTime": 23991, "trial_type": "mouselab-mdp", "trial_index": 11, "time_elapsed": 481876, "internal_node_id": "0.0-6.0-1.0-2.0"}}, {"uniqueid": "w42007853:a15330621", "current_trial": 12, "dateTime": 1693481421919, "trialdata": {"revealed_states": [], "clicked_states": [], "num_clicks_accrued": [0, 0, 0, 0, 0, 0, 0, 0, 0, 0, 0, 0, 0], "stateRewards": ["", -1, -2, 4, 9, 10, -75, 39, 16, -43, 88, -19, -1, 1, 2, 4, -31, 10, 73, 12, 41, -64, -81, -2, 2, -6, 1, -81, -1, -26, 3, -59, -3, -20], "withholdReward": false, "trial_id": "mdp_trial_4", "block": "test", "trialIndex": 5, "score": -64, "costs": 0, "simulationMode": [null, null, null, null, null, null, null, null, null, null, null, null, null, null, null], "rewards": [-1, -1, -2, -2, 4, 9, 4, -75], "path": ["0", "0", "1", "1", "2", "2", "3", "4", "3", "6"], "rt": [2841, 2366, 780, 130, 1368, 781, 879, 292, 1098, 513, 80, 1476, 144, 2170, 1587], "actions": ["up", "up", "up", "up", "up", "up", "up", "up", "up", "up", "right", "up", "up", "right", "right"], "actionTimes": [2424, 2428, 3266, 3269, 4695, 4699, 5634, 5637, 6791, 6794, 7521, 8328, 8333, 10560, 10564], "queries": {"click": {"state": {"target": [], "time": []}, "edge": {"target": [], "time": []}}, "mouseover": {"state": {"target": ["0"], "time": [1491]}, "edge": {"target": [], "time": []}}, "mouseout": {"state": {"target": ["0", "0"], "time": [null, 2002]}, "edge": {"target": [], "time": []}}}, "displayed_time": "14.83", "trialTime": 18953, "trial_type": "mouselab-mdp", "trial_index": 12, "time_elapsed": 508189, "internal_node_id": "0.0-6.0-1.0-3.0"}}, {"uniqueid": "w42007853:a15330621", "current_trial": 13, "dateTime": 1693481447901, "trialdata": {"revealed_states": [], "clicked_states": [], "num_clicks_accrued": [0, 0, 0, 0, 0, 0, 0, 0, 0, 0, 0, 0, 0], "stateRewards": ["", -1, 2, -6, 6, -82, -19, -39, -16, -83, 11, -33, -2, -2, 4, -6, -82, -1, -19, -6, -10, -67, -41, -2, 1, -7, 16, -23, -78, -52, 14, 31, -71, 74], "withholdReward": false, "trial_id": "mdp_trial_5", "block": "test", "trialIndex": 6, "score": -44, "costs": 0, "simulationMode": [null, null, null, null, null], "rewards": [-2, 1, -7, 16, -52], "path": ["0", "0", "23", "24", "25", "26", "29"], "rt": [920, 196, 320, 105, 104], "actions": ["left", "left", "left", "up", "left"], "actionTimes": [5289, 6147, 7120, 7880, 8631], "queries": {"click": {"state": {"target": [], "time": []}, "edge": {"target": [], "time": []}}, "mouseover": {"state": {"target": [], "time": []}, "edge": {"target": [], "time": []}}, "mouseout": {"state": {"target": ["0", "12", "12"], "time": [20158, 20223, 20466]}, "edge": {"target": [], "time": []}}}, "displayed_time": "18.89", "trialTime": 22161, "trial_type": "mouselab-mdp", "trial_index": 13, "time_elapsed": 534171, "internal_node_id": "0.0-6.0-1.0-4.0"}}, {"uniqueid": "w42007853:a15330621", "current_trial": 14, "dateTime": 1693481474298, "trialdata": {"revealed_states": [], "clicked_states": [], "num_clicks_accrued": [0, 0, 0, 0, 0, 0, 0, 0, 0, 0, 0, 0, 0], "stateRewards": ["", -2, -3, 1, -14, 48, -49, 67, -1, -35, -48, 3, -2, 1, -4, -5, 86, -84, 39, 1, 48, 41, -42, -1, -4, 2, -7, 18, -86, 17, 7, -9, 57, -69], "withholdReward": false, "trial_id": "mdp_trial_6", "block": "test", "trialIndex": 7, "score": 44, "costs": 0, "simulationMode": [null, null, null, null, null], "rewards": [-2, 1, -4, 1, 48], "path": ["0", "0", "12", "13", "14", "19", "20"], "rt": [1397, 179, 49, 63, 246], "actions": ["right", "right", "right", "down", "right"], "actionTimes": [5857, 6691, 7393, 8096, 8985], "queries": {"click": {"state": {"target": [], "time": []}, "edge": {"target": [], "time": []}}, "mouseover": {"state": {"target": [], "time": []}, "edge": {"target": [], "time": []}}, "mouseout": {"state": {"target": ["0", "28", "0", "0", "0"], "time": [1285, 21208, 21321, 21498, 21723]}, "edge": {"target": [], "time": []}}}, "displayed_time": "18.86", "trialTime": 22653, "trial_type": "mouselab-mdp", "trial_index": 14, "time_elapsed": 560567, "internal_node_id": "0.0-6.0-1.0-5.0"}}, {"uniqueid": "w42007853:a15330621", "current_trial": 15, "dateTime": 1693481501932, "trialdata": {"revealed_states": [], "clicked_states": [], "num_clicks_accrued": [0, 0, 0, 0, 0, 0, 0, 0, 0, 0, 0, 0, 0], "stateRewards": ["", 2, 4, 7, 7, -79, -2, -21, -5, -53, 47, -21, 1, -3, -1, 7, 83, 7, 84, -7, 80, -37, 69, 2, -4, 5, 2, 4, -20, -30, 7, 71, 44, -81], "withholdReward": false, "trial_id": "mdp_trial_7", "block": "test", "trialIndex": 8, "score": -45, "costs": 0, "simulationMode": [null, null, null, null, null], "rewards": [2, 4, 7, -5, -53], "path": ["0", "0", "1", "2", "3", "8", "9"], "rt": [818, 101, 807, 39, 229], "actions": ["up", "up", "up", "left", "up"], "actionTimes": [7595, 8364, 9818, 10514, 11393], "queries": {"click": {"state": {"target": [], "time": []}, "edge": {"target": [], "time": []}}, "mouseover": {"state": {"target": [], "time": []}, "edge": {"target": [], "time": []}}, "mouseout": {"state": {"target": ["0", "0"], "time": [3229, 22755]}, "edge": {"target": [], "time": []}}}, "displayed_time": "21.22", "trialTime": 23986, "trial_type": "mouselab-mdp", "trial_index": 15, "time_elapsed": 588202, "internal_node_id": "0.0-6.0-1.0-6.0"}}, {"uniqueid": "w42007853:a15330621", "current_trial": 16, "dateTime": 1693481554604, "trialdata": {"revealed_states": [], "clicked_states": ["23", "24", "1", "2", "12", "13", "14", "19", "22", "25", "26", "28", "3"], "num_clicks_accrued": [0, 0, 0, 0, 0, 0, 0, 0, 0, 0, 0, 0, 0], "stateRewards": ["", -2, 2, -5, -6, 10, -66, -58, -10, -11, -63, -70, -1, -4, -5, 7, 66, -64, -43, -3, 45, -37, 4, -2, -2, -6, -4, -30, 33, 43, 15, -32, -65, -59], "withholdReward": false, "trial_id": "mdp_trial_8", "block": "test", "trialIndex": 9, "score": 8.450000000000003, "costs": -10.549999999999999, "simulationMode": [null, null, null, null, null], "rewards": [-2, -2, -6, -4, 33], "path": ["0", "0", "23", "24", "25", "26", "28"], "rt": [32911, 183, 721, 218, 6], "actions": ["left", "left", "left", "up", "right"], "actionTimes": [38863, 39712, 41054, 41934, 42605], "queries": {"click": {"state": {"target": ["23", "24", "1", "2", "12", "13", "14", "19", "22", "25", "26", "28", "3"], "time": [7470, 8862, 10960, 12255, 14128, 15315, 17477, 20160, 21308, 25225, 26533, 27914, 31535]}, "edge": {"target": [], "time": []}}, "mouseover": {"state": {"target": ["23", "24", "1", "2", "12", "13", "14", "15", "19", "22", "15", "24", "25", "26", "28", "2", "3", "1", "0", "7", "4"], "time": [6804, 8322, 10379, 11789, 13585, 14953, 16924, 19002, 19555, 20975, 22412, 23139, 23445, 26081, 27315, 28878, 29167, 32725, 33198, 34565, 34885]}, "edge": {"target": [], "time": []}}, "mouseout": {"state": {"target": ["0", "23", "24", "1", "2", "12", "13", "12", "13", "14", "15", "14", "19", "22", "15", "24", "25", "26", "28", "2", "3", "1", "0", "7", "4", "0", "0"], "time": [1235, 8195, 10008, 11658, 12362, 14840, 16439, 16614, 16863, 18850, 19431, 19497, 20913, 22228, 22597, 23316, 25968, 27202, 28580, 29058, 32656, 32783, 34459, 34683, 35665, 46091, 46436]}, "edge": {"target": [], "time": []}}}, "displayed_time": "43.25", "trialTime": 49031, "trial_type": "mouselab-mdp", "trial_index": 16, "time_elapsed": 640874, "internal_node_id": "0.0-6.0-1.0-7.0"}}, {"uniqueid": "w42007853:a15330621", "current_trial": 17, "dateTime": 1693481578641, "trialdata": {"revealed_states": [], "clicked_states": [], "num_clicks_accrued": [0, 0, 0, 0, 0, 0, 0, 0, 0, 0, 0, 0, 0], "stateRewards": ["", 2, -3, -4, -1, 25, -16, 16, 10, -71, -20, -55, 1, 3, -4, -9, 1, 32, 11, -6, 32, -50, -41, -1, 4, 4, -8, 7, -81, 70, 2, -52, 45, -10], "withholdReward": false, "trial_id": "mdp_trial_9", "block": "test", "trialIndex": 10, "score": -52, "costs": 0, "simulationMode": [null, null, null, null, null, null, null, null, null], "rewards": [1, 1, 3, 3, -4, -6, -50], "path": ["0", "0", "12", "12", "13", "13", "14", "19", "21"], "rt": [4664, 4351, 806, 211, 482, 413, 306, 143, 127], "actions": ["right", "right", "right", "right", "right", "right", "right", "down", "down"], "actionTimes": [4417, 4420, 5283, 5285, 5825, 6354, 6776, 7560, 8331], "queries": {"click": {"state": {"target": [], "time": []}, "edge": {"target": [], "time": []}}, "mouseover": {"state": {"target": ["0"], "time": [3558]}, "edge": {"target": [], "time": []}}, "mouseout": {"state": {"target": ["0", "0", "28"], "time": [1804, 15580, 15801]}, "edge": {"target": [], "time": []}}}, "displayed_time": "14.23", "trialTime": 16990, "trial_type": "mouselab-mdp", "trial_index": 17, "time_elapsed": 664911, "internal_node_id": "0.0-6.0-1.0-8.0"}}, {"uniqueid": "w42007853:a15330621", "current_trial": 18, "dateTime": 1693481618738, "trialdata": {"revealed_states": [], "clicked_states": ["23", "24", "25", "30", "32", "1", "2", "3", "8", "10", "9"], "num_clicks_accrued": [0, 0, 0, 0, 0, 0, 0, 0, 0, 0, 0, 0, 0], "stateRewards": ["", 1, -4, 6, -3, 40, 76, -51, 5, -24, -63, 44, -2, -2, 8, 1, 76, -85, -58, 10, 59, 20, 11, -2, 3, -3, 3, -82, -10, 54, -7, -57, -6, -32], "withholdReward": false, "trial_id": "mdp_trial_10", "block": "test", "trialIndex": 11, "score": -62.65, "costs": -11.65, "simulationMode": [null, null, null, null, null], "rewards": [1, -4, 6, -3, -51], "path": ["0", "0", "1", "2", "3", "4", "7"], "rt": [24391, 1, 1, 114, 211], "actions": ["up", "up", "up", "right", "down"], "actionTimes": [28961, 29599, 30216, 30951, 31784], "queries": {"click": {"state": {"target": ["23", "24", "25", "30", "32", "1", "2", "3", "8", "10", "9"], "time": [6035, 7316, 8714, 9989, 11124, 14823, 15959, 17022, 18158, 20036, 23916]}, "edge": {"target": [], "time": []}}, "mouseover": {"state": {"target": ["23", "24", "23", "24", "25", "30", "32", "31", "1", "2", "3", "8", "10", "9", "3", "4", "7", "0", "0", "1", "0"], "time": [5356, 5572, 5702, 6882, 8389, 9555, 10817, 11834, 13400, 15656, 16665, 17796, 19215, 21143, 25053, 25453, 26610, 26917, 27215, 28006, 28340]}, "edge": {"target": [], "time": []}}, "mouseout": {"state": {"target": ["0", "0", "23", "24", "23", "24", "25", "30", "32", "31", "1", "2", "3", "8", "10", "9", "3", "4", "7", "0", "0", "1", "0", "0"], "time": [874, 4751, 5417, 5640, 6765, 8076, 9491, 10703, 11362, 13100, 15536, 16143, 17741, 19081, 20906, 24933, 25402, 26551, 26738, 27016, 27923, 28190, 28451, 35069]}, "edge": {"target": [], "time": []}}}, "displayed_time": "32.44", "trialTime": 36344, "trial_type": "mouselab-mdp", "trial_index": 18, "time_elapsed": 705007, "internal_node_id": "0.0-6.0-1.0-9.0"}}, {"uniqueid": "w42007853:a15330621", "current_trial": 19, "dateTime": 1693481648247, "trialdata": {"revealed_states": [], "clicked_states": [], "num_clicks_accrued": [0, 0, 0, 0, 0, 0, 0, 0, 0, 0, 0, 0, 0], "stateRewards": ["", 1, 1, -7, -9, -44, 24, -83, -15, 44, -24, 72, -2, -3, 4, -5, 57, 55, 29, -11, 22, 12, -25, -1, 2, 7, 12, 33, -8, 47, -4, 8, 50, -4], "withholdReward": false, "trial_id": "mdp_trial_11", "block": "test", "trialIndex": 12, "score": 51, "costs": 0, "simulationMode": [null, null, null, null, null], "rewards": [-2, -3, 4, -5, 57], "path": ["0", "0", "12", "13", "14", "15", "16"], "rt": [2347, 123, 204, 130, 53], "actions": ["right", "right", "right", "up", "up"], "actionTimes": [6675, 7452, 8306, 9098, 9804], "queries": {"click": {"state": {"target": [], "time": []}, "edge": {"target": [], "time": []}}, "mouseover": {"state": {"target": ["0"], "time": [5773]}, "edge": {"target": [], "time": []}}, "mouseout": {"state": {"target": ["0", "0"], "time": [1092, 6332]}, "edge": {"target": [], "time": []}}}, "displayed_time": "18.82", "trialTime": 25504, "trial_type": "mouselab-mdp", "trial_index": 19, "time_elapsed": 734517, "internal_node_id": "0.0-6.0-1.0-10.0"}}, {"uniqueid": "w42007853:a15330621", "current_trial": 20, "dateTime": 1693481678261, "trialdata": {"revealed_states": [], "clicked_states": [], "num_clicks_accrued": [0, 0, 0, 0, 0, 0, 0, 0, 0, 0, 0, 0, 0], "stateRewards": ["", 1, 3, -2, 15, 51, 15, -19, 11, 67, -45, -73, 2, 4, -2, -13, 36, 9, -28, 10, -30, 31, 16, 1, 2, -1, -16, 14, -22, 36, -1, 88, -5, 45], "withholdReward": false, "trial_id": "mdp_trial_12", "block": "test", "trialIndex": 13, "score": 46, "costs": 0, "simulationMode": [null, null, null, null, null], "rewards": [1, 2, -1, -1, 45], "path": ["0", "0", "23", "24", "25", "30", "33"], "rt": [760, 1, 0, 445, 534], "actions": ["left", "left", "left", "down", "left"], "actionTimes": [5223, 5888, 6557, 7645, 8830], "queries": {"click": {"state": {"target": [], "time": []}, "edge": {"target": [], "time": []}}, "mouseover": {"state": {"target": [], "time": []}, "edge": {"target": [], "time": []}}, "mouseout": {"state": {"target": ["0", "0", "14", "13", "0", "23", "0"], "time": [1281, 20382, 20662, 20727, 20789, 21035, 21179]}, "edge": {"target": [], "time": []}}}, "displayed_time": "18.87", "trialTime": 26367, "trial_type": "mouselab-mdp", "trial_index": 20, "time_elapsed": 764531, "internal_node_id": "0.0-6.0-1.0-11.0"}}, {"uniqueid": "w42007853:a15330621", "current_trial": 21, "dateTime": 1693481709018, "trialdata": {"revealed_states": [], "clicked_states": [], "num_clicks_accrued": [0, 0, 0, 0, 0, 0, 0, 0, 0, 0, 0, 0, 0], "stateRewards": ["", 2, -1, -2, -5, -47, -57, -33, -11, 31, -18, -72, -2, 1, -4, -8, -46, -53, -50, 15, -85, -9, 39, -2, -2, 1, 14, -1, -8, 53, -12, -41, -74, 62], "withholdReward": false, "trial_id": "mdp_trial_13", "block": "test", "trialIndex": 14, "score": -30, "costs": 0, "simulationMode": [null, null, null, null, null], "rewards": [2, -1, -2, -11, -18], "path": ["0", "0", "1", "2", "3", "8", "10"], "rt": [956, 89, 118, 308, 56], "actions": ["up", "up", "up", "left", "down"], "actionTimes": [5499, 6252, 7026, 7986, 8697], "queries": {"click": {"state": {"target": [], "time": []}, "edge": {"target": [], "time": []}}, "mouseover": {"state": {"target": [], "time": []}, "edge": {"target": [], "time": []}}, "mouseout": {"state": {"target": ["0", "0", "0"], "time": [1008, 25040, 25354]}, "edge": {"target": [], "time": []}}}, "displayed_time": "19.03", "trialTime": 27056, "trial_type": "mouselab-mdp", "trial_index": 21, "time_elapsed": 795288, "internal_node_id": "0.0-6.0-1.0-12.0"}}, {"uniqueid": "w42007853:a15330621", "current_trial": 22, "dateTime": 1693481737078, "trialdata": {"revealed_states": [], "clicked_states": [], "num_clicks_accrued": [0, 0, 0, 0, 0, 0, 0, 0, 0, 0, 0, 0, 0], "stateRewards": ["", -1, -1, 7, -15, -43, -21, -84, -9, -45, -66, 2, 1, -2, 2, 8, -27, 44, -52, -5, -84, 11, 53, 1, 4, -4, 16, 83, -82, -15, -16, 68, -43, 81], "withholdReward": false, "trial_id": "mdp_trial_14", "block": "test", "trialIndex": 15, "score": -88, "costs": 0, "simulationMode": [null, null, null, null, null], "rewards": [1, -2, 2, -5, -84], "path": ["0", "0", "12", "13", "14", "19", "20"], "rt": [1261, 462, 95, 1, 173], "actions": ["right", "right", "right", "down", "right"], "actionTimes": [6053, 7175, 7925, 8579, 9412], "queries": {"click": {"state": {"target": [], "time": []}, "edge": {"target": [], "time": []}}, "mouseover": {"state": {"target": ["0"], "time": [5197]}, "edge": {"target": [], "time": []}}, "mouseout": {"state": {"target": ["0", "0", "0", "28", "0"], "time": [1018, 5259, 21389, 23658, 23860]}, "edge": {"target": [], "time": []}}}, "displayed_time": "19.15", "trialTime": 24442, "trial_type": "mouselab-mdp", "trial_index": 22, "time_elapsed": 823348, "internal_node_id": "0.0-6.0-1.0-13.0"}}, {"uniqueid": "w42007853:a15330621", "current_trial": 23, "dateTime": 1693481773238, "trialdata": {"revealed_states": [], "clicked_states": ["23", "24", "12", "13", "14", "15", "16", "17"], "num_clicks_accrued": [0, 0, 0, 0, 0, 0, 0, 0, 0, 0, 0, 0, 0], "stateRewards": ["", -1, 4, 3, 12, -27, 34, -33, 3, -63, 1, 6, 2, 2, -6, -11, -77, -85, 68, -6, 51, 81, -60, -2, -2, 1, 15, 20, 15, 68, -10, -14, 6, -4], "withholdReward": false, "trial_id": "mdp_trial_15", "block": "test", "trialIndex": 16, "score": -22, "costs": -7, "simulationMode": [null, null, null, null, null], "rewards": [-1, 4, 3, 12, -33], "path": ["0", "0", "1", "2", "3", "4", "7"], "rt": [22224, 1, 92, 69, 98], "actions": ["up", "up", "up", "right", "down"], "actionTimes": [26629, 27283, 28027, 28762, 29531], "queries": {"click": {"state": {"target": ["23", "24", "12", "13", "14", "15", "16", "17"], "time": [6121, 7518, 9719, 10997, 12432, 14730, 16269, 19828]}, "edge": {"target": [], "time": []}}, "mouseover": {"state": {"target": ["0", "23", "24", "25", "12", "13", "12", "13", "14", "15", "16", "17", "15", "18", "0", "1"], "time": [4718, 5571, 7029, 8541, 9032, 9153, 9268, 10485, 12008, 14298, 15618, 17024, 20686, 20867, 24412, 25699]}, "edge": {"target": [], "time": []}}, "mouseout": {"state": {"target": ["0", "0", "23", "24", "25", "24", "12", "13", "12", "13", "14", "15", "16", "17", "15", "18", "0", "1"], "time": [970, 5506, 6904, 8420, 8914, 8974, 9093, 9212, 10425, 11888, 14045, 15503, 16903, 20630, 20807, 23431, 24497, 31680]}, "edge": {"target": [], "time": []}}}, "displayed_time": "30.15", "trialTime": 32419, "trial_type": "mouselab-mdp", "trial_index": 23, "time_elapsed": 859508, "internal_node_id": "0.0-6.0-1.0-14.0"}}, {"uniqueid": "w42007853:a15330621", "current_trial": 24, "dateTime": 1693481808612, "trialdata": {"revealed_states": [], "clicked_states": [], "num_clicks_accrued": [0, 0, 0, 0, 0, 0, 0, 0, 0, 0, 0, 0, 0], "stateRewards": ["", -2, -4, -6, 12, -58, -70, -80, 2, 16, -88, -62, 1, 2, -5, 11, 77, -35, -44, -5, 18, -83, 87, 1, -3, -5, 13, -44, -21, -86, 10, -52, 8, 29], "withholdReward": false, "trial_id": "mdp_trial_16", "block": "test", "trialIndex": 17, "score": -15, "costs": 0, "simulationMode": [null, null, null, null, null], "rewards": [1, -3, -5, 13, -21], "path": ["0", "0", "23", "24", "25", "26", "28"], "rt": [1006, 1, 374, 55, 57], "actions": ["left", "left", "left", "up", "right"], "actionTimes": [6191, 6851, 7878, 8591, 9303], "queries": {"click": {"state": {"target": [], "time": []}, "edge": {"target": [], "time": []}}, "mouseover": {"state": {"target": [], "time": []}, "edge": {"target": [], "time": []}}, "mouseout": {"state": {"target": ["0", "0"], "time": [706, 1975]}, "edge": {"target": [], "time": []}}}, "displayed_time": "19.57", "trialTime": 31621, "trial_type": "mouselab-mdp", "trial_index": 24, "time_elapsed": 894882, "internal_node_id": "0.0-6.0-1.0-15.0"}}, {"uniqueid": "w42007853:a15330621", "current_trial": 25, "dateTime": 1693481835471, "trialdata": {"revealed_states": [], "clicked_states": [], "num_clicks_accrued": [0, 0, 0, 0, 0, 0, 0, 0, 0, 0, 0, 0, 0], "stateRewards": ["", -2, -1, -1, 5, -54, -87, 35, 2, -8, 20, -22, 1, 3, 6, 13, -75, -32, -55, -3, 56, 62, -22, -1, -4, -1, -7, -51, 84, 70, 7, -15, 5, 55], "withholdReward": false, "trial_id": "mdp_trial_17", "block": "test", "trialIndex": 18, "score": 71, "costs": 0, "simulationMode": [null, null, null, null, null], "rewards": [-1, -4, -1, -7, 84], "path": ["0", "0", "23", "24", "25", "26", "28"], "rt": [614, 1150, 76, 145, 44], "actions": ["left", "left", "left", "up", "right"], "actionTimes": [5793, 7603, 8339, 9137, 9840], "queries": {"click": {"state": {"target": [], "time": []}, "edge": {"target": [], "time": []}}, "mouseover": {"state": {"target": [], "time": []}, "edge": {"target": [], "time": []}}, "mouseout": {"state": {"target": ["0", "13", "0", "0", "12", "22"], "time": [1440, 1651, 1984, 21435, 21505, 21666]}, "edge": {"target": [], "time": []}}}, "displayed_time": "19.59", "trialTime": 23260, "trial_type": "mouselab-mdp", "trial_index": 25, "time_elapsed": 921740, "internal_node_id": "0.0-6.0-1.0-16.0"}}, {"uniqueid": "w42007853:a15330621", "current_trial": 26, "dateTime": 1693481861281, "trialdata": {"revealed_states": [], "clicked_states": [], "num_clicks_accrued": [0, 0, 0, 0, 0, 0, 0, 0, 0, 0, 0, 0, 0], "stateRewards": ["", 1, 2, 8, -2, 23, -69, -18, -16, 54, -21, 71, -1, -4, 7, 11, 43, -6, 88, 6, -55, 72, 43, 1, -3, -2, -1, 68, -31, -54, 4, -8, 25, -2], "withholdReward": false, "trial_id": "mdp_trial_18", "block": "test", "trialIndex": 19, "score": -36, "costs": 0, "simulationMode": [null, null, null, null, null], "rewards": [1, -3, -2, -1, -31], "path": ["0", "0", "23", "24", "25", "26", "28"], "rt": [513, 1, 48, 56, 1], "actions": ["left", "left", "left", "up", "right"], "actionTimes": [4649, 5297, 6011, 6720, 7385], "queries": {"click": {"state": {"target": [], "time": []}, "edge": {"target": [], "time": []}}, "mouseover": {"state": {"target": [], "time": []}, "edge": {"target": [], "time": []}}, "mouseout": {"state": {"target": ["0", "0", "0"], "time": [null, 837, 8957]}, "edge": {"target": [], "time": []}}}, "displayed_time": "18.61", "trialTime": 21918, "trial_type": "mouselab-mdp", "trial_index": 26, "time_elapsed": 947551, "internal_node_id": "0.0-6.0-1.0-17.0"}}, {"uniqueid": "w42007853:a15330621", "current_trial": 27, "dateTime": 1693481887890, "trialdata": {"revealed_states": [], "clicked_states": [], "num_clicks_accrued": [0, 0, 0, 0, 0, 0, 0, 0, 0, 0, 0, 0, 0], "stateRewards": ["", 1, 1, -3, 7, 49, 78, 26, -5, 26, 48, -43, -1, -3, 2, -5, 4, -1, -60, 10, -35, 51, 81, -2, 1, -7, -5, -39, -86, -54, 4, -3, 74, 77], "withholdReward": false, "trial_id": "mdp_trial_19", "block": "test", "trialIndex": 20, "score": -99, "costs": 0, "simulationMode": [null, null, null, null, null], "rewards": [-2, 1, -7, -5, -86], "path": ["0", "0", "23", "24", "25", "26", "28"], "rt": [1154, 1, 24, 4, 0], "actions": ["left", "left", "left", "up", "right"], "actionTimes": [6275, 6935, 7582, 8258, 8927], "queries": {"click": {"state": {"target": [], "time": []}, "edge": {"target": [], "time": []}}, "mouseover": {"state": {"target": [], "time": []}, "edge": {"target": [], "time": []}}, "mouseout": {"state": {"target": ["0", "0", "0", "12", "21"], "time": [1607, 1861, 21451, 21513, 21706]}, "edge": {"target": [], "time": []}}}, "displayed_time": "19.68", "trialTime": 22983, "trial_type": "mouselab-mdp", "trial_index": 27, "time_elapsed": 974160, "internal_node_id": "0.0-6.0-1.0-18.0"}}, {"uniqueid": "w42007853:a15330621", "current_trial": 28, "dateTime": 1693481912877, "trialdata": {"revealed_states": [], "clicked_states": [], "num_clicks_accrued": [0, 0, 0, 0, 0, 0, 0, 0, 0, 0, 0, 0, 0], "stateRewards": ["", 2, 1, -3, 7, 46, 11, -36, 16, 71, 5, 1, 2, -2, -8, -3, -4, 6, 55, 7, 68, -54, 2, 1, 1, 6, -6, 42, -4, -84, -11, -65, 63, 25], "withholdReward": false, "trial_id": "mdp_trial_20", "block": "test", "trialIndex": 21, "score": 6, "costs": 0, "simulationMode": [null, null, null, null, null, null, null, null, null, null], "rewards": [1, 1, 1, 1, 6, 6, -6, -4], "path": ["0", "0", "23", "23", "24", "24", "25", "25", "26", "28"], "rt": [1518, 1228, 183, 54, 54, 57, 113, 636, 469, 86], "actions": ["left", "left", "left", "left", "left", "left", "left", "up", "up", "right"], "actionTimes": [1278, 1282, 1522, 2034, 2200, 2723, 2950, 4044, 4046, 4773], "queries": {"click": {"state": {"target": [], "time": []}, "edge": {"target": [], "time": []}}, "mouseover": {"state": {"target": [], "time": []}, "edge": {"target": [], "time": []}}, "mouseout": {"state": {"target": ["0"], "time": [16115]}, "edge": {"target": [], "time": []}}}, "displayed_time": "14.71", "trialTime": 17602, "trial_type": "mouselab-mdp", "trial_index": 28, "time_elapsed": 999147, "internal_node_id": "0.0-6.0-1.0-19.0"}}, {"uniqueid": "w42007853:a15330621", "current_trial": 29, "dateTime": 1693481947551, "trialdata": {"revealed_states": [], "clicked_states": [], "num_clicks_accrued": [0, 0, 0, 0, 0, 0, 0, 0, 0, 0, 0, 0, 0], "stateRewards": ["", 1, 1, 1, 15, -76, 52, -32, 14, -57, 37, 49, 1, -4, -3, 6, 83, -76, 25, 9, 36, -1, -17, -1, 4, 4, -2, -22, -21, 58, -15, -57, 49, -24], "withholdReward": false, "trial_id": "mdp_trial_21", "block": "test", "trialIndex": 22, "score": 66, "costs": 0, "simulationMode": [null, null, null, null, null], "rewards": [1, 1, 1, 14, 49], "path": ["0", "0", "1", "2", "3", "8", "11"], "rt": [109, 492, 179, 1, 73], "actions": ["up", "up", "up", "left", "left"], "actionTimes": [10989, 12107, 12948, 13597, 14332], "queries": {"click": {"state": {"target": [], "time": []}, "edge": {"target": [], "time": []}}, "mouseover": {"state": {"target": [], "time": []}, "edge": {"target": [], "time": []}}, "mouseout": {"state": {"target": ["0", "12"], "time": [7126, 30504]}, "edge": {"target": [], "time": []}}}, "displayed_time": "25.30", "trialTime": 31081, "trial_type": "mouselab-mdp", "trial_index": 29, "time_elapsed": 1033821, "internal_node_id": "0.0-6.0-1.0-20.0"}}, {"uniqueid": "w42007853:a15330621", "current_trial": 30, "dateTime": 1693481974209, "trialdata": {"revealed_states": [], "clicked_states": [], "num_clicks_accrued": [0, 0, 0, 0, 0, 0, 0, 0, 0, 0, 0, 0, 0], "stateRewards": ["", 1, -3, -6, -5, 47, 80, -29, 11, -71, 10, -29, -2, 3, -6, 12, 2, -78, -6, 8, 34, -16, -5, -1, 3, 3, -13, 84, -36, -62, -3, -27, 66, 15], "withholdReward": false, "trial_id": "mdp_trial_22", "block": "test", "trialIndex": 23, "score": -42, "costs": 0, "simulationMode": [null, null, null, null, null], "rewards": [1, -3, -6, -5, -29], "path": ["0", "0", "1", "2", "3", "4", "7"], "rt": [577, 126, 647, 43, 90], "actions": ["up", "up", "up", "right", "down"], "actionTimes": [5027, 5830, 7158, 7852, 8587], "queries": {"click": {"state": {"target": [], "time": []}, "edge": {"target": [], "time": []}}, "mouseover": {"state": {"target": [], "time": []}, "edge": {"target": [], "time": []}}, "mouseout": {"state": {"target": ["0", "0", "7", "0"], "time": [1108, 21187, 21527, 21885]}, "edge": {"target": [], "time": []}}}, "displayed_time": "18.93", "trialTime": 23010, "trial_type": "mouselab-mdp", "trial_index": 30, "time_elapsed": 1060479, "internal_node_id": "0.0-6.0-1.0-21.0"}}, {"uniqueid": "w42007853:a15330621", "current_trial": 31, "dateTime": 1693482005229, "trialdata": {"revealed_states": [], "clicked_states": [], "num_clicks_accrued": [0, 0, 0, 0, 0, 0, 0, 0, 0, 0, 0, 0, 0], "stateRewards": ["", 2, -4, -4, 13, -80, 62, 13, -11, 57, -13, -44, 1, 4, 3, -4, -29, -88, 15, 16, -58, 68, -45, -1, -3, -1, -9, -44, -86, -19, -7, -36, 59, 66], "withholdReward": false, "trial_id": "mdp_trial_23", "block": "test", "trialIndex": 24, "score": 116, "costs": 0, "simulationMode": [null, null, null, null, null, null, null, null, null, null, null, null, null], "rewards": [1, 1, 4, 4, 3, 3, 16, 16, 68], "path": ["0", "0", "12", "12", "13", "13", "14", "14", "19", "19", "21"], "rt": [1306, 1031, 241, 55, 55, 55, 112, 913, 627, 1608, 1033, 1827, 1252], "actions": ["right", "right", "right", "right", "right", "right", "right", "down", "down", "down", "down", "down", "down"], "actionTimes": [1080, 1083, 1383, 1780, 2061, 2457, 2794, 4047, 4050, 5714, 5716, 7599, 7601], "queries": {"click": {"state": {"target": [], "time": []}, "edge": {"target": [], "time": []}}, "mouseover": {"state": {"target": [], "time": []}, "edge": {"target": [], "time": []}}, "mouseout": {"state": {"target": ["0"], "time": [23439]}, "edge": {"target": [], "time": []}}}, "displayed_time": "14.60", "trialTime": 23731, "trial_type": "mouselab-mdp", "trial_index": 31, "time_elapsed": 1091499, "internal_node_id": "0.0-6.0-1.0-22.0"}}, {"uniqueid": "w42007853:a15330621", "current_trial": 32, "dateTime": 1693482030789, "trialdata": {"revealed_states": [], "clicked_states": [], "num_clicks_accrued": [0, 0, 0, 0, 0, 0, 0, 0, 0, 0, 0, 0, 0], "stateRewards": ["", -2, 4, -3, -13, 63, -36, 62, 11, 78, 34, -51, 2, -2, 8, -6, -40, -18, 31, 9, 64, 39, 79, 1, 4, -4, 15, -12, 76, 73, -10, -77, 86, -4], "withholdReward": false, "trial_id": "mdp_trial_24", "block": "test", "trialIndex": 25, "score": -13, "costs": 0, "simulationMode": [null, null, null, null, null], "rewards": [1, 4, -4, -10, -4], "path": ["0", "0", "23", "24", "25", "30", "33"], "rt": [1554, 169, 537, 150, 195], "actions": ["left", "left", "left", "down", "left"], "actionTimes": [6925, 7758, 8942, 9732, 10579], "queries": {"click": {"state": {"target": [], "time": []}, "edge": {"target": [], "time": []}}, "mouseover": {"state": {"target": [], "time": []}, "edge": {"target": [], "time": []}}, "mouseout": {"state": {"target": [], "time": []}, "edge": {"target": [], "time": []}}}, "displayed_time": "19.79", "trialTime": 21847, "trial_type": "mouselab-mdp", "trial_index": 32, "time_elapsed": 1117059, "internal_node_id": "0.0-6.0-1.0-23.0"}}, {"uniqueid": "w42007853:a15330621", "current_trial": 33, "dateTime": 1693482056937, "trialdata": {"revealed_states": [], "clicked_states": [], "num_clicks_accrued": [0, 0, 0, 0, 0, 0, 0, 0, 0, 0, 0, 0, 0], "stateRewards": ["", 1, 4, -8, -5, -15, -7, 21, 13, -30, 40, -65, 1, 1, 5, -14, 35, 27, -38, -11, 36, -58, -47, -2, 4, -3, 13, -16, -49, 22, 15, -56, -44, -10], "withholdReward": false, "trial_id": "mdp_trial_25", "block": "test", "trialIndex": 26, "score": 34, "costs": 0, "simulationMode": [null, null, null, null, null], "rewards": [-2, 4, -3, 13, 22], "path": ["0", "0", "23", "24", "25", "26", "29"], "rt": [1654, 1, 183, 109, 390], "actions": ["left", "left", "left", "up", "left"], "actionTimes": [6056, 6717, 7562, 8319, 9368], "queries": {"click": {"state": {"target": [], "time": []}, "edge": {"target": [], "time": []}}, "mouseover": {"state": {"target": [], "time": []}, "edge": {"target": [], "time": []}}, "mouseout": {"state": {"target": ["0", "19"], "time": [1119, 21720]}, "edge": {"target": [], "time": []}}}, "displayed_time": "19.10", "trialTime": 22387, "trial_type": "mouselab-mdp", "trial_index": 33, "time_elapsed": 1143207, "internal_node_id": "0.0-6.0-1.0-24.0"}}, {"uniqueid": "w42007853:a15330621", "current_trial": 34, "dateTime": 1693482085002, "trialdata": {"revealed_states": [], "clicked_states": [], "num_clicks_accrued": [0, 0, 0, 0, 0, 0, 0, 0, 0, 0, 0, 0, 0], "stateRewards": ["", -1, 4, -3, 3, 57, -61, 5, -11, 23, -1, 34, -2, -4, -1, -13, 27, 38, -36, 4, -45, 21, 88, 1, -2, -1, 1, -69, -5, -78, -12, -9, 38, -54], "withholdReward": false, "trial_id": "mdp_trial_26", "block": "test", "trialIndex": 27, "score": 60, "costs": 0, "simulationMode": [null, null, null, null, null], "rewards": [-1, 4, -3, 3, 57], "path": ["0", "0", "1", "2", "3", "4", "5"], "rt": [710, 59, 328, 97, 189], "actions": ["up", "up", "up", "right", "up"], "actionTimes": [6805, 7526, 8500, 9227, 10069], "queries": {"click": {"state": {"target": [], "time": []}, "edge": {"target": [], "time": []}}, "mouseover": {"state": {"target": [], "time": []}, "edge": {"target": [], "time": []}}, "mouseout": {"state": {"target": ["31", "0"], "time": [2435, 2651]}, "edge": {"target": [], "time": []}}}, "displayed_time": "20.78", "trialTime": 24259, "trial_type": "mouselab-mdp", "trial_index": 34, "time_elapsed": 1171272, "internal_node_id": "0.0-6.0-1.0-25.0"}}, {"uniqueid": "w42007853:a15330621", "current_trial": 35, "dateTime": 1693482112710, "trialdata": {"revealed_states": [], "clicked_states": [], "num_clicks_accrued": [0, 0, 0, 0, 0, 0, 0, 0, 0, 0, 0, 0, 0], "stateRewards": ["", 2, 3, -6, -5, -3, 55, 40, 11, 61, 11, 51, 2, -4, -6, 9, -25, 29, -15, -6, 7, -77, -2, -2, -4, 1, 14, -43, -1, 56, -12, -54, 41, -74], "withholdReward": false, "trial_id": "mdp_trial_27", "block": "test", "trialIndex": 28, "score": -76, "costs": 0, "simulationMode": [null, null, null, null, null, null, null, null, null, null], "rewards": [-2, -2, -4, -4, 1, 1, -12, -54], "path": ["0", "0", "23", "23", "24", "24", "25", "25", "30", "31"], "rt": [733, 459, 244, 174, 177, 54, 113, 480, 201, 200], "actions": ["left", "left", "left", "left", "left", "left", "left", "down", "down", "right"], "actionTimes": [508, 512, 813, 1327, 1620, 2012, 2359, 3180, 3183, 4028], "queries": {"click": {"state": {"target": [], "time": []}, "edge": {"target": [], "time": []}}, "mouseover": {"state": {"target": [], "time": []}, "edge": {"target": [], "time": []}}, "mouseout": {"state": {"target": ["0"], "time": [109]}, "edge": {"target": [], "time": []}}}, "displayed_time": "14.72", "trialTime": 20536, "trial_type": "mouselab-mdp", "trial_index": 35, "time_elapsed": 1198980, "internal_node_id": "0.0-6.0-1.0-26.0"}}, {"uniqueid": "w42007853:a15330621", "current_trial": 36, "dateTime": 1693482138052, "trialdata": {"revealed_states": [], "clicked_states": [], "num_clicks_accrued": [0, 0, 0, 0, 0, 0, 0, 0, 0, 0, 0, 0, 0], "stateRewards": ["", 1, -2, 7, -14, 88, -56, -44, -14, 64, -51, -57, -2, 3, -4, -9, -11, 19, -77, -1, 68, 75, -67, -1, 1, -2, 5, -37, 70, -34, -10, -72, 63, -41], "withholdReward": false, "trial_id": "mdp_trial_28", "block": "test", "trialIndex": 29, "score": -89, "costs": 0, "simulationMode": [null, null, null, null, null], "rewards": [-2, 3, -4, -9, -77], "path": ["0", "0", "12", "13", "14", "15", "18"], "rt": [1076, 63, 394, 110, 27], "actions": ["right", "right", "right", "up", "left"], "actionTimes": [5200, 5938, 6991, 7751, 8424], "queries": {"click": {"state": {"target": [], "time": []}, "edge": {"target": [], "time": []}}, "mouseover": {"state": {"target": [], "time": []}, "edge": {"target": [], "time": []}}, "mouseout": {"state": {"target": ["18", "13", "0"], "time": [131, 216, 20853]}, "edge": {"target": [], "time": []}}}, "displayed_time": "18.76", "trialTime": 21754, "trial_type": "mouselab-mdp", "trial_index": 36, "time_elapsed": 1224322, "internal_node_id": "0.0-6.0-1.0-27.0"}}, {"uniqueid": "w42007853:a15330621", "current_trial": 37, "dateTime": 1693482167180, "trialdata": {"revealed_states": [], "clicked_states": [], "num_clicks_accrued": [0, 0, 0, 0, 0, 0, 0, 0, 0, 0, 0, 0, 0], "stateRewards": ["", -2, -1, -2, -15, 87, 57, 29, -10, 77, -80, -7, 1, -3, 6, 14, -11, 87, -59, 4, -71, 16, -11, 2, 2, -7, 2, -47, 61, 50, 14, -20, 17, 81], "withholdReward": false, "trial_id": "mdp_trial_29", "block": "test", "trialIndex": 30, "score": -95, "costs": 0, "simulationMode": [null, null, null, null, null], "rewards": [-2, -1, -2, -10, -80], "path": ["0", "0", "1", "2", "3", "8", "10"], "rt": [112, 2957, 198, 88, 137], "actions": ["up", "up", "up", "left", "down"], "actionTimes": [5078, 8671, 9497, 10230, 11022], "queries": {"click": {"state": {"target": [], "time": []}, "edge": {"target": [], "time": []}}, "mouseover": {"state": {"target": [], "time": []}, "edge": {"target": [], "time": []}}, "mouseout": {"state": {"target": ["7", "0"], "time": [1308, 24582]}, "edge": {"target": [], "time": []}}}, "displayed_time": "19.70", "trialTime": 25551, "trial_type": "mouselab-mdp", "trial_index": 37, "time_elapsed": 1253450, "internal_node_id": "0.0-6.0-1.0-28.0"}}, {"uniqueid": "w42007853:a15330621", "current_trial": 38, "dateTime": 1693482207437, "trialdata": {"revealed_states": [], "clicked_states": ["1", "2", "3", "4", "23", "24", "25", "30", "32", "31"], "num_clicks_accrued": [0, 0, 0, 0, 0, 0, 0, 0, 0, 0, 0, 0, 0], "stateRewards": ["", 2, -1, 4, -9, -43, 7, 54, -13, 38, -40, -83, -1, 2, -8, -10, 34, -33, 11, -14, -79, 65, 26, 1, 2, 4, 10, 21, 1, 86, 4, -53, 28, -29], "withholdReward": false, "trial_id": "mdp_trial_30", "block": "test", "trialIndex": 31, "score": 29.5, "costs": -9.5, "simulationMode": [null, null, null, null, null], "rewards": [1, 2, 4, 4, 28], "path": ["0", "0", "23", "24", "25", "30", "32"], "rt": [20164, 62, 204, 58, 25], "actions": ["left", "left", "left", "down", "down"], "actionTimes": [25090, 25789, 26618, 27347, 28011], "queries": {"click": {"state": {"target": ["1", "2", "3", "4", "23", "24", "25", "30", "32", "31"], "time": [6232, 7592, 9258, 11007, 12912, 14394, 15565, 16855, 19068, 22037]}, "edge": {"target": [], "time": []}}, "mouseover": {"state": {"target": ["1", "2", "3", "4", "4", "25", "24", "23", "24", "25", "30", "32", "31", "0"], "time": [5707, 7020, 8785, 10231, 10535, 12133, 12264, 12478, 13625, 15212, 16465, 18514, 20111, 23198]}, "edge": {"target": [], "time": []}}, "mouseout": {"state": {"target": ["1", "2", "3", "4", "4", "25", "24", "23", "24", "25", "30", "32", "31", "0"], "time": [6886, 7701, 10172, 10353, 11884, 12198, 12415, 13501, 15092, 16340, 18432, 19983, 23072, 23845]}, "edge": {"target": [], "time": []}}}, "displayed_time": "28.65", "trialTime": 36588, "trial_type": "mouselab-mdp", "trial_index": 38, "time_elapsed": 1293707, "internal_node_id": "0.0-6.0-1.0-29.0"}}, {"uniqueid": "w42007853:a15330621", "current_trial": 39, "dateTime": 1693482248475, "trialdata": {"revealed_states": [], "clicked_states": ["12", "13", "14", "19", "21", "22", "20"], "num_clicks_accrued": [0, 0, 0, 0, 0, 0, 0, 0, 0, 0, 0, 0, 0], "stateRewards": ["", -1, 1, 6, -6, 70, 66, 67, -16, -75, -35, 37, -1, 4, 4, -6, 47, -9, 63, 15, 21, -63, 13, 1, 3, -6, 10, 79, -29, 18, -15, 9, -67, -19], "withholdReward": false, "trial_id": "mdp_trial_31", "block": "test", "trialIndex": 32, "score": 33.95, "costs": -9.05, "simulationMode": [null, null, null, null, null], "rewards": [-1, 4, 4, 15, 21], "path": ["0", "0", "12", "13", "14", "19", "20"], "rt": [21200, 1, 240, 165, 165], "actions": ["right", "right", "right", "down", "right"], "actionTimes": [25787, 26419, 27316, 28114, 28898], "queries": {"click": {"state": {"target": ["12", "13", "14", "19", "21", "22", "20"], "time": [7517, 8636, 10118, 11578, 13548, 17398, 20493]}, "edge": {"target": [], "time": []}}, "mouseover": {"state": {"target": ["0", "12", "13", "14", "19", "21", "22", "22", "20", "19", "0"], "time": [5992, 7134, 7954, 9618, 10989, 12944, 14449, 16892, 18307, 21796, 24398]}, "edge": {"target": [], "time": []}}, "mouseout": {"state": {"target": ["0", "0", "12", "13", "14", "19", "21", "22", "22", "20", "19", "22", "0", "23"], "time": [4905, 7059, 7892, 9555, 10853, 12815, 14316, 16820, 18176, 21667, 23197, 23323, 24685, 32041]}, "edge": {"target": [], "time": []}}}, "displayed_time": "29.53", "trialTime": 37359, "trial_type": "mouselab-mdp", "trial_index": 39, "time_elapsed": 1334744, "internal_node_id": "0.0-6.0-1.0-30.0"}}, {"uniqueid": "w42007853:a15330621", "current_trial": 40, "dateTime": 1693482281082, "trialdata": {"revealed_states": [], "clicked_states": ["23", "24", "25", "30", "32", "31"], "num_clicks_accrued": [0, 0, 0, 0, 0, 0, 0, 0, 0, 0, 0, 0, 0], "stateRewards": ["", -1, 2, 6, 11, 21, -21, -21, -6, 48, -71, 88, -1, -3, 3, 7, 64, 2, 9, -4, 37, -67, 72, 2, 2, -8, -8, -10, 71, -40, -3, 73, 80, 47], "withholdReward": false, "trial_id": "mdp_trial_32", "block": "test", "trialIndex": 33, "score": 66.1, "costs": -6.9, "simulationMode": [null, null, null, null, null], "rewards": [2, 2, -8, -3, 80], "path": ["0", "0", "23", "24", "25", "30", "32"], "rt": [13859, 154, 1, 80, 1], "actions": ["left", "left", "left", "down", "down"], "actionTimes": [18790, 19581, 20226, 20932, 21592], "queries": {"click": {"state": {"target": ["23", "24", "25", "30", "32", "31"], "time": [7146, 8132, 9410, 10772, 12192, 15113]}, "edge": {"target": [], "time": []}}, "mouseover": {"state": {"target": ["0", "23", "24", "25", "30", "32", "31", "30", "33", "30", "25", "24", "23"], "time": [5840, 6899, 7837, 9097, 10401, 12004, 13025, 16044, 16223, 16401, 16894, 17138, 17315]}, "edge": {"target": [], "time": []}}, "mouseout": {"state": {"target": ["0", "0", "23", "24", "25", "30", "32", "31", "30", "33", "30", "25", "24", "23", "18"], "time": [1549, 5923, 7710, 9029, 10265, 11876, 12908, 15991, 16162, 16343, 16522, 17078, 17257, 25576, 25958]}, "edge": {"target": [], "time": []}}}, "displayed_time": "22.25", "trialTime": 29020, "trial_type": "mouselab-mdp", "trial_index": 40, "time_elapsed": 1367352, "internal_node_id": "0.0-6.0-1.0-31.0"}}, {"uniqueid": "w42007853:a15330621", "current_trial": 41, "dateTime": 1693482315586, "trialdata": {"revealed_states": [], "clicked_states": ["1", "2", "3", "8", "10", "9", "11"], "num_clicks_accrued": [0, 0, 0, 0, 0, 0, 0, 0, 0, 0, 0, 0, 0], "stateRewards": ["", -1, -3, -3, 1, -38, 2, -53, -2, -1, -81, 70, -1, 1, -5, -9, 46, 15, 35, -1, -22, 38, 59, -2, 4, -8, 13, 1, -83, -43, 4, 76, 13, 48], "withholdReward": false, "trial_id": "mdp_trial_33", "block": "test", "trialIndex": 34, "score": 51.95, "costs": -9.05, "simulationMode": [null, null, null, null, null], "rewards": [-1, -3, -3, -2, 70], "path": ["0", "0", "1", "2", "3", "8", "11"], "rt": [19621, 108, 1, 1, 34], "actions": ["up", "up", "up", "left", "left"], "actionTimes": [23733, 24488, 25118, 25774, 26440], "queries": {"click": {"state": {"target": ["1", "2", "3", "8", "10", "9", "11"], "time": [5330, 6849, 8272, 10027, 11450, 15100, 18044]}, "edge": {"target": [], "time": []}}, "mouseover": {"state": {"target": ["1", "2", "3", "8", "10", "9", "8", "11", "4", "0", "0"], "time": [4703, 6113, 7829, 9496, 10780, 12167, 15964, 16208, 18969, 22174, 22410]}, "edge": {"target": [], "time": []}}, "mouseout": {"state": {"target": ["0", "1", "2", "3", "8", "10", "9", "8", "11", "4", "0", "0", "0"], "time": [926, 5443, 7703, 9435, 10724, 12043, 15847, 16152, 18851, 22072, 22235, 22509, 28862]}, "edge": {"target": [], "time": []}}}, "displayed_time": "27.08", "trialTime": 30885, "trial_type": "mouselab-mdp", "trial_index": 41, "time_elapsed": 1401856, "internal_node_id": "0.0-6.0-1.0-32.0"}}, {"uniqueid": "w42007853:a15330621", "current_trial": 42, "dateTime": 1693482355242, "trialdata": {"revealed_states": [], "clicked_states": ["23", "24", "25", "30", "32", "31", "33", "29", "26"], "num_clicks_accrued": [0, 0, 0, 0, 0, 0, 0, 0, 0, 0, 0, 0, 0], "stateRewards": ["", -1, -2, 8, -6, -79, -6, 87, 9, -5, -66, -38, 2, 2, 5, -6, -82, 74, 85, -8, 67, -30, -15, 1, -2, -2, -2, 87, 64, 49, 7, 2, -38, -9], "withholdReward": false, "trial_id": "mdp_trial_34", "block": "test", "trialIndex": 35, "score": 31.25, "costs": -12.750000000000002, "simulationMode": [null, null, null, null, null], "rewards": [1, -2, -2, -2, 49], "path": ["0", "0", "23", "24", "25", "26", "29"], "rt": [24467, 1125, 28, 193, 2], "actions": ["left", "left", "left", "up", "left"], "actionTimes": [29404, 31157, 31811, 32627, 33304], "queries": {"click": {"state": {"target": ["23", "24", "25", "30", "32", "31", "33", "29", "26"], "time": [6626, 7801, 9096, 10482, 12042, 15293, 18762, 22220, 25605]}, "edge": {"target": [], "time": []}}, "mouseover": {"state": {"target": ["0", "23", "24", "25", "30", "32", "31", "33", "33", "29", "26", "28"], "time": [5476, 6333, 7483, 8748, 9934, 11563, 12888, 16110, 16345, 19812, 22982, 26118]}, "edge": {"target": [], "time": []}}, "mouseout": {"state": {"target": ["0", "0", "23", "24", "25", "30", "32", "31", "33", "33", "29", "26", "28", "19"], "time": [1588, 5538, 7353, 8631, 9877, 11448, 12165, 15991, 16229, 19389, 22870, 26002, 28725, 34987]}, "edge": {"target": [], "time": []}}}, "displayed_time": "33.92", "trialTime": 35955, "trial_type": "mouselab-mdp", "trial_index": 42, "time_elapsed": 1441512, "internal_node_id": "0.0-6.0-1.0-33.0"}}, {"uniqueid": "w42007853:a15330621", "current_trial": 43, "dateTime": 1693482397630, "trialdata": {"revealed_states": [], "clicked_states": ["12", "13", "14", "19", "22", "20", "21", "18", "15"], "num_clicks_accrued": [0, 0, 0, 0, 0, 0, 0, 0, 0, 0, 0, 0, 0], "stateRewards": ["", 1, 4, 5, 8, -55, -11, 8, 16, -37, 77, -22, -2, 3, -8, -10, 45, 87, -67, 4, 17, -33, -22, -1, -3, 7, 6, -39, -85, 75, -1, 7, -48, 45], "withholdReward": false, "trial_id": "mdp_trial_35", "block": "test", "trialIndex": 36, "score": -49.75, "costs": -12.750000000000002, "simulationMode": [null, null, null, null, null], "rewards": [1, 4, 5, 8, -55], "path": ["0", "0", "1", "2", "3", "4", "5"], "rt": [26370, 75, 506, 87, 171], "actions": ["up", "up", "up", "right", "up"], "actionTimes": [31710, 32424, 33589, 34318, 35117], "queries": {"click": {"state": {"target": ["12", "13", "14", "19", "22", "20", "21", "18", "15"], "time": [6581, 7593, 9068, 10449, 11802, 14952, 18574, 22598, 26054]}, "edge": {"target": [], "time": []}}, "mouseover": {"state": {"target": ["12", "13", "14", "19", "22", "20", "21", "14", "15", "18", "15", "17", "12", "0"], "time": [6043, 7234, 8428, 10034, 11439, 12736, 15815, 19666, 19900, 22097, 23529, 26917, 30721, 31005]}, "edge": {"target": [], "time": []}}, "mouseout": {"state": {"target": ["0", "12", "13", "14", "19", "22", "19", "20", "21", "14", "15", "18", "15", "17", "12", "0", "0"], "time": [1103, 7111, 7821, 9973, 11319, 12566, 12684, 15700, 19546, 19781, 22013, 23412, 26795, 30645, 30778, 31206, 37314]}, "edge": {"target": [], "time": []}}}, "displayed_time": "35.73", "trialTime": 38782, "trial_type": "mouselab-mdp", "trial_index": 43, "time_elapsed": 1483900, "internal_node_id": "0.0-6.0-1.0-34.0"}}, {"uniqueid": "w42007853:a15330621", "current_trial": 44, "dateTime": 1693482430832, "trialdata": {"revealed_states": [], "clicked_states": ["23", "24", "25", "30", "32", "31"], "num_clicks_accrued": [0, 0, 0, 0, 0, 0, 0, 0, 0, 0, 0, 0, 0], "stateRewards": ["", -2, -4, 6, 14, -34, 49, 36, -8, -3, 32, -4, 1, -2, 1, -8, -20, -71, -57, -7, -86, -62, -16, -2, -3, -5, 11, 23, -21, 53, 5, -5, 85, 73], "withholdReward": false, "trial_id": "mdp_trial_36", "block": "test", "trialIndex": 37, "score": 73.1, "costs": -6.9, "simulationMode": [null, null, null, null, null], "rewards": [-2, -3, -5, 5, 85], "path": ["0", "0", "23", "24", "25", "30", "32"], "rt": [13110, 31, 93, 183, 1], "actions": ["left", "left", "left", "down", "down"], "actionTimes": [17659, 18322, 19034, 19851, 20530], "queries": {"click": {"state": {"target": ["23", "24", "25", "30", "32", "31"], "time": [5610, 6971, 8355, 9691, 11380, 14489]}, "edge": {"target": [], "time": []}}, "mouseover": {"state": {"target": ["23", "24", "25", "30", "32", "31", "0"], "time": [5210, 6575, 7998, 9309, 10862, 12209, 15571]}, "edge": {"target": [], "time": []}}, "mouseout": {"state": {"target": ["0", "23", "24", "25", "30", "32", "31", "0", "0", "13", "12"], "time": [5116, 6329, 7866, 9243, 10791, 12082, 15374, 15892, 28609, 28994, 29361]}, "edge": {"target": [], "time": []}}}, "displayed_time": "21.25", "trialTime": 29548, "trial_type": "mouselab-mdp", "trial_index": 44, "time_elapsed": 1517102, "internal_node_id": "0.0-6.0-1.0-35.0"}}, {"uniqueid": "w42007853:a15330621", "current_trial": 45, "dateTime": 1693482471387, "trialdata": {"revealed_states": [], "clicked_states": ["23", "24", "25", "26", "28", "29", "27"], "num_clicks_accrued": [0, 0, 0, 0, 0, 0, 0, 0, 0, 0, 0, 0, 0], "stateRewards": ["", 1, -2, -8, -3, 31, -84, -55, -14, 15, -58, 17, -2, -3, 7, 7, -12, 48, 67, 4, -44, -68, 46, 2, 3, -5, -7, 76, 27, 5, 11, 57, 52, 59], "withholdReward": false, "trial_id": "mdp_trial_37", "block": "test", "trialIndex": 38, "score": 59.95, "costs": -9.05, "simulationMode": [null, null, null, null, null], "rewards": [2, 3, -5, -7, 76], "path": ["0", "0", "23", "24", "25", "26", "27"], "rt": [20301, 983, 43, 109, 71], "actions": ["left", "left", "left", "up", "up"], "actionTimes": [26270, 27904, 28573, 29309, 30031], "queries": {"click": {"state": {"target": ["23", "24", "25", "26", "28", "29", "27"], "time": [7179, 8464, 9795, 11677, 13643, 17469, 20458]}, "edge": {"target": [], "time": []}}, "mouseover": {"state": {"target": ["23", "24", "25", "26", "28", "29", "27", "26", "30", "25"], "time": [6718, 8048, 9346, 11243, 12988, 14649, 18351, 21463, 21635, 24536]}, "edge": {"target": [], "time": []}}, "mouseout": {"state": {"target": ["0", "23", "24", "25", "25", "25", "26", "28", "29", "27", "26", "30", "25"], "time": [2302, 7921, 9290, 9907, 10809, 10978, 12925, 14531, 18230, 21403, 21578, 24470, 33758]}, "edge": {"target": [], "time": []}}}, "displayed_time": "30.68", "trialTime": 36942, "trial_type": "mouselab-mdp", "trial_index": 45, "time_elapsed": 1557657, "internal_node_id": "0.0-6.0-1.0-36.0"}}, {"uniqueid": "w42007853:a15330621", "current_trial": 46, "dateTime": 1693482501578, "trialdata": {"revealed_states": [], "clicked_states": ["23", "24", "25", "30", "31"], "num_clicks_accrued": [0, 0, 0, 0, 0, 0, 0, 0, 0, 0, 0, 0, 0], "stateRewards": ["", -1, 3, 8, 10, -86, 61, -36, 10, 17, -60, 24, -1, -3, 3, 11, 50, 60, 33, -3, -20, 58, -6, 1, -4, -4, 13, -70, -71, 43, 14, 52, 82, -11], "withholdReward": false, "trial_id": "mdp_trial_38", "block": "test", "trialIndex": 39, "score": 54.25, "costs": -4.75, "simulationMode": [null, null, null, null, null], "rewards": [1, -4, -4, 14, 52], "path": ["0", "0", "23", "24", "25", "30", "31"], "rt": [13512, 1, 11, 137, 541], "actions": ["left", "left", "left", "down", "right"], "actionTimes": [17841, 18479, 19143, 19912, 21088], "queries": {"click": {"state": {"target": ["23", "24", "25", "30", "31"], "time": [5576, 6845, 8252, 9574, 11426]}, "edge": {"target": [], "time": []}}, "mouseover": {"state": {"target": ["23", "24", "25", "30", "31", "32", "25", "25", "0"], "time": [5114, 6416, 7766, 9164, 10827, 12311, 15547, 15820, 16956]}, "edge": {"target": [], "time": []}}, "mouseout": {"state": {"target": ["0", "23", "24", "25", "30", "31", "32", "25", "25", "0", "0", "12", "12"], "time": [4496, 6358, 7641, 9040, 10767, 12187, 15362, 15611, 16851, 17359, 23258, 23322, 23556]}, "edge": {"target": [], "time": []}}}, "displayed_time": "21.72", "trialTime": 26544, "trial_type": "mouselab-mdp", "trial_index": 46, "time_elapsed": 1587848, "internal_node_id": "0.0-6.0-1.0-37.0"}}, {"uniqueid": "w42007853:a15330621", "current_trial": 47, "dateTime": 1693482545701, "trialdata": {"revealed_states": [], "clicked_states": ["1", "2", "3", "8", "10", "11", "9", "7", "4", "6"], "num_clicks_accrued": [0, 0, 0, 0, 0, 0, 0, 0, 0, 0, 0, 0, 0], "stateRewards": ["", 2, -1, -4, -13, 74, 77, 3, 2, -43, -2, -11, 2, 3, 7, 11, -26, -29, -33, -3, -3, -13, -3, 1, 3, -7, 14, -59, 33, 9, -5, 34, 79, 68], "withholdReward": false, "trial_id": "mdp_trial_39", "block": "test", "trialIndex": 40, "score": 46.099999999999994, "costs": -14.900000000000002, "simulationMode": [null, null, null, null, null], "rewards": [2, -1, -4, -13, 77], "path": ["0", "0", "1", "2", "3", "4", "6"], "rt": [30463, 159, 137, 23, 1], "actions": ["up", "up", "up", "right", "right"], "actionTimes": [34630, 35418, 36209, 36904, 37545], "queries": {"click": {"state": {"target": ["1", "2", "3", "8", "10", "11", "9", "7", "4", "6"], "time": [5855, 7075, 8341, 9608, 10938, 15435, 20084, 24275, 28326, 29750]}, "edge": {"target": [], "time": []}}, "mouseover": {"state": {"target": ["1", "1", "2", "3", "8", "10", "11", "9", "4", "7", "4", "4", "6", "5", "2", "1"], "time": [4923, 5439, 6522, 7924, 9267, 10514, 11873, 16385, 20949, 21250, 25077, 25634, 29187, 30669, 33711, 34014]}, "edge": {"target": [], "time": []}}, "mouseout": {"state": {"target": ["0", "0", "1", "1", "2", "3", "8", "10", "11", "9", "4", "7", "4", "4", "6", "5", "2", "1", "31"], "time": [101, 808, 4986, 6399, 7792, 9132, 10389, 11045, 16201, 20833, 21129, 24957, 25321, 29074, 30554, 33611, 33776, 39377, 39492]}, "edge": {"target": [], "time": []}}}, "displayed_time": "38.17", "trialTime": 40455, "trial_type": "mouselab-mdp", "trial_index": 47, "time_elapsed": 1631971, "internal_node_id": "0.0-6.0-1.0-38.0"}}, {"uniqueid": "w42007853:a15330621", "current_trial": 48, "dateTime": 1693482583099, "trialdata": {"revealed_states": [], "clicked_states": ["12", "13", "14", "15", "18", "17", "16", "19", "20"], "num_clicks_accrued": [0, 0, 0, 0, 0, 0, 0, 0, 0, 0, 0, 0, 0], "stateRewards": ["", -1, -4, -1, -5, -28, -23, -15, -15, -38, 59, -87, 2, 2, -5, 9, -55, -39, -71, -6, 85, -85, -11, -1, -2, 5, -10, 1, 25, 41, -4, 69, -35, 86], "withholdReward": false, "trial_id": "mdp_trial_40", "block": "test", "trialIndex": 41, "score": 65.25, "costs": -12.750000000000002, "simulationMode": [null, null, null, null, null], "rewards": [2, 2, -5, -6, 85], "path": ["0", "0", "12", "13", "14", "19", "20"], "rt": [24082, 1, 59, 291, 183], "actions": ["right", "right", "right", "down", "right"], "actionTimes": [28611, 29244, 29923, 30834, 31642], "queries": {"click": {"state": {"target": ["12", "13", "14", "15", "18", "17", "16", "19", "20"], "time": [5979, 7273, 8734, 10304, 11789, 15247, 19083, 22503, 23927]}, "edge": {"target": [], "time": []}}, "mouseover": {"state": {"target": ["12", "13", "14", "15", "18", "17", "16", "19", "20", "22", "22", "12"], "time": [5404, 6836, 8176, 9804, 11206, 13114, 16324, 19895, 23544, 24965, 28042, 28165]}, "edge": {"target": [], "time": []}}, "mouseout": {"state": {"target": ["0", "0", "12", "13", "14", "15", "18", "15", "17", "16", "19", "20", "22", "22", "12", "0", "30", "32"], "time": [808, 1052, 6714, 8048, 9681, 11085, 12442, 12998, 16196, 19777, 23420, 24843, 27927, 28104, 28226, 32960, 33075, 33311]}, "edge": {"target": [], "time": []}}}, "displayed_time": "32.28", "trialTime": 33730, "trial_type": "mouselab-mdp", "trial_index": 48, "time_elapsed": 1669369, "internal_node_id": "0.0-6.0-1.0-39.0"}}, {"uniqueid": "w42007853:a15330621", "current_trial": 49, "dateTime": 1693482626039, "trialdata": {"rt": 42934, "response": {"Q0": "$-2 to $2", "Q1": "$-16 to $16", "Q2": "$-88 to $88", "Q3": "The cost for clicking on nodes varied between nodes.", "Q4": "Very motivated"}, "question_order": [0, 1, 2, 3, 4], "trial_id": "final_quiz_control", "trial_type": "survey-multi-choice", "trial_index": 49, "time_elapsed": 1712308, "internal_node_id": "0.0-6.0-2.0"}}, {"uniqueid": "w42007853:a15330621", "current_trial": 50, "dateTime": 1693482744246, "trialdata": {"rt": 118200, "response": {"Q0": "Earlier on, I left it more up to chance.", "Q1": "Later, I began to inspect nodes more.", "Q2": "The controls weren't fluid, I felt slowed down."}, "trial_id": "self_report_control", "trial_type": "survey-text", "trial_index": 50, "time_elapsed": 1830516, "internal_node_id": "0.0-6.0-3.0"}}, {"uniqueid": "w42007853:a15330621", "current_trial": 51, "dateTime": 1693482779100, "trialdata": {"rt": 34848, "response": {"Q0": "Neither disagree nor agree", "Q1": "Disagree", "Q2": "Agree", "Q3": "Agree", "Q4": "Disagree", "Q5": "Agree", "Q6": "Disagree"}, "question_order": [0, 1, 2, 3, 4, 5, 6], "trial_id": "self_report_2", "trial_type": "survey-multi-choice", "trial_index": 51, "time_elapsed": 1865369, "internal_node_id": "0.0-6.0-4.0"}}, {"uniqueid": "w42007853:a15330621", "current_trial": 52, "dateTime": 1693482806504, "trialdata": {"rt": 27399, "response": {"gender": "male", "age": "43", "colorblind": "0", "effort": "0"}, "trial_type": "survey-html-form", "trial_index": 52, "time_elapsed": 1892774, "internal_node_id": "0.0-6.0-5.0"}}, {"uniqueid": "w42007853:a15330621", "current_trial": 53, "dateTime": 1693482826259, "trialdata": {"rt": 19748, "response": {"Q0": "No.", "Q1": "No.", "Q2": "N/A"}, "trial_type": "survey-text", "trial_index": 53, "time_elapsed": 1912529, "internal_node_id": "0.0-6.0-6.0"}}, {"uniqueid": "w42007853:a15330621", "current_trial": 54, "dateTime": 1693482865238, "trialdata": {"rt": 38976, "stimulus": "<h1>Completion Code Instructions (1/2)</h1>\n<br><br><br><br>\nYou have reached the end of the experiment! The completion code consists of two parts: (1) a code with 2 characters (2) a code with 6 characters. On this page, you will receive the second part of the code. The first part of the completion code will be on the next page.\n<br><br>\nThe second part of your completion code is: <b>EWEK22</b>\n<br><br>\nPlease note this down. Then, press 'Finish HIT' in order to find the first part of your completion code. Once the data has been saved, you will receive this code either in this window or in the original browser window where you started the experiment.\n", "response": 0, "trial_type": "html-button-response", "trial_index": 54, "time_elapsed": 1951508, "internal_node_id": "0.0-6.0-7.0"}}, {"uniqueid": "w42007853:a15330621", "current_trial": 55, "dateTime": 1693482866246, "trialdata": {"success": true, "trial_type": "fullscreen", "trial_index": 55, "time_elapsed": 1952516, "internal_node_id": "0.0-7.0"}}], "questiondata": {"params": {"CODE": "C6DMOQA6", "MIN_TIME": 14, "inspectCost": 1, "startTime": "Thu Aug 31 2023 12:21:51 GMT+0100 (Irish Standard Time)", "bonusRate": 0.002, "variance": "1_2_4_8_44", "branching": "31123"}, "final_score": 203.45}, "eventdata": [{"eventtype": "initialized", "value": null, "timestamp": 1693480911321, "interval": 0}, {"eventtype": "window_resize", "value": [1024, 760], "timestamp": 1693480911322, "interval": 1}, {"eventtype": "focus", "value": "on", "timestamp": 1693480911445, "interval": 123}, {"eventtype": "window_resize", "value": [1024, 760], "timestamp": 1693480911639, "interval": 194}, {"eventtype": "focus", "value": "off", "timestamp": 1693480917914, "interval": 6275}, {"eventtype": "focus", "value": "on", "timestamp": 1693480917929, "interval": 15}, {"eventtype": "window_resize", "value": [1440, 900], "timestamp": 1693480918158, "interval": 229}, {"eventtype": "focus", "value": "off", "timestamp": 1693482865449, "interval": 1947291}, {"eventtype": "focus", "value": "on", "timestamp": 1693482865462, "interval": 13}, {"eventtype": "window_resize", "value": [1024, 760], "timestamp": 1693482865700, "interval": 238}], "useragent": "Mozilla/5.0 (Macintosh; Intel Mac OS X 10.15; rv:109.0) Gecko/20100101 Firefox/116.0", "mode": "live", "id": "w42007853:a15330621", "status": "user data saved", "Beginhit": "2023-08-31 11:21:48.936594", "Beginexp": "2023-08-31 11:21:58.778191", "Endhit": "2023-08-31 11:54:27.226229", "psiturkStatus": 3, "browser": "<redacted>", "platform": "macos", "language": "en-US"}