{"condition": 1, "counterbalance": 0, "assignmentId": "a28456395", "workerId": "w95686219", "hitId": "h22432246", "currenttrial": 56, "bonus": 0, "data": [{"uniqueid": "w95686219:a28456395", "current_trial": 0, "dateTime": 1691486558849, "trialdata": {"success": true, "trial_type": "fullscreen", "trial_index": 0, "time_elapsed": 103802, "internal_node_id": "0.0-0.0"}}, {"uniqueid": "w95686219:a28456395", "current_trial": 1, "dateTime": 1691486593081, "trialdata": {"view_history": [{"page_index": 0, "viewing_time": 34227}], "rt": 34228, "trial_id": "exp_instructions_misaligned", "trial_type": "instructions", "trial_index": 1, "time_elapsed": 138035, "internal_node_id": "0.0-1.0"}}, {"uniqueid": "w95686219:a28456395", "current_trial": 2, "dateTime": 1691486599610, "trialdata": {"success": true, "trial_type": "fullscreen", "trial_index": 2, "time_elapsed": 144564, "internal_node_id": "0.0-2.0-0.0"}}, {"uniqueid": "w95686219:a28456395", "current_trial": 3, "dateTime": 1691487084009, "trialdata": {"view_history": [{"page_index": 0, "viewing_time": 175438}, {"page_index": 1, "viewing_time": 170118}, {"page_index": 2, "viewing_time": 30099}, {"page_index": 3, "viewing_time": 108720}], "rt": 484375, "trial_id": "mouselab_instructions_1_misaligned", "trial_type": "instructions", "trial_index": 3, "time_elapsed": 628963, "internal_node_id": "0.0-2.0-1.0"}}, {"uniqueid": "w95686219:a28456395", "current_trial": 4, "dateTime": 1691487130612, "trialdata": {"revealed_states": [], "clicked_states": ["23", "24", "1", "2", "3", "15", "14", "19", "25", "26", "30"], "num_clicks_accrued": [0, 0, 0, 0, 0, 0, 0, 0, 0, 0, 0, 0, 0], "stateRewards": ["", -10, 10, 10, -10, 10, 10, -10, -10, 10, -10, 10, 10, -10, -10, -10, 10, -10, 10, 10, 10, -10, 10, -10, 10, -10, 10, -10, 10, 10, -10, 10, -10, 10], "withholdReward": false, "trial_id": "practice_1", "block": "test", "trialIndex": 0, "score": 8, "costs": -5.5, "simulationMode": [null, null, null, null, null], "rewards": [-10, 10, -10, 10, 10], "path": ["0", "0", "23", "24", "25", "26", "29"], "rt": [28961, 634, 131, 90, 496], "actions": ["left", "left", "left", "up", "left"], "actionTimes": [33494, 34631, 35266, 35858, 36855], "queries": {"click": {"state": {"target": ["23", "24", "1", "2", "3", "15", "14", "19", "25", "26", "30"], "time": [8475, 10007, 13063, 14504, 16138, 18567, 21954, 23685, 25641, 27018, 28767]}, "edge": {"target": [], "time": []}}, "mouseover": {"state": {"target": ["0", "23", "24", "25", "25", "1", "2", "3", "7", "13", "13", "15", "20", "19", "14", "20", "19", "22", "23", "24", "25", "26", "30", "31", "24", "23"], "time": [6235, 6708, 9748, 11005, 11442, 11971, 14313, 15821, 16461, 16579, 17337, 17733, 19064, 20945, 21334, 22447, 23322, 24372, 25220, 25331, 25470, 26176, 27410, 30343, 30531, 30926]}, "edge": {"target": [], "time": []}}, "mouseout": {"state": {"target": ["12", "12", "13", "20", "0", "0", "23", "24", "25", "25", "1", "2", "3", "7", "13", "13", "15", "20", "19", "14", "20", "19", "19", "22", "23", "24", "25", "26", "25", "30", "31", "24", "23"], "time": [null, 187, 215, 292, 5492, 6277, 9558, 10712, 11081, 11498, 14000, 15731, 16412, 16475, 16742, 17393, 18950, 20537, 21126, 22231, 23266, 24254, 24297, 24643, 25255, 25401, 25936, 27299, 27375, 29163, 30392, 30539, 31358]}, "edge": {"target": [], "time": []}}}, "displayed_time": "37.36", "trialTime": 46123, "trial_type": "mouselab-mdp", "trial_index": 4, "time_elapsed": 675566, "internal_node_id": "0.0-2.0-2.0-0.0"}}, {"uniqueid": "w95686219:a28456395", "current_trial": 5, "dateTime": 1691487166520, "trialdata": {"revealed_states": [], "clicked_states": ["25", "26", "30", "32", "29", "27", "28", "31", "33", "14", "15", "19", "4", "8"], "num_clicks_accrued": [0, 0, 0, 0, 0, 0, 0, 0, 0, 0, 0, 0, 0], "stateRewards": ["", -10, -10, 10, -10, 10, 10, 10, 10, -10, 10, 10, -10, -10, 10, -10, -10, 10, 10, -10, -10, -10, -10, -10, -10, -10, 10, -10, -10, -10, -10, -10, -10, 10], "withholdReward": false, "trial_id": "practice_2", "block": "test", "trialIndex": 1, "score": -13.5, "costs": -7, "simulationMode": [null, null, null, null, null], "rewards": [-10, -10, 10, 10, -10], "path": ["0", "0", "1", "2", "3", "8", "9"], "rt": [27223, 238, 294, 156, 149], "actions": ["up", "up", "up", "left", "up"], "actionTimes": [29219, 29961, 30761, 31424, 32076], "queries": {"click": {"state": {"target": ["25", "26", "30", "32", "29", "27", "28", "31", "33", "14", "15", "19", "4", "8"], "time": [4119, 5686, 7103, 8985, 10963, 12422, 13762, 16452, 18120, 19544, 20735, 21966, 23625, 24896]}, "edge": {"target": [], "time": []}}, "mouseover": {"state": {"target": ["23", "24", "25", "26", "30", "32", "33", "29", "26", "27", "28", "24", "31", "31", "31", "30", "33", "32", "20", "14", "13", "13", "14", "15", "19", "19", "18", "4", "10", "10", "10", "8", "10", "28", "26", "24", "23", "0", "12", "14", "20"], "time": [3108, 3274, 3527, 4922, 6681, 7937, 9524, 10756, 11313, 11375, 12793, 14809, 14948, 15337, 16186, 16910, 18014, 18501, 18639, 18773, 18862, 19070, 19335, 20072, 21225, 21469, 23269, 23533, 23895, 23957, 24159, 24229, 26022, 26481, 26711, 27948, 27989, 28024, 28079, 28573, 28594]}, "edge": {"target": [], "time": []}}, "mouseout": {"state": {"target": ["0", "23", "24", "25", "26", "25", "30", "32", "33", "29", "29", "26", "27", "28", "24", "31", "31", "31", "30", "33", "32", "20", "14", "13", "13", "14", "15", "14", "19", "19", "19", "19", "14", "18", "4", "10", "10", "10", "8", "10", "28", "26", "24", "23", "0", "12", "14", "20"], "time": [3031, 3205, 3385, 4722, 6626, 6667, 7515, 9273, 10555, 11055, 11202, 11340, 12696, 14288, 14893, 15219, 15539, 16700, 16943, 18389, 18523, 18709, 18820, 19008, 19168, 19865, 21128, 21205, 21295, 22063, 22254, 23144, 23193, 23283, 23832, 23927, 24083, 24167, 25800, 26168, 26599, 27906, 27975, 28010, 28052, 28295, 28580, 28601]}, "edge": {"target": [], "time": []}}}, "displayed_time": "32.58", "trialTime": 35609, "trial_type": "mouselab-mdp", "trial_index": 5, "time_elapsed": 711474, "internal_node_id": "0.0-2.0-2.0-1.0"}}, {"uniqueid": "w95686219:a28456395", "current_trial": 6, "dateTime": 1691487255793, "trialdata": {"view_history": [{"page_index": 0, "viewing_time": 76388}, {"page_index": 1, "viewing_time": 12879}], "rt": 89267, "trial_id": "mouselab_instructions_2_misaligned", "trial_type": "instructions", "trial_index": 6, "time_elapsed": 800747, "internal_node_id": "0.0-2.0-3.0"}}, {"uniqueid": "w95686219:a28456395", "current_trial": 7, "dateTime": 1691487298735, "trialdata": {"rt": 42937, "response": {"Q0": "The cost for clicking on nodes may vary between nodes.", "Q1": "The better I perform the higher my bonus will be.", "Q2": "No, the amount of cash at each node of the web may be different each time.", "Q3": "To get the highest total score.", "Q4": "Only before moving the spider.", "Q5": "3 seconds"}, "question_order": [0, 1, 2, 3, 4, 5], "correct": {"Q0": "The cost for clicking on nodes may vary between nodes.", "Q1": "The better I perform the higher my bonus will be.", "Q2": "No, the amount of cash at each node of the web may be different each time.", "Q3": "To get the highest total score.", "Q4": "Only before moving the spider.", "Q5": "3 seconds"}, "trial_id": "mouselab_quiz_misaligned", "trial_type": "survey-multi-choice", "trial_index": 7, "time_elapsed": 843689, "internal_node_id": "0.0-2.0-4.0"}}, {"uniqueid": "w95686219:a28456395", "current_trial": 8, "dateTime": 1691487320521, "trialdata": {"rt": 21780, "stimulus": "\n<h1> Get ready to start the game! </h1>\n\nThank you for reading the instructions. Get ready start with the 40 rounds of this game.\n<br><br>\nIf you need to take a break, feel free to take one after the end of a round, before continuing to the next one.\n<br><br>\nRemember, the more money the spider gets, the bigger your bonus will be!\n<br><br>\n<div style='text-align: center;'>Press <code>space</code> to begin.</div>\n\n<br><br>\n(If, at any point, the <code>space</code> key does not take you to the next page, click once on the text and try again.)", "response": " ", "trial_id": "mdp_ready", "trial_type": "html-keyboard-response", "trial_index": 8, "time_elapsed": 865475, "internal_node_id": "0.0-4.0-0.0"}}, {"uniqueid": "w95686219:a28456395", "current_trial": 9, "dateTime": 1691487343371, "trialdata": {"revealed_states": [], "clicked_states": ["30", "26", "31", "33"], "num_clicks_accrued": [0, 0, 0, 0, 0, 0, 0, 0, 0, 0, 0, 0, 0], "stateRewards": ["", -1, -3, -7, -7, -76, 30, -49, 11, -70, 56, 2, 1, 4, -3, -14, -59, -83, -25, -9, -21, -67, -73, -2, 4, 4, -9, -11, -32, 60, 9, -87, 22, -64], "withholdReward": false, "trial_id": "mdp_trial_1", "block": "test", "trialIndex": 2, "score": 29.6, "costs": -7.4, "simulationMode": [null, null, null, null, null], "rewards": [-2, 4, 4, 9, 22], "path": ["0", "0", "23", "24", "25", "30", "32"], "rt": [12619, 360, 250, 361, 241], "actions": ["left", "left", "left", "down", "down"], "actionTimes": [16253, 17114, 17867, 18728, 19471], "queries": {"click": {"state": {"target": ["30", "26", "31", "33"], "time": [4969, 6230, 7575, 11924]}, "edge": {"target": [], "time": []}}, "mouseover": {"state": {"target": ["23", "24", "31", "30", "32", "32", "32", "25", "26", "25", "24", "24", "31", "32", "32", "32", "33", "32"], "time": [3697, 3725, 3878, 3954, 5248, 5365, 5699, 5817, 5922, 6464, 6499, 6950, 7305, 7988, 8278, 9573, 11590, 12580]}, "edge": {"target": [], "time": []}}, "mouseout": {"state": {"target": ["23", "24", "31", "30", "32", "32", "32", "30", "25", "26", "25", "24", "24", "31", "32", "32", "32", "33", "32"], "time": [3711, 3739, 3905, 5212, 5291, 5375, 5730, 5782, 5866, 6430, 6472, 6561, 7048, 7764, 8021, 9177, 10642, 12484, 15111]}, "edge": {"target": [], "time": []}}}, "displayed_time": "19.98", "trialTime": 22543, "trial_type": "mouselab-mdp", "trial_index": 9, "time_elapsed": 888324, "internal_node_id": "0.0-4.0-1.0-0.0"}}, {"uniqueid": "w95686219:a28456395", "current_trial": 10, "dateTime": 1691487367920, "trialdata": {"revealed_states": [], "clicked_states": ["26", "30", "8", "4", "9", "10"], "num_clicks_accrued": [0, 0, 0, 0, 0, 0, 0, 0, 0, 0, 0, 0, 0], "stateRewards": ["", -1, -2, 4, 9, 10, -75, 39, 16, -43, 88, -19, -1, 1, 2, 4, -31, 10, 73, 12, 41, -64, -81, -2, 2, -6, 1, -81, -1, -26, 3, -59, -3, -20], "withholdReward": false, "trial_id": "mdp_trial_2", "block": "test", "trialIndex": 3, "score": 94.5, "costs": -10.5, "simulationMode": [null, null, null, null, null], "rewards": [-1, -2, 4, 16, 88], "path": ["0", "0", "1", "2", "3", "8", "10"], "rt": [16897, 386, 303, 153, 176], "actions": ["up", "up", "up", "left", "down"], "actionTimes": [18410, 19297, 20104, 20760, 21437], "queries": {"click": {"state": {"target": ["26", "30", "8", "4", "9", "10"], "time": [2284, 3821, 5424, 7477, 9247, 13632]}, "edge": {"target": [], "time": []}}, "mouseover": {"state": {"target": ["23", "24", "26", "25", "25", "30", "24", "2", "3", "8", "11", "3", "4", "3", "9", "10", "11", "2", "1", "12"], "time": [1626, 1779, 1939, 2803, 2975, 3274, 4859, 4942, 5102, 5272, 6785, 7209, 7250, 8195, 8467, 10358, 15964, 17782, 17831, 17928]}, "edge": {"target": [], "time": []}}, "mouseout": {"state": {"target": ["0", "23", "24", "26", "25", "25", "30", "30", "24", "2", "3", "8", "8", "11", "8", "3", "4", "3", "9", "10", "11", "2", "1"], "time": [1578, 1675, 1821, 2725, 2864, 3158, 4296, 4828, 4880, 4949, 5151, 5756, 6632, 7160, 7195, 7229, 8166, 8244, 9760, 15822, 17622, 17809, 17872]}, "edge": {"target": [], "time": []}}}, "displayed_time": "21.94", "trialTime": 24263, "trial_type": "mouselab-mdp", "trial_index": 10, "time_elapsed": 912874, "internal_node_id": "0.0-4.0-1.0-1.0"}}, {"uniqueid": "w95686219:a28456395", "current_trial": 11, "dateTime": 1691487392915, "trialdata": {"revealed_states": [], "clicked_states": ["30", "26", "8", "4", "15", "19", "18", "16", "17"], "num_clicks_accrued": [0, 0, 0, 0, 0, 0, 0, 0, 0, 0, 0, 0, 0], "stateRewards": ["", 2, 3, -1, 6, 44, -4, -59, -14, -3, 64, 16, 1, -3, 3, 6, 3, 49, 19, 3, -49, -14, -86, 1, 2, -3, -8, -33, 14, 32, -13, -77, -47, -67], "withholdReward": false, "trial_id": "mdp_trial_3", "block": "test", "trialIndex": 4, "score": 40.25, "costs": -15.750000000000002, "simulationMode": [null, null, null, null, null], "rewards": [1, -3, 3, 6, 49], "path": ["0", "0", "12", "13", "14", "15", "17"], "rt": [18764, 59, 94, 107, 72], "actions": ["right", "right", "right", "up", "right"], "actionTimes": [20108, 20668, 21265, 21876, 22453], "queries": {"click": {"state": {"target": ["30", "26", "8", "4", "15", "19", "18", "16", "17"], "time": [1921, 3092, 4168, 5187, 6201, 7217, 8988, 13475, 16687]}, "edge": {"target": [], "time": []}}, "mouseover": {"state": {"target": ["0", "23", "31", "30", "30", "25", "26", "8", "3", "4", "7", "18", "15", "14", "19", "13", "18", "16", "17"], "time": [1356, 1392, 1440, 1489, 1781, 2284, 2657, 3749, 4694, 4958, 5625, 5829, 6029, 6585, 6807, 8309, 8462, 10123, 13981]}, "edge": {"target": [], "time": []}}, "mouseout": {"state": {"target": ["12", "23", "0", "0", "23", "31", "30", "30", "25", "26", "8", "3", "4", "7", "18", "15", "14", "19", "13", "18", "16", "17"], "time": [585, 814, 1064, 1365, 1399, 1468, 1545, 2212, 2421, 3505, 4646, 4812, 5546, 5681, 5876, 6550, 6619, 8031, 8323, 9694, 13913, 16956]}, "edge": {"target": [], "time": []}}}, "displayed_time": "22.96", "trialTime": 24714, "trial_type": "mouselab-mdp", "trial_index": 11, "time_elapsed": 937868, "internal_node_id": "0.0-4.0-1.0-2.0"}}, {"uniqueid": "w95686219:a28456395", "current_trial": 12, "dateTime": 1691487418282, "trialdata": {"revealed_states": [], "clicked_states": ["8", "4", "26", "30", "19", "15", "32", "31", "33"], "num_clicks_accrued": [0, 0, 0, 0, 0, 0, 0, 0, 0, 0, 0, 0, 0], "stateRewards": ["", -2, 3, -5, -7, 66, 43, -60, -4, -70, -75, 4, -1, 2, 2, -13, 54, 11, -40, -1, 77, 32, 15, -2, 3, -8, -9, -35, 83, -27, 6, -74, -34, 44], "withholdReward": false, "trial_id": "mdp_trial_4", "block": "test", "trialIndex": 5, "score": 27.25, "costs": -15.750000000000002, "simulationMode": [null, null, null, null, null], "rewards": [-2, 3, -8, 6, 44], "path": ["0", "0", "23", "24", "25", "30", "33"], "rt": [18112, 93, 43, 64, 61], "actions": ["left", "left", "left", "down", "left"], "actionTimes": [20972, 21567, 22114, 22685, 23251], "queries": {"click": {"state": {"target": ["8", "4", "26", "30", "19", "15", "32", "31", "33"], "time": [3849, 4975, 6229, 7427, 8522, 9617, 10791, 13939, 17056]}, "edge": {"target": [], "time": []}}, "mouseover": {"state": {"target": ["1", "8", "4", "2", "28", "26", "25", "30", "22", "19", "14", "15", "13", "12", "31", "32", "31", "30", "33", "29", "26", "28"], "time": [3228, 3519, 4639, 5334, 5459, 5654, 6680, 6822, 8044, 8281, 8761, 8900, 9992, 10010, 10249, 10450, 11448, 14160, 14234, 17861, 20351, 20372]}, "edge": {"target": [], "time": []}}, "mouseout": {"state": {"target": ["13", "12", "0", "1", "8", "4", "2", "28", "26", "25", "30", "22", "19", "14", "15", "13", "12", "31", "32", "31", "30", "33", "29", "26", "28"], "time": [1190, 1238, 1489, 3269, 4375, 5251, 5362, 5605, 6627, 6752, 7732, 8087, 8706, 8838, 9964, 10001, 10023, 10304, 10895, 14130, 14188, 17744, 20337, 20365, 20386]}, "edge": {"target": [], "time": []}}}, "displayed_time": "23.75", "trialTime": 25091, "trial_type": "mouselab-mdp", "trial_index": 12, "time_elapsed": 963235, "internal_node_id": "0.0-4.0-1.0-3.0"}}, {"uniqueid": "w95686219:a28456395", "current_trial": 13, "dateTime": 1691487446248, "trialdata": {"revealed_states": [], "clicked_states": ["8", "4", "15", "26", "30", "19", "29", "28", "27"], "num_clicks_accrued": [0, 0, 0, 0, 0, 0, 0, 0, 0, 0, 0, 0, 0], "stateRewards": ["", -2, 4, -3, -13, 63, -36, 62, 11, 78, 34, -51, 2, -2, 8, -6, -40, -18, 31, 9, 64, 39, 79, 1, 4, -4, 15, -12, 76, 73, -10, -77, 86, -4], "withholdReward": false, "trial_id": "mdp_trial_5", "block": "test", "trialIndex": 6, "score": 76.25, "costs": -15.750000000000002, "simulationMode": [null, null, null, null, null], "rewards": [1, 4, -4, 15, 76], "path": ["0", "0", "23", "24", "25", "26", "28"], "rt": [20085, 450, 110, 47, 59], "actions": ["left", "left", "left", "up", "right"], "actionTimes": [22753, 23704, 24320, 24871, 25433], "queries": {"click": {"state": {"target": ["8", "4", "15", "26", "30", "19", "29", "28", "27"], "time": [3542, 5109, 6485, 8177, 9352, 10514, 11856, 15584, 19156]}, "edge": {"target": [], "time": []}}, "mouseover": {"state": {"target": ["10", "8", "4", "18", "14", "15", "18", "23", "24", "26", "26", "25", "30", "25", "30", "22", "19", "24", "25", "29", "29", "26", "28", "27"], "time": [2918, 3147, 4468, 5462, 5545, 6088, 7082, 7234, 7269, 7881, 8027, 8409, 8597, 8848, 9056, 9869, 9933, 11037, 11056, 11108, 11374, 12401, 12775, 16056]}, "edge": {"target": [], "time": []}}, "mouseout": {"state": {"target": ["8", "3", "2", "1", "0", "10", "8", "4", "18", "14", "15", "18", "23", "24", "26", "26", "25", "30", "25", "30", "22", "19", "24", "25", "29", "29", "26", "28", "27"], "time": [1916, 1943, 2138, 2180, 2684, 2980, 4009, 5379, 5490, 5874, 7068, 7106, 7243, 7374, 7916, 8382, 8451, 8826, 8993, 9703, 9893, 10835, 11047, 11065, 11136, 12373, 12469, 15813, 21430]}, "edge": {"target": [], "time": []}}}, "displayed_time": "25.94", "trialTime": 27678, "trial_type": "mouselab-mdp", "trial_index": 13, "time_elapsed": 991202, "internal_node_id": "0.0-4.0-1.0-4.0"}}, {"uniqueid": "w95686219:a28456395", "current_trial": 14, "dateTime": 1691487472703, "trialdata": {"revealed_states": [], "clicked_states": ["8", "4", "26", "30", "19", "15", "32", "31", "33"], "num_clicks_accrued": [0, 0, 0, 0, 0, 0, 0, 0, 0, 0, 0, 0, 0], "stateRewards": ["", 1, 4, -8, -5, -15, -7, 21, 13, -30, 40, -65, 1, 1, 5, -14, 35, 27, -38, -11, 36, -58, -47, -2, 4, -3, 13, -16, -49, 22, 15, -56, -44, -10], "withholdReward": false, "trial_id": "mdp_trial_6", "block": "test", "trialIndex": 7, "score": -11.75, "costs": -15.750000000000002, "simulationMode": [null, null, null, null, null], "rewards": [-2, 4, -3, 15, -10], "path": ["0", "0", "23", "24", "25", "30", "33"], "rt": [20081, 123, 189, 72, 96], "actions": ["left", "left", "left", "down", "left"], "actionTimes": [21791, 22417, 23109, 23686, 24287], "queries": {"click": {"state": {"target": ["8", "4", "26", "30", "19", "15", "32", "31", "33"], "time": [2648, 4087, 5497, 6862, 8197, 9510, 10757, 13885, 17230]}, "edge": {"target": [], "time": []}}, "mouseover": {"state": {"target": ["1", "8", "3", "4", "2", "28", "26", "25", "30", "31", "22", "19", "14", "15", "18", "12", "31", "32", "31", "30", "33", "25", "10", "2"], "time": [2060, 2470, 3436, 3847, 4877, 5000, 5167, 6029, 6279, 7527, 7717, 7784, 8935, 9245, 9970, 10006, 10262, 10381, 11666, 14180, 14239, 20497, 20782, 20803]}, "edge": {"target": [], "time": []}}, "mouseout": {"state": {"target": ["28", "23", "0", "0", "0", "1", "8", "3", "4", "2", "28", "26", "25", "30", "31", "22", "19", "14", "15", "18", "12", "31", "32", "31", "30", "33", "25", "10", "2"], "time": [974, 1030, 1085, 1259, 1350, 2094, 3241, 3659, 4743, 4917, 5052, 5995, 6126, 7505, 7559, 7750, 8758, 9074, 9948, 9981, 10030, 10290, 11366, 14157, 14218, 20469, 20518, 20796, 20830]}, "edge": {"target": [], "time": []}}}, "displayed_time": "24.79", "trialTime": 26171, "trial_type": "mouselab-mdp", "trial_index": 14, "time_elapsed": 1017656, "internal_node_id": "0.0-4.0-1.0-5.0"}}, {"uniqueid": "w95686219:a28456395", "current_trial": 15, "dateTime": 1691487496124, "trialdata": {"revealed_states": [], "clicked_states": ["26", "30", "8", "4", "15", "19", "31", "32", "33"], "num_clicks_accrued": [0, 0, 0, 0, 0, 0, 0, 0, 0, 0, 0, 0, 0], "stateRewards": ["", -1, 2, -6, 6, 43, 78, 78, -2, 55, -29, -17, -2, -4, 1, -15, 13, 7, -79, 8, -28, -68, 36, -1, -3, 3, -16, 84, -18, 87, 10, 32, 13, -81], "withholdReward": false, "trial_id": "mdp_trial_7", "block": "test", "trialIndex": 8, "score": 25.25, "costs": -15.750000000000002, "simulationMode": [null, null, null, null, null], "rewards": [-1, -3, 3, 10, 32], "path": ["0", "0", "23", "24", "25", "30", "31"], "rt": [17859, 25, 36, 46, 57], "actions": ["left", "left", "left", "down", "right"], "actionTimes": [19152, 19682, 20228, 20780, 21341], "queries": {"click": {"state": {"target": ["26", "30", "8", "4", "15", "19", "31", "32", "33"], "time": [2365, 3490, 4536, 5524, 6597, 7766, 9306, 12880, 16022]}, "edge": {"target": [], "time": []}}, "mouseover": {"state": {"target": ["23", "24", "26", "25", "30", "31", "8", "3", "4", "7", "18", "14", "15", "14", "19", "19", "22", "31", "30", "31", "32", "30", "22", "32", "32", "33", "30"], "time": [1844, 1928, 2171, 2936, 3233, 3847, 4326, 4909, 5001, 5946, 6029, 6182, 6460, 6946, 7172, 7554, 8505, 8650, 8803, 9067, 9985, 11382, 11472, 11903, 12084, 13252, 16602]}, "edge": {"target": [], "time": []}}, "mouseout": {"state": {"target": ["2", "1", "0", "23", "24", "26", "25", "30", "31", "8", "3", "4", "7", "18", "14", "15", "14", "19", "19", "22", "31", "30", "31", "32", "30", "31", "22", "32", "32", "33", "33", "30"], "time": [759, 808, 1803, 1886, 2088, 2852, 3165, 3784, 3958, 4868, 4945, 5875, 5961, 6077, 6294, 6920, 6975, 7246, 8490, 8525, 8693, 8940, 9771, 11104, 11391, 11415, 11482, 11932, 13127, 16373, 16554, 16619]}, "edge": {"target": [], "time": []}}}, "displayed_time": "21.85", "trialTime": 23125, "trial_type": "mouselab-mdp", "trial_index": 15, "time_elapsed": 1041077, "internal_node_id": "0.0-4.0-1.0-6.0"}}, {"uniqueid": "w95686219:a28456395", "current_trial": 16, "dateTime": 1691487528268, "trialdata": {"revealed_states": [], "clicked_states": ["12", "1", "23", "24", "2", "13", "4", "8", "26", "30", "19", "15", "28", "27", "29"], "num_clicks_accrued": [0, 0, 0, 0, 0, 0, 0, 0, 0, 0, 0, 0, 0], "stateRewards": ["", 1, 1, -7, -9, -44, 24, -83, -15, 44, -24, 72, -2, -3, 4, -5, 57, 55, 29, -11, 22, 12, -25, -1, 2, 7, 12, 33, -8, 47, -4, 8, 50, -4], "withholdReward": false, "trial_id": "mdp_trial_8", "block": "test", "trialIndex": 9, "score": 50.95, "costs": -16.05, "simulationMode": [null, null, null, null, null], "rewards": [-1, 2, 7, 12, 47], "path": ["0", "0", "23", "24", "25", "26", "29"], "rt": [26166, 26, 32, 48, 427], "actions": ["left", "left", "left", "up", "left"], "actionTimes": [27459, 27989, 28532, 29083, 30011], "queries": {"click": {"state": {"target": ["12", "1", "23", "24", "2", "13", "4", "8", "26", "30", "19", "15", "28", "27", "29"], "time": [2617, 3699, 4765, 6303, 7538, 9249, 11710, 12530, 14311, 15268, 16157, 16875, 18023, 21078, 24272]}, "edge": {"target": [], "time": []}}, "mouseover": {"state": {"target": ["12", "13", "14", "15", "18", "0", "12", "1", "23", "24", "2", "12", "13", "12", "1", "2", "3", "4", "8", "28", "25", "26", "25", "30", "31", "22", "19", "15", "18", "26", "28", "27", "29", "26", "23", "13"], "time": [1530, 1600, 1780, 1843, 2093, 2239, 2474, 3415, 4554, 6195, 6870, 8557, 8844, 10449, 10762, 11207, 11366, 11596, 12208, 12986, 13216, 14126, 14578, 15016, 15490, 15732, 15827, 16596, 17447, 17665, 17915, 18506, 21530, 24944, 24995, 25063]}, "edge": {"target": [], "time": []}}, "mouseout": {"state": {"target": ["12", "13", "14", "15", "18", "0", "12", "1", "1", "23", "24", "2", "12", "13", "12", "1", "2", "3", "4", "8", "28", "25", "26", "25", "30", "31", "22", "19", "15", "18", "26", "28", "27", "29", "26", "23"], "time": [1572, 1662, 1808, 2065, 2121, 2283, 3220, 3759, 4007, 5773, 6612, 8106, 8587, 9983, 10553, 10810, 11262, 11422, 11973, 12917, 13015, 13897, 14537, 14594, 15465, 15520, 15778, 16366, 17431, 17470, 17873, 18370, 21363, 24665, 24954, 25005]}, "edge": {"target": [], "time": []}}}, "displayed_time": "30.52", "trialTime": 31820, "trial_type": "mouselab-mdp", "trial_index": 16, "time_elapsed": 1073221, "internal_node_id": "0.0-4.0-1.0-7.0"}}, {"uniqueid": "w95686219:a28456395", "current_trial": 17, "dateTime": 1691487553658, "trialdata": {"revealed_states": [], "clicked_states": ["23", "1", "12", "24", "25", "26", "30", "15", "19", "4", "8", "18", "16", "17"], "num_clicks_accrued": [0, 0, 0, 0, 0, 0, 0, 0, 0, 0, 0, 0, 0], "stateRewards": ["", -1, 2, -7, -12, -62, 12, -13, 5, 77, -71, 83, 1, -4, 7, 15, -42, -87, -4, 5, -25, 44, 88, -1, 4, -5, -8, 14, 51, 8, -5, 83, -24, -19], "withholdReward": false, "trial_id": "mdp_trial_9", "block": "test", "trialIndex": 10, "score": -1.3000000000000007, "costs": -16.3, "simulationMode": [null, null, null, null, null], "rewards": [1, -4, 7, 15, -4], "path": ["0", "0", "12", "13", "14", "15", "18"], "rt": [20214, 48, 40, 89, 70], "actions": ["right", "right", "right", "up", "left"], "actionTimes": [21223, 21774, 22335, 22926, 23498], "queries": {"click": {"state": {"target": ["23", "1", "12", "24", "25", "26", "30", "15", "19", "4", "8", "18", "16", "17"], "time": [1395, 2134, 2799, 3596, 4748, 5680, 7499, 8872, 9767, 10526, 11081, 11928, 15047, 18089]}, "edge": {"target": [], "time": []}}, "mouseover": {"state": {"target": ["23", "1", "12", "0", "24", "25", "26", "30", "31", "12", "18", "15", "14", "19", "13", "18", "7", "4", "8", "2", "18", "18", "16", "17"], "time": [1278, 1952, 2568, 3188, 3488, 4497, 5484, 7277, 7850, 8055, 8255, 8375, 9230, 9481, 10130, 10167, 10208, 10343, 10901, 11370, 11512, 11872, 12414, 15330]}, "edge": {"target": [], "time": []}}, "mouseout": {"state": {"target": ["13", "0", "23", "1", "12", "0", "23", "24", "25", "26", "25", "30", "31", "12", "18", "15", "14", "19", "13", "18", "7", "4", "8", "2", "18", "18", "16", "17"], "time": [442, 1132, 1486, 2440, 3171, 3214, 3278, 4317, 5249, 7089, 7201, 7827, 7887, 8121, 8275, 9197, 9321, 10093, 10147, 10177, 10261, 10718, 11313, 11385, 11664, 12178, 15266, 18344]}, "edge": {"target": [], "time": []}}}, "displayed_time": "24.00", "trialTime": 25077, "trial_type": "mouselab-mdp", "trial_index": 17, "time_elapsed": 1098612, "internal_node_id": "0.0-4.0-1.0-8.0"}}, {"uniqueid": "w95686219:a28456395", "current_trial": 18, "dateTime": 1691487575851, "trialdata": {"revealed_states": [], "clicked_states": ["23", "1", "12", "26", "30", "8", "4", "15", "19", "18", "16", "17"], "num_clicks_accrued": [0, 0, 0, 0, 0, 0, 0, 0, 0, 0, 0, 0, 0], "stateRewards": ["", -1, -3, 4, -10, -5, 79, -87, -2, 53, 29, -20, -2, -1, -5, 10, 27, 86, 46, -16, -29, 40, 3, 2, 4, -1, -6, 37, 79, -29, 7, 86, -62, 29], "withholdReward": false, "trial_id": "mdp_trial_10", "block": "test", "trialIndex": 11, "score": 73, "costs": -15.000000000000002, "simulationMode": [null, null, null, null, null], "rewards": [-2, -1, -5, 10, 86], "path": ["0", "0", "12", "13", "14", "15", "17"], "rt": [16005, 18, 16, 40, 400], "actions": ["right", "right", "right", "up", "right"], "actionTimes": [16933, 17457, 17983, 18536, 19438], "queries": {"click": {"state": {"target": ["23", "1", "12", "26", "30", "8", "4", "15", "19", "18", "16", "17"], "time": [1418, 1882, 2342, 3092, 3785, 4619, 5210, 5767, 6278, 7163, 10517, 13724]}, "edge": {"target": [], "time": []}}, "mouseover": {"state": {"target": ["23", "1", "12", "0", "29", "26", "25", "30", "24", "10", "8", "2", "4", "7", "18", "15", "14", "19", "14", "18", "16", "17"], "time": [1260, 1712, 2063, 2501, 2747, 2905, 3262, 3404, 3989, 4111, 4382, 4810, 4974, 5341, 5402, 5609, 5920, 6008, 6742, 7046, 7526, 10835]}, "edge": {"target": [], "time": []}}, "mouseout": {"state": {"target": ["0", "23", "1", "12", "0", "29", "26", "25", "30", "24", "10", "8", "2", "4", "7", "18", "15", "14", "19", "19", "14", "15", "18", "16", "17"], "time": [1016, 1552, 2035, 2487, 2514, 2846, 3234, 3315, 3927, 4012, 4188, 4752, 4829, 5317, 5354, 5468, 5893, 5966, 6467, 6698, 6775, 6907, 7384, 10773, 14263]}, "edge": {"target": [], "time": []}}}, "displayed_time": "19.94", "trialTime": 21879, "trial_type": "mouselab-mdp", "trial_index": 18, "time_elapsed": 1120805, "internal_node_id": "0.0-4.0-1.0-9.0"}}, {"uniqueid": "w95686219:a28456395", "current_trial": 19, "dateTime": 1691487602090, "trialdata": {"revealed_states": [], "clicked_states": ["23", "1", "12", "8", "4", "15", "19", "30", "26", "6", "7", "5"], "num_clicks_accrued": [0, 0, 0, 0, 0, 0, 0, 0, 0, 0, 0, 0, 0], "stateRewards": ["", -2, 1, -8, 12, -65, -79, 16, 7, -80, -17, -45, -2, 2, -5, -2, -85, 23, -4, -7, 48, 27, -76, 2, 3, 5, 2, 43, 71, -13, 7, -49, 59, -31], "withholdReward": false, "trial_id": "mdp_trial_11", "block": "test", "trialIndex": 12, "score": 4, "costs": -15.000000000000002, "simulationMode": [null, null, null, null, null], "rewards": [-2, 1, -8, 12, 16], "path": ["0", "0", "1", "2", "3", "4", "7"], "rt": [18542, 293, 95, 109, 134], "actions": ["up", "up", "up", "right", "down"], "actionTimes": [20295, 21097, 21697, 22309, 22946], "queries": {"click": {"state": {"target": ["23", "1", "12", "8", "4", "15", "19", "30", "26", "6", "7", "5"], "time": [2242, 2906, 3643, 5044, 6078, 7285, 7934, 8713, 9277, 10053, 13487, 17152]}, "edge": {"target": [], "time": []}}, "mouseover": {"state": {"target": ["23", "1", "12", "8", "3", "3", "4", "18", "14", "14", "15", "14", "19", "30", "25", "26", "10", "2", "7", "6", "7", "4", "5", "4", "18", "12", "22"], "time": [2008, 2746, 3328, 4152, 5520, 5543, 5812, 6437, 6586, 6846, 7055, 7546, 7675, 8638, 8966, 9048, 9450, 9477, 9546, 9970, 10538, 13968, 14447, 17543, 17900, 18243, 18404]}, "edge": {"target": [], "time": []}}, "mouseout": {"state": {"target": ["17", "15", "0", "0", "0", "23", "1", "12", "1", "8", "3", "3", "4", "18", "14", "14", "15", "14", "19", "30", "25", "26", "10", "2", "7", "6", "7", "4", "5", "4", "7", "18", "12"], "time": [589, 609, 797, 1062, 1765, 2480, 3195, 3861, 3971, 5347, 5530, 5581, 6306, 6460, 6685, 6917, 7505, 7615, 8122, 8922, 9010, 9345, 9464, 9511, 9611, 10229, 13933, 13993, 17497, 17569, 17839, 18021, 18261]}, "edge": {"target": [], "time": []}}}, "displayed_time": "23.45", "trialTime": 25933, "trial_type": "mouselab-mdp", "trial_index": 19, "time_elapsed": 1147044, "internal_node_id": "0.0-4.0-1.0-10.0"}}, {"uniqueid": "w95686219:a28456395", "current_trial": 20, "dateTime": 1691487625466, "trialdata": {"revealed_states": [], "clicked_states": ["23", "1", "12", "15", "19", "30", "26", "8", "4", "32", "31", "33"], "num_clicks_accrued": [0, 0, 0, 0, 0, 0, 0, 0, 0, 0, 0, 0, 0], "stateRewards": ["", -2, -3, 7, -13, 60, 9, 37, -6, 37, 20, 1, 2, -2, -8, 6, -80, -31, -10, -7, 70, -65, -44, -1, 1, 7, 6, -11, 73, -85, 16, -21, 47, 34], "withholdReward": false, "trial_id": "mdp_trial_12", "block": "test", "trialIndex": 13, "score": 55, "costs": -15.000000000000002, "simulationMode": [null, null, null, null, null], "rewards": [-1, 1, 7, 16, 47], "path": ["0", "0", "23", "24", "25", "30", "32"], "rt": [17984, 12, 14, 41, 75], "actions": ["left", "left", "left", "down", "down"], "actionTimes": [18913, 19428, 19944, 20486, 21062], "queries": {"click": {"state": {"target": ["23", "1", "12", "15", "19", "30", "26", "8", "4", "32", "31", "33"], "time": [1408, 2015, 2621, 4173, 5346, 6535, 7410, 8077, 8746, 9441, 12645, 15695]}, "edge": {"target": [], "time": []}}, "mouseover": {"state": {"target": ["0", "23", "1", "12", "19", "14", "15", "14", "19", "22", "30", "25", "26", "28", "10", "8", "7", "4", "7", "32", "31", "30", "33", "32", "21"], "time": [969, 1276, 1831, 2523, 3498, 3549, 3675, 4450, 5218, 5675, 6199, 6790, 6957, 7662, 7779, 7900, 8295, 8508, 8875, 9404, 10217, 12906, 13185, 16339, 16492]}, "edge": {"target": [], "time": []}}, "mouseout": {"state": {"target": ["22", "0", "0", "23", "1", "12", "19", "14", "15", "14", "19", "22", "30", "25", "26", "28", "10", "8", "7", "4", "7", "32", "31", "30", "33", "32"], "time": [351, 456, 976, 1593, 2206, 2829, 3509, 3605, 4418, 4476, 5647, 5709, 6702, 6856, 7633, 7702, 7845, 8235, 8420, 8861, 8889, 9772, 12874, 12967, 16232, 16373]}, "edge": {"target": [], "time": []}}}, "displayed_time": "21.56", "trialTime": 23043, "trial_type": "mouselab-mdp", "trial_index": 20, "time_elapsed": 1170420, "internal_node_id": "0.0-4.0-1.0-11.0"}}, {"uniqueid": "w95686219:a28456395", "current_trial": 21, "dateTime": 1691487651478, "trialdata": {"revealed_states": [], "clicked_states": ["30", "23", "1", "12", "26", "8", "4", "15", "19", "7", "6", "5"], "num_clicks_accrued": [0, 0, 0, 0, 0, 0, 0, 0, 0, 0, 0, 0, 0], "stateRewards": ["", 1, -3, 4, 13, -72, 52, 5, 5, -58, 5, 14, 2, 1, 3, -14, -86, -4, 73, 6, -58, -50, 49, 2, -3, -4, 2, 33, -41, 42, -11, 81, 45, 53], "withholdReward": false, "trial_id": "mdp_trial_13", "block": "test", "trialIndex": 14, "score": 52, "costs": -15.000000000000002, "simulationMode": [null, null, null, null, null], "rewards": [1, -3, 4, 13, 52], "path": ["0", "0", "1", "2", "3", "4", "6"], "rt": [18450, 15, 49, 39, 18], "actions": ["up", "up", "up", "right", "right"], "actionTimes": [21202, 21722, 22284, 22830, 23351], "queries": {"click": {"state": {"target": ["30", "23", "1", "12", "26", "8", "4", "15", "19", "7", "6", "5"], "time": [3588, 5299, 5785, 6327, 7308, 8337, 9017, 9867, 10345, 11405, 14546, 18043]}, "edge": {"target": [], "time": []}}, "mouseover": {"state": {"target": ["23", "24", "30", "30", "26", "23", "23", "1", "12", "31", "25", "26", "28", "2", "8", "3", "7", "4", "18", "14", "15", "19", "21", "13", "7", "7", "6", "5"], "time": [2857, 2884, 2952, 3448, 4006, 4935, 5113, 5566, 6058, 6648, 6879, 7043, 7483, 7699, 8027, 8533, 8595, 8783, 9225, 9286, 9718, 10171, 10511, 10775, 10933, 11099, 11697, 14838]}, "edge": {"target": [], "time": []}}, "mouseout": {"state": {"target": ["21", "0", "23", "24", "30", "30", "26", "23", "23", "1", "12", "31", "25", "26", "28", "1", "2", "8", "3", "7", "4", "18", "14", "15", "19", "21", "13", "7", "7", "6", "5"], "time": [1410, 1785, 2877, 2898, 3023, 3813, 4893, 4984, 5459, 5971, 6499, 6683, 6942, 7458, 7504, 7647, 7718, 8512, 8544, 8689, 9156, 9249, 9347, 10004, 10487, 10739, 10800, 11008, 11613, 14753, 18332]}, "edge": {"target": [], "time": []}}}, "displayed_time": "23.86", "trialTime": 25707, "trial_type": "mouselab-mdp", "trial_index": 21, "time_elapsed": 1196432, "internal_node_id": "0.0-4.0-1.0-12.0"}}, {"uniqueid": "w95686219:a28456395", "current_trial": 22, "dateTime": 1691487675330, "trialdata": {"revealed_states": [], "clicked_states": ["23", "1", "12", "30", "26", "8", "4", "15", "19", "31", "32", "33"], "num_clicks_accrued": [0, 0, 0, 0, 0, 0, 0, 0, 0, 0, 0, 0, 0], "stateRewards": ["", -2, -1, -2, -15, 87, 57, 29, -10, 77, -80, -7, 1, -3, 6, 14, -11, 87, -59, 4, -71, 16, -11, 2, 2, -7, 2, -47, 61, 50, 14, -20, 17, 81], "withholdReward": false, "trial_id": "mdp_trial_14", "block": "test", "trialIndex": 15, "score": 77, "costs": -15.000000000000002, "simulationMode": [null, null, null, null, null], "rewards": [2, 2, -7, 14, 81], "path": ["0", "0", "23", "24", "25", "30", "33"], "rt": [17281, 407, 168, 175, 115], "actions": ["left", "left", "left", "down", "left"], "actionTimes": [18921, 19832, 20504, 21185, 21807], "queries": {"click": {"state": {"target": ["23", "1", "12", "30", "26", "8", "4", "15", "19", "31", "32", "33"], "time": [2248, 2796, 3324, 3958, 4641, 5411, 6098, 6682, 7231, 8818, 11932, 15025]}, "edge": {"target": [], "time": []}}, "mouseover": {"state": {"target": ["1", "0", "23", "1", "12", "12", "30", "25", "26", "28", "10", "8", "3", "4", "18", "15", "15", "14", "19", "21", "31", "32", "33", "18"], "time": [1693, 1946, 2078, 2704, 2967, 3149, 3687, 4115, 4395, 4826, 5068, 5275, 5553, 5816, 6284, 6311, 6474, 6814, 7025, 7377, 8304, 9330, 12569, 16579]}, "edge": {"target": [], "time": []}}, "mouseout": {"state": {"target": ["17", "14", "13", "22", "0", "1", "0", "23", "1", "12", "12", "30", "25", "26", "28", "10", "8", "3", "4", "18", "15", "15", "14", "19", "21", "31", "32", "33", "18"], "time": [597, 722, 805, 840, 1657, 1870, 1995, 2445, 2934, 3011, 3449, 4077, 4205, 4802, 4872, 5186, 5539, 5567, 6225, 6297, 6336, 6799, 6871, 7344, 7881, 9116, 12162, 15270, 22746]}, "edge": {"target": [], "time": []}}}, "displayed_time": "22.31", "trialTime": 23511, "trial_type": "mouselab-mdp", "trial_index": 22, "time_elapsed": 1220284, "internal_node_id": "0.0-4.0-1.0-13.0"}}, {"uniqueid": "w95686219:a28456395", "current_trial": 23, "dateTime": 1691487702956, "trialdata": {"revealed_states": [], "clicked_states": ["23", "1", "12", "8", "4", "15", "19", "30", "26", "10", "11", "9", "3", "2"], "num_clicks_accrued": [0, 0, 0, 0, 0, 0, 0, 0, 0, 0, 0, 0, 0], "stateRewards": ["", 2, 3, -2, -8, -8, -41, 74, 15, -23, -80, 1, 1, 3, 3, -15, -63, -78, 67, 13, 75, -41, 86, 2, -2, 6, -3, -8, -49, 50, -6, 83, 74, 80], "withholdReward": false, "trial_id": "mdp_trial_15", "block": "test", "trialIndex": 16, "score": -21.3, "costs": -16.3, "simulationMode": [null, null, null, null, null], "rewards": [2, 3, -2, 15, -23], "path": ["0", "0", "1", "2", "3", "8", "9"], "rt": [21481, 37, 88, 68, 43], "actions": ["up", "up", "up", "left", "up"], "actionTimes": [22846, 23391, 23983, 24554, 25100], "queries": {"click": {"state": {"target": ["23", "1", "12", "8", "4", "15", "19", "30", "26", "10", "11", "9", "3", "2"], "time": [2720, 3207, 4062, 5304, 6823, 7524, 8031, 8824, 9525, 10173, 13457, 16559, 21004, 21843]}, "edge": {"target": [], "time": []}}, "mouseover": {"state": {"target": ["13", "14", "14", "0", "23", "1", "12", "0", "0", "10", "8", "3", "4", "4", "15", "15", "14", "19", "22", "30", "25", "26", "10", "2", "3", "10", "11", "9", "3", "3", "2", "18", "15", "17"], "time": [1390, 1413, 1453, 1911, 2586, 2971, 3364, 4281, 4510, 5002, 5068, 5529, 5940, 6618, 7057, 7315, 7670, 7868, 8169, 8445, 9061, 9343, 9721, 9770, 9912, 10094, 10456, 14570, 17066, 17314, 21587, 22123, 22145, 22160]}, "edge": {"target": [], "time": []}}, "mouseout": {"state": {"target": ["13", "12", "0", "13", "14", "14", "0", "23", "1", "12", "0", "0", "10", "8", "8", "3", "4", "4", "15", "15", "14", "19", "22", "30", "25", "26", "10", "2", "3", "10", "11", "9", "9", "3", "3", "2", "18", "15", "17"], "time": [722, 826, 1386, 1400, 1446, 1527, 1981, 2850, 3297, 4226, 4334, 4917, 5040, 5373, 5485, 5573, 6000, 6990, 7083, 7655, 7700, 8141, 8186, 8835, 9116, 9665, 9746, 9830, 9977, 10269, 13790, 16647, 16916, 17158, 21509, 22089, 22135, 22157, 22171]}, "edge": {"target": [], "time": []}}}, "displayed_time": "25.61", "trialTime": 27321, "trial_type": "mouselab-mdp", "trial_index": 23, "time_elapsed": 1247910, "internal_node_id": "0.0-4.0-1.0-14.0"}}, {"uniqueid": "w95686219:a28456395", "current_trial": 24, "dateTime": 1691487725472, "trialdata": {"revealed_states": [], "clicked_states": ["23", "1", "12", "4", "8", "26", "30", "19", "15", "25", "29", "28", "27"], "num_clicks_accrued": [0, 0, 0, 0, 0, 0, 0, 0, 0, 0, 0, 0, 0], "stateRewards": ["", -2, 1, -3, -16, -39, -52, 30, -7, -41, -59, 11, 2, 1, 8, 2, -11, -26, -42, -13, 87, -59, -48, -1, -1, -1, 16, -79, 31, 50, -1, -84, 34, -82], "withholdReward": false, "trial_id": "mdp_trial_16", "block": "test", "trialIndex": 17, "score": 47.05, "costs": -15.950000000000001, "simulationMode": [null, null, null, null, null], "rewards": [-1, -1, -1, 16, 50], "path": ["0", "0", "23", "24", "25", "26", "29"], "rt": [16070, 103, 411, 130, 114], "actions": ["left", "left", "left", "up", "left"], "actionTimes": [17266, 17876, 18788, 19425, 20041], "queries": {"click": {"state": {"target": ["23", "1", "12", "4", "8", "26", "30", "19", "15", "25", "29", "28", "27"], "time": [1860, 2346, 2869, 3431, 3973, 4578, 5228, 5838, 6371, 7099, 8081, 11146, 14198]}, "edge": {"target": [], "time": []}}, "mouseover": {"state": {"target": ["23", "1", "12", "7", "4", "5", "4", "8", "10", "28", "26", "25", "30", "32", "30", "19", "14", "15", "13", "24", "25", "29", "26", "28", "27"], "time": [1711, 2156, 2579, 3020, 3060, 3124, 3313, 3770, 4079, 4119, 4485, 4724, 4752, 4783, 5083, 5664, 6056, 6139, 6499, 6640, 7018, 7848, 8347, 10394, 11743]}, "edge": {"target": [], "time": []}}, "mouseout": {"state": {"target": ["15", "18", "1", "23", "0", "23", "1", "12", "7", "4", "5", "4", "8", "10", "28", "26", "25", "30", "32", "30", "19", "14", "15", "13", "24", "25", "29", "26", "28", "27", "28", "13"], "time": [506, 520, 540, 735, 1253, 2000, 2524, 2949, 3045, 3097, 3258, 3548, 4062, 4094, 4170, 4709, 4738, 4766, 4946, 5371, 5983, 6104, 6473, 6513, 6655, 7380, 8305, 8697, 11401, 14514, 14558, 21461]}, "edge": {"target": [], "time": []}}}, "displayed_time": "20.55", "trialTime": 22196, "trial_type": "mouselab-mdp", "trial_index": 24, "time_elapsed": 1270425, "internal_node_id": "0.0-4.0-1.0-15.0"}}, {"uniqueid": "w95686219:a28456395", "current_trial": 25, "dateTime": 1691487746386, "trialdata": {"revealed_states": [], "clicked_states": ["23", "1", "12", "19", "15", "4", "8", "26", "30", "31", "32", "33"], "num_clicks_accrued": [0, 0, 0, 0, 0, 0, 0, 0, 0, 0, 0, 0, 0], "stateRewards": ["", 1, 1, 5, 6, -29, -7, 3, -16, 9, -46, 65, -1, 4, -1, -16, -63, -77, -87, 8, 80, -50, 43, -1, -1, -5, 5, -38, -71, -62, 9, 81, -50, -52], "withholdReward": false, "trial_id": "mdp_trial_17", "block": "test", "trialIndex": 18, "score": 68, "costs": -15.000000000000002, "simulationMode": [null, null, null, null, null], "rewards": [-1, -1, -5, 9, 81], "path": ["0", "0", "23", "24", "25", "30", "31"], "rt": [14731, 424, 94, 112, 90], "actions": ["left", "left", "left", "down", "right"], "actionTimes": [15969, 16901, 17502, 18118, 18715], "queries": {"click": {"state": {"target": ["23", "1", "12", "19", "15", "4", "8", "26", "30", "31", "32", "33"], "time": [1600, 1947, 2354, 2939, 3605, 4258, 4858, 5443, 5959, 7113, 9888, 12915]}, "edge": {"target": [], "time": []}}, "mouseover": {"state": {"target": ["23", "1", "12", "22", "19", "14", "15", "18", "7", "4", "3", "8", "28", "26", "25", "30", "31", "32", "33"], "time": [1251, 1927, 2269, 2599, 2717, 3087, 3319, 3801, 3939, 4118, 4495, 4776, 5199, 5252, 5599, 5712, 6998, 7314, 10427]}, "edge": {"target": [], "time": []}}, "mouseout": {"state": {"target": ["12", "0", "23", "1", "12", "22", "19", "14", "15", "18", "7", "4", "3", "8", "28", "26", "25", "30", "31", "32", "33"], "time": [692, 914, 1696, 2119, 2540, 2670, 3050, 3139, 3765, 3847, 4011, 4448, 4565, 5036, 5214, 5563, 5660, 6106, 7260, 10309, 13034]}, "edge": {"target": [], "time": []}}}, "displayed_time": "19.21", "trialTime": 20564, "trial_type": "mouselab-mdp", "trial_index": 25, "time_elapsed": 1291340, "internal_node_id": "0.0-4.0-1.0-16.0"}}, {"uniqueid": "w95686219:a28456395", "current_trial": 26, "dateTime": 1691487764158, "trialdata": {"revealed_states": [], "clicked_states": ["23", "1", "12", "19", "15", "4", "8", "26", "30", "6"], "num_clicks_accrued": [0, 0, 0, 0, 0, 0, 0, 0, 0, 0, 0, 0, 0], "stateRewards": ["", 2, 3, -3, 12, -43, 81, -82, -15, 58, -7, -75, -1, -1, 3, -5, 50, -25, -8, 4, 66, 65, -66, 2, -4, 2, -1, -10, 10, 37, 11, 88, -37, 8], "withholdReward": false, "trial_id": "mdp_trial_18", "block": "test", "trialIndex": 19, "score": 84.3, "costs": -10.700000000000001, "simulationMode": [null, null, null, null, null], "rewards": [2, 3, -3, 12, 81], "path": ["0", "0", "1", "2", "3", "4", "6"], "rt": [10470, 51, 116, 79, 48], "actions": ["up", "up", "up", "right", "right"], "actionTimes": [11880, 12435, 13057, 13643, 14199], "queries": {"click": {"state": {"target": ["23", "1", "12", "19", "15", "4", "8", "26", "30", "6"], "time": [1838, 2297, 2846, 3757, 4668, 5409, 6123, 6684, 7093, 7798]}, "edge": {"target": [], "time": []}}, "mouseover": {"state": {"target": ["23", "1", "12", "22", "19", "14", "15", "18", "7", "4", "3", "8", "8", "26", "25", "30", "32", "6", "7", "7", "7"], "time": [1524, 2095, 2746, 3046, 3238, 3906, 4096, 4820, 5000, 5209, 5542, 5948, 6020, 6569, 6832, 6908, 7230, 7655, 8097, 8398, 8819]}, "edge": {"target": [], "time": []}}, "mouseout": {"state": {"target": ["23", "28", "23", "1", "12", "22", "19", "14", "15", "18", "7", "4", "3", "8", "8", "26", "25", "30", "32", "6", "6", "7", "7", "7", "16", "17"], "time": [654, 668, 1978, 2449, 3000, 3093, 3859, 3975, 4801, 4832, 5048, 5527, 5558, 5967, 6310, 6793, 6873, 7195, 7255, 7872, 8048, 8122, 8457, 15016, 15093, 15156]}, "edge": {"target": [], "time": []}}}, "displayed_time": "15.41", "trialTime": 17422, "trial_type": "mouselab-mdp", "trial_index": 26, "time_elapsed": 1309112, "internal_node_id": "0.0-4.0-1.0-17.0"}}, {"uniqueid": "w95686219:a28456395", "current_trial": 27, "dateTime": 1691487804091, "trialdata": {"revealed_states": [], "clicked_states": ["23", "1", "12", "4", "8", "26", "30", "19", "15", "10", "11", "9", "21", "22", "18", "16", "17"], "num_clicks_accrued": [0, 0, 0, 0, 0, 0, 0, 0, 0, 0, 0, 0, 0], "stateRewards": ["", 2, -3, -4, -1, 25, -16, 16, 10, -71, -20, -55, 1, 3, -4, -9, 1, 32, 11, -6, 32, -50, -41, -1, 4, 4, -8, 7, -81, 70, 2, -52, 45, -10], "withholdReward": false, "trial_id": "mdp_trial_19", "block": "test", "trialIndex": 20, "score": -2.75, "costs": -25.749999999999996, "simulationMode": [null, null, null, null, null], "rewards": [1, 3, -4, -9, 32], "path": ["0", "0", "12", "13", "14", "15", "17"], "rt": [34127, 48, 125, 76, 70], "actions": ["right", "right", "right", "up", "right"], "actionTimes": [35660, 36210, 36836, 37413, 37984], "queries": {"click": {"state": {"target": ["23", "1", "12", "4", "8", "26", "30", "19", "15", "10", "11", "9", "21", "22", "18", "16", "17"], "time": [2534, 3063, 3522, 4051, 4622, 5164, 5755, 6394, 6909, 7439, 10579, 13725, 18473, 21953, 25248, 28543, 31754]}, "edge": {"target": [], "time": []}}, "mouseover": {"state": {"target": ["23", "23", "1", "1", "12", "7", "4", "8", "26", "25", "30", "19", "14", "15", "18", "10", "11", "9", "27", "28", "23", "22", "21", "22", "13", "18", "16", "17", "20", "20"], "time": [2165, 2367, 2715, 2954, 3251, 3718, 3862, 4402, 4921, 5318, 5654, 6303, 6543, 6693, 7037, 7307, 7748, 13201, 16228, 17160, 17494, 17563, 18425, 19604, 24452, 25071, 27499, 29008, 33061, 33235]}, "edge": {"target": [], "time": []}}, "mouseout": {"state": {"target": ["20", "19", "22", "0", "23", "23", "1", "1", "12", "7", "4", "8", "26", "25", "30", "19", "14", "15", "18", "10", "11", "9", "11", "27", "28", "23", "22", "21", "22", "13", "18", "16", "17", "20", "20"], "time": [753, 767, 837, 1627, 2270, 2654, 2786, 3202, 3617, 3777, 4181, 4766, 5292, 5379, 5952, 6476, 6588, 7022, 7051, 7582, 12897, 16105, 16167, 16239, 17438, 17508, 18175, 19303, 24369, 24620, 27109, 28921, 33021, 33081, 35109]}, "edge": {"target": [], "time": []}}}, "displayed_time": "38.49", "trialTime": 39573, "trial_type": "mouselab-mdp", "trial_index": 27, "time_elapsed": 1349044, "internal_node_id": "0.0-4.0-1.0-18.0"}}, {"uniqueid": "w95686219:a28456395", "current_trial": 28, "dateTime": 1691487835752, "trialdata": {"revealed_states": [], "clicked_states": ["23", "1", "12", "4", "8", "26", "30", "19", "15", "22", "21", "20", "31", "32", "33"], "num_clicks_accrued": [0, 0, 0, 0, 0, 0, 0, 0, 0, 0, 0, 0, 0], "stateRewards": ["", -1, 1, 8, -3, -24, 11, -65, -6, -77, 48, 44, -2, 1, -2, -7, -55, -35, 33, 8, -28, 19, -53, -1, -1, -5, -5, -70, 10, 44, 8, -58, -70, 51], "withholdReward": false, "trial_id": "mdp_trial_20", "block": "test", "trialIndex": 21, "score": 30.55, "costs": -21.45, "simulationMode": [null, null, null, null, null], "rewards": [-1, -1, -5, 8, 51], "path": ["0", "0", "23", "24", "25", "30", "33"], "rt": [25074, 13, 382, 105, 82], "actions": ["left", "left", "left", "down", "left"], "actionTimes": [26582, 27102, 27985, 28592, 29188], "queries": {"click": {"state": {"target": ["23", "1", "12", "4", "8", "26", "30", "19", "15", "22", "21", "20", "31", "32", "33"], "time": [2050, 2499, 2940, 3393, 4002, 4572, 5078, 5766, 6288, 7105, 10201, 13375, 16567, 19659, 22817]}, "edge": {"target": [], "time": []}}, "mouseover": {"state": {"target": ["0", "23", "1", "12", "7", "4", "3", "8", "26", "25", "30", "20", "19", "14", "15", "20", "22", "21", "20", "30", "31", "20", "19", "22", "31", "30", "31", "32", "32", "33", "30", "31", "21", "21"], "time": [1699, 1982, 2282, 2679, 3096, 3138, 3644, 3690, 4374, 4722, 4761, 5411, 5701, 5944, 6108, 6550, 6870, 7395, 10743, 11270, 11615, 12043, 14882, 14914, 15024, 15065, 15247, 17114, 18638, 20100, 23290, 23325, 23454, 23790]}, "edge": {"target": [], "time": []}}, "mouseout": {"state": {"target": ["20", "19", "22", "1", "0", "0", "0", "23", "1", "12", "7", "4", "3", "8", "26", "25", "30", "20", "19", "14", "15", "15", "20", "22", "21", "20", "30", "31", "21", "20", "19", "22", "31", "30", "31", "32", "32", "33", "30", "31", "21", "21"], "time": [473, 501, 591, 855, 952, 1175, 1864, 2170, 2608, 3031, 3123, 3618, 3671, 4150, 4708, 4747, 5200, 5595, 5917, 5987, 6382, 6465, 6795, 7321, 10534, 11079, 11603, 11627, 11704, 14871, 14903, 14935, 15053, 15218, 16894, 17203, 19887, 23258, 23310, 23338, 23488, 25932]}, "edge": {"target": [], "time": []}}}, "displayed_time": "29.69", "trialTime": 31303, "trial_type": "mouselab-mdp", "trial_index": 28, "time_elapsed": 1380706, "internal_node_id": "0.0-4.0-1.0-19.0"}}, {"uniqueid": "w95686219:a28456395", "current_trial": 29, "dateTime": 1691487858101, "trialdata": {"revealed_states": [], "clicked_states": ["23", "1", "12", "4", "8", "26", "30", "19", "15", "7", "6", "5"], "num_clicks_accrued": [0, 0, 0, 0, 0, 0, 0, 0, 0, 0, 0, 0, 0], "stateRewards": ["", -1, -3, -6, 14, 41, 18, 63, -14, 80, 21, 17, -2, -4, -2, -5, 13, 70, 8, -4, -64, -10, -20, 2, -1, 4, -1, -17, -55, 42, -7, 47, 54, 15], "withholdReward": false, "trial_id": "mdp_trial_21", "block": "test", "trialIndex": 22, "score": 52, "costs": -15.000000000000002, "simulationMode": [null, null, null, null, null], "rewards": [-1, -3, -6, 14, 63], "path": ["0", "0", "1", "2", "3", "4", "7"], "rt": [14617, 11, 52, 8, 381], "actions": ["up", "up", "up", "right", "down"], "actionTimes": [16601, 17116, 17672, 18184, 19071], "queries": {"click": {"state": {"target": ["23", "1", "12", "4", "8", "26", "30", "19", "15", "7", "6", "5"], "time": [2426, 2798, 3181, 3665, 4313, 4954, 5412, 5997, 6484, 7053, 10337, 13518]}, "edge": {"target": [], "time": []}}, "mouseover": {"state": {"target": ["23", "1", "12", "7", "4", "3", "8", "28", "26", "25", "30", "19", "14", "15", "16", "7", "6", "5"], "time": [2052, 2619, 2984, 3361, 3497, 3872, 4219, 4530, 4827, 5124, 5191, 5843, 6138, 6352, 6769, 6905, 7264, 10767]}, "edge": {"target": [], "time": []}}, "mouseout": {"state": {"target": ["20", "19", "22", "0", "23", "1", "12", "7", "4", "3", "8", "28", "26", "25", "30", "19", "14", "15", "16", "7", "6", "5"], "time": [1405, 1439, 1467, 2014, 2553, 2947, 3288, 3421, 3846, 4005, 4459, 4582, 5097, 5165, 5537, 6099, 6166, 6568, 6798, 7200, 10560, 13757]}, "edge": {"target": [], "time": []}}}, "displayed_time": "19.57", "trialTime": 22014, "trial_type": "mouselab-mdp", "trial_index": 29, "time_elapsed": 1403054, "internal_node_id": "0.0-4.0-1.0-20.0"}}, {"uniqueid": "w95686219:a28456395", "current_trial": 30, "dateTime": 1691487901053, "trialdata": {"revealed_states": [], "clicked_states": ["23", "1", "12", "4", "8", "26", "30", "19", "15", "31", "32", "33"], "num_clicks_accrued": [0, 0, 0, 0, 0, 0, 0, 0, 0, 0, 0, 0, 0], "stateRewards": ["", 1, 2, -8, 9, 18, -83, -11, 6, -64, -48, 17, -2, -2, -5, -3, -24, -3, -86, -2, 48, -41, -22, -2, 4, 7, 8, 81, 13, -48, 10, 61, 19, 57], "withholdReward": false, "trial_id": "mdp_trial_22", "block": "test", "trialIndex": 23, "score": 65, "costs": -15.000000000000002, "simulationMode": [null, null, null, null, null], "rewards": [-2, 4, 7, 10, 61], "path": ["0", "0", "23", "24", "25", "30", "31"], "rt": [15873, 376, 33, 82, 155], "actions": ["left", "left", "left", "down", "right"], "actionTimes": [36848, 37730, 38270, 38861, 39518], "queries": {"click": {"state": {"target": ["23", "1", "12", "4", "8", "26", "30", "19", "15", "31", "32", "33"], "time": [21592, 22107, 22621, 23234, 24481, 25215, 25737, 26403, 26912, 27586, 30584, 33807]}, "edge": {"target": [], "time": []}}, "mouseover": {"state": {"target": ["0", "23", "1", "12", "7", "7", "4", "3", "8", "26", "25", "25", "30", "31", "21", "19", "14", "15", "12", "32", "32", "31", "32", "32", "24", "26", "27", "26", "32", "33"], "time": [21000, 21264, 21804, 22326, 22896, 22924, 23081, 23432, 23614, 25008, 25385, 25441, 25574, 25874, 25984, 26240, 26547, 26638, 27065, 27200, 27417, 27488, 27830, 28657, 28712, 29031, 29083, 29238, 29739, 30854]}, "edge": {"target": [], "time": []}}, "mouseout": {"state": {"target": ["17", "15", "12", "0", "0", "23", "1", "12", "7", "7", "4", "3", "8", "26", "25", "25", "30", "31", "21", "19", "14", "15", "15", "12", "32", "32", "31", "32", "32", "30", "24", "26", "27", "26", "32", "33"], "time": [721, 742, 853, 1001, 21008, 21764, 22276, 22785, 22910, 22951, 23406, 23489, 24724, 25346, 25425, 25456, 25856, 25890, 26000, 26508, 26585, 26981, 27025, 27080, 27255, 27429, 27791, 27845, 28670, 28691, 28982, 29043, 29216, 29251, 30751, 34188]}, "edge": {"target": [], "time": []}}}, "displayed_time": "40.02", "trialTime": 42580, "trial_type": "mouselab-mdp", "trial_index": 30, "time_elapsed": 1446007, "internal_node_id": "0.0-4.0-1.0-21.0"}}, {"uniqueid": "w95686219:a28456395", "current_trial": 31, "dateTime": 1691487924064, "trialdata": {"revealed_states": [], "clicked_states": ["23", "1", "12", "4", "8", "26", "30", "19", "15", "31", "32", "33"], "num_clicks_accrued": [0, 0, 0, 0, 0, 0, 0, 0, 0, 0, 0, 0, 0], "stateRewards": ["", -2, 3, 8, -9, 59, 41, -50, -1, 82, 66, 33, 2, -2, 7, 8, 1, -38, 12, -16, 24, -37, 67, 1, 4, -2, 5, 35, -83, 28, 8, -27, 69, -64], "withholdReward": false, "trial_id": "mdp_trial_23", "block": "test", "trialIndex": 24, "score": 65, "costs": -15.000000000000002, "simulationMode": [null, null, null, null, null], "rewards": [1, 4, -2, 8, 69], "path": ["0", "0", "23", "24", "25", "30", "32"], "rt": [17022, 23, 29, 341, 119], "actions": ["left", "left", "left", "down", "down"], "actionTimes": [18063, 18589, 19130, 19977, 20603], "queries": {"click": {"state": {"target": ["23", "1", "12", "4", "8", "26", "30", "19", "15", "31", "32", "33"], "time": [1409, 1980, 2486, 3168, 3838, 4545, 5330, 6881, 7686, 8756, 11824, 15001]}, "edge": {"target": [], "time": []}}, "mouseover": {"state": {"target": ["23", "1", "12", "12", "7", "4", "2", "10", "8", "8", "10", "24", "25", "26", "25", "30", "19", "14", "15", "13", "31", "14", "18", "12", "0", "32", "32", "33"], "time": [1156, 1809, 2149, 2352, 2924, 3047, 3316, 3414, 3556, 3747, 3950, 4049, 4166, 4328, 4702, 4988, 6012, 7210, 7625, 7961, 8278, 9031, 9306, 9340, 9356, 9430, 9831, 12145]}, "edge": {"target": [], "time": []}}, "mouseout": {"state": {"target": ["33", "30", "24", "23", "0", "23", "1", "12", "12", "7", "4", "2", "10", "8", "8", "8", "10", "24", "25", "26", "25", "30", "30", "19", "14", "15", "13", "31", "14", "15", "18", "12", "0", "31", "32", "32", "33"], "time": [411, 432, 466, 599, 1054, 1475, 2098, 2223, 2751, 2940, 3289, 3342, 3440, 3576, 3894, 3935, 3976, 4076, 4268, 4686, 4716, 5411, 5512, 7157, 7307, 7928, 7974, 8936, 9070, 9295, 9319, 9353, 9368, 9401, 9442, 12058, 15738]}, "edge": {"target": [], "time": []}}}, "displayed_time": "21.11", "trialTime": 22638, "trial_type": "mouselab-mdp", "trial_index": 31, "time_elapsed": 1469017, "internal_node_id": "0.0-4.0-1.0-22.0"}}, {"uniqueid": "w95686219:a28456395", "current_trial": 32, "dateTime": 1691487960166, "trialdata": {"revealed_states": [], "clicked_states": ["23", "1", "12", "26", "30", "8", "4", "15", "19", "18", "16", "17", "20", "22", "21"], "num_clicks_accrued": [0, 0, 0, 0, 0, 0, 0, 0, 0, 0, 0, 0, 0], "stateRewards": ["", 2, -1, -1, -9, -81, -30, 55, -6, 78, 25, 62, 2, 4, -1, 9, -85, 1, -19, 1, -60, 12, -34, 1, 4, -1, -13, -24, -16, -83, -8, 16, 43, 9], "withholdReward": false, "trial_id": "mdp_trial_24", "block": "test", "trialIndex": 25, "score": -3.4499999999999993, "costs": -21.45, "simulationMode": [null, null, null, null, null], "rewards": [2, 4, -1, 1, 12], "path": ["0", "0", "12", "13", "14", "19", "21"], "rt": [29094, 86, 17, 360, 140], "actions": ["right", "right", "right", "down", "down"], "actionTimes": [31238, 31827, 32348, 33220, 33862], "queries": {"click": {"state": {"target": ["23", "1", "12", "26", "30", "8", "4", "15", "19", "18", "16", "17", "20", "22", "21"], "time": [3887, 4592, 5121, 6441, 6967, 7549, 8075, 8641, 9167, 10189, 13343, 16902, 20284, 24435, 27525]}, "edge": {"target": [], "time": []}}, "mouseover": {"state": {"target": ["23", "1", "12", "0", "24", "26", "30", "24", "10", "8", "4", "7", "18", "15", "14", "19", "21", "21", "14", "18", "16", "17", "20", "21", "31", "22", "21", "21"], "time": [3260, 4282, 4818, 5313, 5478, 6391, 6882, 7126, 7252, 7410, 7886, 8196, 8264, 8467, 8784, 8839, 9327, 9738, 9811, 10096, 11058, 16728, 20212, 20745, 23959, 24299, 24732, 25020]}, "edge": {"target": [], "time": []}}, "mouseout": {"state": {"target": ["0", "0", "0", "23", "1", "12", "0", "23", "24", "26", "30", "24", "10", "8", "4", "7", "18", "15", "14", "19", "21", "21", "19", "14", "15", "15", "18", "16", "17", "20", "20", "21", "31", "22", "21", "21"], "time": [759, 1225, 3075, 4120, 4753, 5298, 5364, 5440, 5541, 6642, 7050, 7152, 7327, 7680, 8184, 8224, 8295, 8769, 8823, 9298, 9370, 9750, 9781, 9842, 9930, 10047, 10594, 16603, 19918, 20378, 20650, 23632, 24001, 24698, 24794, 30291]}, "edge": {"target": [], "time": []}}}, "displayed_time": "34.37", "trialTime": 35732, "trial_type": "mouselab-mdp", "trial_index": 32, "time_elapsed": 1505120, "internal_node_id": "0.0-4.0-1.0-23.0"}}, {"uniqueid": "w95686219:a28456395", "current_trial": 33, "dateTime": 1691487982199, "trialdata": {"revealed_states": [], "clicked_states": ["23", "1", "12", "19", "15", "4", "8", "26", "30", "11", "10", "9"], "num_clicks_accrued": [0, 0, 0, 0, 0, 0, 0, 0, 0, 0, 0, 0, 0], "stateRewards": ["", -1, 1, 8, -8, -49, 62, -78, 16, 28, -81, 78, -2, -3, -1, -4, 67, 49, -2, -13, -16, -39, 83, 1, -4, 4, -5, -20, 7, 84, 7, -32, -59, 19], "withholdReward": false, "trial_id": "mdp_trial_25", "block": "test", "trialIndex": 26, "score": 87, "costs": -15.000000000000002, "simulationMode": [null, null, null, null, null], "rewards": [-1, 1, 8, 16, 78], "path": ["0", "0", "1", "2", "3", "8", "11"], "rt": [15914, 18, 60, 52, 38], "actions": ["up", "up", "up", "left", "left"], "actionTimes": [17319, 17844, 18420, 18976, 19518], "queries": {"click": {"state": {"target": ["23", "1", "12", "19", "15", "4", "8", "26", "30", "11", "10", "9"], "time": [2528, 2900, 3320, 3886, 4471, 5121, 5719, 6492, 7036, 7769, 11179, 14323]}, "edge": {"target": [], "time": []}}, "mouseover": {"state": {"target": ["0", "23", "1", "12", "22", "19", "14", "15", "18", "7", "4", "3", "8", "28", "26", "25", "30", "24", "9", "11", "28", "24", "10", "28", "32", "24", "28", "8", "8", "10", "8", "9", "4"], "time": [1876, 2418, 2753, 3130, 3592, 3725, 4098, 4396, 4642, 4776, 5007, 5320, 5574, 5990, 6379, 6662, 6742, 7235, 7526, 7673, 8446, 8481, 8631, 8904, 9158, 9206, 9232, 9284, 9452, 9556, 11409, 11569, 14702]}, "edge": {"target": [], "time": []}}, "mouseout": {"state": {"target": ["21", "0", "0", "23", "1", "12", "12", "22", "19", "14", "15", "18", "7", "4", "3", "8", "8", "28", "26", "25", "30", "24", "9", "11", "28", "24", "10", "8", "28", "32", "30", "24", "28", "8", "8", "10", "8", "9", "4"], "time": [610, 818, 2376, 2665, 3056, 3407, 3541, 3658, 4035, 4221, 4614, 4684, 4829, 5292, 5388, 5806, 5886, 6205, 6631, 6690, 7119, 7249, 7606, 8008, 8458, 8569, 8654, 8827, 8917, 9171, 9184, 9219, 9244, 9315, 9508, 11365, 11451, 14632, 14715]}, "edge": {"target": [], "time": []}}}, "displayed_time": "20.02", "trialTime": 21653, "trial_type": "mouselab-mdp", "trial_index": 33, "time_elapsed": 1527152, "internal_node_id": "0.0-4.0-1.0-24.0"}}, {"uniqueid": "w95686219:a28456395", "current_trial": 34, "dateTime": 1691488005556, "trialdata": {"revealed_states": [], "clicked_states": ["23", "1", "12", "30", "26", "8", "4", "15", "19", "29", "28", "27"], "num_clicks_accrued": [0, 0, 0, 0, 0, 0, 0, 0, 0, 0, 0, 0, 0], "stateRewards": ["", 1, -1, -7, -7, -22, 15, -13, 13, 26, -32, 38, -1, 1, -7, -4, 16, -62, 86, 12, -54, 56, 64, -2, -1, 6, 14, -57, 37, 62, -6, -25, 50, -70], "withholdReward": false, "trial_id": "mdp_trial_26", "block": "test", "trialIndex": 27, "score": 64, "costs": -15.000000000000002, "simulationMode": [null, null, null, null, null], "rewards": [-2, -1, 6, 14, 62], "path": ["0", "0", "23", "24", "25", "26", "29"], "rt": [16417, 86, 37, 364, 96], "actions": ["left", "left", "left", "up", "left"], "actionTimes": [18211, 18802, 19351, 20220, 20821], "queries": {"click": {"state": {"target": ["23", "1", "12", "30", "26", "8", "4", "15", "19", "29", "28", "27"], "time": [2570, 3033, 3592, 4201, 4764, 5383, 6041, 6624, 7184, 8954, 12018, 15177]}, "edge": {"target": [], "time": []}}, "mouseover": {"state": {"target": ["12", "13", "12", "0", "23", "1", "12", "30", "24", "26", "28", "10", "8", "4", "7", "18", "15", "14", "19", "31", "25", "27", "29", "26", "28", "28", "27"], "time": [1850, 2169, 2217, 2250, 2461, 2804, 3240, 4035, 4420, 4572, 4898, 4993, 5256, 5923, 6221, 6290, 6485, 6812, 6972, 7501, 7545, 8335, 8807, 9134, 10841, 11102, 12483]}, "edge": {"target": [], "time": []}}, "mouseout": {"state": {"target": ["14", "13", "12", "0", "0", "12", "13", "12", "0", "23", "1", "12", "30", "24", "26", "28", "10", "8", "4", "7", "18", "15", "14", "19", "31", "25", "27", "29", "26", "28", "28", "27", "33"], "time": [958, 1062, 1160, 1187, 1812, 1861, 2196, 2238, 2273, 2697, 3187, 3762, 4328, 4435, 4883, 4929, 5108, 5551, 6193, 6237, 6407, 6767, 6880, 7308, 7517, 7604, 8682, 9121, 9148, 10892, 12295, 15393, 21918]}, "edge": {"target": [], "time": []}}}, "displayed_time": "21.32", "trialTime": 23024, "trial_type": "mouselab-mdp", "trial_index": 34, "time_elapsed": 1550510, "internal_node_id": "0.0-4.0-1.0-25.0"}}, {"uniqueid": "w95686219:a28456395", "current_trial": 35, "dateTime": 1691488036314, "trialdata": {"revealed_states": [], "clicked_states": ["23", "1", "12", "30", "26", "8", "4", "15", "19", "29", "27", "28", "31", "32", "33"], "num_clicks_accrued": [0, 0, 0, 0, 0, 0, 0, 0, 0, 0, 0, 0, 0], "stateRewards": ["", -1, 2, -6, 6, -82, -19, -39, -16, -83, 11, -33, -2, -2, 4, -6, -82, -1, -19, -6, -10, -67, -41, -2, 1, -7, 16, -23, -78, -52, 14, 31, -71, 74], "withholdReward": false, "trial_id": "mdp_trial_27", "block": "test", "trialIndex": 28, "score": 58.55, "costs": -21.45, "simulationMode": [null, null, null, null, null], "rewards": [-2, 1, -7, 14, 74], "path": ["0", "0", "23", "24", "25", "30", "33"], "rt": [25376, 28, 15, 48, 29], "actions": ["left", "left", "left", "down", "left"], "actionTimes": [26312, 26842, 27364, 27925, 28456], "queries": {"click": {"state": {"target": ["23", "1", "12", "30", "26", "8", "4", "15", "19", "29", "27", "28", "31", "32", "33"], "time": [1276, 1754, 2200, 2792, 3415, 3999, 4638, 5354, 6001, 7332, 10400, 13460, 16644, 20223, 23329]}, "edge": {"target": [], "time": []}}, "mouseover": {"state": {"target": ["23", "1", "12", "31", "30", "25", "26", "28", "10", "8", "2", "4", "7", "18", "15", "14", "19", "19", "22", "0", "23", "26", "29", "27", "28", "28", "24", "31", "32", "33"], "time": [949, 1482, 1961, 2496, 2639, 3020, 3227, 3622, 3690, 3792, 4190, 4431, 4774, 4835, 5049, 5548, 5616, 5927, 6709, 6773, 6798, 6923, 7214, 7702, 10740, 10892, 15711, 15935, 17535, 20564]}, "edge": {"target": [], "time": []}}, "mouseout": {"state": {"target": ["30", "0", "23", "1", "12", "31", "30", "25", "26", "28", "10", "8", "2", "4", "7", "18", "15", "14", "19", "19", "22", "0", "23", "26", "29", "27", "28", "28", "24", "31", "32", "33"], "time": [137, 637, 1408, 1869, 2338, 2587, 2938, 3139, 3595, 3650, 3747, 4134, 4232, 4750, 4800, 4852, 5518, 5576, 5694, 6695, 6732, 6786, 6812, 6977, 7541, 10657, 10754, 15689, 15742, 17182, 20454, 23497]}, "edge": {"target": [], "time": []}}}, "displayed_time": "28.96", "trialTime": 30401, "trial_type": "mouselab-mdp", "trial_index": 35, "time_elapsed": 1581268, "internal_node_id": "0.0-4.0-1.0-26.0"}}, {"uniqueid": "w95686219:a28456395", "current_trial": 36, "dateTime": 1691488055871, "trialdata": {"revealed_states": [], "clicked_states": ["23", "1", "12", "30", "26", "8", "4", "15", "19", "29"], "num_clicks_accrued": [0, 0, 0, 0, 0, 0, 0, 0, 0, 0, 0, 0, 0], "stateRewards": ["", -2, -3, -6, -7, 9, 16, 65, 5, -41, 20, -25, -1, -4, 1, -11, -49, -4, 71, 1, 39, -62, 52, -2, -3, 7, -9, -28, -70, 84, 8, 24, -58, 82], "withholdReward": false, "trial_id": "mdp_trial_28", "block": "test", "trialIndex": 29, "score": 66.3, "costs": -10.700000000000001, "simulationMode": [null, null, null, null, null], "rewards": [-2, -3, 7, -9, 84], "path": ["0", "0", "23", "24", "25", "26", "29"], "rt": [12092, 62, 140, 61, 358], "actions": ["left", "left", "left", "up", "left"], "actionTimes": [14887, 15453, 16094, 16661, 17523], "queries": {"click": {"state": {"target": ["23", "1", "12", "30", "26", "8", "4", "15", "19", "29"], "time": [3380, 3947, 4421, 5141, 5723, 6270, 6864, 7441, 8265, 10273]}, "edge": {"target": [], "time": []}}, "mouseover": {"state": {"target": ["0", "23", "1", "12", "30", "25", "26", "8", "3", "4", "15", "14", "19", "21", "14", "16", "5", "26", "29", "27", "26", "25", "30", "30", "25", "26", "27", "27", "28", "0", "22"], "time": [3090, 3125, 3676, 4122, 4976, 5343, 5546, 6061, 6437, 6790, 7193, 7604, 7864, 8611, 8877, 9009, 9150, 9680, 10118, 10583, 12097, 12126, 12183, 12362, 12398, 12427, 12466, 12773, 14157, 14206, 14255]}, "edge": {"target": [], "time": []}}, "mouseout": {"state": {"target": ["31", "24", "23", "0", "0", "23", "1", "12", "30", "25", "26", "8", "3", "4", "15", "14", "19", "21", "19", "14", "15", "16", "5", "8", "26", "29", "27", "26", "25", "30", "30", "25", "26", "27", "27", "28", "0"], "time": [573, 1470, 1713, 2855, 3100, 3576, 4078, 4580, 5279, 5432, 5892, 6419, 6467, 7061, 7575, 7620, 8559, 8797, 8841, 8910, 8967, 9043, 9179, 9247, 10049, 10482, 12063, 12111, 12160, 12206, 12376, 12412, 12441, 12538, 14137, 14167, 14216]}, "edge": {"target": [], "time": []}}}, "displayed_time": "18.03", "trialTime": 19182, "trial_type": "mouselab-mdp", "trial_index": 36, "time_elapsed": 1600825, "internal_node_id": "0.0-4.0-1.0-27.0"}}, {"uniqueid": "w95686219:a28456395", "current_trial": 37, "dateTime": 1691488076327, "trialdata": {"revealed_states": [], "clicked_states": ["23", "1", "12", "30", "26", "8", "4", "15", "19", "10", "11", "9"], "num_clicks_accrued": [0, 0, 0, 0, 0, 0, 0, 0, 0, 0, 0, 0, 0], "stateRewards": ["", 2, -3, -2, 14, -4, 85, 46, 15, -28, 41, 31, -1, -1, -1, 5, 62, 79, 57, 12, -73, -64, 86, -1, 1, -3, -5, 68, 11, -32, 8, -80, -21, -56], "withholdReward": false, "trial_id": "mdp_trial_29", "block": "test", "trialIndex": 30, "score": 38, "costs": -15.000000000000002, "simulationMode": [null, null, null, null, null], "rewards": [2, -3, -2, 15, 41], "path": ["0", "0", "1", "2", "3", "8", "10"], "rt": [14920, 28, 3, 272, 94], "actions": ["up", "up", "up", "left", "down"], "actionTimes": [16056, 16586, 17097, 17880, 18480], "queries": {"click": {"state": {"target": ["23", "1", "12", "30", "26", "8", "4", "15", "19", "10", "11", "9"], "time": [1510, 1886, 2262, 2819, 3233, 4062, 4723, 5371, 5770, 6525, 9867, 12868]}, "edge": {"target": [], "time": []}}, "mouseover": {"state": {"target": ["23", "1", "12", "30", "25", "26", "28", "8", "7", "4", "18", "14", "14", "15", "14", "19", "22", "0", "10", "23", "21", "22", "2", "8", "11", "6", "4", "3", "11", "9", "8", "10", "10"], "time": [1462, 1746, 2127, 2632, 2952, 3038, 3402, 3935, 4260, 4390, 4915, 4999, 5152, 5239, 5495, 5588, 5951, 6108, 6269, 6818, 6934, 7140, 7228, 7337, 7413, 9009, 9036, 9062, 9295, 10171, 13171, 13247, 13488]}, "edge": {"target": [], "time": []}}, "mouseout": {"state": {"target": ["22", "13", "14", "13", "12", "0", "23", "1", "1", "12", "30", "25", "26", "28", "8", "7", "4", "18", "14", "14", "15", "14", "19", "22", "0", "10", "10", "23", "21", "22", "2", "8", "11", "6", "4", "3", "11", "9", "8", "10", "10"], "time": [439, 529, 557, 689, 724, 1157, 1616, 1968, 2021, 2421, 2895, 2983, 3361, 3455, 4178, 4327, 4841, 4932, 5019, 5174, 5479, 5536, 5923, 5993, 6125, 6607, 6705, 6831, 7104, 7154, 7262, 7360, 8758, 9023, 9049, 9075, 10049, 13139, 13194, 13269, 14118]}, "edge": {"target": [], "time": []}}}, "displayed_time": "18.98", "trialTime": 20115, "trial_type": "mouselab-mdp", "trial_index": 37, "time_elapsed": 1621280, "internal_node_id": "0.0-4.0-1.0-28.0"}}, {"uniqueid": "w95686219:a28456395", "current_trial": 38, "dateTime": 1691488117028, "trialdata": {"revealed_states": [], "clicked_states": ["23", "1", "12", "30", "26", "8", "4", "15", "19", "29", "27", "28", "31", "32", "33", "21", "22", "20"], "num_clicks_accrued": [0, 0, 0, 0, 0, 0, 0, 0, 0, 0, 0, 0, 0], "stateRewards": ["", -1, -2, -1, -10, -57, 73, -72, -16, 75, -14, -46, -2, -3, -7, -1, -61, -60, 76, -4, 50, 4, 14, 2, 2, -7, 12, -65, -32, 15, -8, -76, -25, -61], "withholdReward": false, "trial_id": "mdp_trial_30", "block": "test", "trialIndex": 31, "score": 6.1000000000000085, "costs": -27.899999999999995, "simulationMode": [null, null, null, null, null], "rewards": [-2, -3, -7, -4, 50], "path": ["0", "0", "12", "13", "14", "19", "20"], "rt": [35006, 22, 54, 38, 26], "actions": ["right", "right", "right", "down", "right"], "actionTimes": [36152, 36677, 37243, 37794, 38321], "queries": {"click": {"state": {"target": ["23", "1", "12", "30", "26", "8", "4", "15", "19", "29", "27", "28", "31", "32", "33", "21", "22", "20"], "time": [2055, 2458, 2985, 3518, 4023, 4665, 5242, 5768, 6248, 6957, 10065, 13135, 16337, 19428, 22547, 25669, 28834, 31973]}, "edge": {"target": [], "time": []}}, "mouseover": {"state": {"target": ["23", "23", "23", "1", "12", "31", "30", "25", "26", "8", "7", "4", "15", "14", "19", "25", "29", "27", "28", "24", "31", "32", "33", "30", "21", "22", "19", "20", "17"], "time": [1379, 1435, 1539, 2384, 2670, 3187, 3389, 3673, 3867, 4361, 4851, 5068, 5450, 5916, 6137, 6628, 6780, 7205, 10458, 15596, 15729, 16645, 20546, 22835, 23070, 26148, 29029, 29090, 32226]}, "edge": {"target": [], "time": []}}, "mouseout": {"state": {"target": ["23", "0", "23", "23", "23", "1", "12", "31", "30", "25", "26", "8", "7", "4", "15", "14", "19", "25", "29", "27", "27", "28", "24", "31", "32", "33", "30", "21", "22", "19", "20"], "time": [676, 1317, 1389, 1456, 2186, 2610, 3118, 3244, 3613, 3692, 4149, 4806, 4880, 5366, 5886, 5945, 6404, 6668, 7031, 10165, 10261, 15563, 15623, 16575, 20064, 22822, 22848, 25948, 29016, 29064, 32136]}, "edge": {"target": [], "time": []}}}, "displayed_time": "38.83", "trialTime": 40315, "trial_type": "mouselab-mdp", "trial_index": 38, "time_elapsed": 1661981, "internal_node_id": "0.0-4.0-1.0-29.0"}}, {"uniqueid": "w95686219:a28456395", "current_trial": 39, "dateTime": 1691488145342, "trialdata": {"revealed_states": [], "clicked_states": ["23", "1", "12", "30", "26", "8", "4", "15", "19", "31", "32", "33", "29", "27"], "num_clicks_accrued": [0, 0, 0, 0, 0, 0, 0, 0, 0, 0, 0, 0, 0], "stateRewards": ["", 1, -4, -4, 8, 1, -79, 68, -10, -79, 8, -74, -1, -3, -6, 14, 43, 23, 9, 5, -51, 63, 61, -2, 4, 6, -10, 69, -32, 57, 15, -80, -80, -77], "withholdReward": false, "trial_id": "mdp_trial_31", "block": "test", "trialIndex": 32, "score": 47.7, "costs": -19.3, "simulationMode": [null, null, null, null, null], "rewards": [-2, 4, 6, -10, 69], "path": ["0", "0", "23", "24", "25", "26", "27"], "rt": [22504, 47, 94, 64, 79], "actions": ["left", "left", "left", "up", "up"], "actionTimes": [24360, 24909, 25506, 26073, 26659], "queries": {"click": {"state": {"target": ["23", "1", "12", "30", "26", "8", "4", "15", "19", "31", "32", "33", "29", "27"], "time": [2314, 2733, 3213, 4343, 4965, 5511, 5997, 6742, 7238, 7885, 11025, 14080, 17227, 20683]}, "edge": {"target": [], "time": []}}, "mouseover": {"state": {"target": ["23", "1", "12", "31", "25", "30", "25", "26", "26", "8", "3", "4", "18", "15", "14", "19", "21", "31", "32", "33", "0", "18", "16", "6", "3", "2", "1", "28", "29", "27", "28"], "time": [1957, 2589, 2899, 3466, 4177, 4228, 4483, 4550, 4809, 5290, 5665, 5756, 6162, 6404, 6887, 7068, 7375, 7699, 8108, 11352, 14641, 14688, 14726, 14901, 14963, 15346, 15395, 15543, 15601, 17571, 21023]}, "edge": {"target": [], "time": []}}, "mouseout": {"state": {"target": ["17", "15", "18", "1", "23", "23", "0", "23", "1", "12", "31", "25", "30", "25", "26", "26", "8", "3", "4", "4", "18", "15", "14", "19", "21", "31", "32", "33", "0", "18", "16", "6", "3", "2", "1", "28", "29", "27", "28"], "time": [366, 394, 422, 443, 750, 1381, 1872, 2484, 2872, 3353, 3593, 4190, 4436, 4516, 4596, 5047, 5649, 5697, 6070, 6107, 6307, 6870, 6924, 7353, 7389, 8039, 11240, 14511, 14654, 14702, 14739, 14915, 15085, 15361, 15499, 15558, 17312, 20958, 21047]}, "edge": {"target": [], "time": []}}}, "displayed_time": "27.16", "trialTime": 27932, "trial_type": "mouselab-mdp", "trial_index": 39, "time_elapsed": 1690296, "internal_node_id": "0.0-4.0-1.0-30.0"}}, {"uniqueid": "w95686219:a28456395", "current_trial": 40, "dateTime": 1691488167365, "trialdata": {"revealed_states": [], "clicked_states": ["12", "1", "23", "30", "26", "8", "4", "15", "19", "28", "27", "29"], "num_clicks_accrued": [0, 0, 0, 0, 0, 0, 0, 0, 0, 0, 0, 0, 0], "stateRewards": ["", 1, -4, -6, -1, -21, 17, -72, 10, 77, 67, -46, -1, 4, -2, 14, -66, -49, -45, -15, -52, 23, -67, 2, -2, -2, 15, -3, 45, -64, 5, -44, 83, 61], "withholdReward": false, "trial_id": "mdp_trial_32", "block": "test", "trialIndex": 33, "score": 43, "costs": -15.000000000000002, "simulationMode": [null, null, null, null, null], "rewards": [2, -2, -2, 15, 45], "path": ["0", "0", "23", "24", "25", "26", "28"], "rt": [16080, 3, 4, 382, 115], "actions": ["left", "left", "left", "up", "right"], "actionTimes": [17260, 17767, 18282, 19174, 19790], "queries": {"click": {"state": {"target": ["12", "1", "23", "30", "26", "8", "4", "15", "19", "28", "27", "29"], "time": [3057, 3521, 4084, 4580, 5142, 6064, 6619, 7176, 7670, 8283, 11351, 14409]}, "edge": {"target": [], "time": []}}, "mouseover": {"state": {"target": ["12", "19", "20", "12", "0", "12", "1", "23", "31", "30", "25", "26", "28", "10", "8", "3", "7", "4", "7", "18", "15", "14", "19", "22", "23", "24", "28", "27", "29", "26", "7"], "time": [1206, 1261, 1305, 1793, 1863, 2906, 3253, 3946, 4281, 4499, 4754, 4921, 5357, 5622, 5858, 6219, 6287, 6458, 6747, 6806, 7033, 7319, 7398, 7810, 7912, 7943, 8098, 8526, 11937, 14755, 14899]}, "edge": {"target": [], "time": []}}, "mouseout": {"state": {"target": ["12", "19", "20", "12", "0", "12", "1", "23", "31", "30", "25", "26", "28", "10", "8", "3", "7", "4", "7", "18", "15", "14", "19", "22", "23", "24", "28", "27", "29", "26"], "time": [1222, 1293, 1545, 1814, 1988, 3135, 3718, 4213, 4300, 4686, 4838, 5315, 5426, 5751, 6195, 6232, 6375, 6729, 6777, 6848, 7287, 7365, 7794, 7826, 7927, 7999, 8446, 11675, 14514, 14779]}, "edge": {"target": [], "time": []}}}, "displayed_time": "20.30", "trialTime": 21641, "trial_type": "mouselab-mdp", "trial_index": 40, "time_elapsed": 1712319, "internal_node_id": "0.0-4.0-1.0-31.0"}}, {"uniqueid": "w95686219:a28456395", "current_trial": 41, "dateTime": 1691488199237, "trialdata": {"revealed_states": [], "clicked_states": ["23", "1", "12", "30", "26", "8", "4", "15", "19", "31", "32", "33", "29", "28", "27"], "num_clicks_accrued": [0, 0, 0, 0, 0, 0, 0, 0, 0, 0, 0, 0, 0], "stateRewards": ["", -2, -3, -7, 7, -54, -69, -4, -14, -77, 22, 40, -2, -1, 5, 6, -35, 50, -60, 10, -28, 75, 57, 1, -4, -2, 2, 68, 34, -18, 12, 3, -21, -43], "withholdReward": false, "trial_id": "mdp_trial_33", "block": "test", "trialIndex": 34, "score": 43.55, "costs": -21.45, "simulationMode": [null, null, null, null, null], "rewards": [1, -4, -2, 2, 68], "path": ["0", "0", "23", "24", "25", "26", "27"], "rt": [26204, 65, 66, 42, 100], "actions": ["left", "left", "left", "up", "up"], "actionTimes": [28111, 28681, 29252, 29799, 30406], "queries": {"click": {"state": {"target": ["23", "1", "12", "30", "26", "8", "4", "15", "19", "31", "32", "33", "29", "28", "27"], "time": [2272, 2658, 3194, 4138, 4646, 5198, 5703, 6230, 6704, 7253, 10237, 13291, 17478, 20578, 24134]}, "edge": {"target": [], "time": []}}, "mouseover": {"state": {"target": ["23", "1", "12", "7", "24", "30", "25", "26", "8", "4", "7", "18", "15", "14", "19", "22", "31", "32", "33", "30", "31", "22", "21", "0", "29", "26", "8", "3", "8", "28", "27", "18", "14", "20", "12", "27", "12", "22", "21", "20"], "time": [1965, 2611, 2865, 3551, 3755, 4003, 4250, 4406, 5052, 5547, 5819, 5877, 6036, 6331, 6392, 6840, 7127, 7425, 10694, 13656, 13693, 13860, 14061, 16989, 17302, 18249, 18347, 18697, 18738, 19028, 21038, 21498, 21546, 21705, 23706, 24116, 25055, 25109, 25364, 27439]}, "edge": {"target": [], "time": []}}, "mouseout": {"state": {"target": ["7", "12", "0", "23", "0", "23", "1", "1", "12", "7", "24", "30", "25", "26", "8", "4", "7", "18", "15", "14", "19", "22", "31", "32", "33", "30", "31", "22", "21", "0", "29", "26", "8", "3", "8", "28", "27", "18", "14", "20", "12", "28", "27", "12", "22", "21", "20"], "time": [617, 1159, 1312, 1514, 1604, 2370, 2728, 2836, 3416, 3668, 3788, 4207, 4286, 4763, 5356, 5803, 5849, 5965, 6314, 6361, 6820, 6863, 7392, 10392, 13632, 13680, 13728, 13971, 14143, 16999, 18236, 18273, 18361, 18714, 18752, 20832, 21385, 21512, 21580, 23650, 23716, 23754, 24940, 25071, 25133, 27411, 27449]}, "edge": {"target": [], "time": []}}}, "displayed_time": "30.92", "trialTime": 31504, "trial_type": "mouselab-mdp", "trial_index": 41, "time_elapsed": 1744190, "internal_node_id": "0.0-4.0-1.0-32.0"}}, {"uniqueid": "w95686219:a28456395", "current_trial": 42, "dateTime": 1691488220547, "trialdata": {"revealed_states": [], "clicked_states": ["23", "1", "12", "19", "15", "4", "8", "26", "30", "21", "20", "22"], "num_clicks_accrued": [0, 0, 0, 0, 0, 0, 0, 0, 0, 0, 0, 0, 0], "stateRewards": ["", -2, -3, -3, 9, 79, 67, 22, -15, -56, 27, -85, -2, 4, -4, -15, -20, -32, 60, 15, 71, 57, 17, 1, 2, -8, 15, -37, -81, 82, 15, 21, -3, 2], "withholdReward": false, "trial_id": "mdp_trial_34", "block": "test", "trialIndex": 35, "score": 69, "costs": -15.000000000000002, "simulationMode": [null, null, null, null, null], "rewards": [-2, 4, -4, 15, 71], "path": ["0", "0", "12", "13", "14", "19", "20"], "rt": [16332, 65, 113, 85, 85], "actions": ["right", "right", "right", "down", "right"], "actionTimes": [17302, 17872, 18489, 19080, 19671], "queries": {"click": {"state": {"target": ["23", "1", "12", "19", "15", "4", "8", "26", "30", "21", "20", "22"], "time": [1342, 1705, 3003, 4242, 4812, 5419, 5961, 6590, 7143, 7916, 11267, 14164]}, "edge": {"target": [], "time": []}}, "mouseover": {"state": {"target": ["23", "1", "12", "22", "19", "14", "15", "18", "7", "4", "3", "8", "28", "26", "25", "30", "21", "20", "19", "22", "19"], "time": [1237, 1551, 2041, 3666, 4039, 4422, 4558, 4974, 5104, 5248, 5623, 5696, 6141, 6483, 6749, 6820, 7549, 8219, 11415, 11649, 14429]}, "edge": {"target": [], "time": []}}, "mouseout": {"state": {"target": ["20", "0", "23", "1", "12", "22", "19", "14", "15", "18", "7", "4", "3", "8", "28", "26", "25", "30", "21", "20", "19", "22", "19", "20"], "time": [389, 985, 1413, 1823, 3622, 3704, 4377, 4478, 4943, 5021, 5174, 5606, 5654, 6079, 6160, 6731, 6785, 7314, 8133, 11387, 11506, 14405, 14442, 14467]}, "edge": {"target": [], "time": []}}}, "displayed_time": "20.18", "trialTime": 20954, "trial_type": "mouselab-mdp", "trial_index": 42, "time_elapsed": 1765500, "internal_node_id": "0.0-4.0-1.0-33.0"}}, {"uniqueid": "w95686219:a28456395", "current_trial": 43, "dateTime": 1691488242901, "trialdata": {"revealed_states": [], "clicked_states": ["23", "1", "12", "30", "26", "8", "4", "15", "19", "29", "27", "28"], "num_clicks_accrued": [0, 0, 0, 0, 0, 0, 0, 0, 0, 0, 0, 0, 0], "stateRewards": ["", 1, -1, 1, -14, -10, 67, -28, -11, 72, 40, -65, -1, 1, 1, -2, 8, -55, 34, -10, 61, 33, -15, 2, -4, 7, 4, -75, 63, -21, -16, 61, 19, 21], "withholdReward": false, "trial_id": "mdp_trial_35", "block": "test", "trialIndex": 36, "score": 57, "costs": -15.000000000000002, "simulationMode": [null, null, null, null, null], "rewards": [2, -4, 7, 4, 63], "path": ["0", "0", "23", "24", "25", "26", "28"], "rt": [16256, 58, 56, 53, 34], "actions": ["left", "left", "left", "up", "right"], "actionTimes": [18433, 18994, 19555, 20116, 20658], "queries": {"click": {"state": {"target": ["23", "1", "12", "30", "26", "8", "4", "15", "19", "29", "27", "28"], "time": [2581, 3028, 3509, 4075, 4562, 5031, 5586, 6159, 6640, 8549, 11622, 14679]}, "edge": {"target": [], "time": []}}, "mouseover": {"state": {"target": ["23", "1", "12", "31", "30", "25", "26", "28", "10", "8", "2", "7", "4", "15", "15", "14", "19", "22", "23", "24", "28", "2", "10", "28", "29", "29", "27", "28", "24", "13", "14", "18"], "time": [2195, 2841, 3227, 3695, 3999, 4220, 4361, 4672, 4759, 4893, 5211, 5246, 5396, 5804, 6064, 6306, 6353, 7187, 7301, 7361, 7476, 7811, 7908, 8026, 8249, 8457, 8844, 13761, 15613, 15920, 15953, 16623]}, "edge": {"target": [], "time": []}}, "mouseout": {"state": {"target": ["14", "0", "23", "24", "24", "24", "23", "0", "0", "23", "1", "12", "31", "30", "25", "26", "28", "10", "8", "2", "7", "4", "15", "15", "14", "19", "22", "23", "24", "28", "2", "10", "28", "29", "29", "27", "27", "28", "24", "13", "14", "18"], "time": [886, 901, 910, 928, 1060, 1136, 1240, 1296, 2192, 2684, 3168, 3597, 3718, 4160, 4277, 4654, 4702, 4818, 5180, 5227, 5317, 5717, 5820, 6289, 6337, 6765, 7213, 7337, 7375, 7600, 7873, 7950, 8044, 8262, 8767, 12968, 13499, 15570, 15729, 15937, 15997, 17953]}, "edge": {"target": [], "time": []}}}, "displayed_time": "21.16", "trialTime": 21992, "trial_type": "mouselab-mdp", "trial_index": 43, "time_elapsed": 1787854, "internal_node_id": "0.0-4.0-1.0-34.0"}}, {"uniqueid": "w95686219:a28456395", "current_trial": 44, "dateTime": 1691488262946, "trialdata": {"revealed_states": [], "clicked_states": ["23", "1", "12", "30", "26", "8", "4", "15", "19", "29", "27", "28"], "num_clicks_accrued": [0, 0, 0, 0, 0, 0, 0, 0, 0, 0, 0, 0, 0], "stateRewards": ["", 2, 4, 7, -6, -76, -81, 2, 5, -66, -3, 36, -2, -4, 6, -2, -69, 4, -49, -6, 67, 38, -67, 2, 1, 1, 6, -68, -21, 52, -16, -16, 6, -70], "withholdReward": false, "trial_id": "mdp_trial_36", "block": "test", "trialIndex": 37, "score": 47, "costs": -15.000000000000002, "simulationMode": [null, null, null, null, null], "rewards": [2, 1, 1, 6, 52], "path": ["0", "0", "23", "24", "25", "26", "29"], "rt": [14451, 401, 119, 145, 140], "actions": ["left", "left", "left", "up", "left"], "actionTimes": [15525, 16431, 17052, 17704, 18346], "queries": {"click": {"state": {"target": ["23", "1", "12", "30", "26", "8", "4", "15", "19", "29", "27", "28"], "time": [1403, 1734, 2040, 2514, 2941, 4083, 4612, 5197, 5629, 6312, 9651, 12690]}, "edge": {"target": [], "time": []}}, "mouseover": {"state": {"target": ["23", "1", "12", "0", "31", "30", "25", "26", "8", "8", "3", "4", "7", "18", "15", "14", "19", "22", "24", "25", "29", "27", "28", "1"], "time": [1260, 1563, 1902, 2187, 2257, 2366, 2683, 2768, 3557, 3918, 4238, 4380, 4769, 4828, 5084, 5326, 5518, 5779, 5994, 6030, 6179, 6531, 9954, 13215]}, "edge": {"target": [], "time": []}}, "mouseout": {"state": {"target": ["18", "1", "24", "0", "23", "1", "12", "0", "31", "30", "25", "26", "8", "8", "3", "4", "7", "18", "15", "14", "19", "22", "24", "25", "29", "27", "28", "1"], "time": [418, 453, 578, 1128, 1494, 1844, 2167, 2206, 2311, 2647, 2725, 3079, 3825, 4210, 4252, 4730, 4798, 4873, 5308, 5386, 5762, 5798, 6012, 6090, 6390, 9869, 13152, 13229]}, "edge": {"target": [], "time": []}}}, "displayed_time": "18.85", "trialTime": 19629, "trial_type": "mouselab-mdp", "trial_index": 44, "time_elapsed": 1807899, "internal_node_id": "0.0-4.0-1.0-35.0"}}, {"uniqueid": "w95686219:a28456395", "current_trial": 45, "dateTime": 1691488295282, "trialdata": {"revealed_states": [], "clicked_states": ["23", "1", "12", "30", "26", "8", "4", "15", "19", "21", "22", "20", "7", "6", "5"], "num_clicks_accrued": [0, 0, 0, 0, 0, 0, 0, 0, 0, 0, 0, 0, 0], "stateRewards": ["", 2, -3, -8, 14, -7, -51, 73, 2, 36, 36, -43, -1, 3, -4, 1, 6, 87, -65, 15, 61, -42, -83, -1, 3, -2, -7, 30, -48, 35, 13, 26, 60, 78], "withholdReward": false, "trial_id": "mdp_trial_37", "block": "test", "trialIndex": 38, "score": 56.55, "costs": -21.45, "simulationMode": [null, null, null, null, null], "rewards": [2, -3, -8, 14, 73], "path": ["0", "0", "1", "2", "3", "4", "7"], "rt": [26870, 57, 21, 23, 24], "actions": ["up", "up", "up", "right", "down"], "actionTimes": [28325, 28885, 29412, 29943, 30479], "queries": {"click": {"state": {"target": ["23", "1", "12", "30", "26", "8", "4", "15", "19", "21", "22", "20", "7", "6", "5"], "time": [2365, 2742, 3257, 3768, 4733, 5328, 5828, 6562, 7009, 8694, 12395, 15444, 18678, 22074, 25147]}, "edge": {"target": [], "time": []}}, "mouseover": {"state": {"target": ["23", "1", "12", "0", "31", "30", "25", "26", "10", "8", "3", "4", "18", "15", "14", "19", "22", "12", "18", "13", "22", "21", "12", "18", "13", "13", "7", "4", "2", "28", "24", "30", "22", "19", "20", "20", "19", "22", "22", "19", "20", "20", "14", "18", "7", "6", "15", "14", "6", "6", "4", "4", "5", "7", "4"], "time": [2097, 2564, 3075, 3415, 3492, 3653, 4003, 4455, 4926, 5222, 5499, 5652, 6055, 6312, 6730, 6803, 7173, 7292, 7776, 7808, 7859, 8229, 9074, 9166, 9230, 9540, 9591, 9823, 9920, 9983, 10050, 10272, 10932, 10950, 10980, 11244, 11273, 11606, 12089, 12578, 12646, 12950, 15807, 15856, 16042, 20050, 20170, 20621, 20714, 20962, 22748, 23502, 24381, 25704, 26038]}, "edge": {"target": [], "time": []}}, "mouseout": {"state": {"target": ["14", "0", "23", "1", "12", "0", "31", "30", "25", "26", "10", "8", "3", "4", "18", "15", "14", "19", "22", "12", "18", "13", "22", "21", "12", "18", "13", "19", "21", "13", "7", "4", "2", "28", "24", "30", "22", "19", "20", "20", "19", "22", "22", "19", "20", "20", "14", "18", "7", "6", "15", "20", "14", "6", "6", "4", "4", "5", "7", "4", "5"], "time": [525, 1115, 2380, 2948, 3384, 3432, 3536, 3958, 4020, 4844, 4963, 5482, 5559, 5967, 6148, 6697, 6764, 7139, 7218, 7324, 7793, 7834, 7883, 8914, 9089, 9213, 9245, 9293, 9491, 9558, 9638, 9883, 9935, 9997, 10086, 10360, 10947, 10965, 10994, 11259, 11300, 11780, 12552, 12629, 12706, 15747, 15821, 15915, 19579, 20121, 20185, 20596, 20635, 20741, 22538, 23035, 23583, 25530, 25932, 26088, 26299]}, "edge": {"target": [], "time": []}}}, "displayed_time": "30.99", "trialTime": 31953, "trial_type": "mouselab-mdp", "trial_index": 45, "time_elapsed": 1840236, "internal_node_id": "0.0-4.0-1.0-36.0"}}, {"uniqueid": "w95686219:a28456395", "current_trial": 46, "dateTime": 1691488325851, "trialdata": {"revealed_states": [], "clicked_states": ["23", "1", "12", "19", "15", "4", "8", "26", "30", "16", "18", "17", "7", "6", "5"], "num_clicks_accrued": [0, 0, 0, 0, 0, 0, 0, 0, 0, 0, 0, 0, 0], "stateRewards": ["", 1, -3, -1, 9, -34, -40, 22, -7, 45, 53, -11, 2, 4, 5, 15, 21, 37, -49, -3, 80, -28, -34, 1, -3, 1, 1, -40, -6, -5, -16, -85, -86, 59], "withholdReward": false, "trial_id": "mdp_trial_38", "block": "test", "trialIndex": 39, "score": 41.55, "costs": -21.45, "simulationMode": [null, null, null, null, null], "rewards": [2, 4, 5, 15, 37], "path": ["0", "0", "12", "13", "14", "15", "17"], "rt": [24443, 18, 32, 14, 4], "actions": ["right", "right", "right", "up", "right"], "actionTimes": [26530, 27055, 27597, 28121, 28627], "queries": {"click": {"state": {"target": ["23", "1", "12", "19", "15", "4", "8", "26", "30", "16", "18", "17", "7", "6", "5"], "time": [2699, 3056, 3658, 4158, 4773, 5551, 6042, 6578, 7035, 7713, 10791, 13932, 17027, 20180, 23274]}, "edge": {"target": [], "time": []}}, "mouseover": {"state": {"target": ["23", "23", "1", "12", "22", "19", "14", "15", "18", "2", "4", "10", "8", "28", "26", "25", "30", "31", "22", "14", "16", "15", "14", "15", "18", "15", "17", "15", "7", "6", "4", "5"], "time": [2298, 2604, 3005, 3636, 3834, 4066, 4295, 4519, 4981, 5130, 5502, 5764, 5942, 6219, 6511, 6732, 6887, 7203, 7311, 7345, 7582, 7884, 7981, 8073, 8761, 12797, 13074, 14237, 14487, 19061, 21968, 22061]}, "edge": {"target": [], "time": []}}, "mouseout": {"state": {"target": ["18", "0", "0", "23", "23", "1", "12", "22", "19", "14", "15", "18", "2", "4", "10", "8", "28", "26", "25", "30", "31", "22", "14", "15", "16", "15", "14", "15", "18", "15", "17", "15", "7", "6", "4", "5"], "time": [497, 775, 2215, 2389, 2715, 3306, 3798, 3906, 4231, 4339, 4961, 5014, 5180, 5702, 5844, 6131, 6236, 6703, 6782, 7189, 7220, 7328, 7393, 7465, 7849, 7916, 8027, 8089, 12769, 12956, 14211, 14252, 18625, 21464, 21983, 24355]}, "edge": {"target": [], "time": []}}}, "displayed_time": "29.14", "trialTime": 30163, "trial_type": "mouselab-mdp", "trial_index": 46, "time_elapsed": 1870805, "internal_node_id": "0.0-4.0-1.0-37.0"}}, {"uniqueid": "w95686219:a28456395", "current_trial": 47, "dateTime": 1691488346284, "trialdata": {"revealed_states": [], "clicked_states": ["23", "1", "12", "30", "26", "8", "4", "15", "19", "29", "27", "28"], "num_clicks_accrued": [0, 0, 0, 0, 0, 0, 0, 0, 0, 0, 0, 0, 0], "stateRewards": ["", -2, 2, -4, -4, -59, 88, 62, -3, 69, -15, -34, 1, -2, -5, 7, -54, -20, 78, -16, -74, -53, -21, 2, -4, 2, 13, -8, -44, 26, 9, 72, 4, 17], "withholdReward": false, "trial_id": "mdp_trial_39", "block": "test", "trialIndex": 40, "score": 24, "costs": -15.000000000000002, "simulationMode": [null, null, null, null, null], "rewards": [2, -4, 2, 13, 26], "path": ["0", "0", "23", "24", "25", "26", "29"], "rt": [14317, 429, 154, 90, 89], "actions": ["left", "left", "left", "up", "left"], "actionTimes": [16005, 16936, 17593, 18209, 18805], "queries": {"click": {"state": {"target": ["23", "1", "12", "30", "26", "8", "4", "15", "19", "29", "27", "28"], "time": [2067, 2479, 2922, 3493, 4039, 4604, 5108, 5680, 6113, 6787, 9822, 12954]}, "edge": {"target": [], "time": []}}, "mouseover": {"state": {"target": ["23", "1", "12", "31", "30", "25", "26", "10", "8", "3", "4", "4", "18", "15", "14", "19", "25", "29", "27", "28", "28", "26", "29", "12", "13", "14"], "time": [2003, 2295, 2679, 3209, 3379, 3693, 3863, 4261, 4425, 4788, 4851, 4985, 5303, 5530, 5811, 5875, 6550, 6599, 7022, 10126, 10293, 13317, 13417, 13973, 14003, 14031]}, "edge": {"target": [], "time": []}}, "mouseout": {"state": {"target": ["15", "18", "1", "23", "1", "1", "12", "31", "30", "25", "26", "10", "8", "3", "4", "4", "18", "15", "14", "19", "25", "29", "27", "28", "28", "26", "29", "12", "13", "14"], "time": [1140, 1150, 1188, 2170, 2546, 2632, 3061, 3246, 3662, 3710, 4169, 4364, 4756, 4820, 4883, 5243, 5351, 5794, 5844, 6279, 6567, 6928, 10066, 10166, 13290, 13357, 13852, 13999, 14016, 14046]}, "edge": {"target": [], "time": []}}}, "displayed_time": "19.31", "trialTime": 20053, "trial_type": "mouselab-mdp", "trial_index": 47, "time_elapsed": 1891238, "internal_node_id": "0.0-4.0-1.0-38.0"}}, {"uniqueid": "w95686219:a28456395", "current_trial": 48, "dateTime": 1691488367962, "trialdata": {"revealed_states": [], "clicked_states": ["23", "1", "12", "30", "26", "8", "4", "15", "19", "31", "32", "33"], "num_clicks_accrued": [0, 0, 0, 0, 0, 0, 0, 0, 0, 0, 0, 0, 0], "stateRewards": ["", -2, -3, 1, -14, 48, -49, 67, -1, -35, -48, 3, -2, 1, -4, -5, 86, -84, 39, 1, 48, 41, -42, -1, -4, 2, -7, 18, -86, 17, 7, -9, 57, -69], "withholdReward": false, "trial_id": "mdp_trial_40", "block": "test", "trialIndex": 41, "score": 46, "costs": -15.000000000000002, "simulationMode": [null, null, null, null, null], "rewards": [-1, -4, 2, 7, 57], "path": ["0", "0", "23", "24", "25", "30", "32"], "rt": [14793, 26, 4, 344, 124], "actions": ["left", "left", "left", "down", "down"], "actionTimes": [16296, 16828, 17338, 18196, 18822], "queries": {"click": {"state": {"target": ["23", "1", "12", "30", "26", "8", "4", "15", "19", "31", "32", "33"], "time": [1865, 2250, 2701, 3264, 3828, 4393, 4884, 5451, 5849, 7107, 10134, 13265]}, "edge": {"target": [], "time": []}}, "mouseover": {"state": {"target": ["23", "1", "12", "31", "30", "25", "26", "28", "10", "8", "7", "4", "7", "18", "15", "14", "19", "31", "31", "32", "32", "33", "21"], "time": [1756, 2132, 2490, 2983, 3168, 3478, 3693, 3993, 4114, 4242, 4643, 4776, 5033, 5082, 5364, 5579, 5648, 6837, 6966, 9042, 9240, 10441, 14609]}, "edge": {"target": [], "time": []}}, "mouseout": {"state": {"target": ["14", "13", "12", "23", "1", "12", "31", "30", "25", "26", "28", "10", "8", "7", "4", "7", "18", "15", "14", "19", "31", "31", "31", "32", "32", "33", "32", "21"], "time": [410, 632, 788, 2024, 2430, 2875, 3017, 3446, 3498, 3976, 4010, 4132, 4555, 4660, 5016, 5050, 5100, 5562, 5611, 5944, 6859, 7188, 7379, 9124, 10357, 13588, 13827, 14626]}, "edge": {"target": [], "time": []}}}, "displayed_time": "19.33", "trialTime": 21259, "trial_type": "mouselab-mdp", "trial_index": 48, "time_elapsed": 1912916, "internal_node_id": "0.0-4.0-1.0-39.0"}}, {"uniqueid": "w95686219:a28456395", "current_trial": 49, "dateTime": 1691488450986, "trialdata": {"rt": 83018, "response": {"Q0": "$-2 to $2", "Q1": "$-16 to $16", "Q2": "$-88 to $88", "Q3": "The cost for clicking on nodes varied between nodes.", "Q4": "Very motivated"}, "question_order": [0, 1, 2, 3, 4], "trial_id": "final_quiz_control", "trial_type": "survey-multi-choice", "trial_index": 49, "time_elapsed": 1995939, "internal_node_id": "0.0-4.0-2.0"}}, {"uniqueid": "w95686219:a28456395", "current_trial": 50, "dateTime": 1691488773534, "trialdata": {"rt": 322535, "response": {"Q0": "I clicked all of the fourth steps. I then chose the fourth step with the highest score to then click all three final steps coming out of that fourth step. Then I would take the route to the highest value. If all values of the three last steps were low, I would take the second-best fourth step and repeat. I also always clicked all three first steps as they always gave a positive bonus.", "Q1": "Yes, I learned that the first steps always gave a positive bonus. After I learned that, I always clicked the three first steps in each round.", "Q2": "Not very difficult. The rules were straightforward."}, "trial_id": "self_report_control", "trial_type": "survey-text", "trial_index": 50, "time_elapsed": 2318488, "internal_node_id": "0.0-4.0-3.0"}}, {"uniqueid": "w95686219:a28456395", "current_trial": 51, "dateTime": 1691488889563, "trialdata": {"rt": 116022, "response": {"Q0": "Agree", "Q1": "Strongly agree", "Q2": "Disagree", "Q3": "Disagree", "Q4": "Strongly agree", "Q5": "Disagree", "Q6": "Agree"}, "question_order": [0, 1, 2, 3, 4, 5, 6], "trial_id": "self_report_2", "trial_type": "survey-multi-choice", "trial_index": 51, "time_elapsed": 2434517, "internal_node_id": "0.0-4.0-4.0"}}, {"uniqueid": "w95686219:a28456395", "current_trial": 52, "dateTime": 1691488930874, "trialdata": {"rt": 41304, "response": {"gender": "male", "age": "23", "colorblind": "0", "effort": "0"}, "trial_type": "survey-html-form", "trial_index": 52, "time_elapsed": 2475827, "internal_node_id": "0.0-4.0-5.0"}}, {"uniqueid": "w95686219:a28456395", "current_trial": 53, "dateTime": 1691488991646, "trialdata": {"rt": 60766, "response": {"Q0": "No, everything was clear.", "Q1": "I have not participated in this Web of Cash study before.", "Q2": ""}, "trial_type": "survey-text", "trial_index": 53, "time_elapsed": 2536600, "internal_node_id": "0.0-4.0-6.0"}}, {"uniqueid": "w95686219:a28456395", "current_trial": 54, "dateTime": 1691489011177, "trialdata": {"rt": 19527, "stimulus": "Press 'Finish HIT' in order to reach the completion code. Once the data has been saved, you will receive the code either in this window or in the original browser window where you started the experiment.\n", "response": 0, "trial_type": "html-button-response", "trial_index": 54, "time_elapsed": 2556131, "internal_node_id": "0.0-5.0"}}, {"uniqueid": "w95686219:a28456395", "current_trial": 55, "dateTime": 1691489012181, "trialdata": {"success": true, "trial_type": "fullscreen", "trial_index": 55, "time_elapsed": 2557135, "internal_node_id": "0.0-6.0"}}], "questiondata": {"params": {"CODE": "C6DMOQA6", "MIN_TIME": 14, "inspectCost": 1, "startTime": "Tue Aug 08 2023 11:20:54 GMT+0200 (Central European Summer Time)", "bonusRate": 0.002, "variance": "1_2_4_8_44", "branching": "31123"}, "final_score": 1771.7}, "eventdata": [{"eventtype": "initialized", "value": null, "timestamp": 1691486453992, "interval": 0}, {"eventtype": "window_resize", "value": [2400, 1227], "timestamp": 1691486453992, "interval": 0}, {"eventtype": "window_resize", "value": [2400, 1227], "timestamp": 1691486454311, "interval": 319}, {"eventtype": "focus", "value": "off", "timestamp": 1691486465502, "interval": 11191}, {"eventtype": "focus", "value": "on", "timestamp": 1691486481683, "interval": 16181}, {"eventtype": "focus", "value": "off", "timestamp": 1691486482608, "interval": 925}, {"eventtype": "focus", "value": "on", "timestamp": 1691486539186, "interval": 56578}, {"eventtype": "window_resize", "value": [2400, 1350], "timestamp": 1691486558060, "interval": 18874}, {"eventtype": "window_resize", "value": [2400, 1227], "timestamp": 1691489011402, "interval": 2453342}], "useragent": "Mozilla/5.0 (Windows NT 10.0; Win64; x64) AppleWebKit/537.36 (KHTML, like Gecko) Chrome/115.0.0.0 Safari/537.36", "mode": "live", "id": "w95686219:a28456395", "status": "user data saved", "Beginhit": "2023-08-08 09:20:53.000203", "Beginexp": "2023-08-08 09:22:39.301527", "Endhit": "2023-08-08 10:03:32.697238", "psiturkStatus": 3, "browser": "<redacted>", "platform": "windows", "language": "nl-NL", "excludeReason": "invalidClickStrats"}