{"condition": 1, "counterbalance": 0, "assignmentId": "a49267290", "workerId": "w68734620", "hitId": "h13635986", "currenttrial": 20, "bonus": 0, "data": [{"uniqueid": "w68734620:a49267290", "current_trial": 0, "dateTime": 1691159351291, "trialdata": {"success": true, "trial_type": "fullscreen", "trial_index": 0, "time_elapsed": 8790, "internal_node_id": "0.0-0.0"}}, {"uniqueid": "w68734620:a49267290", "current_trial": 1, "dateTime": 1691159384382, "trialdata": {"view_history": [{"page_index": 0, "viewing_time": 33066}], "rt": 33070, "trial_id": "exp_instructions_misaligned", "trial_type": "instructions", "trial_index": 1, "time_elapsed": 41881, "internal_node_id": "0.0-1.0"}}, {"uniqueid": "w68734620:a49267290", "current_trial": 2, "dateTime": 1691159391896, "trialdata": {"success": true, "trial_type": "fullscreen", "trial_index": 2, "time_elapsed": 49396, "internal_node_id": "0.0-2.0-0.0"}}, {"uniqueid": "w68734620:a49267290", "current_trial": 3, "dateTime": 1691159680750, "trialdata": {"view_history": [{"page_index": 0, "viewing_time": 91463}, {"page_index": 1, "viewing_time": 67226}, {"page_index": 2, "viewing_time": 42290}, {"page_index": 3, "viewing_time": 87865}], "rt": 288845, "trial_id": "mouselab_instructions_1_misaligned", "trial_type": "instructions", "trial_index": 3, "time_elapsed": 338250, "internal_node_id": "0.0-2.0-1.0"}}, {"uniqueid": "w68734620:a49267290", "current_trial": 4, "dateTime": 1691159819487, "trialdata": {"revealed_states": [], "clicked_states": ["12", "13", "14", "19", "20", "21", "22", "17", "3", "1", "10", "28", "26", "29", "27", "25", "30", "23", "24", "31", "33", "32", "2", "7", "6", "4", "5", "9", "11", "8", "18", "15", "16"], "num_clicks_accrued": [0, 0, 0, 0, 0, 0, 0, 0, 0, 0, 0, 0, 0], "stateRewards": ["", -10, 10, 10, 10, -10, 10, 10, -10, 10, 10, 10, -10, -10, 10, 10, -10, 10, -10, 10, 10, 10, 10, 10, 10, -10, -10, -10, -10, 10, 10, -10, 10, -10], "withholdReward": false, "trial_id": "practice_1", "block": "test", "trialIndex": 0, "score": -23, "costs": -16.5, "simulationMode": [null, null, null, null, null], "rewards": [-10, -10, 10, 10, -10], "path": ["0", "0", "12", "13", "14", "15", "16"], "rt": [109523, 661, 1270, 7636, 2875], "actions": ["right", "right", "right", "up", "up"], "actionTimes": [116123, 117304, 119123, 127288, 130705], "queries": {"click": {"state": {"target": ["12", "13", "14", "19", "20", "21", "22", "17", "3", "1", "10", "28", "26", "29", "27", "25", "30", "23", "24", "31", "33", "32", "2", "7", "6", "4", "5", "9", "11", "8", "18", "15", "16"], "time": [10793, 14233, 16222, 18330, 21340, 25620, 29490, 35255, 38036, 40748, 45151, 48099, 53245, 56122, 57781, 60323, 62192, 65120, 66769, 68762, 71131, 73242, 76095, 77484, 79384, 81425, 83111, 85318, 87419, 89066, 91510, 93104, 95255]}, "edge": {"target": [], "time": []}}, "mouseover": {"state": {"target": ["23", "0", "12", "13", "14", "19", "20", "19", "19", "21", "19", "14", "15", "14", "22", "14", "15", "17", "15", "18", "1", "8", "3", "2", "1", "10", "10", "28", "10", "10", "26", "25", "29", "27", "26", "25", "30", "23", "23", "24", "31", "31", "33", "32", "23", "2", "2", "7", "6", "4", "5", "9", "11", "8", "7", "18", "18", "15", "15", "16", "17", "17", "22", "0", "24", "31"], "time": [8793, 9569, 9619, 13622, 15801, 17469, 20352, 23272, 24835, 25002, 27336, 27408, 28065, 28456, 28681, 33423, 33741, 34550, 36436, 36506, 36903, 36986, 37469, 39277, 39870, 43912, 44384, 47019, 49434, 49672, 52453, 54603, 55228, 57234, 59273, 59534, 61655, 63013, 64521, 66284, 67661, 68000, 70329, 72410, 74417, 75012, 75463, 76940, 78735, 80818, 82427, 84754, 86864, 88456, 90368, 90483, 90757, 92073, 92474, 94738, 97234, 98045, 99684, 100453, 101402, 113834]}, "edge": {"target": [], "time": []}}, "mouseout": {"state": {"target": ["0", "23", "0", "12", "13", "14", "14", "19", "20", "19", "19", "21", "19", "14", "15", "14", "22", "14", "15", "17", "15", "18", "1", "8", "3", "2", "1", "10", "10", "10", "28", "10", "10", "28", "26", "25", "29", "27", "26", "25", "30", "23", "23", "24", "31", "31", "33", "32", "23", "2", "2", "7", "6", "4", "5", "9", "11", "8", "8", "7", "18", "18", "15", "15", "16", "17", "17", "22", "0", "24", "31", "18"], "time": [4866, 9531, 9607, 13581, 14332, 16983, 17253, 20224, 23108, 23422, 24903, 27256, 27375, 27443, 28337, 28529, 33262, 33577, 33772, 35361, 36475, 36553, 36942, 37347, 39193, 39815, 42929, 43974, 45244, 46888, 49228, 49467, 51721, 51988, 54526, 55183, 56841, 59175, 59418, 61571, 62936, 63091, 66114, 67617, 67815, 69604, 71964, 74235, 74447, 75104, 76833, 77605, 79484, 82346, 83242, 86463, 87516, 89168, 90267, 90398, 90515, 92028, 92115, 93196, 97156, 97615, 99547, 99723, 100491, 101468, 113935, 121651]}, "edge": {"target": [], "time": []}}}, "displayed_time": "131.24", "trialTime": 136766, "trial_type": "mouselab-mdp", "trial_index": 4, "time_elapsed": 476986, "internal_node_id": "0.0-2.0-2.0-0.0"}}, {"uniqueid": "w68734620:a49267290", "current_trial": 5, "dateTime": 1691159873343, "trialdata": {"revealed_states": [], "clicked_states": ["23"], "num_clicks_accrued": [0, 0, 0, 0, 0, 0, 0, 0, 0, 0, 0, 0, 0], "stateRewards": ["", -10, -10, 10, 10, -10, 10, -10, 10, 10, 10, -10, -10, -10, 10, -10, 10, -10, 10, 10, -10, -10, -10, 10, -10, 10, 10, -10, 10, 10, -10, -10, 10, -10], "withholdReward": false, "trial_id": "practice_2", "block": "test", "trialIndex": 1, "score": -7, "costs": -0.5, "simulationMode": [null, null, null, null, null], "rewards": [10, -10, 10, -10, -10], "path": ["0", "0", "23", "24", "25", "30", "31"], "rt": [6483, 14446, 1010, 3271, 2627], "actions": ["left", "left", "left", "down", "right"], "actionTimes": [16514, 31514, 33058, 36894, 40059], "queries": {"click": {"state": {"target": ["23"], "time": [13098]}, "edge": {"target": [], "time": []}}, "mouseover": {"state": {"target": ["0", "0", "23", "1"], "time": [12155, 12416, 12503, 15317]}, "edge": {"target": [], "time": []}}, "mouseout": {"state": {"target": ["16", "0", "0", "0", "23", "1", "23", "24", "24", "25", "25", "24", "23", "0", "0", "24", "30"], "time": [7806, 11692, 12285, 12465, 14753, 17991, 18329, 21077, 22895, 23333, 25265, 25324, 25372, 25424, 35773, 45937, 47382]}, "edge": {"target": [], "time": []}}}, "displayed_time": "40.60", "trialTime": 52309, "trial_type": "mouselab-mdp", "trial_index": 5, "time_elapsed": 530841, "internal_node_id": "0.0-2.0-2.0-1.0"}}, {"uniqueid": "w68734620:a49267290", "current_trial": 6, "dateTime": 1691159955255, "trialdata": {"view_history": [{"page_index": 0, "viewing_time": 78112}, {"page_index": 1, "viewing_time": 3786}], "rt": 81899, "trial_id": "mouselab_instructions_2_misaligned", "trial_type": "instructions", "trial_index": 6, "time_elapsed": 612754, "internal_node_id": "0.0-2.0-3.0"}}, {"uniqueid": "w68734620:a49267290", "current_trial": 7, "dateTime": 1691160044567, "trialdata": {"rt": 89290, "response": {"Q0": "The cost for clicking on nodes may vary between nodes.", "Q1": "I will receive a $1 bonus if I perform well, otherwise I will receive no bonus.", "Q2": "No, the structure of the web will be different each time.", "Q3": "To get the highest total score.", "Q4": "Only after moving the spider.", "Q5": "Unlimited time"}, "question_order": [0, 1, 2, 3, 4, 5], "correct": {"Q0": "The cost for clicking on nodes may vary between nodes.", "Q1": "The better I perform the higher my bonus will be.", "Q2": "No, the amount of cash at each node of the web may be different each time.", "Q3": "To get the highest total score.", "Q4": "Only before moving the spider.", "Q5": "3 seconds"}, "trial_id": "mouselab_quiz_misaligned", "trial_type": "survey-multi-choice", "trial_index": 7, "time_elapsed": 702067, "internal_node_id": "0.0-2.0-4.0"}}, {"uniqueid": "w68734620:a49267290", "current_trial": 8, "dateTime": 1691160060587, "trialdata": {"success": true, "trial_type": "fullscreen", "trial_index": 8, "time_elapsed": 718087, "internal_node_id": "0.0-2.1-0.1"}}, {"uniqueid": "w68734620:a49267290", "current_trial": 9, "dateTime": 1691160155499, "trialdata": {"view_history": [{"page_index": 0, "viewing_time": 27723}, {"page_index": 1, "viewing_time": 11055}, {"page_index": 2, "viewing_time": 7411}, {"page_index": 3, "viewing_time": 48711}], "rt": 94901, "trial_id": "mouselab_instructions_1_misaligned", "trial_type": "instructions", "trial_index": 9, "time_elapsed": 812998, "internal_node_id": "0.0-2.1-1.1"}}, {"uniqueid": "w68734620:a49267290", "current_trial": 10, "dateTime": 1691160220715, "trialdata": {"revealed_states": [], "clicked_states": ["1", "2", "3", "8", "11", "9", "10", "7", "4", "6", "5", "23", "24", "26", "25", "29", "28", "27", "33"], "num_clicks_accrued": [0, 0, 0, 0, 0, 0, 0, 0, 0, 0, 0, 0, 0], "stateRewards": ["", -10, 10, 10, 10, -10, 10, 10, -10, 10, 10, 10, -10, -10, 10, 10, -10, 10, -10, 10, 10, 10, 10, 10, 10, -10, -10, -10, -10, 10, 10, -10, 10, -10], "withholdReward": false, "trial_id": "practice_1", "block": "test", "trialIndex": 2, "score": 24, "costs": -9.5, "simulationMode": [null, null, null, null, null], "rewards": [10, 10, -10, 10, 10], "path": ["0", "0", "23", "24", "25", "30", "32"], "rt": [41122, 5, 8506, 354, 328], "actions": ["left", "left", "left", "down", "down"], "actionTimes": [45801, 46358, 55442, 56315, 57201], "queries": {"click": {"state": {"target": ["1", "2", "3", "8", "11", "9", "10", "7", "4", "6", "5", "23", "24", "26", "25", "29", "28", "27", "33"], "time": [6876, 8280, 10249, 11658, 12869, 14534, 16367, 20040, 21236, 22550, 25130, 30235, 31646, 34590, 36052, 37730, 39894, 41266, 43391]}, "edge": {"target": [], "time": []}}, "mouseover": {"state": {"target": ["1", "2", "2", "3", "3", "8", "11", "9", "10", "2", "7", "7", "4", "6", "5", "5", "3", "10", "26", "24", "23", "23", "24", "28", "26", "26", "25", "27", "29", "27", "28", "27", "33", "30"], "time": [6381, 7478, 7936, 8726, 9834, 11187, 12333, 13797, 15897, 17457, 17797, 19460, 20945, 21805, 24147, 24414, 27602, 28439, 28579, 29061, 29179, 29629, 30817, 32228, 33699, 34079, 35683, 36851, 37326, 38222, 39228, 40767, 42839, 43736]}, "edge": {"target": [], "time": []}}, "mouseout": {"state": {"target": ["0", "1", "2", "2", "3", "3", "8", "11", "9", "9", "10", "2", "7", "7", "4", "6", "5", "5", "5", "3", "10", "26", "24", "23", "23", "24", "28", "26", "26", "25", "27", "29", "27", "28", "27", "33", "30"], "time": [3094, 7269, 7625, 8383, 8773, 10992, 12194, 13563, 14640, 15634, 17383, 17487, 17978, 20825, 21723, 23979, 24180, 25235, 27480, 27638, 28488, 28728, 29146, 29311, 30739, 31771, 33247, 33751, 35388, 36135, 36894, 37855, 39099, 40685, 41738, 43677, 44440]}, "edge": {"target": [], "time": []}}}, "displayed_time": "57.74", "trialTime": 63344, "trial_type": "mouselab-mdp", "trial_index": 10, "time_elapsed": 878213, "internal_node_id": "0.0-2.1-2.1-0.1"}}, {"uniqueid": "w68734620:a49267290", "current_trial": 11, "dateTime": 1691160295845, "trialdata": {"revealed_states": [], "clicked_states": ["23", "24", "25", "30", "33", "31", "32", "12", "13", "14", "19", "21", "22", "20", "15", "18", "17", "16", "1", "2", "7", "3", "8", "11", "10", "9", "4", "5", "6"], "num_clicks_accrued": [0, 0, 0, 0, 0, 0, 0, 0, 0, 0, 0, 0, 0], "stateRewards": ["", -10, -10, 10, 10, -10, 10, -10, 10, 10, 10, -10, -10, -10, 10, -10, 10, -10, 10, 10, -10, -10, -10, 10, -10, 10, 10, -10, 10, 10, -10, -10, 10, -10], "withholdReward": false, "trial_id": "practice_2", "block": "test", "trialIndex": 3, "score": -1, "costs": -14.5, "simulationMode": [null, null, null, null, null], "rewards": [-10, -10, 10, 10, 10], "path": ["0", "0", "1", "2", "3", "8", "10"], "rt": [50774, 62, 379, 2022, 1778], "actions": ["up", "up", "up", "left", "down"], "actionTimes": [61568, 62158, 63106, 65660, 67971], "queries": {"click": {"state": {"target": ["23", "24", "25", "30", "33", "31", "32", "12", "13", "14", "19", "21", "22", "20", "15", "18", "17", "16", "1", "2", "7", "3", "8", "11", "10", "9", "4", "5", "6"], "time": [13022, 14171, 15929, 18967, 20583, 21781, 23221, 25227, 26529, 28386, 30175, 31348, 32596, 33936, 35950, 37019, 38108, 39348, 41776, 43470, 44867, 46404, 47669, 49657, 51200, 52969, 55628, 58067, 59622]}, "edge": {"target": [], "time": []}}, "mouseover": {"state": {"target": ["23", "23", "24", "25", "30", "30", "33", "31", "32", "12", "12", "12", "13", "14", "19", "21", "22", "20", "14", "18", "15", "18", "17", "16", "1", "2", "7", "3", "8", "11", "10", "8", "9", "5", "4", "6", "5", "6"], "time": [12020, 12542, 13755, 14807, 17162, 18329, 20312, 21279, 22791, 24043, 24328, 24729, 26073, 27850, 29828, 30963, 32146, 33357, 34920, 35001, 35344, 36600, 37740, 38662, 39937, 42753, 44472, 45767, 47255, 49125, 50776, 52011, 52106, 54398, 54795, 56239, 57519, 58861]}, "edge": {"target": [], "time": []}}, "mouseout": {"state": {"target": ["31", "0", "23", "23", "24", "25", "25", "30", "30", "33", "31", "31", "32", "12", "12", "12", "13", "14", "19", "19", "21", "22", "19", "20", "14", "18", "15", "18", "15", "17", "16", "1", "2", "7", "3", "8", "11", "8", "10", "8", "9", "5", "4", "6", "5", "5"], "time": [8219, 11981, 12060, 13642, 14760, 16047, 16802, 17817, 19892, 20684, 21884, 22551, 23322, 24101, 24379, 26020, 26630, 29684, 30298, 30905, 31449, 33192, 33300, 34032, 34987, 35295, 36500, 37554, 37646, 38593, 39777, 42599, 44390, 44968, 47212, 47787, 50550, 50660, 51293, 52060, 53071, 54478, 56192, 57461, 58169, 58744]}, "edge": {"target": [], "time": []}}}, "displayed_time": "68.51", "trialTime": 73173, "trial_type": "mouselab-mdp", "trial_index": 11, "time_elapsed": 953343, "internal_node_id": "0.0-2.1-2.1-1.1"}}, {"uniqueid": "w68734620:a49267290", "current_trial": 12, "dateTime": 1691160312020, "trialdata": {"view_history": [{"page_index": 0, "viewing_time": 12059}, {"page_index": 1, "viewing_time": 4097}], "rt": 16159, "trial_id": "mouselab_instructions_2_misaligned", "trial_type": "instructions", "trial_index": 12, "time_elapsed": 969520, "internal_node_id": "0.0-2.1-3.1"}}, {"uniqueid": "w68734620:a49267290", "current_trial": 13, "dateTime": 1691160401851, "trialdata": {"rt": 89816, "response": {"Q0": "The cost for clicking on nodes may vary between nodes.", "Q1": "I will receive a $1 bonus if I perform well, otherwise I will receive no bonus.", "Q2": "No, the amount of cash at each node of the web may be different each time.", "Q3": "To get the highest total score.", "Q4": "Only before moving the spider.", "Q5": "3 seconds"}, "question_order": [0, 1, 2, 3, 4, 5], "correct": {"Q0": "The cost for clicking on nodes may vary between nodes.", "Q1": "The better I perform the higher my bonus will be.", "Q2": "No, the amount of cash at each node of the web may be different each time.", "Q3": "To get the highest total score.", "Q4": "Only before moving the spider.", "Q5": "3 seconds"}, "trial_id": "mouselab_quiz_misaligned", "trial_type": "survey-multi-choice", "trial_index": 13, "time_elapsed": 1059351, "internal_node_id": "0.0-2.1-4.1"}}, {"uniqueid": "w68734620:a49267290", "current_trial": 14, "dateTime": 1691160412402, "trialdata": {"success": true, "trial_type": "fullscreen", "trial_index": 14, "time_elapsed": 1069902, "internal_node_id": "0.0-2.2-0.2"}}, {"uniqueid": "w68734620:a49267290", "current_trial": 15, "dateTime": 1691160489440, "trialdata": {"view_history": [{"page_index": 0, "viewing_time": 11541}, {"page_index": 1, "viewing_time": 24269}, {"page_index": 2, "viewing_time": 12589}, {"page_index": 3, "viewing_time": 28626}], "rt": 77025, "trial_id": "mouselab_instructions_1_misaligned", "trial_type": "instructions", "trial_index": 15, "time_elapsed": 1146939, "internal_node_id": "0.0-2.2-1.2"}}, {"uniqueid": "w68734620:a49267290", "current_trial": 16, "dateTime": 1691160537460, "trialdata": {"revealed_states": [], "clicked_states": ["23", "24", "25"], "num_clicks_accrued": [0, 0, 0, 0, 0, 0, 0, 0, 0, 0, 0, 0, 0], "stateRewards": ["", -10, 10, 10, 10, -10, 10, 10, -10, 10, 10, 10, -10, -10, 10, 10, -10, 10, -10, 10, 10, 10, 10, 10, 10, -10, -10, -10, -10, 10, 10, -10, 10, -10], "withholdReward": false, "trial_id": "practice_1", "block": "test", "trialIndex": 4, "score": -8, "costs": -1.5, "simulationMode": [null, null, null, null, null], "rewards": [10, 10, -10, -10, -10], "path": ["0", "0", "23", "24", "25", "26", "27"], "rt": [7890, 453, 17754, 3446, 644], "actions": ["left", "left", "left", "up", "up"], "actionTimes": [11420, 12401, 30697, 34708, 35887], "queries": {"click": {"state": {"target": ["23", "24", "25"], "time": [6437, 7579, 8993]}, "edge": {"target": [], "time": []}}, "mouseover": {"state": {"target": ["0", "23", "23", "24", "25"], "time": [3624, 4837, 5883, 7216, 8610]}, "edge": {"target": [], "time": []}}, "mouseout": {"state": {"target": ["0", "0", "23", "23", "24", "25", "25"], "time": [1821, 4754, 5087, 7146, 8267, 9096, 14670]}, "edge": {"target": [], "time": []}}}, "displayed_time": "36.43", "trialTime": 45946, "trial_type": "mouselab-mdp", "trial_index": 16, "time_elapsed": 1194958, "internal_node_id": "0.0-2.2-2.2-0.2"}}, {"uniqueid": "w68734620:a49267290", "current_trial": 17, "dateTime": 1691160575469, "trialdata": {"revealed_states": [], "clicked_states": ["1", "2", "3", "8", "11", "23", "24", "25", "26", "27", "28", "29"], "num_clicks_accrued": [0, 0, 0, 0, 0, 0, 0, 0, 0, 0, 0, 0, 0], "stateRewards": ["", -10, -10, 10, 10, -10, 10, -10, 10, 10, 10, -10, -10, -10, 10, -10, 10, -10, 10, 10, -10, -10, -10, 10, -10, 10, 10, -10, 10, 10, -10, -10, 10, -10], "withholdReward": false, "trial_id": "practice_2", "block": "test", "trialIndex": 5, "score": 27.5, "costs": -6, "simulationMode": [null, null, null, null, null], "rewards": [10, -10, 10, 10, 10], "path": ["0", "0", "23", "24", "25", "26", "29"], "rt": [19895, 273, 46, 288, 312], "actions": ["left", "left", "left", "up", "left"], "actionTimes": [23654, 24457, 25050, 25887, 26739], "queries": {"click": {"state": {"target": ["1", "2", "3", "8", "11", "23", "24", "25", "26", "27", "28", "29"], "time": [7462, 8627, 9932, 11136, 12186, 13927, 15082, 16222, 18183, 19357, 20467, 21722]}, "edge": {"target": [], "time": []}}, "mouseover": {"state": {"target": ["1", "1", "2", "3", "8", "11", "23", "24", "25", "26", "27", "28", "29"], "time": [5869, 6844, 8179, 9406, 10639, 11724, 13118, 14594, 15708, 17642, 18866, 20006, 21316]}, "edge": {"target": [], "time": []}}, "mouseout": {"state": {"target": ["30", "31", "0", "1", "1", "2", "3", "8", "11", "23", "24", "25", "25", "25", "26", "27", "28", "29"], "time": [1627, 1660, 5800, 5950, 8062, 9350, 10557, 11244, 13039, 14438, 15627, 16315, 17225, 17552, 18785, 19818, 20562, 21876]}, "edge": {"target": [], "time": []}}}, "displayed_time": "27.27", "trialTime": 35928, "trial_type": "mouselab-mdp", "trial_index": 17, "time_elapsed": 1232966, "internal_node_id": "0.0-2.2-2.2-1.2"}}, {"uniqueid": "w68734620:a49267290", "current_trial": 18, "dateTime": 1691160590796, "trialdata": {"view_history": [{"page_index": 0, "viewing_time": 11929}, {"page_index": 1, "viewing_time": 3378}], "rt": 15309, "trial_id": "mouselab_instructions_2_misaligned", "trial_type": "instructions", "trial_index": 18, "time_elapsed": 1248296, "internal_node_id": "0.0-2.2-3.2"}}, {"uniqueid": "w68734620:a49267290", "current_trial": 19, "dateTime": 1691160657090, "trialdata": {"rt": 66276, "response": {"Q0": "The cost for clicking on nodes may vary between nodes.", "Q1": "I will receive a $1 bonus if I perform well, otherwise I will receive no bonus.", "Q2": "No, the amount of cash at each node of the web may be different each time.", "Q3": "To get the highest total score.", "Q4": "Only before moving the spider.", "Q5": "3 seconds"}, "question_order": [0, 1, 2, 3, 4, 5], "correct": {"Q0": "The cost for clicking on nodes may vary between nodes.", "Q1": "The better I perform the higher my bonus will be.", "Q2": "No, the amount of cash at each node of the web may be different each time.", "Q3": "To get the highest total score.", "Q4": "Only before moving the spider.", "Q5": "3 seconds"}, "trial_id": "mouselab_quiz_misaligned", "trial_type": "survey-multi-choice", "trial_index": 19, "time_elapsed": 1314590, "internal_node_id": "0.0-2.2-4.2"}}], "questiondata": {"params": {"CODE": "C6DMOQA6", "MIN_TIME": 14, "inspectCost": 1, "startTime": "Fri Aug 04 2023 16:29:00 GMT+0200 (South Africa Standard Time)", "bonusRate": 0.002, "variance": "1_2_4_8_44", "branching": "31123"}}, "eventdata": [{"eventtype": "initialized", "value": null, "timestamp": 1691159339347, "interval": 0}, {"eventtype": "window_resize", "value": [1024, 654], "timestamp": 1691159339347, "interval": 0}, {"eventtype": "window_resize", "value": [1024, 654], "timestamp": 1691159340054, "interval": 707}, {"eventtype": "window_resize", "value": [1366, 768], "timestamp": 1691159350566, "interval": 10512}, {"eventtype": "focus", "value": "off", "timestamp": 1691160056500, "interval": 705934}, {"eventtype": "focus", "value": "on", "timestamp": 1691160056501, "interval": 1}, {"eventtype": "window_resize", "value": [1024, 654], "timestamp": 1691160056776, "interval": 275}, {"eventtype": "window_resize", "value": [1366, 768], "timestamp": 1691160059976, "interval": 3200}, {"eventtype": "focus", "value": "off", "timestamp": 1691160408334, "interval": 348358}, {"eventtype": "focus", "value": "on", "timestamp": 1691160408340, "interval": 6}, {"eventtype": "window_resize", "value": [1024, 654], "timestamp": 1691160408621, "interval": 281}, {"eventtype": "window_resize", "value": [1366, 768], "timestamp": 1691160411804, "interval": 3183}, {"eventtype": "focus", "value": "off", "timestamp": 1691160663035, "interval": 251231}, {"eventtype": "focus", "value": "on", "timestamp": 1691160663045, "interval": 10}, {"eventtype": "window_resize", "value": [1024, 654], "timestamp": 1691160663305, "interval": 260}], "useragent": "Mozilla/5.0 (Windows NT 10.0; Win64; x64) AppleWebKit/537.36 (KHTML, like Gecko) Chrome/115.0.0.0 Safari/537.36", "mode": "live", "id": "w68734620:a49267290", "status": "user data saved", "Beginhit": "2023-08-04 14:30:56.395595", "Beginexp": "2023-08-04 14:31:14.319151", "Endhit": null, "psiturkStatus": 6, "browser": "<redacted>", "platform": "windows", "language": "en-GB", "excludeReason": "quizfail"}