{"condition": 1, "counterbalance": 0, "assignmentId": "a73303712", "workerId": "w97047235", "hitId": "h89832689", "currenttrial": 14, "bonus": 0, "data": [{"uniqueid": "w97047235:a73303712", "current_trial": 0, "dateTime": 1693388932839, "trialdata": {"success": true, "trial_type": "fullscreen", "trial_index": 0, "time_elapsed": 25809, "internal_node_id": "0.0-0.0"}}, {"uniqueid": "w97047235:a73303712", "current_trial": 1, "dateTime": 1693388963425, "trialdata": {"view_history": [{"page_index": 0, "viewing_time": 30581}], "rt": 30582, "trial_id": "exp_instructions_misaligned", "trial_type": "instructions", "trial_index": 1, "time_elapsed": 56396, "internal_node_id": "0.0-1.0"}}, {"uniqueid": "w97047235:a73303712", "current_trial": 2, "dateTime": 1693389439178, "trialdata": {"view_history": [{"page_index": 0, "viewing_time": 83304}, {"page_index": 1, "viewing_time": 244020}, {"page_index": 2, "viewing_time": 20666}, {"page_index": 3, "viewing_time": 127760}], "rt": 475750, "trial_id": "mouselab_instructions_1_misaligned", "trial_type": "instructions", "trial_index": 2, "time_elapsed": 532149, "internal_node_id": "0.0-2.0-1.0"}}, {"uniqueid": "w97047235:a73303712", "current_trial": 3, "dateTime": 1693389468104, "trialdata": {"revealed_states": [], "clicked_states": [], "num_clicks_accrued": [0, 0, 0, 0, 0, 0, 0, 0, 0, 0, 0, 0, 0], "stateRewards": ["", 10, -10, 10, -10, 10, -10, 10, -10, 10, 10, 10, 10, -10, 10, 10, 10, -10, 10, 10, -10, 10, 10, 10, -10, 10, 10, 10, -10, -10, -10, -10, -10, -10], "withholdReward": false, "trial_id": "practice_1", "block": "test", "trialIndex": 0, "score": 13.5, "costs": 0, "simulationMode": [null, null, null, null, null], "rewards": [10, -10, 10, -10, 10], "path": ["0", "0", "1", "2", "3", "8", "11"], "rt": [3197, 2317, 11252, 1470, 24], "actions": ["up", "up", "up", "left", "left"], "actionTimes": [5689, 8519, 20287, 22264, 22798], "queries": {"click": {"state": {"target": [], "time": []}, "edge": {"target": [], "time": []}}, "mouseover": {"state": {"target": ["12"], "time": [4287]}, "edge": {"target": [], "time": []}}, "mouseout": {"state": {"target": ["0", "12", "15", "2", "2", "7"], "time": [1889, 4301, 14346, 14564, 15516, 15546]}, "edge": {"target": [], "time": []}}}, "displayed_time": "23.31", "trialTime": 27859, "trial_type": "mouselab-mdp", "trial_index": 3, "time_elapsed": 561074, "internal_node_id": "0.0-2.0-2.0-0.0"}}, {"uniqueid": "w97047235:a73303712", "current_trial": 4, "dateTime": 1693389489994, "trialdata": {"revealed_states": [], "clicked_states": [], "num_clicks_accrued": [0, 0, 0, 0, 0, 0, 0, 0, 0, 0, 0, 0, 0], "stateRewards": ["", -10, -10, -10, 10, 10, 10, 10, 10, -10, 10, -10, 10, 10, -10, -10, 10, 10, 10, 10, 10, 10, 10, 10, 10, -10, 10, -10, -10, 10, -10, -10, -10, 10], "withholdReward": false, "trial_id": "practice_2", "block": "test", "trialIndex": 1, "score": -6.5, "costs": 0, "simulationMode": [null, null, null, null, null], "rewards": [-10, -10, -10, 10, 10], "path": ["0", "0", "1", "2", "3", "4", "7"], "rt": [2134, 206, 201, 92, 327], "actions": ["up", "up", "up", "right", "down"], "actionTimes": [15793, 16513, 17227, 17832, 18667], "queries": {"click": {"state": {"target": [], "time": []}, "edge": {"target": [], "time": []}}, "mouseover": {"state": {"target": [], "time": []}, "edge": {"target": [], "time": []}}, "mouseout": {"state": {"target": ["31", "33", "33", "30", "23"], "time": [12659, 12675, 12908, 12975, 13241]}, "edge": {"target": [], "time": []}}}, "displayed_time": "19.17", "trialTime": 21780, "trial_type": "mouselab-mdp", "trial_index": 4, "time_elapsed": 582964, "internal_node_id": "0.0-2.0-2.0-1.0"}}, {"uniqueid": "w97047235:a73303712", "current_trial": 5, "dateTime": 1693389518039, "trialdata": {"view_history": [{"page_index": 0, "viewing_time": 17254}, {"page_index": 1, "viewing_time": 10788}], "rt": 28043, "trial_id": "mouselab_instructions_2_misaligned", "trial_type": "instructions", "trial_index": 5, "time_elapsed": 611010, "internal_node_id": "0.0-2.0-3.0"}}, {"uniqueid": "w97047235:a73303712", "current_trial": 6, "dateTime": 1693389612085, "trialdata": {"rt": 94043, "response": {"Q0": "The cost for clicking on nodes may vary between nodes.", "Q1": "I will receive a $1 bonus regardless of my performance.", "Q2": "No, the structure of the web will be different each time.", "Q3": "To click on the least number of nodes.", "Q4": "Only before moving the spider.", "Q5": "1 second"}, "question_order": [0, 1, 2, 3, 4, 5], "correct": {"Q0": "The cost for clicking on nodes may vary between nodes.", "Q1": "The better I perform the higher my bonus will be.", "Q2": "No, the amount of cash at each node of the web may be different each time.", "Q3": "To get the highest total score.", "Q4": "Only before moving the spider.", "Q5": "3 seconds"}, "trial_id": "mouselab_quiz_misaligned", "trial_type": "survey-multi-choice", "trial_index": 6, "time_elapsed": 705056, "internal_node_id": "0.0-2.0-4.0"}}, {"uniqueid": "w97047235:a73303712", "current_trial": 7, "dateTime": 1693389620358, "trialdata": {"success": true, "trial_type": "fullscreen", "trial_index": 7, "time_elapsed": 713329, "internal_node_id": "0.0-2.1-0.1-0.1"}}, {"uniqueid": "w97047235:a73303712", "current_trial": 8, "dateTime": 1693389856698, "trialdata": {"view_history": [{"page_index": 0, "viewing_time": 84319}, {"page_index": 1, "viewing_time": 86358}, {"page_index": 2, "viewing_time": 15100}, {"page_index": 3, "viewing_time": 50560}], "rt": 236337, "trial_id": "mouselab_instructions_1_misaligned", "trial_type": "instructions", "trial_index": 8, "time_elapsed": 949669, "internal_node_id": "0.0-2.1-1.1"}}, {"uniqueid": "w97047235:a73303712", "current_trial": 9, "dateTime": 1693389875197, "trialdata": {"revealed_states": [], "clicked_states": ["23"], "num_clicks_accrued": [0, 0, 0, 0, 0, 0, 0, 0, 0, 0, 0, 0, 0], "stateRewards": ["", 10, -10, 10, -10, 10, -10, 10, -10, 10, 10, 10, 10, -10, 10, 10, 10, -10, 10, 10, -10, 10, 10, 10, -10, 10, 10, 10, -10, -10, -10, -10, -10, -10], "withholdReward": false, "trial_id": "practice_1", "block": "test", "trialIndex": 2, "score": -7, "costs": -0.5, "simulationMode": [null, null, null, null, null], "rewards": [10, -10, 10, -10, -10], "path": ["0", "0", "23", "24", "25", "30", "31"], "rt": [4672, 57, 154, 3587, 2984], "actions": ["left", "left", "left", "down", "right"], "actionTimes": [6744, 7311, 7991, 12090, 15569], "queries": {"click": {"state": {"target": ["23"], "time": [4099]}, "edge": {"target": [], "time": []}}, "mouseover": {"state": {"target": ["23", "0", "12"], "time": [3720, 4187, 4205]}, "edge": {"target": [], "time": []}}, "mouseout": {"state": {"target": ["0", "23", "0", "12"], "time": [1521, 4153, 4203, 4220]}, "edge": {"target": [], "time": []}}}, "displayed_time": "16.07", "trialTime": 18385, "trial_type": "mouselab-mdp", "trial_index": 9, "time_elapsed": 968167, "internal_node_id": "0.0-2.1-2.1-0.1"}}, {"uniqueid": "w97047235:a73303712", "current_trial": 10, "dateTime": 1693389889572, "trialdata": {"revealed_states": [], "clicked_states": [], "num_clicks_accrued": [0, 0, 0, 0, 0, 0, 0, 0, 0, 0, 0, 0, 0], "stateRewards": ["", -10, -10, -10, 10, 10, 10, 10, 10, -10, 10, -10, 10, 10, -10, -10, 10, 10, 10, 10, 10, 10, 10, 10, 10, -10, 10, -10, -10, 10, -10, -10, -10, 10], "withholdReward": false, "trial_id": "practice_2", "block": "test", "trialIndex": 3, "score": -6.5, "costs": 0, "simulationMode": [null, null, null, null, null], "rewards": [-10, -10, -10, 10, 10], "path": ["0", "0", "1", "2", "3", "4", "7"], "rt": [2742, 766, 428, 202, 2272], "actions": ["up", "up", "up", "right", "down"], "actionTimes": [6096, 7359, 8289, 9012, 11797], "queries": {"click": {"state": {"target": [], "time": []}, "edge": {"target": [], "time": []}}, "mouseover": {"state": {"target": ["18"], "time": [3594]}, "edge": {"target": [], "time": []}}, "mouseout": {"state": {"target": ["25", "24", "0"], "time": [2311, 2445, 2977]}, "edge": {"target": [], "time": []}}}, "displayed_time": "12.31", "trialTime": 14263, "trial_type": "mouselab-mdp", "trial_index": 10, "time_elapsed": 982543, "internal_node_id": "0.0-2.1-2.1-1.1"}}, {"uniqueid": "w97047235:a73303712", "current_trial": 11, "dateTime": 1693389937738, "trialdata": {"view_history": [{"page_index": 0, "viewing_time": 31463}, {"page_index": 1, "viewing_time": 16699}], "rt": 48163, "trial_id": "mouselab_instructions_2_misaligned", "trial_type": "instructions", "trial_index": 11, "time_elapsed": 1030709, "internal_node_id": "0.0-2.1-3.1"}}, {"uniqueid": "w97047235:a73303712", "current_trial": 12, "dateTime": 1693389995304, "trialdata": {"rt": 57564, "response": {"Q0": "The cost for clicking on nodes may vary between nodes.", "Q1": "The better I perform the higher my bonus will be.", "Q2": "No, the amount of cash at each node of the web may be different each time.", "Q3": "To get the highest total score.", "Q4": "Only after moving the spider.", "Q5": "3 seconds"}, "question_order": [0, 1, 2, 3, 4, 5], "correct": {"Q0": "The cost for clicking on nodes may vary between nodes.", "Q1": "The better I perform the higher my bonus will be.", "Q2": "No, the amount of cash at each node of the web may be different each time.", "Q3": "To get the highest total score.", "Q4": "Only before moving the spider.", "Q5": "3 seconds"}, "trial_id": "mouselab_quiz_misaligned", "trial_type": "survey-multi-choice", "trial_index": 12, "time_elapsed": 1088275, "internal_node_id": "0.0-2.1-4.1"}}, {"uniqueid": "w97047235:a73303712", "current_trial": 13, "dateTime": 1693390000802, "trialdata": {"success": true, "trial_type": "fullscreen", "trial_index": 13, "time_elapsed": 1093773, "internal_node_id": "0.0-2.2-0.2-0.2"}}], "questiondata": {"params": {"CODE": "C6DMOQA6", "MIN_TIME": 14, "inspectCost": 1, "startTime": "Wed Aug 30 2023 11:48:24 GMT+0200 (South Africa Standard Time)", "bonusRate": 0.002, "variance": "1_2_4_8_44", "branching": "31123"}}, "eventdata": [{"eventtype": "initialized", "value": null, "timestamp": 1693388903733, "interval": 0}, {"eventtype": "window_resize", "value": [1026, 775], "timestamp": 1693388903733, "interval": 0}, {"eventtype": "window_resize", "value": [1026, 775], "timestamp": 1693388904252, "interval": 519}, {"eventtype": "window_resize", "value": [1920, 1080], "timestamp": 1693388932055, "interval": 27803}, {"eventtype": "focus", "value": "off", "timestamp": 1693389617145, "interval": 685090}, {"eventtype": "focus", "value": "on", "timestamp": 1693389617145, "interval": 0}, {"eventtype": "window_resize", "value": [1026, 775], "timestamp": 1693389617355, "interval": 210}, {"eventtype": "window_resize", "value": [1920, 1080], "timestamp": 1693389619581, "interval": 2226}, {"eventtype": "focus", "value": "off", "timestamp": 1693389998061, "interval": 378480}, {"eventtype": "focus", "value": "on", "timestamp": 1693389998061, "interval": 0}, {"eventtype": "window_resize", "value": [1026, 775], "timestamp": 1693389998268, "interval": 207}, {"eventtype": "window_resize", "value": [1920, 1080], "timestamp": 1693390000040, "interval": 1772}, {"eventtype": "window_resize", "value": [1026, 775], "timestamp": 1693390004584, "interval": 4544}], "useragent": "Mozilla/5.0 (Windows NT 10.0; Win64; x64) AppleWebKit/537.36 (KHTML, like Gecko) Chrome/116.0.0.0 Safari/537.36", "mode": "live", "id": "w97047235:a73303712", "status": "user data saved", "Beginhit": "2023-08-30 09:48:20.372922", "Beginexp": "2023-08-30 09:48:52.585316", "Endhit": null, "psiturkStatus": 6, "browser": "<redacted>", "platform": "windows", "language": "en-US", "excludeReason": "quizfail"}