{"condition": 1, "counterbalance": 0, "assignmentId": "a60772695", "workerId": "w82349015", "hitId": "h75549394", "currenttrial": 7, "bonus": 0, "data": [{"uniqueid": "w82349015:a60772695", "current_trial": 0, "dateTime": 1693391343130, "trialdata": {"success": true, "trial_type": "fullscreen", "trial_index": 0, "time_elapsed": 2494, "internal_node_id": "0.0-0.0"}}, {"uniqueid": "w82349015:a60772695", "current_trial": 1, "dateTime": 1693391344158, "trialdata": {"view_history": [{"page_index": 0, "viewing_time": 1007}], "rt": 1008, "trial_id": "exp_instructions_misaligned", "trial_type": "instructions", "trial_index": 1, "time_elapsed": 3522, "internal_node_id": "0.0-1.0"}}, {"uniqueid": "w82349015:a60772695", "current_trial": 2, "dateTime": 1693391352250, "trialdata": {"view_history": [{"page_index": 0, "viewing_time": 1572}, {"page_index": 1, "viewing_time": 4052}, {"page_index": 2, "viewing_time": 1459}, {"page_index": 3, "viewing_time": 1000}], "rt": 8084, "trial_id": "mouselab_instructions_1_misaligned", "trial_type": "instructions", "trial_index": 2, "time_elapsed": 11615, "internal_node_id": "0.0-2.0-1.0"}}, {"uniqueid": "w82349015:a60772695", "current_trial": 3, "dateTime": 1693391367635, "trialdata": {"revealed_states": [], "clicked_states": [], "num_clicks_accrued": [0, 0, 0, 0, 0, 0, 0, 0, 0, 0, 0, 0, 0], "stateRewards": ["", 10, -10, -10, -10, 10, 10, -10, 10, 10, 10, -10, 10, -10, 10, 10, -10, -10, -10, 10, 10, 10, 10, 10, 10, -10, 10, -10, -10, -10, 10, -10, -10, -10], "withholdReward": false, "trial_id": "practice_1", "block": "test", "trialIndex": 0, "score": 13.5, "costs": 0, "simulationMode": [null, null, null, null, null], "rewards": [10, 10, -10, 10, -10], "path": ["0", "0", "23", "24", "25", "26", "28"], "rt": [3499, 275, 214, 114, 3891], "actions": ["left", "left", "left", "up", "right"], "actionTimes": [4829, 5633, 6376, 7026, 11438], "queries": {"click": {"state": {"target": [], "time": []}, "edge": {"target": [], "time": []}}, "mouseover": {"state": {"target": ["23", "24"], "time": [1807, 2014]}, "edge": {"target": [], "time": []}}, "mouseout": {"state": {"target": ["0", "23", "24", "28", "10", "26", "26", "25", "24", "23", "0", "23", "0", "12"], "time": [1765, 1863, 2362, 7014, 7177, 7568, 8309, 9306, 9361, 9399, 9678, 10281, 10713, 13976]}, "edge": {"target": [], "time": []}}}, "displayed_time": "11.98", "trialTime": 15167, "trial_type": "mouselab-mdp", "trial_index": 3, "time_elapsed": 27000, "internal_node_id": "0.0-2.0-2.0-0.0"}}, {"uniqueid": "w82349015:a60772695", "current_trial": 4, "dateTime": 1693391386018, "trialdata": {"revealed_states": [], "clicked_states": [], "num_clicks_accrued": [0, 0, 0, 0, 0, 0, 0, 0, 0, 0, 0, 0, 0], "stateRewards": ["", -10, -10, -10, -10, -10, 10, -10, 10, 10, 10, 10, 10, -10, -10, -10, 10, 10, 10, 10, -10, 10, -10, 10, 10, -10, -10, -10, -10, 10, -10, 10, -10, -10], "withholdReward": false, "trial_id": "practice_2", "block": "test", "trialIndex": 1, "score": -26.5, "costs": 0, "simulationMode": [null, null, null, null, null], "rewards": [-10, -10, -10, -10, 10], "path": ["0", "0", "1", "2", "3", "4", "6"], "rt": [3072, 3, 553, 361, 7604], "actions": ["up", "up", "up", "right", "right"], "actionTimes": [4750, 5260, 6344, 7220, 15360], "queries": {"click": {"state": {"target": [], "time": []}, "edge": {"target": [], "time": []}}, "mouseover": {"state": {"target": [], "time": []}, "edge": {"target": [], "time": []}}, "mouseout": {"state": {"target": ["0", "12"], "time": [9022, 10372]}, "edge": {"target": [], "time": []}}}, "displayed_time": "15.89", "trialTime": 18194, "trial_type": "mouselab-mdp", "trial_index": 4, "time_elapsed": 45383, "internal_node_id": "0.0-2.0-2.0-1.0"}}, {"uniqueid": "w82349015:a60772695", "current_trial": 5, "dateTime": 1693391394949, "trialdata": {"view_history": [{"page_index": 0, "viewing_time": 7527}, {"page_index": 1, "viewing_time": 1396}], "rt": 8923, "trial_id": "mouselab_instructions_2_misaligned", "trial_type": "instructions", "trial_index": 5, "time_elapsed": 54314, "internal_node_id": "0.0-2.0-3.0"}}, {"uniqueid": "w82349015:a60772695", "current_trial": 6, "dateTime": 1693391418180, "trialdata": {"rt": 23221, "response": {"Q0": "The cost for clicking on nodes may vary between nodes.", "Q1": "The better I perform the higher my bonus will be.", "Q2": "No, the structure of the web will be different each time.", "Q3": "To get the highest total score.", "Q4": "Only before moving the spider.", "Q5": "3 seconds"}, "question_order": [0, 1, 2, 3, 4, 5], "correct": {"Q0": "The cost for clicking on nodes may vary between nodes.", "Q1": "The better I perform the higher my bonus will be.", "Q2": "No, the amount of cash at each node of the web may be different each time.", "Q3": "To get the highest total score.", "Q4": "Only before moving the spider.", "Q5": "3 seconds"}, "trial_id": "mouselab_quiz_misaligned", "trial_type": "survey-multi-choice", "trial_index": 6, "time_elapsed": 77545, "internal_node_id": "0.0-2.0-4.0"}}], "questiondata": {"params": {"CODE": "C6DMOQA6", "MIN_TIME": 14, "inspectCost": 1, "startTime": "Wed Aug 30 2023 12:28:59 GMT+0200 (Mitteleurop\u00e4ische Sommerzeit)", "bonusRate": 0.002, "variance": "1_2_4_8_44", "branching": "31123"}}, "eventdata": [{"eventtype": "initialized", "value": null, "timestamp": 1693391339450, "interval": 0}, {"eventtype": "window_resize", "value": [1024, 740], "timestamp": 1693391339450, "interval": 0}, {"eventtype": "window_resize", "value": [1024, 740], "timestamp": 1693391339766, "interval": 316}, {"eventtype": "window_resize", "value": [2304, 1296], "timestamp": 1693391342356, "interval": 2590}, {"eventtype": "focus", "value": "off", "timestamp": 1693391421010, "interval": 78654}, {"eventtype": "focus", "value": "on", "timestamp": 1693391421011, "interval": 1}, {"eventtype": "window_resize", "value": [1024, 740], "timestamp": 1693391421215, "interval": 204}], "useragent": "Mozilla/5.0 (Macintosh; Intel Mac OS X 10_15_7) AppleWebKit/605.1.15 (KHTML, like Gecko) Version/16.6 Safari/605.1.15", "mode": "live", "id": "w82349015:a60772695", "status": "user data saved", "Beginhit": "2023-08-30 10:28:58.312786", "Beginexp": "2023-08-30 10:29:03.295832", "Endhit": null, "psiturkStatus": 6, "browser": "<redacted>", "platform": "macos", "language": "de-DE", "excludeReason": "quizfail"}