{"condition": 1, "counterbalance": 0, "assignmentId": "a92080994", "workerId": "w49830631", "hitId": "h22230583", "currenttrial": 56, "bonus": 0, "data": [{"uniqueid": "w49830631:a92080994", "current_trial": 0, "dateTime": 1693481071384, "trialdata": {"success": true, "trial_type": "fullscreen", "trial_index": 0, "time_elapsed": 7645, "internal_node_id": "0.0-0.0"}}, {"uniqueid": "w49830631:a92080994", "current_trial": 1, "dateTime": 1693481107943, "trialdata": {"view_history": [{"page_index": 0, "viewing_time": 36555}], "rt": 36556, "trial_id": "exp_instructions_misaligned", "trial_type": "instructions", "trial_index": 1, "time_elapsed": 44204, "internal_node_id": "0.0-1.0"}}, {"uniqueid": "w49830631:a92080994", "current_trial": 2, "dateTime": 1693481634729, "trialdata": {"view_history": [{"page_index": 0, "viewing_time": 123670}, {"page_index": 1, "viewing_time": 187608}, {"page_index": 2, "viewing_time": 65768}, {"page_index": 3, "viewing_time": 149738}], "rt": 526787, "trial_id": "mouselab_instructions_1_misaligned", "trial_type": "instructions", "trial_index": 2, "time_elapsed": 570989, "internal_node_id": "0.0-2.0-1.0"}}, {"uniqueid": "w49830631:a92080994", "current_trial": 3, "dateTime": 1693481657028, "trialdata": {"revealed_states": [], "clicked_states": [], "num_clicks_accrued": [0, 0, 0, 0, 0, 0, 0, 0, 0, 0, 0, 0, 0], "stateRewards": ["", 10, -10, 10, -10, 10, 10, -10, -10, -10, -10, -10, -10, 10, -10, -10, -10, -10, 10, 10, -10, 10, -10, -10, -10, -10, 10, 10, 10, 10, -10, -10, 10, 10], "withholdReward": false, "trial_id": "practice_1", "block": "test", "trialIndex": 0, "score": -6.5, "costs": 0, "simulationMode": [null, null, null, null, null], "rewards": [-10, -10, -10, 10, 10], "path": ["0", "0", "23", "24", "25", "26", "27"], "rt": [1593, 5225, 425, 1064, 325], "actions": ["left", "left", "left", "up", "up"], "actionTimes": [4084, 9811, 10731, 12291, 13107], "queries": {"click": {"state": {"target": [], "time": []}, "edge": {"target": [], "time": []}}, "mouseover": {"state": {"target": ["0"], "time": [3147]}, "edge": {"target": [], "time": []}}, "mouseout": {"state": {"target": ["24", "25", "31", "0", "0", "0", "23", "23", "0", "23", "24", "23", "0", "12", "13"], "time": [922, 1473, 1558, 1709, 3030, 5003, 5621, 6773, 7517, 8165, 15321, 15858, 16075, 16326, 16861]}, "edge": {"target": [], "time": []}}}, "displayed_time": "13.60", "trialTime": 21515, "trial_type": "mouselab-mdp", "trial_index": 3, "time_elapsed": 593289, "internal_node_id": "0.0-2.0-2.0-0.0"}}, {"uniqueid": "w49830631:a92080994", "current_trial": 4, "dateTime": 1693481689556, "trialdata": {"revealed_states": [], "clicked_states": ["23"], "num_clicks_accrued": [0, 0, 0, 0, 0, 0, 0, 0, 0, 0, 0, 0, 0], "stateRewards": ["", -10, 10, 10, 10, -10, -10, 10, 10, 10, 10, 10, -10, 10, 10, 10, -10, -10, -10, 10, -10, -10, -10, 10, 10, -10, -10, -10, 10, 10, 10, 10, -10, 10], "withholdReward": false, "trial_id": "practice_2", "block": "test", "trialIndex": 1, "score": 13, "costs": -0.5, "simulationMode": [null, null, null, null, null], "rewards": [10, 10, -10, -10, 10], "path": ["0", "0", "23", "24", "25", "26", "29"], "rt": [4782, 4026, 513, 1252, 3849], "actions": ["left", "left", "left", "up", "left"], "actionTimes": [9765, 14293, 15309, 17053, 21405], "queries": {"click": {"state": {"target": ["23"], "time": [6779]}, "edge": {"target": [], "time": []}}, "mouseover": {"state": {"target": ["23", "0", "12", "0"], "time": [6416, 7790, 8105, 8624]}, "edge": {"target": [], "time": []}}, "mouseout": {"state": {"target": ["0", "0", "23", "0", "12", "0", "23", "24", "23", "23"], "time": [4108, 6198, 7771, 8022, 8542, 8775, 11463, 13540, 13960, 24346]}, "edge": {"target": [], "time": []}}}, "displayed_time": "21.91", "trialTime": 32325, "trial_type": "mouselab-mdp", "trial_index": 4, "time_elapsed": 625817, "internal_node_id": "0.0-2.0-2.0-1.0"}}, {"uniqueid": "w49830631:a92080994", "current_trial": 5, "dateTime": 1693481772546, "trialdata": {"view_history": [{"page_index": 0, "viewing_time": 59220}, {"page_index": 1, "viewing_time": 23768}], "rt": 82988, "trial_id": "mouselab_instructions_2_misaligned", "trial_type": "instructions", "trial_index": 5, "time_elapsed": 708807, "internal_node_id": "0.0-2.0-3.0"}}, {"uniqueid": "w49830631:a92080994", "current_trial": 6, "dateTime": 1693481850234, "trialdata": {"rt": 77686, "response": {"Q0": "There is no cost for clicking on nodes.", "Q1": "The better I perform the higher my bonus will be.", "Q2": "No, the amount of cash at each node of the web may be different each time.", "Q3": "To get the highest total score.", "Q4": "Only before moving the spider.", "Q5": "3 seconds"}, "question_order": [0, 1, 2, 3, 4, 5], "correct": {"Q0": "The cost for clicking on nodes may vary between nodes.", "Q1": "The better I perform the higher my bonus will be.", "Q2": "No, the amount of cash at each node of the web may be different each time.", "Q3": "To get the highest total score.", "Q4": "Only before moving the spider.", "Q5": "3 seconds"}, "trial_id": "mouselab_quiz_misaligned", "trial_type": "survey-multi-choice", "trial_index": 6, "time_elapsed": 786495, "internal_node_id": "0.0-2.0-4.0"}}, {"uniqueid": "w49830631:a92080994", "current_trial": 7, "dateTime": 1693481867427, "trialdata": {"success": true, "trial_type": "fullscreen", "trial_index": 7, "time_elapsed": 803688, "internal_node_id": "0.0-2.1-0.1-0.1"}}, {"uniqueid": "w49830631:a92080994", "current_trial": 8, "dateTime": 1693481987169, "trialdata": {"view_history": [{"page_index": 0, "viewing_time": 38020}, {"page_index": 1, "viewing_time": 67616}, {"page_index": 2, "viewing_time": 5976}, {"page_index": 3, "viewing_time": 8128}], "rt": 119740, "trial_id": "mouselab_instructions_1_misaligned", "trial_type": "instructions", "trial_index": 8, "time_elapsed": 923430, "internal_node_id": "0.0-2.1-1.1"}}, {"uniqueid": "w49830631:a92080994", "current_trial": 9, "dateTime": 1693482007474, "trialdata": {"revealed_states": [], "clicked_states": ["1"], "num_clicks_accrued": [0, 0, 0, 0, 0, 0, 0, 0, 0, 0, 0, 0, 0], "stateRewards": ["", 10, -10, 10, -10, 10, 10, -10, -10, -10, -10, -10, -10, 10, -10, -10, -10, -10, 10, 10, -10, 10, -10, -10, -10, -10, 10, 10, 10, 10, -10, -10, 10, 10], "withholdReward": false, "trial_id": "practice_1", "block": "test", "trialIndex": 2, "score": -7, "costs": -0.5, "simulationMode": [null, null, null, null, null], "rewards": [10, -10, 10, -10, -10], "path": ["0", "0", "1", "2", "3", "8", "11"], "rt": [7230, 589, 471, 645, 331], "actions": ["up", "up", "up", "left", "left"], "actionTimes": [10132, 11211, 12179, 13323, 14147], "queries": {"click": {"state": {"target": ["1"], "time": [4448]}, "edge": {"target": [], "time": []}}, "mouseover": {"state": {"target": ["1", "12", "1", "1"], "time": [4013, 7642, 8679, 8997]}, "edge": {"target": [], "time": []}}, "mouseout": {"state": {"target": ["0", "0", "0", "1", "12", "1", "1", "1", "1", "13", "12"], "time": [634, 1352, 3845, 6840, 7759, 8797, 13396, 15570, 16690, 17594, 19499]}, "edge": {"target": [], "time": []}}}, "displayed_time": "14.65", "trialTime": 20091, "trial_type": "mouselab-mdp", "trial_index": 9, "time_elapsed": 943735, "internal_node_id": "0.0-2.1-2.1-0.1"}}, {"uniqueid": "w49830631:a92080994", "current_trial": 10, "dateTime": 1693482033010, "trialdata": {"revealed_states": [], "clicked_states": ["12"], "num_clicks_accrued": [0, 0, 0, 0, 0, 0, 0, 0, 0, 0, 0, 0, 0], "stateRewards": ["", -10, 10, 10, 10, -10, -10, 10, 10, 10, 10, 10, -10, 10, 10, 10, -10, -10, -10, 10, -10, -10, -10, 10, 10, -10, -10, -10, 10, 10, 10, 10, -10, 10], "withholdReward": false, "trial_id": "practice_2", "block": "test", "trialIndex": 3, "score": -7, "costs": -0.5, "simulationMode": [null, null, null, null, null], "rewards": [10, 10, -10, -10, -10], "path": ["0", "0", "23", "24", "25", "26", "27"], "rt": [7399, 1437, 585, 913, 516], "actions": ["left", "left", "left", "up", "up"], "actionTimes": [10157, 12093, 13181, 14597, 15605], "queries": {"click": {"state": {"target": ["12"], "time": [6963]}, "edge": {"target": [], "time": []}}, "mouseover": {"state": {"target": ["12"], "time": [3564]}, "edge": {"target": [], "time": []}}, "mouseout": {"state": {"target": ["12", "0", "0", "12", "22"], "time": [1522, 1606, 3330, 18817, 19087]}, "edge": {"target": [], "time": []}}}, "displayed_time": "16.11", "trialTime": 25325, "trial_type": "mouselab-mdp", "trial_index": 10, "time_elapsed": 969271, "internal_node_id": "0.0-2.1-2.1-1.1"}}, {"uniqueid": "w49830631:a92080994", "current_trial": 11, "dateTime": 1693482047593, "trialdata": {"view_history": [{"page_index": 0, "viewing_time": 10780}, {"page_index": 1, "viewing_time": 3800}], "rt": 14580, "trial_id": "mouselab_instructions_2_misaligned", "trial_type": "instructions", "trial_index": 11, "time_elapsed": 983854, "internal_node_id": "0.0-2.1-3.1"}}, {"uniqueid": "w49830631:a92080994", "current_trial": 12, "dateTime": 1693482086249, "trialdata": {"rt": 38655, "response": {"Q0": "The cost for clicking on nodes may vary between nodes.", "Q1": "The better I perform the higher my bonus will be.", "Q2": "No, the amount of cash at each node of the web may be different each time.", "Q3": "To get the highest total score.", "Q4": "Only before moving the spider.", "Q5": "3 seconds"}, "question_order": [0, 1, 2, 3, 4, 5], "correct": {"Q0": "The cost for clicking on nodes may vary between nodes.", "Q1": "The better I perform the higher my bonus will be.", "Q2": "No, the amount of cash at each node of the web may be different each time.", "Q3": "To get the highest total score.", "Q4": "Only before moving the spider.", "Q5": "3 seconds"}, "trial_id": "mouselab_quiz_misaligned", "trial_type": "survey-multi-choice", "trial_index": 12, "time_elapsed": 1022510, "internal_node_id": "0.0-2.1-4.1"}}, {"uniqueid": "w49830631:a92080994", "current_trial": 13, "dateTime": 1693482098425, "trialdata": {"rt": 12171, "response": {"Q0": "No"}, "question_order": [0], "trial_id": "repeat_check", "trial_type": "survey-multi-choice", "trial_index": 13, "time_elapsed": 1034686, "internal_node_id": "0.0-4.0-0.0"}}, {"uniqueid": "w49830631:a92080994", "current_trial": 14, "dateTime": 1693482130689, "trialdata": {"rt": 32261, "stimulus": "\n<h1> Get ready to start the game! </h1>\n\nThank you for reading the instructions. Get ready start with the 40 rounds of this game.\n<br><br>\nIf you need to take a break, feel free to take one after the end of a round, before continuing to the next one.\n<br><br>\nRemember, the more money the spider gets, the bigger your bonus will be!\n<br><br>\n<div style='text-align: center;'>Press <code>space</code> to begin.</div>\n\n<br><br>\n(If, at any point, the <code>space</code> key does not take you to the next page, click once on the text and try again.)", "response": " ", "trial_id": "mdp_ready", "trial_type": "html-keyboard-response", "trial_index": 14, "time_elapsed": 1066950, "internal_node_id": "0.0-6.0-0.0"}}, {"uniqueid": "w49830631:a92080994", "current_trial": 15, "dateTime": 1693482157074, "trialdata": {"revealed_states": [], "clicked_states": ["12"], "num_clicks_accrued": [0, 0, 0, 0, 0, 0, 0, 0, 0, 0, 0, 0, 0], "stateRewards": ["", 2, -1, -1, 7, 11, -40, -22, -2, 69, 37, 8, -2, 4, -8, -12, -2, -72, -3, -12, 17, 63, 12, 1, 3, -7, 6, 25, 61, 61, -9, 28, -17, 27], "withholdReward": false, "trial_id": "mdp_trial_1", "block": "test", "trialIndex": 4, "score": 45.25, "costs": 0.25, "simulationMode": [null, null, null, null, null], "rewards": [-2, 4, -8, -12, 63], "path": ["0", "0", "12", "13", "14", "19", "21"], "rt": [5067, 103, 653, 1403, 528], "actions": ["right", "right", "right", "down", "down"], "actionTimes": [7684, 8291, 9443, 11347, 12379], "queries": {"click": {"state": {"target": ["12"], "time": [4560]}, "edge": {"target": [], "time": []}}, "mouseover": {"state": {"target": ["12", "12", "12"], "time": [3304, 3571, 3901]}, "edge": {"target": [], "time": []}}, "mouseout": {"state": {"target": ["3", "4", "1", "0", "0", "12", "12", "12"], "time": [343, 476, 592, 643, 1462, 3520, 3604, 6616]}, "edge": {"target": [], "time": []}}}, "displayed_time": "16.62", "trialTime": 26163, "trial_type": "mouselab-mdp", "trial_index": 15, "time_elapsed": 1093334, "internal_node_id": "0.0-6.0-1.0-0.0"}}, {"uniqueid": "w49830631:a92080994", "current_trial": 16, "dateTime": 1693482188841, "trialdata": {"revealed_states": [], "clicked_states": ["23"], "num_clicks_accrued": [0, 0, 0, 0, 0, 0, 0, 0, 0, 0, 0, 0, 0], "stateRewards": ["", 1, 4, 5, -5, 58, -80, 75, 6, 25, -39, 46, 2, -2, 4, 2, 59, 31, -22, -12, -61, 15, 72, 1, -2, -7, 8, 77, 76, -23, -7, 71, -15, -3], "withholdReward": false, "trial_id": "mdp_trial_2", "block": "test", "trialIndex": 5, "score": 77.25, "costs": 0.25, "simulationMode": [null, null, null, null, null], "rewards": [1, -2, -7, 8, 77], "path": ["0", "0", "23", "24", "25", "26", "27"], "rt": [4477, 853, 586, 2499, 673], "actions": ["left", "left", "left", "up", "up"], "actionTimes": [6424, 7775, 8863, 11863, 13031], "queries": {"click": {"state": {"target": ["23"], "time": [4628]}, "edge": {"target": [], "time": []}}, "mouseover": {"state": {"target": ["1", "23"], "time": [3158, 3510]}, "edge": {"target": [], "time": []}}, "mouseout": {"state": {"target": ["0", "1", "23", "0", "0", "1", "0"], "time": [2338, 3425, 14533, 14716, 28680, 28864, 29199]}, "edge": {"target": [], "time": []}}}, "displayed_time": "15.95", "trialTime": 31527, "trial_type": "mouselab-mdp", "trial_index": 16, "time_elapsed": 1125102, "internal_node_id": "0.0-6.0-1.0-1.0"}}, {"uniqueid": "w49830631:a92080994", "current_trial": 17, "dateTime": 1693482210889, "trialdata": {"revealed_states": [], "clicked_states": ["1"], "num_clicks_accrued": [0, 0, 0, 0, 0, 0, 0, 0, 0, 0, 0, 0, 0], "stateRewards": ["", 1, 2, -3, -6, 50, -7, 7, -7, -80, 21, -1, 2, 2, 4, -1, 33, 84, 1, 14, -53, 81, 6, -2, -2, -3, -9, -87, -38, -59, -5, -74, -3, -71], "withholdReward": false, "trial_id": "mdp_trial_3", "block": "test", "trialIndex": 6, "score": -86.75, "costs": 0.25, "simulationMode": [null, null, null, null, null], "rewards": [1, 2, -3, -7, -80], "path": ["0", "0", "1", "2", "3", "8", "9"], "rt": [4503, 698, 621, 797, 1068], "actions": ["up", "up", "up", "left", "up"], "actionTimes": [7549, 8757, 9869, 11165, 12725], "queries": {"click": {"state": {"target": ["1"], "time": [6011]}, "edge": {"target": [], "time": []}}, "mouseover": {"state": {"target": ["1"], "time": [3625]}, "edge": {"target": [], "time": []}}, "mouseout": {"state": {"target": ["12", "0", "1", "0"], "time": [2036, 3566, 19348, 20551]}, "edge": {"target": [], "time": []}}}, "displayed_time": "17.05", "trialTime": 21797, "trial_type": "mouselab-mdp", "trial_index": 17, "time_elapsed": 1147150, "internal_node_id": "0.0-6.0-1.0-2.0"}}, {"uniqueid": "w49830631:a92080994", "current_trial": 18, "dateTime": 1693482250105, "trialdata": {"revealed_states": [], "clicked_states": ["23"], "num_clicks_accrued": [0, 0, 0, 0, 0, 0, 0, 0, 0, 0, 0, 0, 0], "stateRewards": ["", -2, 4, -7, -3, -76, 39, -28, 10, 14, 12, 60, 2, -3, 6, -10, 88, -34, -41, -3, 72, -13, -56, 1, 3, 2, 8, -51, 23, -57, 1, 14, -46, -16], "withholdReward": false, "trial_id": "mdp_trial_4", "block": "test", "trialIndex": 7, "score": -38.75, "costs": 0.25, "simulationMode": [null, null, null, null, null], "rewards": [1, 3, 2, 1, -46], "path": ["0", "0", "23", "24", "25", "30", "32"], "rt": [3925, 457, 720, 1068, 1200], "actions": ["left", "left", "left", "down", "down"], "actionTimes": [6149, 7101, 8317, 9885, 11589], "queries": {"click": {"state": {"target": ["23"], "time": [4937]}, "edge": {"target": [], "time": []}}, "mouseover": {"state": {"target": ["23"], "time": [3296]}, "edge": {"target": [], "time": []}}, "mouseout": {"state": {"target": ["0", "23", "0"], "time": [3245, 15423, 20583]}, "edge": {"target": [], "time": []}}}, "displayed_time": "16.23", "trialTime": 38957, "trial_type": "mouselab-mdp", "trial_index": 18, "time_elapsed": 1186365, "internal_node_id": "0.0-6.0-1.0-3.0"}}, {"uniqueid": "w49830631:a92080994", "current_trial": 19, "dateTime": 1693482273713, "trialdata": {"revealed_states": [], "clicked_states": ["23"], "num_clicks_accrued": [0, 0, 0, 0, 0, 0, 0, 0, 0, 0, 0, 0, 0], "stateRewards": ["", -2, -4, -2, -13, -15, 87, -19, -6, -80, 30, 12, 1, 1, -8, 2, 55, 56, 15, 11, -68, -7, 55, -2, 3, -3, -3, 48, 62, 4, 1, -3, 69, -33], "withholdReward": false, "trial_id": "mdp_trial_5", "block": "test", "trialIndex": 8, "score": 51.25, "costs": 0.25, "simulationMode": [null, null, null, null, null], "rewards": [1, 1, -8, 2, 55], "path": ["0", "0", "12", "13", "14", "15", "16"], "rt": [3567, 669, 625, 929, 683], "actions": ["right", "right", "right", "up", "up"], "actionTimes": [5226, 6409, 7537, 8961, 10138], "queries": {"click": {"state": {"target": ["23"], "time": [3207]}, "edge": {"target": [], "time": []}}, "mouseover": {"state": {"target": ["23", "0"], "time": [2360, 4402]}, "edge": {"target": [], "time": []}}, "mouseout": {"state": {"target": ["0", "0", "23", "0"], "time": [1123, 2043, 4369, 12051]}, "edge": {"target": [], "time": []}}}, "displayed_time": "15.66", "trialTime": 23346, "trial_type": "mouselab-mdp", "trial_index": 19, "time_elapsed": 1209974, "internal_node_id": "0.0-6.0-1.0-4.0"}}, {"uniqueid": "w49830631:a92080994", "current_trial": 20, "dateTime": 1693482295979, "trialdata": {"revealed_states": [], "clicked_states": ["1"], "num_clicks_accrued": [0, 0, 0, 0, 0, 0, 0, 0, 0, 0, 0, 0, 0], "stateRewards": ["", -1, 4, -8, 12, 14, 69, -8, 5, -72, -14, 56, -1, -1, -1, 9, 67, 19, 11, -9, -88, -58, 3, 2, -4, -8, 4, 62, 77, -74, 5, -31, 65, 88], "withholdReward": false, "trial_id": "mdp_trial_6", "block": "test", "trialIndex": 9, "score": 56.25, "costs": 0.25, "simulationMode": [null, null, null, null, null], "rewards": [2, -4, -8, 4, 62], "path": ["0", "0", "23", "24", "25", "26", "27"], "rt": [5885, 102, 388, 557, 456], "actions": ["left", "left", "left", "up", "up"], "actionTimes": [7191, 7798, 8686, 9743, 10694], "queries": {"click": {"state": {"target": ["1"], "time": [3612]}, "edge": {"target": [], "time": []}}, "mouseover": {"state": {"target": ["0", "1"], "time": [1825, 2377]}, "edge": {"target": [], "time": []}}, "mouseout": {"state": {"target": ["0", "0", "1"], "time": [1641, 1907, 14352]}, "edge": {"target": [], "time": []}}}, "displayed_time": "15.31", "trialTime": 21961, "trial_type": "mouselab-mdp", "trial_index": 20, "time_elapsed": 1232239, "internal_node_id": "0.0-6.0-1.0-5.0"}}, {"uniqueid": "w49830631:a92080994", "current_trial": 21, "dateTime": 1693482315240, "trialdata": {"revealed_states": [], "clicked_states": [], "num_clicks_accrued": [0, 0, 0, 0, 0, 0, 0, 0, 0, 0, 0, 0, 0], "stateRewards": ["", -1, -3, -7, -4, -85, -70, 79, 8, 84, -66, 42, 2, -2, -3, -16, -54, -66, 68, -3, 21, -14, 7, -2, -1, -3, -8, 75, 80, 86, -7, -84, 73, -16], "withholdReward": false, "trial_id": "mdp_trial_7", "block": "test", "trialIndex": 10, "score": 61, "costs": 0, "simulationMode": [null, null, null, null, null], "rewards": [-2, -1, -3, -8, 75], "path": ["0", "0", "23", "24", "25", "26", "27"], "rt": [7364, 96, 390, 792, 144], "actions": ["left", "left", "left", "up", "up"], "actionTimes": [8883, 9474, 10370, 11658, 12298], "queries": {"click": {"state": {"target": [], "time": []}, "edge": {"target": [], "time": []}}, "mouseover": {"state": {"target": ["12", "23", "23", "23"], "time": [2412, 3640, 7060, 8305]}, "edge": {"target": [], "time": []}}, "mouseout": {"state": {"target": ["0", "12", "23", "23", "23", "0", "0"], "time": [852, 2820, 6098, 7556, 14880, 15332, 17087]}, "edge": {"target": [], "time": []}}}, "displayed_time": "15.52", "trialTime": 18986, "trial_type": "mouselab-mdp", "trial_index": 21, "time_elapsed": 1251501, "internal_node_id": "0.0-6.0-1.0-6.0"}}, {"uniqueid": "w49830631:a92080994", "current_trial": 22, "dateTime": 1693482335113, "trialdata": {"revealed_states": [], "clicked_states": ["12"], "num_clicks_accrued": [0, 0, 0, 0, 0, 0, 0, 0, 0, 0, 0, 0, 0], "stateRewards": ["", -1, -3, 3, 5, 56, 39, 50, -1, -80, 33, -46, 1, -2, -6, -8, 87, 48, 54, -11, -20, -64, -54, -2, 3, -7, -3, 12, 88, 35, -16, -46, -70, -3], "withholdReward": false, "trial_id": "mdp_trial_8", "block": "test", "trialIndex": 11, "score": -81.75, "costs": 0.25, "simulationMode": [null, null, null, null, null], "rewards": [1, -2, -6, -11, -64], "path": ["0", "0", "12", "13", "14", "19", "21"], "rt": [2001, 33, 251, 713, 245], "actions": ["right", "right", "right", "down", "down"], "actionTimes": [4170, 4705, 5473, 6689, 7425], "queries": {"click": {"state": {"target": ["12"], "time": [3126]}, "edge": {"target": [], "time": []}}, "mouseover": {"state": {"target": ["12"], "time": [2645]}, "edge": {"target": [], "time": []}}, "mouseout": {"state": {"target": ["0", "12", "12"], "time": [2612, 8955, 9972]}, "edge": {"target": [], "time": []}}}, "displayed_time": "16.17", "trialTime": 19618, "trial_type": "mouselab-mdp", "trial_index": 22, "time_elapsed": 1271373, "internal_node_id": "0.0-6.0-1.0-7.0"}}, {"uniqueid": "w49830631:a92080994", "current_trial": 23, "dateTime": 1693482356265, "trialdata": {"revealed_states": [], "clicked_states": [], "num_clicks_accrued": [0, 0, 0, 0, 0, 0, 0, 0, 0, 0, 0, 0, 0], "stateRewards": ["", 2, 4, 4, -8, -36, -33, 38, 16, -51, 57, 57, 1, 3, 4, -6, 45, 68, 87, 1, 63, 24, -55, -2, 2, -6, -13, -63, -50, 8, 2, 80, 6, 60], "withholdReward": false, "trial_id": "mdp_trial_9", "block": "test", "trialIndex": 12, "score": 2, "costs": 0, "simulationMode": [null, null, null, null, null], "rewards": [-2, 2, -6, 2, 6], "path": ["0", "0", "23", "24", "25", "30", "32"], "rt": [987, 1697, 362, 637, 84], "actions": ["left", "left", "left", "down", "down"], "actionTimes": [3298, 5489, 6345, 7473, 8057], "queries": {"click": {"state": {"target": [], "time": []}, "edge": {"target": [], "time": []}}, "mouseover": {"state": {"target": [], "time": []}, "edge": {"target": [], "time": []}}, "mouseout": {"state": {"target": ["0", "0", "12", "0"], "time": [819, 1114, 1650, 4693]}, "edge": {"target": [], "time": []}}}, "displayed_time": "16.31", "trialTime": 20874, "trial_type": "mouselab-mdp", "trial_index": 23, "time_elapsed": 1292525, "internal_node_id": "0.0-6.0-1.0-8.0"}}, {"uniqueid": "w49830631:a92080994", "current_trial": 24, "dateTime": 1693482376247, "trialdata": {"revealed_states": [], "clicked_states": ["23"], "num_clicks_accrued": [0, 0, 0, 0, 0, 0, 0, 0, 0, 0, 0, 0, 0], "stateRewards": ["", 2, -1, 5, 8, 75, -35, -77, 1, -9, -81, -58, 1, 2, -7, 5, 77, -16, 19, 16, -10, -18, 40, -2, 3, 7, -5, 64, 1, -62, 10, 27, 10, 65], "withholdReward": false, "trial_id": "mdp_trial_10", "block": "test", "trialIndex": 13, "score": -14.75, "costs": 0.25, "simulationMode": [null, null, null, null, null], "rewards": [1, 2, -7, 5, -16], "path": ["0", "0", "12", "13", "14", "15", "17"], "rt": [3374, 267, 338, 1259, 1097], "actions": ["right", "right", "right", "up", "right"], "actionTimes": [5888, 6655, 7495, 9255, 10847], "queries": {"click": {"state": {"target": ["23"], "time": [3549]}, "edge": {"target": [], "time": []}}, "mouseover": {"state": {"target": ["23"], "time": [3026]}, "edge": {"target": [], "time": []}}, "mouseout": {"state": {"target": ["0", "23", "23"], "time": [2958, 13344, 13545]}, "edge": {"target": [], "time": []}}}, "displayed_time": "16.51", "trialTime": 19702, "trial_type": "mouselab-mdp", "trial_index": 24, "time_elapsed": 1312508, "internal_node_id": "0.0-6.0-1.0-9.0"}}, {"uniqueid": "w49830631:a92080994", "current_trial": 25, "dateTime": 1693482396896, "trialdata": {"revealed_states": [], "clicked_states": ["1"], "num_clicks_accrued": [0, 0, 0, 0, 0, 0, 0, 0, 0, 0, 0, 0, 0], "stateRewards": ["", 1, -2, 4, 7, -43, -83, -60, -5, -86, -80, 83, -1, -2, 6, 11, -15, 21, 13, 9, 29, -49, 11, -1, 4, -6, -11, 87, 40, 63, -8, -39, -11, 62], "withholdReward": false, "trial_id": "mdp_trial_11", "block": "test", "trialIndex": 14, "score": -32.75, "costs": 0.25, "simulationMode": [null, null, null, null, null], "rewards": [1, -2, 4, 7, -43], "path": ["0", "0", "1", "2", "3", "4", "5"], "rt": [2230, 443, 706, 791, 1063], "actions": ["up", "up", "up", "right", "up"], "actionTimes": [3415, 4351, 5551, 6839, 8399], "queries": {"click": {"state": {"target": ["1"], "time": [1965]}, "edge": {"target": [], "time": []}}, "mouseover": {"state": {"target": ["1"], "time": [1681]}, "edge": {"target": [], "time": []}}, "mouseout": {"state": {"target": ["1", "0"], "time": [10264, 10429]}, "edge": {"target": [], "time": []}}}, "displayed_time": "15.19", "trialTime": 20360, "trial_type": "mouselab-mdp", "trial_index": 25, "time_elapsed": 1333156, "internal_node_id": "0.0-6.0-1.0-10.0"}}, {"uniqueid": "w49830631:a92080994", "current_trial": 26, "dateTime": 1693482416759, "trialdata": {"revealed_states": [], "clicked_states": [], "num_clicks_accrued": [0, 0, 0, 0, 0, 0, 0, 0, 0, 0, 0, 0, 0], "stateRewards": ["", -2, -1, 3, -3, 71, -58, -21, 7, -10, -75, -37, 2, 4, -1, -12, -79, -29, -48, 3, -41, -10, -30, -1, -2, 1, -15, 13, 66, 22, -1, -42, -86, -55], "withholdReward": false, "trial_id": "mdp_trial_12", "block": "test", "trialIndex": 15, "score": 5, "costs": 0, "simulationMode": [null, null, null, null, null], "rewards": [-1, -2, 1, -15, 22], "path": ["0", "0", "23", "24", "25", "26", "29"], "rt": [1111, 538, 342, 705, 1030], "actions": ["left", "left", "left", "up", "left"], "actionTimes": [2918, 3950, 4790, 5990, 7518], "queries": {"click": {"state": {"target": [], "time": []}, "edge": {"target": [], "time": []}}, "mouseover": {"state": {"target": [], "time": []}, "edge": {"target": [], "time": []}}, "mouseout": {"state": {"target": ["0", "0"], "time": [295, 8947]}, "edge": {"target": [], "time": []}}}, "displayed_time": "15.81", "trialTime": 19590, "trial_type": "mouselab-mdp", "trial_index": 26, "time_elapsed": 1353020, "internal_node_id": "0.0-6.0-1.0-11.0"}}, {"uniqueid": "w49830631:a92080994", "current_trial": 27, "dateTime": 1693482436992, "trialdata": {"revealed_states": [], "clicked_states": ["12"], "num_clicks_accrued": [0, 0, 0, 0, 0, 0, 0, 0, 0, 0, 0, 0, 0], "stateRewards": ["", -1, -2, 8, -6, -79, -6, 87, 9, -5, -66, -38, 2, 2, 5, -6, -82, 74, 85, -8, 67, -30, -15, 1, -2, -2, -2, 87, 64, 49, 7, 2, -38, -9], "withholdReward": false, "trial_id": "mdp_trial_13", "block": "test", "trialIndex": 16, "score": -78.75, "costs": 0.25, "simulationMode": [null, null, null, null, null], "rewards": [2, 2, 5, -6, -82], "path": ["0", "0", "12", "13", "14", "15", "16"], "rt": [2463, 670, 476, 889, 710], "actions": ["right", "right", "right", "up", "up"], "actionTimes": [5070, 6258, 7234, 8618, 9826], "queries": {"click": {"state": {"target": ["12"], "time": [4104]}, "edge": {"target": [], "time": []}}, "mouseover": {"state": {"target": ["1", "0", "12"], "time": [3228, 3428, 3881]}, "edge": {"target": [], "time": []}}, "mouseout": {"state": {"target": ["0", "1", "0", "12"], "time": [2810, 3412, 3445, 11958]}, "edge": {"target": [], "time": []}}}, "displayed_time": "16.61", "trialTime": 19955, "trial_type": "mouselab-mdp", "trial_index": 27, "time_elapsed": 1373253, "internal_node_id": "0.0-6.0-1.0-12.0"}}, {"uniqueid": "w49830631:a92080994", "current_trial": 28, "dateTime": 1693482462384, "trialdata": {"revealed_states": [], "clicked_states": ["23"], "num_clicks_accrued": [0, 0, 0, 0, 0, 0, 0, 0, 0, 0, 0, 0, 0], "stateRewards": ["", -1, 4, 3, 12, -27, 34, -33, 3, -63, 1, 6, 2, 2, -6, -11, -77, -85, 68, -6, 51, 81, -60, -2, -2, 1, 15, 20, 15, 68, -10, -14, 6, -4], "withholdReward": false, "trial_id": "mdp_trial_14", "block": "test", "trialIndex": 17, "score": 43.25, "costs": 0.25, "simulationMode": [null, null, null, null, null], "rewards": [2, 2, -6, -6, 51], "path": ["0", "0", "12", "13", "14", "19", "20"], "rt": [2462, 364, 400, 584, 1553], "actions": ["right", "right", "right", "down", "right"], "actionTimes": [4251, 5107, 6011, 7099, 9155], "queries": {"click": {"state": {"target": ["23"], "time": [2649]}, "edge": {"target": [], "time": []}}, "mouseover": {"state": {"target": ["23"], "time": [2331]}, "edge": {"target": [], "time": []}}, "mouseout": {"state": {"target": ["0", "0", "23"], "time": [524, 2198, 10378]}, "edge": {"target": [], "time": []}}}, "displayed_time": "15.79", "trialTime": 25099, "trial_type": "mouselab-mdp", "trial_index": 28, "time_elapsed": 1398645, "internal_node_id": "0.0-6.0-1.0-13.0"}}, {"uniqueid": "w49830631:a92080994", "current_trial": 29, "dateTime": 1693482482544, "trialdata": {"revealed_states": [], "clicked_states": [], "num_clicks_accrued": [0, 0, 0, 0, 0, 0, 0, 0, 0, 0, 0, 0, 0], "stateRewards": ["", -1, 4, -5, 9, 29, -75, -42, -16, 24, -28, -41, 2, -3, 1, 10, 60, 47, 55, -1, -53, 22, -40, 2, -3, -6, 4, -26, 44, 54, 15, -76, 42, 14], "withholdReward": false, "trial_id": "mdp_trial_15", "block": "test", "trialIndex": 18, "score": -68, "costs": 0, "simulationMode": [null, null, null, null, null], "rewards": [2, -3, -6, 15, -76], "path": ["0", "0", "23", "24", "25", "30", "31"], "rt": [1510, 838, 14, 1359, 982], "actions": ["left", "left", "left", "down", "right"], "actionTimes": [3510, 4846, 5360, 7238, 8718], "queries": {"click": {"state": {"target": [], "time": []}, "edge": {"target": [], "time": []}}, "mouseover": {"state": {"target": [], "time": []}, "edge": {"target": [], "time": []}}, "mouseout": {"state": {"target": ["23", "0", "0", "23", "23", "0", "0", "23", "26", "11", "8", "7", "0", "18"], "time": [308, 2383, 3955, 10729, 10946, 11047, 12680, 12752, 12969, 14291, 14325, 14626, 17953, 18640]}, "edge": {"target": [], "time": []}}}, "displayed_time": "16.00", "trialTime": 19870, "trial_type": "mouselab-mdp", "trial_index": 29, "time_elapsed": 1418805, "internal_node_id": "0.0-6.0-1.0-14.0"}}, {"uniqueid": "w49830631:a92080994", "current_trial": 30, "dateTime": 1693482503968, "trialdata": {"revealed_states": [], "clicked_states": ["23"], "num_clicks_accrued": [0, 0, 0, 0, 0, 0, 0, 0, 0, 0, 0, 0, 0], "stateRewards": ["", -1, -3, -3, 1, -38, 2, -53, -2, -1, -81, 70, -1, 1, -5, -9, 46, 15, 35, -1, -22, 38, 59, -2, 4, -8, 13, 1, -83, -43, 4, 76, 13, 48], "withholdReward": false, "trial_id": "mdp_trial_16", "block": "test", "trialIndex": 19, "score": -89.75, "costs": 0.25, "simulationMode": [null, null, null, null, null], "rewards": [-1, -3, -3, -2, -81], "path": ["0", "0", "1", "2", "3", "8", "10"], "rt": [3130, 421, 406, 1020, 1517], "actions": ["up", "up", "up", "left", "down"], "actionTimes": [4070, 4990, 5894, 7414, 9429], "queries": {"click": {"state": {"target": ["23"], "time": [1795]}, "edge": {"target": [], "time": []}}, "mouseover": {"state": {"target": ["23", "0"], "time": [1456, 2828]}, "edge": {"target": [], "time": []}}, "mouseout": {"state": {"target": ["0", "23", "0", "0", "0"], "time": [536, 2627, 2860, 11424, 11608]}, "edge": {"target": [], "time": []}}}, "displayed_time": "14.94", "trialTime": 21149, "trial_type": "mouselab-mdp", "trial_index": 30, "time_elapsed": 1440228, "internal_node_id": "0.0-6.0-1.0-15.0"}}, {"uniqueid": "w49830631:a92080994", "current_trial": 31, "dateTime": 1693482523128, "trialdata": {"revealed_states": [], "clicked_states": ["23"], "num_clicks_accrued": [0, 0, 0, 0, 0, 0, 0, 0, 0, 0, 0, 0, 0], "stateRewards": ["", 2, 3, 8, 11, 25, -80, 6, -4, -56, 84, -23, -2, -4, -3, 4, -51, -9, -61, -15, -64, 67, -35, 1, -1, -7, -6, 83, 59, -15, 12, -79, 56, 41], "withholdReward": false, "trial_id": "mdp_trial_17", "block": "test", "trialIndex": 20, "score": 70.25, "costs": 0.25, "simulationMode": [null, null, null, null, null], "rewards": [1, -1, -7, -6, 83], "path": ["0", "0", "23", "24", "25", "26", "27"], "rt": [2911, 201, 303, 1021, 410], "actions": ["left", "left", "left", "up", "up"], "actionTimes": [4372, 5084, 5884, 7404, 8316], "queries": {"click": {"state": {"target": ["23"], "time": [3345]}, "edge": {"target": [], "time": []}}, "mouseover": {"state": {"target": ["23", "23"], "time": [2820, 3121]}, "edge": {"target": [], "time": []}}, "mouseout": {"state": {"target": ["23", "23", "0"], "time": [2973, 9409, 9895]}, "edge": {"target": [], "time": []}}}, "displayed_time": "15.46", "trialTime": 18860, "trial_type": "mouselab-mdp", "trial_index": 31, "time_elapsed": 1459388, "internal_node_id": "0.0-6.0-1.0-16.0"}}, {"uniqueid": "w49830631:a92080994", "current_trial": 32, "dateTime": 1693482541919, "trialdata": {"revealed_states": [], "clicked_states": ["1"], "num_clicks_accrued": [0, 0, 0, 0, 0, 0, 0, 0, 0, 0, 0, 0, 0], "stateRewards": ["", 1, -2, -2, 10, -31, -77, 35, 9, -47, 8, 48, -2, 1, -4, -3, -26, -50, 43, -11, 76, -38, 17, 1, -1, 6, 10, 15, -9, 12, -8, 85, 11, -55], "withholdReward": false, "trial_id": "mdp_trial_18", "block": "test", "trialIndex": 21, "score": 54.25, "costs": 0.25, "simulationMode": [null, null, null, null, null], "rewards": [1, -2, -2, 9, 48], "path": ["0", "0", "1", "2", "3", "8", "11"], "rt": [1894, 507, 471, 1269, 489], "actions": ["up", "up", "up", "left", "left"], "actionTimes": [3139, 4162, 5130, 6898, 7890], "queries": {"click": {"state": {"target": ["1"], "time": [2160]}, "edge": {"target": [], "time": []}}, "mouseover": {"state": {"target": ["1"], "time": [1780]}, "edge": {"target": [], "time": []}}, "mouseout": {"state": {"target": ["0", "1"], "time": [275, 9439]}, "edge": {"target": [], "time": []}}}, "displayed_time": "15.25", "trialTime": 18482, "trial_type": "mouselab-mdp", "trial_index": 32, "time_elapsed": 1478180, "internal_node_id": "0.0-6.0-1.0-17.0"}}, {"uniqueid": "w49830631:a92080994", "current_trial": 33, "dateTime": 1693482563103, "trialdata": {"revealed_states": [], "clicked_states": ["23"], "num_clicks_accrued": [0, 0, 0, 0, 0, 0, 0, 0, 0, 0, 0, 0, 0], "stateRewards": ["", 1, -3, -2, 14, 49, -40, -39, 2, 26, -61, 73, 1, -4, -8, 12, 79, 29, -65, -13, 55, -26, 27, -1, 3, 3, 9, -17, -60, -18, -8, 35, -88, 69], "withholdReward": false, "trial_id": "mdp_trial_19", "block": "test", "trialIndex": 22, "score": -90.75, "costs": 0.25, "simulationMode": [null, null, null, null, null], "rewards": [-1, 3, 3, -8, -88], "path": ["0", "0", "23", "24", "25", "30", "32"], "rt": [3441, 333, 393, 754, 253], "actions": ["left", "left", "left", "down", "down"], "actionTimes": [4772, 5619, 6515, 7763, 8515], "queries": {"click": {"state": {"target": ["23"], "time": [3938]}, "edge": {"target": [], "time": []}}, "mouseover": {"state": {"target": ["23"], "time": [3678]}, "edge": {"target": [], "time": []}}, "mouseout": {"state": {"target": ["23", "0", "0"], "time": [10168, 10502, 18780]}, "edge": {"target": [], "time": []}}}, "displayed_time": "15.33", "trialTime": 20875, "trial_type": "mouselab-mdp", "trial_index": 33, "time_elapsed": 1499363, "internal_node_id": "0.0-6.0-1.0-18.0"}}, {"uniqueid": "w49830631:a92080994", "current_trial": 34, "dateTime": 1693482581078, "trialdata": {"revealed_states": [], "clicked_states": ["12"], "num_clicks_accrued": [0, 0, 0, 0, 0, 0, 0, 0, 0, 0, 0, 0, 0], "stateRewards": ["", 1, 2, -3, -5, 66, -50, -47, -5, 1, 28, -27, 1, 1, -1, -6, 37, -25, 56, 1, -82, -66, -40, -1, -4, -7, 15, -61, -23, 26, 10, 14, -56, 29], "withholdReward": false, "trial_id": "mdp_trial_20", "block": "test", "trialIndex": 23, "score": -63.75, "costs": 0.25, "simulationMode": [null, null, null, null, null], "rewards": [1, 1, -1, 1, -66], "path": ["0", "0", "12", "13", "14", "19", "21"], "rt": [1933, 526, 288, 824, 510], "actions": ["right", "right", "right", "down", "down"], "actionTimes": [3129, 4168, 4952, 6272, 7280], "queries": {"click": {"state": {"target": ["12"], "time": [2126]}, "edge": {"target": [], "time": []}}, "mouseover": {"state": {"target": ["12"], "time": [1819]}, "edge": {"target": [], "time": []}}, "mouseout": {"state": {"target": ["12", "12", "12"], "time": [396, 9442, 16522]}, "edge": {"target": [], "time": []}}}, "displayed_time": "15.20", "trialTime": 17656, "trial_type": "mouselab-mdp", "trial_index": 34, "time_elapsed": 1517339, "internal_node_id": "0.0-6.0-1.0-19.0"}}, {"uniqueid": "w49830631:a92080994", "current_trial": 35, "dateTime": 1693482601863, "trialdata": {"revealed_states": [], "clicked_states": [], "num_clicks_accrued": [0, 0, 0, 0, 0, 0, 0, 0, 0, 0, 0, 0, 0], "stateRewards": ["", 1, -1, 1, -14, -10, 67, -28, -11, 72, 40, -65, -1, 1, 1, -2, 8, -55, 34, -10, 61, 33, -15, 2, -4, 7, 4, -75, 63, -21, -16, 61, 19, 21], "withholdReward": false, "trial_id": "mdp_trial_21", "block": "test", "trialIndex": 24, "score": 54, "costs": 0, "simulationMode": [null, null, null, null, null], "rewards": [1, -1, 1, -14, 67], "path": ["0", "0", "1", "2", "3", "4", "6"], "rt": [618, 700, 200, 1138, 202], "actions": ["up", "up", "up", "right", "right"], "actionTimes": [1815, 3015, 3719, 5359, 6063], "queries": {"click": {"state": {"target": [], "time": []}, "edge": {"target": [], "time": []}}, "mouseover": {"state": {"target": [], "time": []}, "edge": {"target": [], "time": []}}, "mouseout": {"state": {"target": ["0", "0"], "time": [409, 9823]}, "edge": {"target": [], "time": []}}}, "displayed_time": "15.20", "trialTime": 20471, "trial_type": "mouselab-mdp", "trial_index": 35, "time_elapsed": 1538123, "internal_node_id": "0.0-6.0-1.0-20.0"}}, {"uniqueid": "w49830631:a92080994", "current_trial": 36, "dateTime": 1693482623439, "trialdata": {"revealed_states": [], "clicked_states": ["12"], "num_clicks_accrued": [0, 0, 0, 0, 0, 0, 0, 0, 0, 0, 0, 0, 0], "stateRewards": ["", -1, 1, -5, -6, -78, 47, -13, 12, 48, -88, 20, 2, -3, -2, 13, -20, 37, -57, 14, -38, 30, 31, -2, -2, 8, 2, -23, 78, 28, 12, -74, -88, 8], "withholdReward": false, "trial_id": "mdp_trial_22", "block": "test", "trialIndex": 25, "score": -46.75, "costs": 0.25, "simulationMode": [null, null, null, null, null], "rewards": [2, -3, -2, 13, -57], "path": ["0", "0", "12", "13", "14", "15", "18"], "rt": [1750, 86, 205, 702, 850], "actions": ["right", "right", "right", "up", "left"], "actionTimes": [4192, 4791, 5495, 6695, 8047], "queries": {"click": {"state": {"target": ["12"], "time": [3253]}, "edge": {"target": [], "time": []}}, "mouseover": {"state": {"target": ["12"], "time": [2997]}, "edge": {"target": [], "time": []}}, "mouseout": {"state": {"target": ["0", "23", "0", "12", "0"], "time": [738, 1592, 2947, 9169, 9537]}, "edge": {"target": [], "time": []}}}, "displayed_time": "16.44", "trialTime": 21256, "trial_type": "mouselab-mdp", "trial_index": 36, "time_elapsed": 1559700, "internal_node_id": "0.0-6.0-1.0-21.0"}}, {"uniqueid": "w49830631:a92080994", "current_trial": 37, "dateTime": 1693482642079, "trialdata": {"revealed_states": [], "clicked_states": ["1"], "num_clicks_accrued": [0, 0, 0, 0, 0, 0, 0, 0, 0, 0, 0, 0, 0], "stateRewards": ["", -2, -3, -3, 9, 79, 67, 22, -15, -56, 27, -85, -2, 4, -4, -15, -20, -32, 60, 15, 71, 57, 17, 1, 2, -8, 15, -37, -81, 82, 15, 21, -3, 2], "withholdReward": false, "trial_id": "mdp_trial_23", "block": "test", "trialIndex": 26, "score": 7.25, "costs": 0.25, "simulationMode": [null, null, null, null, null], "rewards": [1, 2, -8, 15, -3], "path": ["0", "0", "23", "24", "25", "30", "32"], "rt": [2804, 376, 425, 625, 281], "actions": ["left", "left", "left", "down", "down"], "actionTimes": [3834, 4706, 5626, 6746, 7522], "queries": {"click": {"state": {"target": ["1"], "time": [1974]}, "edge": {"target": [], "time": []}}, "mouseover": {"state": {"target": ["1"], "time": [1670]}, "edge": {"target": [], "time": []}}, "mouseout": {"state": {"target": ["0", "1"], "time": [165, 2840]}, "edge": {"target": [], "time": []}}}, "displayed_time": "15.03", "trialTime": 18330, "trial_type": "mouselab-mdp", "trial_index": 37, "time_elapsed": 1578340, "internal_node_id": "0.0-6.0-1.0-22.0"}}, {"uniqueid": "w49830631:a92080994", "current_trial": 38, "dateTime": 1693482666975, "trialdata": {"revealed_states": [], "clicked_states": ["12"], "num_clicks_accrued": [0, 0, 0, 0, 0, 0, 0, 0, 0, 0, 0, 0, 0], "stateRewards": ["", 2, -3, 5, -14, -63, -9, -24, -11, -54, -43, 68, 2, -2, -4, 7, -64, 30, 47, 12, -74, 11, 86, 1, -3, 3, 10, -71, -42, -52, -1, -29, -16, 69], "withholdReward": false, "trial_id": "mdp_trial_24", "block": "test", "trialIndex": 27, "score": -65.75, "costs": 0.25, "simulationMode": [null, null, null, null, null], "rewards": [2, -2, -4, 12, -74], "path": ["0", "0", "12", "13", "14", "19", "20"], "rt": [1723, 606, 147, 668, 1024], "actions": ["right", "right", "right", "down", "right"], "actionTimes": [3057, 4177, 4825, 5993, 7521], "queries": {"click": {"state": {"target": ["12"], "time": [2190]}, "edge": {"target": [], "time": []}}, "mouseover": {"state": {"target": ["12"], "time": [1946]}, "edge": {"target": [], "time": []}}, "mouseout": {"state": {"target": ["12", "0", "12", "1"], "time": [562, 746, 9021, 23655]}, "edge": {"target": [], "time": []}}}, "displayed_time": "15.34", "trialTime": 24569, "trial_type": "mouselab-mdp", "trial_index": 38, "time_elapsed": 1603236, "internal_node_id": "0.0-6.0-1.0-23.0"}}, {"uniqueid": "w49830631:a92080994", "current_trial": 39, "dateTime": 1693482685824, "trialdata": {"revealed_states": [], "clicked_states": [], "num_clicks_accrued": [0, 0, 0, 0, 0, 0, 0, 0, 0, 0, 0, 0, 0], "stateRewards": ["", -2, 1, -8, 12, -65, -79, 16, 7, -80, -17, -45, -2, 2, -5, -2, -85, 23, -4, -7, 48, 27, -76, 2, 3, 5, 2, 43, 71, -13, 7, -49, 59, -31], "withholdReward": false, "trial_id": "mdp_trial_25", "block": "test", "trialIndex": 28, "score": -76, "costs": 0, "simulationMode": [null, null, null, null, null], "rewards": [-2, 1, -8, 12, -79], "path": ["0", "0", "1", "2", "3", "4", "6"], "rt": [847, 543, 10, 563, 53], "actions": ["up", "up", "up", "right", "right"], "actionTimes": [1974, 3014, 3518, 4590, 5134], "queries": {"click": {"state": {"target": [], "time": []}, "edge": {"target": [], "time": []}}, "mouseover": {"state": {"target": [], "time": []}, "edge": {"target": [], "time": []}}, "mouseout": {"state": {"target": ["1", "0", "0"], "time": [311, 1667, 16855]}, "edge": {"target": [], "time": []}}}, "displayed_time": "15.13", "trialTime": 18519, "trial_type": "mouselab-mdp", "trial_index": 39, "time_elapsed": 1622084, "internal_node_id": "0.0-6.0-1.0-24.0"}}, {"uniqueid": "w49830631:a92080994", "current_trial": 40, "dateTime": 1693482705496, "trialdata": {"revealed_states": [], "clicked_states": ["23"], "num_clicks_accrued": [0, 0, 0, 0, 0, 0, 0, 0, 0, 0, 0, 0, 0], "stateRewards": ["", -1, 3, 1, -7, 56, 76, 57, 3, 11, -9, 14, 1, -2, 2, 8, -77, -3, 79, -5, 88, 24, -66, -2, -1, 7, -7, -30, 14, -76, 11, -36, 28, -6], "withholdReward": false, "trial_id": "mdp_trial_26", "block": "test", "trialIndex": 29, "score": -67.75, "costs": 0.25, "simulationMode": [null, null, null, null, null], "rewards": [1, -2, 2, 8, -77], "path": ["0", "0", "12", "13", "14", "15", "16"], "rt": [2124, 423, 209, 1289, 335], "actions": ["right", "right", "right", "up", "up"], "actionTimes": [3726, 4645, 5350, 8109, 8941], "queries": {"click": {"state": {"target": ["23"], "time": [2282]}, "edge": {"target": [], "time": []}}, "mouseover": {"state": {"target": ["23"], "time": [2061]}, "edge": {"target": [], "time": []}}, "mouseout": {"state": {"target": ["0", "0", "23", "0"], "time": [640, 1945, 2939, 13988]}, "edge": {"target": [], "time": []}}}, "displayed_time": "15.60", "trialTime": 19318, "trial_type": "mouselab-mdp", "trial_index": 40, "time_elapsed": 1641756, "internal_node_id": "0.0-6.0-1.0-25.0"}}, {"uniqueid": "w49830631:a92080994", "current_trial": 41, "dateTime": 1693482736120, "trialdata": {"revealed_states": [], "clicked_states": ["1", "23"], "num_clicks_accrued": [0, 0, 0, 0, 0, 0, 0, 0, 0, 0, 0, 0, 0], "stateRewards": ["", -1, 1, -1, 2, 19, 85, -18, 2, -3, -26, 36, 2, 4, 7, -9, -18, 70, 72, -5, 35, -20, -28, 1, -2, -4, -3, -59, -11, -63, -2, -72, 59, -69], "withholdReward": false, "trial_id": "mdp_trial_27", "block": "test", "trialIndex": 30, "score": 52.5, "costs": 0.5, "simulationMode": [null, null, null, null, null], "rewards": [1, -2, -4, -2, 59], "path": ["0", "0", "23", "24", "25", "30", "32"], "rt": [5204, 528, 347, 700, 418], "actions": ["left", "left", "left", "down", "down"], "actionTimes": [6754, 7785, 8625, 9833, 10753], "queries": {"click": {"state": {"target": ["1", "23"], "time": [2263, 3870]}, "edge": {"target": [], "time": []}}, "mouseover": {"state": {"target": ["1", "23", "24", "24"], "time": [2020, 3160, 4497, 5869]}, "edge": {"target": [], "time": []}}, "mouseout": {"state": {"target": ["23", "23", "0", "0", "1", "23", "24", "24", "0"], "time": [699, 801, 950, 1888, 2908, 4346, 5227, 11806, 25621]}, "edge": {"target": [], "time": []}}}, "displayed_time": "15.55", "trialTime": 30266, "trial_type": "mouselab-mdp", "trial_index": 41, "time_elapsed": 1672381, "internal_node_id": "0.0-6.0-1.0-26.0"}}, {"uniqueid": "w49830631:a92080994", "current_trial": 42, "dateTime": 1693482757176, "trialdata": {"revealed_states": [], "clicked_states": ["12"], "num_clicks_accrued": [0, 0, 0, 0, 0, 0, 0, 0, 0, 0, 0, 0, 0], "stateRewards": ["", 2, 3, -1, 6, 44, -4, -59, -14, -3, 64, 16, 1, -3, 3, 6, 3, 49, 19, 3, -49, -14, -86, 1, 2, -3, -8, -33, 14, 32, -13, -77, -47, -67], "withholdReward": false, "trial_id": "mdp_trial_28", "block": "test", "trialIndex": 31, "score": 56.25, "costs": 0.25, "simulationMode": [null, null, null, null, null], "rewards": [1, -3, 3, 6, 49], "path": ["0", "0", "12", "13", "14", "15", "17"], "rt": [1920, 320, 90, 766, 874], "actions": ["right", "right", "right", "up", "right"], "actionTimes": [4017, 4833, 5425, 6729, 8097], "queries": {"click": {"state": {"target": ["12"], "time": [2926]}, "edge": {"target": [], "time": []}}, "mouseover": {"state": {"target": ["12"], "time": [2588]}, "edge": {"target": [], "time": []}}, "mouseout": {"state": {"target": ["1", "0", "0", "12", "12", "12"], "time": [397, 915, 2203, 3019, 5148, 8944]}, "edge": {"target": [], "time": []}}}, "displayed_time": "16.10", "trialTime": 20729, "trial_type": "mouselab-mdp", "trial_index": 42, "time_elapsed": 1693437, "internal_node_id": "0.0-6.0-1.0-27.0"}}, {"uniqueid": "w49830631:a92080994", "current_trial": 43, "dateTime": 1693482801768, "trialdata": {"revealed_states": [], "clicked_states": ["1", "23", "12"], "num_clicks_accrued": [0, 0, 0, 0, 0, 0, 0, 0, 0, 0, 0, 0, 0], "stateRewards": ["", -1, -4, -3, 1, -45, -67, -24, 14, 32, 22, 22, -1, 1, -5, -7, 72, 84, -79, -5, 19, -40, -2, -1, -2, 8, -3, 84, -25, -28, 11, 64, -66, 77], "withholdReward": false, "trial_id": "mdp_trial_29", "block": "test", "trialIndex": 32, "score": 60.75, "costs": 0.75, "simulationMode": [null, null, null, null, null], "rewards": [-1, 1, -5, -7, 72], "path": ["0", "0", "12", "13", "14", "15", "16"], "rt": [4482, 164, 456, 846, 11], "actions": ["right", "right", "right", "up", "up"], "actionTimes": [5725, 6389, 7349, 8693, 9197], "queries": {"click": {"state": {"target": ["1", "23", "12"], "time": [2251, 3474, 4394]}, "edge": {"target": [], "time": []}}, "mouseover": {"state": {"target": ["1", "23", "0", "12"], "time": [1924, 3214, 3982, 4133]}, "edge": {"target": [], "time": []}}, "mouseout": {"state": {"target": ["0", "1", "23", "0", "12", "12"], "time": [1607, 2994, 3898, 4015, 14519, 31611]}, "edge": {"target": [], "time": []}}}, "displayed_time": "15.24", "trialTime": 44269, "trial_type": "mouselab-mdp", "trial_index": 43, "time_elapsed": 1738029, "internal_node_id": "0.0-6.0-1.0-28.0"}}, {"uniqueid": "w49830631:a92080994", "current_trial": 44, "dateTime": 1693482832008, "trialdata": {"revealed_states": [], "clicked_states": ["13", "15", "24"], "num_clicks_accrued": [0, 0, 0, 0, 0, 0, 0, 0, 0, 0, 0, 0, 0], "stateRewards": ["", -2, -1, -3, -1, -78, -6, 2, -1, 22, -88, 32, 2, 2, -7, -8, -51, -17, 54, 2, -44, 54, 75, 2, -2, -8, -15, -29, 12, -67, 15, -1, -47, -47], "withholdReward": false, "trial_id": "mdp_trial_30", "block": "test", "trialIndex": 33, "score": 50.75, "costs": -2.25, "simulationMode": [null, null, null, null, null], "rewards": [2, 2, -7, 2, 54], "path": ["0", "0", "12", "13", "14", "19", "21"], "rt": [7882, 326, 322, 591, 537], "actions": ["right", "right", "right", "down", "down"], "actionTimes": [10156, 10980, 11796, 12884, 13916], "queries": {"click": {"state": {"target": ["13", "15", "24"], "time": [3113, 5889, 7833]}, "edge": {"target": [], "time": []}}, "mouseover": {"state": {"target": ["12", "13", "18", "15", "15", "18", "24", "23", "0"], "time": [2656, 2808, 4113, 5368, 5585, 6556, 7107, 8412, 8695]}, "edge": {"target": [], "time": []}}, "mouseout": {"state": {"target": ["0", "12", "13", "18", "15", "15", "18", "24", "23", "0", "0", "12", "16", "12", "0"], "time": [2623, 2775, 3628, 5267, 5434, 6404, 6572, 8344, 8662, 8963, 15117, 26306, 28013, 29618, 29702]}, "edge": {"target": [], "time": []}}}, "displayed_time": "16.28", "trialTime": 29916, "trial_type": "mouselab-mdp", "trial_index": 44, "time_elapsed": 1768269, "internal_node_id": "0.0-6.0-1.0-29.0"}}, {"uniqueid": "w49830631:a92080994", "current_trial": 45, "dateTime": 1693482851920, "trialdata": {"revealed_states": [], "clicked_states": ["14", "1", "24"], "num_clicks_accrued": [0, 0, 0, 0, 0, 0, 0, 0, 0, 0, 0, 0, 0], "stateRewards": ["", -2, 2, 8, -6, -25, 3, 87, 2, -62, -2, 74, -2, -1, 2, -1, 79, 49, -37, -14, 5, 67, -9, -1, 2, -2, 5, 15, 38, 32, -14, -38, -38, 30], "withholdReward": false, "trial_id": "mdp_trial_31", "block": "test", "trialIndex": 34, "score": -54.05, "costs": -1.0499999999999998, "simulationMode": [null, null, null, null, null], "rewards": [-1, 2, -2, -14, -38], "path": ["0", "0", "23", "24", "25", "30", "32"], "rt": [7135, 26, 539, 1196, 996], "actions": ["left", "left", "left", "down", "down"], "actionTimes": [9698, 10226, 11258, 12954, 14442], "queries": {"click": {"state": {"target": ["14", "1", "24"], "time": [4207, 5766, 7750]}, "edge": {"target": [], "time": []}}, "mouseover": {"state": {"target": ["12", "13", "13", "14", "13", "1", "23", "24", "23"], "time": [3174, 3492, 3726, 3893, 5014, 5498, 6218, 6844, 8542]}, "edge": {"target": [], "time": []}}, "mouseout": {"state": {"target": ["0", "12", "13", "13", "14", "13", "1", "23", "24", "23"], "time": [2876, 3407, 3542, 3792, 4663, 5031, 6068, 6470, 8344, 16705]}, "edge": {"target": [], "time": []}}}, "displayed_time": "16.56", "trialTime": 19570, "trial_type": "mouselab-mdp", "trial_index": 45, "time_elapsed": 1788180, "internal_node_id": "0.0-6.0-1.0-30.0"}}, {"uniqueid": "w49830631:a92080994", "current_trial": 46, "dateTime": 1693482876433, "trialdata": {"revealed_states": [], "clicked_states": ["2", "7"], "num_clicks_accrued": [0, 0, 0, 0, 0, 0, 0, 0, 0, 0, 0, 0, 0], "stateRewards": ["", -2, 3, 8, -9, 59, 41, -50, -1, 82, 66, 33, 2, -2, 7, 8, 1, -38, 12, -16, 24, -37, 67, 1, 4, -2, 5, 35, -83, 28, 8, -27, 69, -64], "withholdReward": false, "trial_id": "mdp_trial_32", "block": "test", "trialIndex": 35, "score": 87.5, "costs": -2.5, "simulationMode": [null, null, null, null, null], "rewards": [-2, 3, 8, -1, 82], "path": ["0", "0", "1", "2", "3", "8", "9"], "rt": [6664, 77, 414, 654, 1229], "actions": ["up", "up", "up", "left", "up"], "actionTimes": [8464, 9064, 9984, 11144, 12872], "queries": {"click": {"state": {"target": ["2", "7"], "time": [3310, 4684]}, "edge": {"target": [], "time": []}}, "mouseover": {"state": {"target": ["1", "1", "2", "7", "10", "28", "28"], "time": [2592, 2793, 3011, 3898, 5587, 6006, 6190]}, "edge": {"target": [], "time": []}}, "mouseout": {"state": {"target": ["0", "0", "1", "1", "2", "2", "7", "2", "10", "28", "28", "1"], "time": [1087, 2158, 2659, 2877, 3318, 3748, 5271, 5554, 5756, 6023, 7160, 17096]}, "edge": {"target": [], "time": []}}}, "displayed_time": "15.80", "trialTime": 24184, "trial_type": "mouselab-mdp", "trial_index": 46, "time_elapsed": 1812694, "internal_node_id": "0.0-6.0-1.0-31.0"}}, {"uniqueid": "w49830631:a92080994", "current_trial": 47, "dateTime": 1693482899417, "trialdata": {"revealed_states": [], "clicked_states": ["24", "13", "2"], "num_clicks_accrued": [0, 0, 0, 0, 0, 0, 0, 0, 0, 0, 0, 0, 0], "stateRewards": ["", 1, 4, -4, 14, 35, 51, 19, -13, 54, 78, -74, -2, -1, -3, 13, -11, -42, -73, -15, -24, -3, -69, 2, -1, 5, 16, -27, 73, 58, 9, -60, 5, -60], "withholdReward": false, "trial_id": "mdp_trial_33", "block": "test", "trialIndex": 36, "score": 64.95, "costs": -1.0499999999999998, "simulationMode": [null, null, null, null, null], "rewards": [1, 4, -4, -13, 78], "path": ["0", "0", "1", "2", "3", "8", "10"], "rt": [5498, 214, 410, 1049, 1182], "actions": ["up", "up", "up", "left", "down"], "actionTimes": [7939, 8651, 9563, 11107, 12795], "queries": {"click": {"state": {"target": ["24", "13", "2"], "time": [3672, 5167, 6800]}, "edge": {"target": [], "time": []}}, "mouseover": {"state": {"target": ["23", "24", "23", "12", "12", "13", "18", "2", "2"], "time": [2966, 3348, 4504, 4586, 4756, 4854, 5725, 6193, 6429]}, "edge": {"target": [], "time": []}}, "mouseout": {"state": {"target": ["0", "23", "24", "24", "23", "12", "12", "13", "18", "2", "2", "1", "1", "13"], "time": [2763, 3281, 4085, 4502, 4519, 4603, 4803, 5575, 5924, 6241, 13868, 14321, 19673, 20525]}, "edge": {"target": [], "time": []}}}, "displayed_time": "16.44", "trialTime": 22651, "trial_type": "mouselab-mdp", "trial_index": 47, "time_elapsed": 1835678, "internal_node_id": "0.0-6.0-1.0-32.0"}}, {"uniqueid": "w49830631:a92080994", "current_trial": 48, "dateTime": 1693482924322, "trialdata": {"revealed_states": [], "clicked_states": ["14", "2", "26"], "num_clicks_accrued": [0, 0, 0, 0, 0, 0, 0, 0, 0, 0, 0, 0, 0], "stateRewards": ["", -2, -1, -4, -15, -14, -67, 32, -3, -59, 63, 31, 2, -1, -7, -15, 71, -66, -27, -3, -54, -39, 72, 2, 1, 1, -13, 77, -40, 35, -9, 35, 75, 57], "withholdReward": false, "trial_id": "mdp_trial_34", "block": "test", "trialIndex": 37, "score": 47.15, "costs": -2.8499999999999996, "simulationMode": [null, null, null, null, null], "rewards": [2, -1, -7, -15, 71], "path": ["0", "0", "12", "13", "14", "15", "16"], "rt": [6350, 213, 617, 728, 115], "actions": ["right", "right", "right", "up", "up"], "actionTimes": [9481, 10193, 11313, 12545, 13153], "queries": {"click": {"state": {"target": ["14", "2", "26"], "time": [4277, 5693, 7109]}, "edge": {"target": [], "time": []}}, "mouseover": {"state": {"target": ["12", "13", "14", "14", "13", "2", "10", "28", "26", "28", "0"], "time": [3519, 3603, 3720, 3937, 4640, 5393, 6246, 6363, 6497, 7785, 8442]}, "edge": {"target": [], "time": []}}, "mouseout": {"state": {"target": ["13", "12", "0", "0", "12", "13", "14", "14", "13", "2", "10", "28", "26", "28", "0"], "time": [274, 324, 641, 3486, 3568, 3686, 3770, 4615, 4723, 6213, 6296, 6413, 7701, 7935, 18840]}, "edge": {"target": [], "time": []}}}, "displayed_time": "17.13", "trialTime": 24562, "trial_type": "mouselab-mdp", "trial_index": 48, "time_elapsed": 1860582, "internal_node_id": "0.0-6.0-1.0-33.0"}}, {"uniqueid": "w49830631:a92080994", "current_trial": 49, "dateTime": 1693482945306, "trialdata": {"revealed_states": [], "clicked_states": ["30", "2", "15"], "num_clicks_accrued": [0, 0, 0, 0, 0, 0, 0, 0, 0, 0, 0, 0, 0], "stateRewards": ["", -1, -4, -6, -15, 21, -67, -63, 9, 51, 69, -14, -1, 3, 8, -8, 39, 72, 63, 15, 19, 47, 15, 1, 4, 5, 16, -18, 34, 35, -14, -80, 40, 1], "withholdReward": false, "trial_id": "mdp_trial_35", "block": "test", "trialIndex": 38, "score": 4.550000000000001, "costs": -3.45, "simulationMode": [null, null, null, null, null], "rewards": [1, 4, 5, 16, -18], "path": ["0", "0", "23", "24", "25", "26", "27"], "rt": [7899, 486, 44, 604, 451], "actions": ["left", "left", "left", "up", "up"], "actionTimes": [9684, 10675, 11219, 12331, 13283], "queries": {"click": {"state": {"target": ["30", "2", "15"], "time": [2977, 4769, 6144]}, "edge": {"target": [], "time": []}}, "mouseover": {"state": {"target": ["0", "23", "30", "24", "26", "28", "10", "2", "7", "18", "15", "13"], "time": [2276, 2428, 2694, 3415, 3665, 4217, 4284, 4434, 5337, 5437, 5721, 7044]}, "edge": {"target": [], "time": []}}, "mouseout": {"state": {"target": ["0", "0", "23", "30", "24", "26", "28", "10", "2", "7", "18", "15", "13", "14", "22", "0"], "time": [2092, 2344, 2477, 3248, 3616, 4183, 4234, 4317, 5136, 5404, 5605, 6609, 14536, 14854, 16669, 18417]}, "edge": {"target": [], "time": []}}}, "displayed_time": "15.79", "trialTime": 20636, "trial_type": "mouselab-mdp", "trial_index": 49, "time_elapsed": 1881567, "internal_node_id": "0.0-6.0-1.0-34.0"}}, {"uniqueid": "w49830631:a92080994", "current_trial": 50, "dateTime": 1693482969714, "trialdata": {"revealed_states": [], "clicked_states": ["13", "24", "2"], "num_clicks_accrued": [0, 0, 0, 0, 0, 0, 0, 0, 0, 0, 0, 0, 0], "stateRewards": ["", -2, 1, -5, 2, -68, 80, 33, 10, 67, -59, 20, -1, -3, 3, 14, 74, -2, 24, -16, 63, 80, 46, -1, 4, 6, 12, 83, -38, -43, -4, 43, 14, -79], "withholdReward": false, "trial_id": "mdp_trial_36", "block": "test", "trialIndex": 39, "score": 17.95, "costs": -1.0499999999999998, "simulationMode": [null, null, null, null, null], "rewards": [-1, 4, 6, -4, 14], "path": ["0", "0", "23", "24", "25", "30", "32"], "rt": [5493, 293, 394, 668, 706], "actions": ["left", "left", "left", "down", "down"], "actionTimes": [6836, 7627, 8515, 9675, 10883], "queries": {"click": {"state": {"target": ["13", "24", "2"], "time": [2792, 3936, 5584]}, "edge": {"target": [], "time": []}}, "mouseover": {"state": {"target": ["12", "13", "12", "13", "12", "0", "23", "24", "23", "1", "2", "1"], "time": [1881, 2013, 2198, 2482, 3353, 3386, 3420, 3570, 4423, 4691, 5309, 5996]}, "edge": {"target": [], "time": []}}, "mouseout": {"state": {"target": ["0", "0", "12", "13", "12", "13", "12", "0", "23", "24", "23", "1", "2", "2", "1", "12", "0", "23", "0", "12"], "time": [397, 1847, 1947, 2165, 2433, 3302, 3371, 3404, 3519, 4239, 4439, 4708, 5733, 5962, 6123, 17285, 17636, 17741, 20181, 23071]}, "edge": {"target": [], "time": []}}}, "displayed_time": "15.34", "trialTime": 24076, "trial_type": "mouselab-mdp", "trial_index": 50, "time_elapsed": 1905974, "internal_node_id": "0.0-6.0-1.0-35.0"}}, {"uniqueid": "w49830631:a92080994", "current_trial": 51, "dateTime": 1693482989826, "trialdata": {"revealed_states": [], "clicked_states": ["19", "15", "26"], "num_clicks_accrued": [0, 0, 0, 0, 0, 0, 0, 0, 0, 0, 0, 0, 0], "stateRewards": ["", -1, 2, 6, 11, 21, -21, -21, -6, 48, -71, 88, -1, -3, 3, 7, 64, 2, 9, -4, 37, -67, 72, 2, 2, -8, -8, -10, 71, -40, -3, 73, 80, 47], "withholdReward": false, "trial_id": "mdp_trial_37", "block": "test", "trialIndex": 40, "score": 65.35, "costs": -4.65, "simulationMode": [null, null, null, null, null], "rewards": [-1, -3, 3, 7, 64], "path": ["0", "0", "12", "13", "14", "15", "16"], "rt": [6346, 434, 26, 674, 473], "actions": ["right", "right", "right", "up", "up"], "actionTimes": [8480, 9412, 9940, 11108, 12076], "queries": {"click": {"state": {"target": ["19", "15", "26"], "time": [3840, 4888, 7241]}, "edge": {"target": [], "time": []}}, "mouseover": {"state": {"target": ["12", "13", "14", "19", "19", "14", "15", "18", "1", "28", "26", "28"], "time": [2771, 2871, 3139, 3290, 3473, 4276, 4410, 5297, 6467, 6701, 7036, 7627]}, "edge": {"target": [], "time": []}}, "mouseout": {"state": {"target": ["13", "13", "12", "0", "12", "13", "14", "19", "19", "14", "15", "18", "1", "28", "26", "28", "12"], "time": [362, 529, 597, 2653, 2854, 2921, 3205, 3355, 4125, 4293, 5263, 5849, 6517, 6870, 7589, 7650, 16614]}, "edge": {"target": [], "time": []}}}, "displayed_time": "16.14", "trialTime": 19756, "trial_type": "mouselab-mdp", "trial_index": 51, "time_elapsed": 1926087, "internal_node_id": "0.0-6.0-1.0-36.0"}}, {"uniqueid": "w49830631:a92080994", "current_trial": 52, "dateTime": 1693483011234, "trialdata": {"revealed_states": [], "clicked_states": ["13", "23", "2"], "num_clicks_accrued": [0, 0, 0, 0, 0, 0, 0, 0, 0, 0, 0, 0, 0], "stateRewards": ["", 1, -1, 8, -3, 38, 85, -20, -4, 8, 23, 73, 2, -4, 6, -13, 44, 7, -28, -11, -77, 45, -69, 1, -1, -7, -11, 75, -51, -87, 7, 36, -53, -26], "withholdReward": false, "trial_id": "mdp_trial_38", "block": "test", "trialIndex": 41, "score": -105.45, "costs": -0.44999999999999996, "simulationMode": [null, null, null, null, null], "rewards": [1, -1, -7, -11, -87], "path": ["0", "0", "23", "24", "25", "26", "29"], "rt": [4887, 394, 389, 998, 652], "actions": ["left", "left", "left", "up", "left"], "actionTimes": [6100, 6996, 7878, 9372, 10516], "queries": {"click": {"state": {"target": ["13", "23", "2"], "time": [2432, 3521, 4873]}, "edge": {"target": [], "time": []}}, "mouseover": {"state": {"target": ["12", "13", "12", "0", "23", "23", "1", "2", "1"], "time": [1951, 2051, 2822, 2880, 2955, 3256, 4243, 4560, 5297]}, "edge": {"target": [], "time": []}}, "mouseout": {"state": {"target": ["0", "12", "13", "12", "0", "23", "23", "1", "2", "1", "12", "12"], "time": [478, 2001, 2754, 2857, 2901, 3038, 3927, 4344, 5247, 11618, 12957, 19830]}, "edge": {"target": [], "time": []}}}, "displayed_time": "15.22", "trialTime": 21076, "trial_type": "mouselab-mdp", "trial_index": 52, "time_elapsed": 1947495, "internal_node_id": "0.0-6.0-1.0-37.0"}}, {"uniqueid": "w49830631:a92080994", "current_trial": 53, "dateTime": 1693483033202, "trialdata": {"revealed_states": [], "clicked_states": ["13", "2", "26"], "num_clicks_accrued": [0, 0, 0, 0, 0, 0, 0, 0, 0, 0, 0, 0, 0], "stateRewards": ["", 2, -1, 5, 6, 10, 86, 55, 10, -45, 63, -71, 1, -2, 5, -8, -50, -72, 36, 15, 61, 12, 33, -1, -4, 6, 5, 79, -56, -21, -16, -87, 60, -81], "withholdReward": false, "trial_id": "mdp_trial_39", "block": "test", "trialIndex": 42, "score": 82.75, "costs": -2.25, "simulationMode": [null, null, null, null, null], "rewards": [-1, -4, 6, 5, 79], "path": ["0", "0", "23", "24", "25", "26", "27"], "rt": [4826, 23, 241, 488, 477], "actions": ["left", "left", "left", "up", "up"], "actionTimes": [7264, 7784, 8520, 9504, 10480], "queries": {"click": {"state": {"target": ["13", "2", "26"], "time": [3885, 5029, 5978]}, "edge": {"target": [], "time": []}}, "mouseover": {"state": {"target": ["0", "12", "12", "13", "1", "1", "2", "28", "26"], "time": [2692, 2860, 3328, 3596, 4315, 4482, 4800, 5536, 5603]}, "edge": {"target": [], "time": []}}, "mouseout": {"state": {"target": ["12", "0", "0", "12", "12", "13", "1", "1", "2", "28", "26", "24", "23", "0"], "time": [1838, 1972, 2746, 2925, 3496, 4232, 4333, 4543, 5387, 5577, 6490, 12626, 12978, 13062]}, "edge": {"target": [], "time": []}}}, "displayed_time": "16.44", "trialTime": 21624, "trial_type": "mouselab-mdp", "trial_index": 53, "time_elapsed": 1969463, "internal_node_id": "0.0-6.0-1.0-38.0"}}, {"uniqueid": "w49830631:a92080994", "current_trial": 54, "dateTime": 1693483053194, "trialdata": {"revealed_states": [], "clicked_states": ["2", "14", "24"], "num_clicks_accrued": [0, 0, 0, 0, 0, 0, 0, 0, 0, 0, 0, 0, 0], "stateRewards": ["", 1, 3, 1, -13, 52, -28, 67, -14, 3, 63, -70, -1, -4, 7, -11, -10, 47, -18, 6, 69, -9, -61, 2, 3, -6, 10, 63, -34, 40, -6, -79, -35, -32], "withholdReward": false, "trial_id": "mdp_trial_40", "block": "test", "trialIndex": 43, "score": -20.65, "costs": -1.65, "simulationMode": [null, null, null, null, null], "rewards": [-1, -4, 7, -11, -10], "path": ["0", "0", "12", "13", "14", "15", "16"], "rt": [4809, 107, 240, 856, 1015], "actions": ["right", "right", "right", "up", "up"], "actionTimes": [6768, 7383, 8119, 9471, 10983], "queries": {"click": {"state": {"target": ["2", "14", "24"], "time": [2860, 4131, 5644]}, "edge": {"target": [], "time": []}}, "mouseover": {"state": {"target": ["1", "2", "14", "13", "12", "0", "23", "24", "25", "24", "23"], "time": [2423, 2591, 3774, 4532, 4657, 4733, 4800, 4918, 5167, 5451, 6207]}, "edge": {"target": [], "time": []}}, "mouseout": {"state": {"target": ["0", "1", "2", "14", "13", "12", "0", "23", "24", "25", "24", "23", "0"], "time": [2072, 2507, 3666, 4498, 4634, 4694, 4783, 4816, 5135, 5317, 6155, 17193, 17577]}, "edge": {"target": [], "time": []}}}, "displayed_time": "15.96", "trialTime": 19655, "trial_type": "mouselab-mdp", "trial_index": 54, "time_elapsed": 1989455, "internal_node_id": "0.0-6.0-1.0-39.0"}}, {"uniqueid": "w49830631:a92080994", "current_trial": 55, "dateTime": 1693483178571, "trialdata": {"rt": 125372, "response": {"Q0": "$-2 to $2", "Q1": "$-16 to $16", "Q2": "$-88 to $88", "Q3": "The cost for clicking on nodes varied between nodes.", "Q4": "Very motivated"}, "question_order": [0, 1, 2, 3, 4], "trial_id": "final_quiz_control", "trial_type": "survey-multi-choice", "trial_index": 55, "time_elapsed": 2114832, "internal_node_id": "0.0-6.0-2.0"}}], "questiondata": {"params": {"CODE": "C6DMOQA6", "MIN_TIME": 14, "inspectCost": 1, "startTime": "Thu Aug 31 2023 13:24:22 GMT+0200 (South Africa Standard Time)", "bonusRate": 0.002, "variance": "1_2_4_8_44", "branching": "31123"}}, "eventdata": [{"eventtype": "initialized", "value": null, "timestamp": 1693481062173, "interval": 0}, {"eventtype": "window_resize", "value": [1024, 654], "timestamp": 1693481062173, "interval": 0}, {"eventtype": "window_resize", "value": [1024, 654], "timestamp": 1693481062573, "interval": 400}, {"eventtype": "window_resize", "value": [1366, 768], "timestamp": 1693481070667, "interval": 8094}, {"eventtype": "focus", "value": "off", "timestamp": 1693481861957, "interval": 791290}, {"eventtype": "focus", "value": "on", "timestamp": 1693481861957, "interval": 0}, {"eventtype": "window_resize", "value": [1024, 654], "timestamp": 1693481862165, "interval": 208}, {"eventtype": "window_resize", "value": [1366, 768], "timestamp": 1693481866644, "interval": 4479}], "useragent": "Mozilla/5.0 (Windows NT 10.0; Win64; x64) AppleWebKit/537.36 (KHTML, like Gecko) Chrome/116.0.0.0 Safari/537.36", "mode": "live", "id": "w49830631:a92080994", "status": "user data saved", "Beginhit": "2023-08-31 11:24:20.303453", "Beginexp": "2023-08-31 11:24:31.515467", "Endhit": null, "psiturkStatus": 2, "browser": "<redacted>", "platform": "windows", "language": "en-ZA", "excludeReason": "dataincomplete"}