{"condition": 0, "counterbalance": 0, "assignmentId": "a46241319", "workerId": "w70263759", "hitId": "h91455642", "currenttrial": 73, "bonus": 0, "data": [{"uniqueid": "w70263759:a46241319", "current_trial": 0, "dateTime": 1693564922690, "trialdata": {"success": true, "trial_type": "fullscreen", "trial_index": 0, "time_elapsed": 11968, "internal_node_id": "0.0-0.0"}}, {"uniqueid": "w70263759:a46241319", "current_trial": 1, "dateTime": 1693564955997, "trialdata": {"view_history": [{"page_index": 0, "viewing_time": 33267}], "rt": 33273, "trial_id": "exp_instructions_control", "trial_type": "instructions", "trial_index": 1, "time_elapsed": 45275, "internal_node_id": "0.0-1.0"}}, {"uniqueid": "w70263759:a46241319", "current_trial": 2, "dateTime": 1693565416418, "trialdata": {"view_history": [{"page_index": 0, "viewing_time": 175061}, {"page_index": 1, "viewing_time": 988}, {"page_index": 2, "viewing_time": 5105}, {"page_index": 1, "viewing_time": 2900}, {"page_index": 0, "viewing_time": 8422}, {"page_index": 1, "viewing_time": 140717}, {"page_index": 2, "viewing_time": 37724}, {"page_index": 3, "viewing_time": 89489}], "rt": 460409, "trial_id": "mouselab_instructions_1_control", "trial_type": "instructions", "trial_index": 2, "time_elapsed": 505697, "internal_node_id": "0.0-2.0-1.0"}}, {"uniqueid": "w70263759:a46241319", "current_trial": 3, "dateTime": 1693565545783, "trialdata": {"revealed_states": [], "clicked_states": ["12", "13", "14", "19", "20", "21", "22", "15", "17", "16", "18", "1", "2", "3", "4", "7", "6", "5", "8", "9", "11", "10", "23", "24", "25", "30", "31", "32", "33", "26", "28", "27", "29"], "num_clicks_accrued": [0, 0, 0, 0, 0, 0, 0, 0, 0, 0, 0, 0, 0], "stateRewards": ["", -10, 10, 10, 10, 10, -10, 10, 10, 10, 10, -10, 10, -10, 10, 10, -10, 10, 10, -10, 10, -10, -10, 10, 10, -10, 10, 10, -10, -10, -10, -10, 10, -10], "withholdReward": false, "trial_id": "practice_1", "block": "test", "trialIndex": 0, "score": 17, "costs": -16.5, "simulationMode": [null, null, null, null, null], "rewards": [10, -10, 10, 10, 10], "path": ["0", "0", "12", "13", "14", "15", "18"], "rt": [96157, 5774, 1668, 2924, 1869], "actions": ["right", "right", "right", "up", "left"], "actionTimes": [100616, 106913, 109106, 112543, 114938], "queries": {"click": {"state": {"target": ["12", "13", "14", "19", "20", "21", "22", "15", "17", "16", "18", "1", "2", "3", "4", "7", "6", "5", "8", "9", "11", "10", "23", "24", "25", "30", "31", "32", "33", "26", "28", "27", "29"], "time": [8783, 11236, 13232, 15174, 17325, 20840, 23072, 25292, 27069, 28786, 32061, 37503, 38835, 40191, 41601, 43729, 45674, 47219, 49436, 51051, 52988, 54749, 58837, 60300, 63012, 65550, 67469, 69556, 71393, 73539, 75468, 78124, 79887]}, "edge": {"target": [], "time": []}}, "mouseover": {"state": {"target": ["12", "13", "14", "19", "20", "21", "22", "14", "15", "17", "16", "18", "0", "1", "2", "3", "4", "7", "6", "5", "8", "9", "11", "10", "1", "23", "24", "25", "30", "31", "32", "33", "25", "26", "28", "27", "27", "29", "26", "19", "20", "14", "13", "12"], "time": [7747, 10595, 12101, 14351, 16510, 20131, 22163, 24199, 24647, 26516, 28102, 30063, 33351, 36367, 38151, 39535, 41051, 42698, 44881, 46534, 48750, 50268, 52051, 54178, 55645, 58163, 59668, 62380, 64858, 66798, 68727, 70680, 72598, 72898, 74559, 76730, 77554, 78979, 80596, 81021, 88915, 89380, 89831, 89857]}, "edge": {"target": [], "time": []}}, "mouseout": {"state": {"target": ["16", "12", "0", "12", "13", "14", "19", "20", "21", "22", "14", "15", "17", "16", "18", "0", "1", "2", "3", "4", "7", "4", "6", "5", "5", "8", "9", "11", "10", "10", "1", "23", "24", "24", "25", "30", "31", "32", "33", "25", "26", "28", "27", "27", "29", "26", "19", "20", "14", "13", "12"], "time": [1316, 2363, 7589, 10415, 11985, 14316, 16332, 19431, 21028, 24132, 24284, 26365, 27903, 29820, 33151, 36202, 37694, 39028, 40371, 42539, 44385, 44708, 46370, 47401, 47995, 50085, 51821, 53686, 54940, 55604, 55747, 59566, 60491, 61381, 63931, 66648, 68251, 70285, 71582, 72634, 73726, 76419, 77080, 78785, 80585, 80619, 81033, 88959, 89786, 89850, 92300]}, "edge": {"target": [], "time": []}}}, "displayed_time": "115.45", "trialTime": 127296, "trial_type": "mouselab-mdp", "trial_index": 3, "time_elapsed": 635059, "internal_node_id": "0.0-2.0-2.0-0.0"}}, {"uniqueid": "w70263759:a46241319", "current_trial": 4, "dateTime": 1693565594724, "trialdata": {"revealed_states": [], "clicked_states": [], "num_clicks_accrued": [0, 0, 0, 0, 0, 0, 0, 0, 0, 0, 0, 0, 0], "stateRewards": ["", 10, -10, -10, 10, -10, 10, -10, 10, 10, 10, -10, -10, -10, -10, -10, -10, 10, 10, -10, -10, 10, -10, 10, 10, -10, 10, -10, 10, 10, -10, -10, -10, -10], "withholdReward": false, "trial_id": "practice_2", "block": "test", "trialIndex": 1, "score": 13.5, "costs": 0, "simulationMode": [null, null, null, null, null], "rewards": [10, -10, -10, 10, 10], "path": ["0", "0", "1", "2", "3", "8", "9"], "rt": [10336, 10286, 2283, 929, 2328], "actions": ["up", "up", "up", "left", "up"], "actionTimes": [15497, 26328, 29143, 30588, 33437], "queries": {"click": {"state": {"target": [], "time": []}, "edge": {"target": [], "time": []}}, "mouseover": {"state": {"target": ["14"], "time": [10295]}, "edge": {"target": [], "time": []}}, "mouseout": {"state": {"target": ["21", "0", "0", "14", "21", "0", "2", "22"], "time": [3414, 3814, 10254, 10582, 21191, 24672, 36723, 36903]}, "edge": {"target": [], "time": []}}}, "displayed_time": "33.96", "trialTime": 48221, "trial_type": "mouselab-mdp", "trial_index": 4, "time_elapsed": 684000, "internal_node_id": "0.0-2.0-2.0-1.0"}}, {"uniqueid": "w70263759:a46241319", "current_trial": 5, "dateTime": 1693565691918, "trialdata": {"view_history": [{"page_index": 0, "viewing_time": 80484}, {"page_index": 1, "viewing_time": 16694}], "rt": 97180, "trial_id": "mouselab_instructions_2_control", "trial_type": "instructions", "trial_index": 5, "time_elapsed": 781197, "internal_node_id": "0.0-2.0-3.0"}}, {"uniqueid": "w70263759:a46241319", "current_trial": 6, "dateTime": 1693565799459, "trialdata": {"rt": 107511, "response": {"Q0": "The cost for clicking on nodes may vary between nodes.", "Q1": "The better I perform the higher my bonus will be.", "Q2": "No, the amount of cash at each node of the web may be different each time.", "Q3": "To get the highest total score.", "Q4": "Only after moving the spider.", "Q5": "3 seconds"}, "question_order": [0, 1, 2, 3, 4, 5], "correct": {"Q0": "The cost for clicking on nodes may vary between nodes.", "Q1": "The better I perform the higher my bonus will be.", "Q2": "No, the amount of cash at each node of the web may be different each time.", "Q3": "To get the highest total score.", "Q4": "Only before moving the spider.", "Q5": "3 seconds"}, "trial_id": "mouselab_quiz_control", "trial_type": "survey-multi-choice", "trial_index": 6, "time_elapsed": 888738, "internal_node_id": "0.0-2.0-4.0"}}, {"uniqueid": "w70263759:a46241319", "current_trial": 7, "dateTime": 1693565819936, "trialdata": {"success": true, "trial_type": "fullscreen", "trial_index": 7, "time_elapsed": 909214, "internal_node_id": "0.0-2.1-0.1-0.1"}}, {"uniqueid": "w70263759:a46241319", "current_trial": 8, "dateTime": 1693565870117, "trialdata": {"view_history": [{"page_index": 0, "viewing_time": 9100}, {"page_index": 1, "viewing_time": 13184}, {"page_index": 2, "viewing_time": 23384}, {"page_index": 3, "viewing_time": 4500}], "rt": 50169, "trial_id": "mouselab_instructions_1_control", "trial_type": "instructions", "trial_index": 8, "time_elapsed": 959396, "internal_node_id": "0.0-2.1-1.1"}}, {"uniqueid": "w70263759:a46241319", "current_trial": 9, "dateTime": 1693565889491, "trialdata": {"revealed_states": [], "clicked_states": [], "num_clicks_accrued": [0, 0, 0, 0, 0, 0, 0, 0, 0, 0, 0, 0, 0], "stateRewards": ["", -10, 10, 10, 10, 10, -10, 10, 10, 10, 10, -10, 10, -10, 10, 10, -10, 10, 10, -10, 10, -10, -10, 10, 10, -10, 10, 10, -10, -10, -10, -10, 10, -10], "withholdReward": false, "trial_id": "practice_1", "block": "test", "trialIndex": 2, "score": 33.5, "costs": 0, "simulationMode": [null, null, null, null, null], "rewards": [-10, 10, 10, 10, 10], "path": ["0", "0", "1", "2", "3", "4", "7"], "rt": [2134, 1496, 1317, 1152, 1292], "actions": ["up", "up", "up", "right", "down"], "actionTimes": [5747, 7764, 9586, 11235, 13043], "queries": {"click": {"state": {"target": [], "time": []}, "edge": {"target": [], "time": []}}, "mouseover": {"state": {"target": [], "time": []}, "edge": {"target": [], "time": []}}, "mouseout": {"state": {"target": ["0", "0", "18", "17"], "time": [2688, 14464, 14962, 15029]}, "edge": {"target": [], "time": []}}}, "displayed_time": "13.57", "trialTime": 18661, "trial_type": "mouselab-mdp", "trial_index": 9, "time_elapsed": 978767, "internal_node_id": "0.0-2.1-2.1-0.1"}}, {"uniqueid": "w70263759:a46241319", "current_trial": 10, "dateTime": 1693565909320, "trialdata": {"revealed_states": [], "clicked_states": [], "num_clicks_accrued": [0, 0, 0, 0, 0, 0, 0, 0, 0, 0, 0, 0, 0], "stateRewards": ["", 10, -10, -10, 10, -10, 10, -10, 10, 10, 10, -10, -10, -10, -10, -10, -10, 10, 10, -10, -10, 10, -10, 10, 10, -10, 10, -10, 10, 10, -10, -10, -10, -10], "withholdReward": false, "trial_id": "practice_2", "block": "test", "trialIndex": 3, "score": 13.5, "costs": 0, "simulationMode": [null, null, null, null, null], "rewards": [10, -10, -10, 10, 10], "path": ["0", "0", "1", "2", "3", "8", "10"], "rt": [3071, 1039, 892, 871, 1212], "actions": ["up", "up", "up", "left", "down"], "actionTimes": [7024, 8582, 10000, 11379, 13119], "queries": {"click": {"state": {"target": [], "time": []}, "edge": {"target": [], "time": []}}, "mouseover": {"state": {"target": [], "time": []}, "edge": {"target": [], "time": []}}, "mouseout": {"state": {"target": ["21", "12", "0", "12", "13", "14"], "time": [1964, 2483, 15031, 15203, 15464, 15515]}, "edge": {"target": [], "time": []}}}, "displayed_time": "13.64", "trialTime": 19047, "trial_type": "mouselab-mdp", "trial_index": 10, "time_elapsed": 998596, "internal_node_id": "0.0-2.1-2.1-1.1"}}, {"uniqueid": "w70263759:a46241319", "current_trial": 11, "dateTime": 1693565963570, "trialdata": {"view_history": [{"page_index": 0, "viewing_time": 51552}, {"page_index": 1, "viewing_time": 2679}], "rt": 54232, "trial_id": "mouselab_instructions_2_control", "trial_type": "instructions", "trial_index": 11, "time_elapsed": 1052848, "internal_node_id": "0.0-2.1-3.1"}}, {"uniqueid": "w70263759:a46241319", "current_trial": 12, "dateTime": 1693566099024, "trialdata": {"rt": 135441, "response": {"Q0": "The cost for clicking on nodes may vary between nodes.", "Q1": "The better I perform the higher my bonus will be.", "Q2": "No, the amount of cash at each node of the web may be different each time.", "Q3": "To get the highest total score.", "Q4": "Any time during the round.", "Q5": "3 seconds"}, "question_order": [0, 1, 2, 3, 4, 5], "correct": {"Q0": "The cost for clicking on nodes may vary between nodes.", "Q1": "The better I perform the higher my bonus will be.", "Q2": "No, the amount of cash at each node of the web may be different each time.", "Q3": "To get the highest total score.", "Q4": "Only before moving the spider.", "Q5": "3 seconds"}, "trial_id": "mouselab_quiz_control", "trial_type": "survey-multi-choice", "trial_index": 12, "time_elapsed": 1188303, "internal_node_id": "0.0-2.1-4.1"}}, {"uniqueid": "w70263759:a46241319", "current_trial": 13, "dateTime": 1693566117335, "trialdata": {"success": true, "trial_type": "fullscreen", "trial_index": 13, "time_elapsed": 1206614, "internal_node_id": "0.0-2.2-0.2-0.2"}}, {"uniqueid": "w70263759:a46241319", "current_trial": 14, "dateTime": 1693566286267, "trialdata": {"view_history": [{"page_index": 0, "viewing_time": 131814}, {"page_index": 1, "viewing_time": 34743}, {"page_index": 2, "viewing_time": 855}, {"page_index": 3, "viewing_time": 1510}], "rt": 168924, "trial_id": "mouselab_instructions_1_control", "trial_type": "instructions", "trial_index": 14, "time_elapsed": 1375546, "internal_node_id": "0.0-2.2-1.2"}}, {"uniqueid": "w70263759:a46241319", "current_trial": 15, "dateTime": 1693566306092, "trialdata": {"revealed_states": [], "clicked_states": [], "num_clicks_accrued": [0, 0, 0, 0, 0, 0, 0, 0, 0, 0, 0, 0, 0], "stateRewards": ["", -10, 10, 10, 10, 10, -10, 10, 10, 10, 10, -10, 10, -10, 10, 10, -10, 10, 10, -10, 10, -10, -10, 10, 10, -10, 10, 10, -10, -10, -10, -10, 10, -10], "withholdReward": false, "trial_id": "practice_1", "block": "test", "trialIndex": 4, "score": -6.5, "costs": 0, "simulationMode": [null, null, null, null, null], "rewards": [10, 10, -10, -10, -10], "path": ["0", "0", "23", "24", "25", "30", "31"], "rt": [3449, 954, 1083, 1150, 1114], "actions": ["left", "left", "left", "down", "right"], "actionTimes": [6981, 8450, 10078, 11737, 13362], "queries": {"click": {"state": {"target": [], "time": []}, "edge": {"target": [], "time": []}}, "mouseover": {"state": {"target": [], "time": []}, "edge": {"target": [], "time": []}}, "mouseout": {"state": {"target": ["0"], "time": [14645]}, "edge": {"target": [], "time": []}}}, "displayed_time": "13.86", "trialTime": 18989, "trial_type": "mouselab-mdp", "trial_index": 15, "time_elapsed": 1395369, "internal_node_id": "0.0-2.2-2.2-0.2"}}, {"uniqueid": "w70263759:a46241319", "current_trial": 16, "dateTime": 1693566323672, "trialdata": {"revealed_states": [], "clicked_states": [], "num_clicks_accrued": [0, 0, 0, 0, 0, 0, 0, 0, 0, 0, 0, 0, 0], "stateRewards": ["", 10, -10, -10, 10, -10, 10, -10, 10, 10, 10, -10, -10, -10, -10, -10, -10, 10, 10, -10, -10, 10, -10, 10, 10, -10, 10, -10, 10, 10, -10, -10, -10, -10], "withholdReward": false, "trial_id": "practice_2", "block": "test", "trialIndex": 5, "score": -26.5, "costs": 0, "simulationMode": [null, null, null, null, null], "rewards": [-10, -10, -10, -10, 10], "path": ["0", "0", "12", "13", "14", "15", "17"], "rt": [2387, 1155, 1173, 1119, 1119], "actions": ["right", "right", "right", "up", "right"], "actionTimes": [5273, 6969, 8648, 10274, 11893], "queries": {"click": {"state": {"target": [], "time": []}, "edge": {"target": [], "time": []}}, "mouseover": {"state": {"target": [], "time": []}, "edge": {"target": [], "time": []}}, "mouseout": {"state": {"target": ["0", "18", "15"], "time": [13142, 13186, 13475]}, "edge": {"target": [], "time": []}}}, "displayed_time": "12.40", "trialTime": 16643, "trial_type": "mouselab-mdp", "trial_index": 16, "time_elapsed": 1412949, "internal_node_id": "0.0-2.2-2.2-1.2"}}, {"uniqueid": "w70263759:a46241319", "current_trial": 17, "dateTime": 1693566344675, "trialdata": {"view_history": [{"page_index": 0, "viewing_time": 19476}, {"page_index": 1, "viewing_time": 1510}], "rt": 20987, "trial_id": "mouselab_instructions_2_control", "trial_type": "instructions", "trial_index": 17, "time_elapsed": 1433954, "internal_node_id": "0.0-2.2-3.2"}}, {"uniqueid": "w70263759:a46241319", "current_trial": 18, "dateTime": 1693566450926, "trialdata": {"rt": 106234, "response": {"Q0": "The cost for clicking on nodes may vary between nodes.", "Q1": "The better I perform the higher my bonus will be.", "Q2": "No, the structure of the web will be different each time.", "Q3": "To get the highest total score.", "Q4": "Any time during the round.", "Q5": "3 seconds"}, "question_order": [0, 1, 2, 3, 4, 5], "correct": {"Q0": "The cost for clicking on nodes may vary between nodes.", "Q1": "The better I perform the higher my bonus will be.", "Q2": "No, the amount of cash at each node of the web may be different each time.", "Q3": "To get the highest total score.", "Q4": "Only before moving the spider.", "Q5": "3 seconds"}, "trial_id": "mouselab_quiz_control", "trial_type": "survey-multi-choice", "trial_index": 18, "time_elapsed": 1540205, "internal_node_id": "0.0-2.2-4.2"}}, {"uniqueid": "w70263759:a46241319", "current_trial": 19, "dateTime": 1693566459225, "trialdata": {"success": true, "trial_type": "fullscreen", "trial_index": 19, "time_elapsed": 1548504, "internal_node_id": "0.0-2.3-0.3-0.3"}}, {"uniqueid": "w70263759:a46241319", "current_trial": 20, "dateTime": 1693566493552, "trialdata": {"view_history": [{"page_index": 0, "viewing_time": 1850}, {"page_index": 1, "viewing_time": 31307}, {"page_index": 2, "viewing_time": 663}, {"page_index": 3, "viewing_time": 497}], "rt": 34317, "trial_id": "mouselab_instructions_1_control", "trial_type": "instructions", "trial_index": 20, "time_elapsed": 1582831, "internal_node_id": "0.0-2.3-1.3"}}, {"uniqueid": "w70263759:a46241319", "current_trial": 21, "dateTime": 1693566509974, "trialdata": {"revealed_states": [], "clicked_states": [], "num_clicks_accrued": [0, 0, 0, 0, 0, 0, 0, 0, 0, 0, 0, 0, 0], "stateRewards": ["", -10, 10, 10, 10, 10, -10, 10, 10, 10, 10, -10, 10, -10, 10, 10, -10, 10, 10, -10, 10, -10, -10, 10, 10, -10, 10, 10, -10, -10, -10, -10, 10, -10], "withholdReward": false, "trial_id": "practice_1", "block": "test", "trialIndex": 6, "score": 13.5, "costs": 0, "simulationMode": [null, null, null, null, null], "rewards": [10, 10, -10, -10, 10], "path": ["0", "0", "23", "24", "25", "30", "32"], "rt": [1384, 357, 502, 730, 141], "actions": ["left", "left", "left", "down", "down"], "actionTimes": [4585, 5473, 6485, 7745, 8405], "queries": {"click": {"state": {"target": [], "time": []}, "edge": {"target": [], "time": []}}, "mouseover": {"state": {"target": [], "time": []}, "edge": {"target": [], "time": []}}, "mouseout": {"state": {"target": ["0"], "time": [11303]}, "edge": {"target": [], "time": []}}}, "displayed_time": "8.93", "trialTime": 15464, "trial_type": "mouselab-mdp", "trial_index": 21, "time_elapsed": 1599251, "internal_node_id": "0.0-2.3-2.3-0.3"}}, {"uniqueid": "w70263759:a46241319", "current_trial": 22, "dateTime": 1693566530335, "trialdata": {"revealed_states": [], "clicked_states": [], "num_clicks_accrued": [0, 0, 0, 0, 0, 0, 0, 0, 0, 0, 0, 0, 0], "stateRewards": ["", 10, -10, -10, 10, -10, 10, -10, 10, 10, 10, -10, -10, -10, -10, -10, -10, 10, 10, -10, -10, 10, -10, 10, 10, -10, 10, -10, 10, 10, -10, -10, -10, -10], "withholdReward": false, "trial_id": "practice_2", "block": "test", "trialIndex": 7, "score": -46.5, "costs": 0, "simulationMode": [null, null, null, null, null], "rewards": [-10, -10, -10, -10, -10], "path": ["0", "0", "12", "13", "14", "15", "16"], "rt": [1981, 5446, 461, 1398, 834], "actions": ["right", "right", "right", "up", "up"], "actionTimes": [5021, 11002, 11977, 13899, 15311], "queries": {"click": {"state": {"target": [], "time": []}, "edge": {"target": [], "time": []}}, "mouseover": {"state": {"target": [], "time": []}, "edge": {"target": [], "time": []}}, "mouseout": {"state": {"target": ["1", "0", "13"], "time": [1755, 6743, 16477]}, "edge": {"target": [], "time": []}}}, "displayed_time": "15.81", "trialTime": 19426, "trial_type": "mouselab-mdp", "trial_index": 22, "time_elapsed": 1619612, "internal_node_id": "0.0-2.3-2.3-1.3"}}, {"uniqueid": "w70263759:a46241319", "current_trial": 23, "dateTime": 1693566536851, "trialdata": {"view_history": [{"page_index": 0, "viewing_time": 4463}, {"page_index": 1, "viewing_time": 2034}], "rt": 6499, "trial_id": "mouselab_instructions_2_control", "trial_type": "instructions", "trial_index": 23, "time_elapsed": 1626130, "internal_node_id": "0.0-2.3-3.3"}}, {"uniqueid": "w70263759:a46241319", "current_trial": 24, "dateTime": 1693566604743, "trialdata": {"rt": 67880, "response": {"Q0": "The cost for clicking on nodes may vary between nodes.", "Q1": "The better I perform the higher my bonus will be.", "Q2": "No, the amount of cash at each node of the web may be different each time.", "Q3": "To get the highest total score.", "Q4": "Only before moving the spider.", "Q5": "3 seconds"}, "question_order": [0, 1, 2, 3, 4, 5], "correct": {"Q0": "The cost for clicking on nodes may vary between nodes.", "Q1": "The better I perform the higher my bonus will be.", "Q2": "No, the amount of cash at each node of the web may be different each time.", "Q3": "To get the highest total score.", "Q4": "Only before moving the spider.", "Q5": "3 seconds"}, "trial_id": "mouselab_quiz_control", "trial_type": "survey-multi-choice", "trial_index": 24, "time_elapsed": 1694022, "internal_node_id": "0.0-2.3-4.3"}}, {"uniqueid": "w70263759:a46241319", "current_trial": 25, "dateTime": 1693566622562, "trialdata": {"rt": 17779, "response": {"Q0": "No"}, "question_order": [0], "trial_id": "repeat_check", "trial_type": "survey-multi-choice", "trial_index": 25, "time_elapsed": 1711840, "internal_node_id": "0.0-4.0-0.0"}}, {"uniqueid": "w70263759:a46241319", "current_trial": 26, "dateTime": 1693566644122, "trialdata": {"rt": 21525, "stimulus": "\n<h1> Get ready to start the game! </h1>\n\nThank you for reading the instructions. Get ready start with the 40 rounds of this game.\n<br><br>\nIf you need to take a break, feel free to take one after the end of a round, before continuing to the next one.\n<br><br>\nRemember, the more money the spider gets, the bigger your bonus will be!\n<br><br>\n<div style='text-align: center;'>Press <code>space</code> to begin.</div>\n\n<br><br>\n(If, at any point, the <code>space</code> key does not take you to the next page, click once on the text and try again.)", "response": " ", "trial_id": "mdp_ready", "trial_type": "html-keyboard-response", "trial_index": 26, "time_elapsed": 1733401, "internal_node_id": "0.0-6.0-0.0"}}, {"uniqueid": "w70263759:a46241319", "current_trial": 27, "dateTime": 1693566665895, "trialdata": {"revealed_states": [], "clicked_states": [], "num_clicks_accrued": [0, 0, 0, 0, 0, 0, 0, 0, 0, 0, 0, 0, 0], "stateRewards": ["", 1, -2, -3, 14, -42, -87, -37, -11, -50, 33, -44, -2, 4, -7, 13, 48, -75, -66, 12, 23, -2, 82, 1, -4, 3, 12, 51, -15, -26, -11, -52, -29, 82], "withholdReward": false, "trial_id": "mdp_trial_1", "block": "test", "trialIndex": 8, "score": -27, "costs": 0, "simulationMode": [null, null, null, null, null], "rewards": [1, -2, -3, 14, -37], "path": ["0", "0", "1", "2", "3", "4", "7"], "rt": [6375, 569, 604, 811, 765], "actions": ["up", "up", "up", "right", "down"], "actionTimes": [10200, 11310, 12426, 13751, 15037], "queries": {"click": {"state": {"target": [], "time": []}, "edge": {"target": [], "time": []}}, "mouseover": {"state": {"target": [], "time": []}, "edge": {"target": [], "time": []}}, "mouseout": {"state": {"target": ["0", "0"], "time": [8582, 18086]}, "edge": {"target": [], "time": []}}}, "displayed_time": "17.83", "trialTime": 20806, "trial_type": "mouselab-mdp", "trial_index": 27, "time_elapsed": 1755171, "internal_node_id": "0.0-6.0-1.0-0.0"}}, {"uniqueid": "w70263759:a46241319", "current_trial": 28, "dateTime": 1693566688294, "trialdata": {"revealed_states": [], "clicked_states": [], "num_clicks_accrued": [0, 0, 0, 0, 0, 0, 0, 0, 0, 0, 0, 0, 0], "stateRewards": ["", -1, -4, -1, -5, -28, -23, -15, -15, -38, 59, -87, 2, 2, -5, 9, -55, -39, -71, -6, 85, -85, -11, -1, -2, 5, -10, 1, 25, 41, -4, 69, -35, 86], "withholdReward": false, "trial_id": "mdp_trial_2", "block": "test", "trialIndex": 9, "score": -47, "costs": 0, "simulationMode": [null, null, null, null, null], "rewards": [2, 2, -5, 9, -55], "path": ["0", "0", "12", "13", "14", "15", "16"], "rt": [1857, 446, 425, 716, 336], "actions": ["right", "right", "right", "up", "up"], "actionTimes": [6238, 7241, 8199, 9438, 10294], "queries": {"click": {"state": {"target": [], "time": []}, "edge": {"target": [], "time": []}}, "mouseover": {"state": {"target": [], "time": []}, "edge": {"target": [], "time": []}}, "mouseout": {"state": {"target": ["21", "0"], "time": [1712, 13639]}, "edge": {"target": [], "time": []}}}, "displayed_time": "18.39", "trialTime": 21501, "trial_type": "mouselab-mdp", "trial_index": 28, "time_elapsed": 1777569, "internal_node_id": "0.0-6.0-1.0-1.0"}}, {"uniqueid": "w70263759:a46241319", "current_trial": 29, "dateTime": 1693566708748, "trialdata": {"revealed_states": [], "clicked_states": [], "num_clicks_accrued": [0, 0, 0, 0, 0, 0, 0, 0, 0, 0, 0, 0, 0], "stateRewards": ["", 2, -2, 7, -11, -76, -65, -23, 16, -58, 30, 81, 1, 2, 7, 14, 9, 55, -2, 6, 11, -15, 31, -1, -1, -3, 2, 15, 2, 46, 15, 18, 45, -34], "withholdReward": false, "trial_id": "mdp_trial_3", "block": "test", "trialIndex": 10, "score": 33, "costs": 0, "simulationMode": [null, null, null, null, null], "rewards": [1, 2, 7, 14, 9], "path": ["0", "0", "12", "13", "14", "15", "16"], "rt": [2451, 318, 324, 734, 261], "actions": ["right", "right", "right", "up", "up"], "actionTimes": [5630, 6471, 7312, 8575, 9367], "queries": {"click": {"state": {"target": [], "time": []}, "edge": {"target": [], "time": []}}, "mouseover": {"state": {"target": [], "time": []}, "edge": {"target": [], "time": []}}, "mouseout": {"state": {"target": ["14", "18", "12", "0", "18", "15"], "time": [1423, 1840, 1895, 12163, 12250, 12295]}, "edge": {"target": [], "time": []}}}, "displayed_time": "17.18", "trialTime": 19404, "trial_type": "mouselab-mdp", "trial_index": 29, "time_elapsed": 1798025, "internal_node_id": "0.0-6.0-1.0-2.0"}}, {"uniqueid": "w70263759:a46241319", "current_trial": 30, "dateTime": 1693566728492, "trialdata": {"revealed_states": [], "clicked_states": [], "num_clicks_accrued": [0, 0, 0, 0, 0, 0, 0, 0, 0, 0, 0, 0, 0], "stateRewards": ["", 2, -4, -4, 13, -80, 62, 13, -11, 57, -13, -44, 1, 4, 3, -4, -29, -88, 15, 16, -58, 68, -45, -1, -3, -1, -9, -44, -86, -19, -7, -36, 59, 66], "withholdReward": false, "trial_id": "mdp_trial_4", "block": "test", "trialIndex": 11, "score": -100, "costs": 0, "simulationMode": [null, null, null, null, null], "rewards": [-1, -3, -1, -9, -86], "path": ["0", "0", "23", "24", "25", "26", "28"], "rt": [2036, 377, 436, 1147, 492], "actions": ["left", "left", "left", "up", "right"], "actionTimes": [5553, 6471, 7416, 9091, 10113], "queries": {"click": {"state": {"target": [], "time": []}, "edge": {"target": [], "time": []}}, "mouseover": {"state": {"target": [], "time": []}, "edge": {"target": [], "time": []}}, "mouseout": {"state": {"target": ["0", "18"], "time": [11292, 11657]}, "edge": {"target": [], "time": []}}}, "displayed_time": "17.52", "trialTime": 18623, "trial_type": "mouselab-mdp", "trial_index": 30, "time_elapsed": 1817769, "internal_node_id": "0.0-6.0-1.0-3.0"}}, {"uniqueid": "w70263759:a46241319", "current_trial": 31, "dateTime": 1693566751638, "trialdata": {"revealed_states": [], "clicked_states": [], "num_clicks_accrued": [0, 0, 0, 0, 0, 0, 0, 0, 0, 0, 0, 0, 0], "stateRewards": ["", 1, 1, -3, 2, 22, -25, -11, -5, 50, 49, 3, 1, -1, 8, 14, -85, -30, 57, -6, -39, -16, 59, -2, -1, 5, 5, 59, -16, 8, 4, 67, 56, -9], "withholdReward": false, "trial_id": "mdp_trial_5", "block": "test", "trialIndex": 12, "score": -9, "costs": 0, "simulationMode": [null, null, null, null, null], "rewards": [-2, -1, 5, 5, -16], "path": ["0", "0", "23", "24", "25", "26", "28"], "rt": [1862, 381, 371, 728, 444], "actions": ["left", "left", "left", "up", "right"], "actionTimes": [5646, 6545, 7434, 8683, 9704], "queries": {"click": {"state": {"target": [], "time": []}, "edge": {"target": [], "time": []}}, "mouseover": {"state": {"target": [], "time": []}, "edge": {"target": [], "time": []}}, "mouseout": {"state": {"target": ["12", "0", "0", "16"], "time": [1975, 2811, 10783, 11113]}, "edge": {"target": [], "time": []}}}, "displayed_time": "17.80", "trialTime": 22075, "trial_type": "mouselab-mdp", "trial_index": 31, "time_elapsed": 1840915, "internal_node_id": "0.0-6.0-1.0-4.0"}}, {"uniqueid": "w70263759:a46241319", "current_trial": 32, "dateTime": 1693566771203, "trialdata": {"revealed_states": [], "clicked_states": [], "num_clicks_accrued": [0, 0, 0, 0, 0, 0, 0, 0, 0, 0, 0, 0, 0], "stateRewards": ["", -2, 3, -5, -7, 66, 43, -60, -4, -70, -75, 4, -1, 2, 2, -13, 54, 11, -40, -1, 77, 32, 15, -2, 3, -8, -9, -35, 83, -27, 6, -74, -34, 44], "withholdReward": false, "trial_id": "mdp_trial_6", "block": "test", "trialIndex": 13, "score": -4, "costs": 0, "simulationMode": [null, null, null, null, null], "rewards": [-2, 3, -5, -4, 4], "path": ["0", "0", "1", "2", "3", "8", "11"], "rt": [1990, 414, 438, 714, 4], "actions": ["up", "up", "up", "left", "left"], "actionTimes": [4808, 5748, 6688, 7917, 8438], "queries": {"click": {"state": {"target": [], "time": []}, "edge": {"target": [], "time": []}}, "mouseover": {"state": {"target": [], "time": []}, "edge": {"target": [], "time": []}}, "mouseout": {"state": {"target": ["21", "22", "0", "16"], "time": [993, 1026, 1750, 9813]}, "edge": {"target": [], "time": []}}}, "displayed_time": "16.83", "trialTime": 18427, "trial_type": "mouselab-mdp", "trial_index": 32, "time_elapsed": 1860480, "internal_node_id": "0.0-6.0-1.0-5.0"}}, {"uniqueid": "w70263759:a46241319", "current_trial": 33, "dateTime": 1693566792726, "trialdata": {"revealed_states": [], "clicked_states": [], "num_clicks_accrued": [0, 0, 0, 0, 0, 0, 0, 0, 0, 0, 0, 0, 0], "stateRewards": ["", -2, -4, 4, -11, -63, -60, -7, 2, -14, 81, -43, -1, -1, -5, 7, 10, 69, 40, 8, -83, 52, 60, 1, 2, 5, -5, 16, 64, 14, -3, 29, 7, -51], "withholdReward": false, "trial_id": "mdp_trial_7", "block": "test", "trialIndex": 14, "score": -46, "costs": 0, "simulationMode": [null, null, null, null, null], "rewards": [1, 2, 5, -3, -51], "path": ["0", "0", "23", "24", "25", "30", "33"], "rt": [2543, 397, 186, 846, 1033], "actions": ["left", "left", "left", "down", "left"], "actionTimes": [5799, 6714, 7402, 8794, 10347], "queries": {"click": {"state": {"target": [], "time": []}, "edge": {"target": [], "time": []}}, "mouseover": {"state": {"target": ["0"], "time": [4543]}, "edge": {"target": [], "time": []}}, "mouseout": {"state": {"target": ["15", "0", "0"], "time": [1658, 3824, 11604]}, "edge": {"target": [], "time": []}}}, "displayed_time": "17.27", "trialTime": 20448, "trial_type": "mouselab-mdp", "trial_index": 33, "time_elapsed": 1882003, "internal_node_id": "0.0-6.0-1.0-6.0"}}, {"uniqueid": "w70263759:a46241319", "current_trial": 34, "dateTime": 1693566814216, "trialdata": {"revealed_states": [], "clicked_states": [], "num_clicks_accrued": [0, 0, 0, 0, 0, 0, 0, 0, 0, 0, 0, 0, 0], "stateRewards": ["", -2, 4, -5, -12, 85, -24, -18, -15, -78, -22, 26, -1, -1, 2, 14, -45, 52, -23, 7, -33, 24, -6, -2, -4, 5, -7, -16, 36, -39, 5, 71, -87, -23], "withholdReward": false, "trial_id": "mdp_trial_8", "block": "test", "trialIndex": 15, "score": -19, "costs": 0, "simulationMode": [null, null, null, null, null], "rewards": [-2, -4, 5, 5, -23], "path": ["0", "0", "23", "24", "25", "30", "33"], "rt": [2472, 325, 332, 1121, 522], "actions": ["left", "left", "left", "down", "left"], "actionTimes": [4950, 5797, 6652, 8274, 9325], "queries": {"click": {"state": {"target": [], "time": []}, "edge": {"target": [], "time": []}}, "mouseover": {"state": {"target": [], "time": []}, "edge": {"target": [], "time": []}}, "mouseout": {"state": {"target": ["12", "0"], "time": [1077, 10964]}, "edge": {"target": [], "time": []}}}, "displayed_time": "16.49", "trialTime": 20073, "trial_type": "mouselab-mdp", "trial_index": 34, "time_elapsed": 1903493, "internal_node_id": "0.0-6.0-1.0-7.0"}}, {"uniqueid": "w70263759:a46241319", "current_trial": 35, "dateTime": 1693566836214, "trialdata": {"revealed_states": [], "clicked_states": [], "num_clicks_accrued": [0, 0, 0, 0, 0, 0, 0, 0, 0, 0, 0, 0, 0], "stateRewards": ["", -1, 4, 3, 12, -27, 34, -33, 3, -63, 1, 6, 2, 2, -6, -11, -77, -85, 68, -6, 51, 81, -60, -2, -2, 1, 15, 20, 15, 68, -10, -14, 6, -4], "withholdReward": false, "trial_id": "mdp_trial_9", "block": "test", "trialIndex": 16, "score": 43, "costs": 0, "simulationMode": [null, null, null, null, null], "rewards": [2, 2, -6, -6, 51], "path": ["0", "0", "12", "13", "14", "19", "20"], "rt": [3106, 569, 495, 738, 826], "actions": ["right", "right", "right", "down", "right"], "actionTimes": [5778, 6863, 7872, 9113, 10450], "queries": {"click": {"state": {"target": [], "time": []}, "edge": {"target": [], "time": []}}, "mouseover": {"state": {"target": ["12"], "time": [3785]}, "edge": {"target": [], "time": []}}, "mouseout": {"state": {"target": ["21", "12", "0", "12", "12", "15", "16"], "time": [967, 1050, 3423, 4418, 12538, 12885, 13250]}, "edge": {"target": [], "time": []}}}, "displayed_time": "16.68", "trialTime": 20558, "trial_type": "mouselab-mdp", "trial_index": 35, "time_elapsed": 1925491, "internal_node_id": "0.0-6.0-1.0-8.0"}}, {"uniqueid": "w70263759:a46241319", "current_trial": 36, "dateTime": 1693566856062, "trialdata": {"revealed_states": [], "clicked_states": [], "num_clicks_accrued": [0, 0, 0, 0, 0, 0, 0, 0, 0, 0, 0, 0, 0], "stateRewards": ["", -1, 3, 1, -7, 56, 76, 57, 3, 11, -9, 14, 1, -2, 2, 8, -77, -3, 79, -5, 88, 24, -66, -2, -1, 7, -7, -30, 14, -76, 11, -36, 28, -6], "withholdReward": false, "trial_id": "mdp_trial_10", "block": "test", "trialIndex": 17, "score": 6, "costs": 0, "simulationMode": [null, null, null, null, null], "rewards": [1, -2, 2, 8, -3], "path": ["0", "0", "12", "13", "14", "15", "17"], "rt": [3464, 1127, 487, 860, 534], "actions": ["right", "right", "right", "up", "right"], "actionTimes": [6830, 8464, 9468, 10830, 11873], "queries": {"click": {"state": {"target": [], "time": []}, "edge": {"target": [], "time": []}}, "mouseover": {"state": {"target": [], "time": []}, "edge": {"target": [], "time": []}}, "mouseout": {"state": {"target": ["17", "0", "24", "23"], "time": [993, 1057, 1596, 1695]}, "edge": {"target": [], "time": []}}}, "displayed_time": "17.38", "trialTime": 18086, "trial_type": "mouselab-mdp", "trial_index": 36, "time_elapsed": 1945338, "internal_node_id": "0.0-6.0-1.0-9.0"}}, {"uniqueid": "w70263759:a46241319", "current_trial": 37, "dateTime": 1693566876987, "trialdata": {"revealed_states": [], "clicked_states": [], "num_clicks_accrued": [0, 0, 0, 0, 0, 0, 0, 0, 0, 0, 0, 0, 0], "stateRewards": ["", -1, 2, -2, 13, -56, -28, 10, 14, 53, -80, -29, 1, -3, -3, -14, 14, 9, -40, -9, 18, 18, 48, 1, 1, 1, -9, 64, -39, -9, 7, -52, -78, 7], "withholdReward": false, "trial_id": "mdp_trial_11", "block": "test", "trialIndex": 18, "score": 34, "costs": 0, "simulationMode": [null, null, null, null, null], "rewards": [1, -3, -3, -9, 48], "path": ["0", "0", "12", "13", "14", "19", "22"], "rt": [2584, 517, 635, 919, 1349], "actions": ["right", "right", "right", "down", "left"], "actionTimes": [5451, 6487, 7639, 9089, 10950], "queries": {"click": {"state": {"target": [], "time": []}, "edge": {"target": [], "time": []}}, "mouseover": {"state": {"target": [], "time": []}, "edge": {"target": [], "time": []}}, "mouseout": {"state": {"target": ["0", "23"], "time": [1037, 1460]}, "edge": {"target": [], "time": []}}}, "displayed_time": "16.88", "trialTime": 19632, "trial_type": "mouselab-mdp", "trial_index": 37, "time_elapsed": 1966263, "internal_node_id": "0.0-6.0-1.0-10.0"}}, {"uniqueid": "w70263759:a46241319", "current_trial": 38, "dateTime": 1693566901868, "trialdata": {"revealed_states": [], "clicked_states": [], "num_clicks_accrued": [0, 0, 0, 0, 0, 0, 0, 0, 0, 0, 0, 0, 0], "stateRewards": ["", 2, -1, 1, 10, -52, 86, -22, -2, -14, -63, 38, 1, 3, 7, -8, 11, -32, -27, 9, -71, 40, -87, -2, -1, 5, -7, 12, 31, -57, 13, 86, -58, 29], "withholdReward": false, "trial_id": "mdp_trial_12", "block": "test", "trialIndex": 19, "score": -14, "costs": 0, "simulationMode": [null, null, null, null, null], "rewards": [2, -1, 1, -2, -14], "path": ["0", "0", "1", "2", "3", "8", "9"], "rt": [3375, 607, 416, 790, 783], "actions": ["up", "up", "up", "left", "up"], "actionTimes": [10953, 12079, 13009, 14316, 15607], "queries": {"click": {"state": {"target": [], "time": []}, "edge": {"target": [], "time": []}}, "mouseover": {"state": {"target": [], "time": []}, "edge": {"target": [], "time": []}}, "mouseout": {"state": {"target": ["0", "0"], "time": [5779, 5971]}, "edge": {"target": [], "time": []}}}, "displayed_time": "21.59", "trialTime": 23555, "trial_type": "mouselab-mdp", "trial_index": 38, "time_elapsed": 1991145, "internal_node_id": "0.0-6.0-1.0-11.0"}}, {"uniqueid": "w70263759:a46241319", "current_trial": 39, "dateTime": 1693566921824, "trialdata": {"revealed_states": [], "clicked_states": [], "num_clicks_accrued": [0, 0, 0, 0, 0, 0, 0, 0, 0, 0, 0, 0, 0], "stateRewards": ["", -1, 3, -4, -14, 78, 67, 2, 13, -32, 28, 39, -2, 1, -4, -4, -4, -42, -86, 11, 64, -29, -32, -1, -4, 2, -7, 5, 68, -61, 2, -21, 85, 50], "withholdReward": false, "trial_id": "mdp_trial_13", "block": "test", "trialIndex": 20, "score": -14, "costs": 0, "simulationMode": [null, null, null, null, null], "rewards": [-1, 3, -4, -14, 2], "path": ["0", "0", "1", "2", "3", "4", "7"], "rt": [1502, 300, 332, 608, 783], "actions": ["up", "up", "up", "right", "down"], "actionTimes": [4230, 5055, 5915, 7046, 8340], "queries": {"click": {"state": {"target": [], "time": []}, "edge": {"target": [], "time": []}}, "mouseover": {"state": {"target": [], "time": []}, "edge": {"target": [], "time": []}}, "mouseout": {"state": {"target": ["1"], "time": [1182]}, "edge": {"target": [], "time": []}}}, "displayed_time": "16.73", "trialTime": 18712, "trial_type": "mouselab-mdp", "trial_index": 39, "time_elapsed": 2011101, "internal_node_id": "0.0-6.0-1.0-12.0"}}, {"uniqueid": "w70263759:a46241319", "current_trial": 40, "dateTime": 1693566941827, "trialdata": {"revealed_states": [], "clicked_states": [], "num_clicks_accrued": [0, 0, 0, 0, 0, 0, 0, 0, 0, 0, 0, 0, 0], "stateRewards": ["", 1, -3, -2, 14, 49, -40, -39, 2, 26, -61, 73, 1, -4, -8, 12, 79, 29, -65, -13, 55, -26, 27, -1, 3, 3, 9, -17, -60, -18, -8, 35, -88, 69], "withholdReward": false, "trial_id": "mdp_trial_14", "block": "test", "trialIndex": 21, "score": 30, "costs": 0, "simulationMode": [null, null, null, null, null], "rewards": [1, -4, -8, 12, 29], "path": ["0", "0", "12", "13", "14", "15", "17"], "rt": [2287, 321, 312, 534, 226], "actions": ["right", "right", "right", "up", "right"], "actionTimes": [4097, 4932, 5755, 6797, 7555], "queries": {"click": {"state": {"target": [], "time": []}, "edge": {"target": [], "time": []}}, "mouseover": {"state": {"target": [], "time": []}, "edge": {"target": [], "time": []}}, "mouseout": {"state": {"target": ["0", "0", "16"], "time": [1113, 10618, 10672]}, "edge": {"target": [], "time": []}}}, "displayed_time": "15.82", "trialTime": 18291, "trial_type": "mouselab-mdp", "trial_index": 40, "time_elapsed": 2031104, "internal_node_id": "0.0-6.0-1.0-13.0"}}, {"uniqueid": "w70263759:a46241319", "current_trial": 41, "dateTime": 1693566963958, "trialdata": {"revealed_states": [], "clicked_states": [], "num_clicks_accrued": [0, 0, 0, 0, 0, 0, 0, 0, 0, 0, 0, 0, 0], "stateRewards": ["", -2, 1, -5, 2, -68, 80, 33, 10, 67, -59, 20, -1, -3, 3, 14, 74, -2, 24, -16, 63, 80, 46, -1, 4, 6, 12, 83, -38, -43, -4, 43, 14, -79], "withholdReward": false, "trial_id": "mdp_trial_15", "block": "test", "trialIndex": 22, "score": 63, "costs": 0, "simulationMode": [null, null, null, null, null], "rewards": [-1, -3, 3, -16, 80], "path": ["0", "0", "12", "13", "14", "19", "21"], "rt": [2034, 370, 356, 548, 835], "actions": ["right", "right", "right", "down", "down"], "actionTimes": [5356, 6251, 7138, 8211, 9549], "queries": {"click": {"state": {"target": [], "time": []}, "edge": {"target": [], "time": []}}, "mouseover": {"state": {"target": [], "time": []}, "edge": {"target": [], "time": []}}, "mouseout": {"state": {"target": ["15", "14", "22", "0", "0", "23", "24", "25", "26", "12", "14"], "time": [1435, 1464, 1758, 2340, 18535, 18675, 18725, 18842, 18876, 19547, 19659]}, "edge": {"target": [], "time": []}}}, "displayed_time": "17.33", "trialTime": 20758, "trial_type": "mouselab-mdp", "trial_index": 41, "time_elapsed": 2053235, "internal_node_id": "0.0-6.0-1.0-14.0"}}, {"uniqueid": "w70263759:a46241319", "current_trial": 42, "dateTime": 1693566985666, "trialdata": {"revealed_states": [], "clicked_states": [], "num_clicks_accrued": [0, 0, 0, 0, 0, 0, 0, 0, 0, 0, 0, 0, 0], "stateRewards": ["", 1, 1, -2, 7, -31, -6, 76, 1, -36, -16, -53, 2, 1, 7, 13, -47, -10, 47, -7, 72, 46, -56, -2, -2, -2, 11, -80, 44, 38, 16, 67, 85, -78], "withholdReward": false, "trial_id": "mdp_trial_16", "block": "test", "trialIndex": 23, "score": 75, "costs": 0, "simulationMode": [null, null, null, null, null], "rewards": [2, 1, 7, -7, 72], "path": ["0", "0", "12", "13", "14", "19", "20"], "rt": [1733, 188, 127, 1560, 591], "actions": ["right", "right", "right", "down", "right"], "actionTimes": [4813, 5525, 6265, 8331, 9444], "queries": {"click": {"state": {"target": [], "time": []}, "edge": {"target": [], "time": []}}, "mouseover": {"state": {"target": [], "time": []}, "edge": {"target": [], "time": []}}, "mouseout": {"state": {"target": ["20", "22", "0", "0", "31", "30", "33", "26", "28", "0", "0"], "time": [752, 797, 2055, 18296, 18362, 18395, 18529, 18613, 18662, 19365, 19677]}, "edge": {"target": [], "time": []}}}, "displayed_time": "17.09", "trialTime": 20322, "trial_type": "mouselab-mdp", "trial_index": 42, "time_elapsed": 2074943, "internal_node_id": "0.0-6.0-1.0-15.0"}}, {"uniqueid": "w70263759:a46241319", "current_trial": 43, "dateTime": 1693567009118, "trialdata": {"revealed_states": [], "clicked_states": [], "num_clicks_accrued": [0, 0, 0, 0, 0, 0, 0, 0, 0, 0, 0, 0, 0], "stateRewards": ["", 2, -1, 8, -2, -16, 69, -39, -7, -13, -27, -86, 2, -2, 2, 13, -34, -16, -20, -5, 19, 81, 32, -2, -1, 2, -14, 20, 80, 58, 4, 70, 12, 73], "withholdReward": false, "trial_id": "mdp_trial_17", "block": "test", "trialIndex": 24, "score": 78, "costs": 0, "simulationMode": [null, null, null, null, null], "rewards": [2, -2, 2, -5, 81], "path": ["0", "0", "12", "13", "14", "19", "21"], "rt": [1745, 471, 293, 657, 518], "actions": ["right", "right", "right", "down", "down"], "actionTimes": [4384, 5366, 6173, 7356, 8381], "queries": {"click": {"state": {"target": [], "time": []}, "edge": {"target": [], "time": []}}, "mouseover": {"state": {"target": [], "time": []}, "edge": {"target": [], "time": []}}, "mouseout": {"state": {"target": ["0", "17"], "time": [18838, 18894]}, "edge": {"target": [], "time": []}}}, "displayed_time": "16.65", "trialTime": 21768, "trial_type": "mouselab-mdp", "trial_index": 43, "time_elapsed": 2098395, "internal_node_id": "0.0-6.0-1.0-16.0"}}, {"uniqueid": "w70263759:a46241319", "current_trial": 44, "dateTime": 1693567029927, "trialdata": {"revealed_states": [], "clicked_states": [], "num_clicks_accrued": [0, 0, 0, 0, 0, 0, 0, 0, 0, 0, 0, 0, 0], "stateRewards": ["", -1, 1, -1, 2, 19, 85, -18, 2, -3, -26, 36, 2, 4, 7, -9, -18, 70, 72, -5, 35, -20, -28, 1, -2, -4, -3, -59, -11, -63, -2, -72, 59, -69], "withholdReward": false, "trial_id": "mdp_trial_18", "block": "test", "trialIndex": 25, "score": 52, "costs": 0, "simulationMode": [null, null, null, null, null], "rewards": [1, -2, -4, -2, 59], "path": ["0", "0", "23", "24", "25", "30", "32"], "rt": [1969, 281, 412, 1000, 238], "actions": ["left", "left", "left", "down", "down"], "actionTimes": [4547, 5347, 6278, 7783, 8538], "queries": {"click": {"state": {"target": [], "time": []}, "edge": {"target": [], "time": []}}, "mouseover": {"state": {"target": [], "time": []}, "edge": {"target": [], "time": []}}, "mouseout": {"state": {"target": ["19", "0"], "time": [670, 1240]}, "edge": {"target": [], "time": []}}}, "displayed_time": "16.59", "trialTime": 19360, "trial_type": "mouselab-mdp", "trial_index": 44, "time_elapsed": 2119203, "internal_node_id": "0.0-6.0-1.0-17.0"}}, {"uniqueid": "w70263759:a46241319", "current_trial": 45, "dateTime": 1693567052243, "trialdata": {"revealed_states": [], "clicked_states": [], "num_clicks_accrued": [0, 0, 0, 0, 0, 0, 0, 0, 0, 0, 0, 0, 0], "stateRewards": ["", 1, 2, 8, -2, 23, -69, -18, -16, 54, -21, 71, -1, -4, 7, 11, 43, -6, 88, 6, -55, 72, 43, 1, -3, -2, -1, 68, -31, -54, 4, -8, 25, -2], "withholdReward": false, "trial_id": "mdp_trial_19", "block": "test", "trialIndex": 26, "score": -2, "costs": 0, "simulationMode": [null, null, null, null, null], "rewards": [1, -3, -2, 4, -2], "path": ["0", "0", "23", "24", "25", "30", "33"], "rt": [1692, 218, 397, 669, 730], "actions": ["left", "left", "left", "down", "left"], "actionTimes": [5426, 6171, 7066, 8238, 9466], "queries": {"click": {"state": {"target": [], "time": []}, "edge": {"target": [], "time": []}}, "mouseover": {"state": {"target": [], "time": []}, "edge": {"target": [], "time": []}}, "mouseout": {"state": {"target": ["0", "16"], "time": [3025, 17504]}, "edge": {"target": [], "time": []}}}, "displayed_time": "17.74", "trialTime": 20880, "trial_type": "mouselab-mdp", "trial_index": 45, "time_elapsed": 2141520, "internal_node_id": "0.0-6.0-1.0-18.0"}}, {"uniqueid": "w70263759:a46241319", "current_trial": 46, "dateTime": 1693567073143, "trialdata": {"revealed_states": [], "clicked_states": [], "num_clicks_accrued": [0, 0, 0, 0, 0, 0, 0, 0, 0, 0, 0, 0, 0], "stateRewards": ["", -1, 3, 8, 10, -86, 61, -36, 10, 17, -60, 24, -1, -3, 3, 11, 50, 60, 33, -3, -20, 58, -6, 1, -4, -4, 13, -70, -71, 43, 14, 52, 82, -11], "withholdReward": false, "trial_id": "mdp_trial_20", "block": "test", "trialIndex": 27, "score": 54, "costs": 0, "simulationMode": [null, null, null, null, null], "rewards": [-1, -3, 3, -3, 58], "path": ["0", "0", "12", "13", "14", "19", "21"], "rt": [2426, 144, 234, 561, 613], "actions": ["right", "right", "right", "down", "down"], "actionTimes": [5293, 5980, 6728, 7790, 9019], "queries": {"click": {"state": {"target": [], "time": []}, "edge": {"target": [], "time": []}}, "mouseover": {"state": {"target": [], "time": []}, "edge": {"target": [], "time": []}}, "mouseout": {"state": {"target": ["20", "21"], "time": [1037, 1054]}, "edge": {"target": [], "time": []}}}, "displayed_time": "16.87", "trialTime": 19488, "trial_type": "mouselab-mdp", "trial_index": 46, "time_elapsed": 2162420, "internal_node_id": "0.0-6.0-1.0-19.0"}}, {"uniqueid": "w70263759:a46241319", "current_trial": 47, "dateTime": 1693567092882, "trialdata": {"revealed_states": [], "clicked_states": [], "num_clicks_accrued": [0, 0, 0, 0, 0, 0, 0, 0, 0, 0, 0, 0, 0], "stateRewards": ["", -2, -4, -2, -13, -15, 87, -19, -6, -80, 30, 12, 1, 1, -8, 2, 55, 56, 15, 11, -68, -7, 55, -2, 3, -3, -3, 48, 62, 4, 1, -3, 69, -33], "withholdReward": false, "trial_id": "mdp_trial_21", "block": "test", "trialIndex": 28, "score": -2, "costs": 0, "simulationMode": [null, null, null, null, null], "rewards": [1, 1, -8, 11, -7], "path": ["0", "0", "12", "13", "14", "19", "21"], "rt": [1108, 219, 241, 451, 192], "actions": ["right", "right", "right", "down", "down"], "actionTimes": [3531, 4266, 5021, 5986, 6699], "queries": {"click": {"state": {"target": [], "time": []}, "edge": {"target": [], "time": []}}, "mouseover": {"state": {"target": [], "time": []}, "edge": {"target": [], "time": []}}, "mouseout": {"state": {"target": [], "time": []}, "edge": {"target": [], "time": []}}}, "displayed_time": "16.43", "trialTime": 17843, "trial_type": "mouselab-mdp", "trial_index": 47, "time_elapsed": 2182158, "internal_node_id": "0.0-6.0-1.0-20.0"}}, {"uniqueid": "w70263759:a46241319", "current_trial": 48, "dateTime": 1693567114719, "trialdata": {"revealed_states": [], "clicked_states": [], "num_clicks_accrued": [0, 0, 0, 0, 0, 0, 0, 0, 0, 0, 0, 0, 0], "stateRewards": ["", -1, -3, -6, -2, -7, 80, -45, -3, -38, -72, 76, 2, 1, 7, 4, -62, 14, -74, 14, -87, -21, -88, -2, 1, -7, -10, 66, 56, -76, 10, -29, -72, -70], "withholdReward": false, "trial_id": "mdp_trial_22", "block": "test", "trialIndex": 29, "score": 38, "costs": 0, "simulationMode": [null, null, null, null, null], "rewards": [-2, 1, -7, -10, 56], "path": ["0", "0", "23", "24", "25", "26", "28"], "rt": [1820, 115, 274, 796, 349], "actions": ["left", "left", "left", "up", "right"], "actionTimes": [5838, 6461, 7267, 8575, 9428], "queries": {"click": {"state": {"target": [], "time": []}, "edge": {"target": [], "time": []}}, "mouseover": {"state": {"target": [], "time": []}, "edge": {"target": [], "time": []}}, "mouseout": {"state": {"target": [], "time": []}, "edge": {"target": [], "time": []}}}, "displayed_time": "18.03", "trialTime": 20632, "trial_type": "mouselab-mdp", "trial_index": 48, "time_elapsed": 2203996, "internal_node_id": "0.0-6.0-1.0-21.0"}}, {"uniqueid": "w70263759:a46241319", "current_trial": 49, "dateTime": 1693567135414, "trialdata": {"revealed_states": [], "clicked_states": [], "num_clicks_accrued": [0, 0, 0, 0, 0, 0, 0, 0, 0, 0, 0, 0, 0], "stateRewards": ["", -2, 3, -1, 2, -72, 63, 20, -1, 62, -66, 39, -2, 3, -6, 14, 22, 47, 1, 8, -49, -1, -41, 2, 2, -6, -16, -64, -60, -34, 16, 54, 22, -7], "withholdReward": false, "trial_id": "mdp_trial_23", "block": "test", "trialIndex": 30, "score": -82, "costs": 0, "simulationMode": [null, null, null, null, null], "rewards": [2, 2, -6, -16, -64], "path": ["0", "0", "23", "24", "25", "26", "27"], "rt": [990, 189, 178, 651, 356], "actions": ["left", "left", "left", "up", "up"], "actionTimes": [3158, 3852, 4557, 5716, 6586], "queries": {"click": {"state": {"target": [], "time": []}, "edge": {"target": [], "time": []}}, "mouseover": {"state": {"target": [], "time": []}, "edge": {"target": [], "time": []}}, "mouseout": {"state": {"target": [], "time": []}, "edge": {"target": [], "time": []}}}, "displayed_time": "16.18", "trialTime": 19243, "trial_type": "mouselab-mdp", "trial_index": 49, "time_elapsed": 2224691, "internal_node_id": "0.0-6.0-1.0-22.0"}}, {"uniqueid": "w70263759:a46241319", "current_trial": 50, "dateTime": 1693567154708, "trialdata": {"revealed_states": [], "clicked_states": [], "num_clicks_accrued": [0, 0, 0, 0, 0, 0, 0, 0, 0, 0, 0, 0, 0], "stateRewards": ["", 2, 3, 8, 11, 25, -80, 6, -4, -56, 84, -23, -2, -4, -3, 4, -51, -9, -61, -15, -64, 67, -35, 1, -1, -7, -6, 83, 59, -15, 12, -79, 56, 41], "withholdReward": false, "trial_id": "mdp_trial_24", "block": "test", "trialIndex": 31, "score": 30, "costs": 0, "simulationMode": [null, null, null, null, null], "rewards": [2, 3, 8, 11, 6], "path": ["0", "0", "1", "2", "3", "4", "7"], "rt": [1208, 914, 1000, 548, 381], "actions": ["up", "up", "up", "right", "down"], "actionTimes": [3193, 4634, 6138, 7191, 8085], "queries": {"click": {"state": {"target": [], "time": []}, "edge": {"target": [], "time": []}}, "mouseover": {"state": {"target": [], "time": []}, "edge": {"target": [], "time": []}}, "mouseout": {"state": {"target": [], "time": []}, "edge": {"target": [], "time": []}}}, "displayed_time": "15.99", "trialTime": 17944, "trial_type": "mouselab-mdp", "trial_index": 50, "time_elapsed": 2243985, "internal_node_id": "0.0-6.0-1.0-23.0"}}, {"uniqueid": "w70263759:a46241319", "current_trial": 51, "dateTime": 1693567174785, "trialdata": {"revealed_states": [], "clicked_states": [], "num_clicks_accrued": [0, 0, 0, 0, 0, 0, 0, 0, 0, 0, 0, 0, 0], "stateRewards": ["", 1, -4, 6, -3, 40, 76, -51, 5, -24, -63, 44, -2, -2, 8, 1, 76, -85, -58, 10, 59, 20, 11, -2, 3, -3, 3, -82, -10, 54, -7, -57, -6, -32], "withholdReward": false, "trial_id": "mdp_trial_25", "block": "test", "trialIndex": 32, "score": 76, "costs": 0, "simulationMode": [null, null, null, null, null], "rewards": [1, -4, 6, -3, 76], "path": ["0", "0", "1", "2", "3", "4", "6"], "rt": [1391, 169, 125, 420, 170], "actions": ["up", "up", "up", "right", "right"], "actionTimes": [4402, 5094, 5733, 6662, 7344], "queries": {"click": {"state": {"target": [], "time": []}, "edge": {"target": [], "time": []}}, "mouseover": {"state": {"target": [], "time": []}, "edge": {"target": [], "time": []}}, "mouseout": {"state": {"target": [], "time": []}, "edge": {"target": [], "time": []}}}, "displayed_time": "17.02", "trialTime": 18624, "trial_type": "mouselab-mdp", "trial_index": 51, "time_elapsed": 2264062, "internal_node_id": "0.0-6.0-1.0-24.0"}}, {"uniqueid": "w70263759:a46241319", "current_trial": 52, "dateTime": 1693567194182, "trialdata": {"revealed_states": [], "clicked_states": [], "num_clicks_accrued": [0, 0, 0, 0, 0, 0, 0, 0, 0, 0, 0, 0, 0], "stateRewards": ["", -1, 1, -5, -6, -78, 47, -13, 12, 48, -88, 20, 2, -3, -2, 13, -20, 37, -57, 14, -38, 30, 31, -2, -2, 8, 2, -23, 78, 28, 12, -74, -88, 8], "withholdReward": false, "trial_id": "mdp_trial_26", "block": "test", "trialIndex": 33, "score": -89, "costs": 0, "simulationMode": [null, null, null, null, null], "rewards": [-1, 1, -5, -6, -78], "path": ["0", "0", "1", "2", "3", "4", "5"], "rt": [1103, 328, 883, 491, 782], "actions": ["up", "up", "up", "right", "up"], "actionTimes": [3208, 4065, 5454, 6446, 7737], "queries": {"click": {"state": {"target": [], "time": []}, "edge": {"target": [], "time": []}}, "mouseover": {"state": {"target": [], "time": []}, "edge": {"target": [], "time": []}}, "mouseout": {"state": {"target": [], "time": []}, "edge": {"target": [], "time": []}}}, "displayed_time": "16.11", "trialTime": 17815, "trial_type": "mouselab-mdp", "trial_index": 52, "time_elapsed": 2283458, "internal_node_id": "0.0-6.0-1.0-25.0"}}, {"uniqueid": "w70263759:a46241319", "current_trial": 53, "dateTime": 1693567214805, "trialdata": {"revealed_states": [], "clicked_states": [], "num_clicks_accrued": [0, 0, 0, 0, 0, 0, 0, 0, 0, 0, 0, 0, 0], "stateRewards": ["", 1, 1, -6, -2, 7, 77, 3, 16, -16, 66, 31, -1, 3, -8, -6, 33, -50, -48, 7, -60, -66, 36, 2, -3, 3, -7, -12, -61, -79, -4, 8, 74, -70], "withholdReward": false, "trial_id": "mdp_trial_27", "block": "test", "trialIndex": 34, "score": -4, "costs": 0, "simulationMode": [null, null, null, null, null], "rewards": [1, 1, -6, 16, -16], "path": ["0", "0", "1", "2", "3", "8", "9"], "rt": [1619, 500, 221, 539, 685], "actions": ["up", "up", "up", "left", "up"], "actionTimes": [5311, 6414, 7175, 8229, 9466], "queries": {"click": {"state": {"target": [], "time": []}, "edge": {"target": [], "time": []}}, "mouseover": {"state": {"target": [], "time": []}, "edge": {"target": [], "time": []}}, "mouseout": {"state": {"target": [], "time": []}, "edge": {"target": [], "time": []}}}, "displayed_time": "17.70", "trialTime": 19290, "trial_type": "mouselab-mdp", "trial_index": 53, "time_elapsed": 2304082, "internal_node_id": "0.0-6.0-1.0-26.0"}}, {"uniqueid": "w70263759:a46241319", "current_trial": 54, "dateTime": 1693567233859, "trialdata": {"revealed_states": [], "clicked_states": [], "num_clicks_accrued": [0, 0, 0, 0, 0, 0, 0, 0, 0, 0, 0, 0, 0], "stateRewards": ["", -2, -3, 1, -14, 48, -49, 67, -1, -35, -48, 3, -2, 1, -4, -5, 86, -84, 39, 1, 48, 41, -42, -1, -4, 2, -7, 18, -86, 17, 7, -9, 57, -69], "withholdReward": false, "trial_id": "mdp_trial_28", "block": "test", "trialIndex": 35, "score": -53, "costs": 0, "simulationMode": [null, null, null, null, null], "rewards": [-2, -3, 1, -1, -48], "path": ["0", "0", "1", "2", "3", "8", "10"], "rt": [3121, 188, 394, 692, 633], "actions": ["up", "up", "up", "left", "down"], "actionTimes": [5066, 5771, 6677, 7874, 9018], "queries": {"click": {"state": {"target": [], "time": []}, "edge": {"target": [], "time": []}}, "mouseover": {"state": {"target": [], "time": []}, "edge": {"target": [], "time": []}}, "mouseout": {"state": {"target": [], "time": []}, "edge": {"target": [], "time": []}}}, "displayed_time": "15.95", "trialTime": 17625, "trial_type": "mouselab-mdp", "trial_index": 54, "time_elapsed": 2323136, "internal_node_id": "0.0-6.0-1.0-27.0"}}, {"uniqueid": "w70263759:a46241319", "current_trial": 55, "dateTime": 1693567254222, "trialdata": {"revealed_states": [], "clicked_states": [], "num_clicks_accrued": [0, 0, 0, 0, 0, 0, 0, 0, 0, 0, 0, 0, 0], "stateRewards": ["", -2, -2, -7, -13, -10, 49, -68, -1, 84, 70, 88, 1, 4, 4, 12, -57, 25, 30, 8, -1, -77, 57, 2, 3, 2, 3, -18, -80, 23, -15, -41, 70, 11], "withholdReward": false, "trial_id": "mdp_trial_29", "block": "test", "trialIndex": 36, "score": 46, "costs": 0, "simulationMode": [null, null, null, null, null], "rewards": [1, 4, 4, 12, 25], "path": ["0", "0", "12", "13", "14", "15", "17"], "rt": [826, 689, 259, 556, 615], "actions": ["right", "right", "right", "up", "right"], "actionTimes": [2848, 4044, 4814, 5896, 7021], "queries": {"click": {"state": {"target": [], "time": []}, "edge": {"target": [], "time": []}}, "mouseover": {"state": {"target": [], "time": []}, "edge": {"target": [], "time": []}}, "mouseout": {"state": {"target": ["0", "13", "14"], "time": [15860, 15916, 15966]}, "edge": {"target": [], "time": []}}}, "displayed_time": "16.04", "trialTime": 18977, "trial_type": "mouselab-mdp", "trial_index": 55, "time_elapsed": 2343499, "internal_node_id": "0.0-6.0-1.0-28.0"}}, {"uniqueid": "w70263759:a46241319", "current_trial": 56, "dateTime": 1693567275137, "trialdata": {"revealed_states": [], "clicked_states": [], "num_clicks_accrued": [0, 0, 0, 0, 0, 0, 0, 0, 0, 0, 0, 0, 0], "stateRewards": ["", 1, 4, 5, 8, -55, -11, 8, 16, -37, 77, -22, -2, 3, -8, -10, 45, 87, -67, 4, 17, -33, -22, -1, -3, 7, 6, -39, -85, 75, -1, 7, -48, 45], "withholdReward": false, "trial_id": "mdp_trial_30", "block": "test", "trialIndex": 37, "score": -84, "costs": 0, "simulationMode": [null, null, null, null, null], "rewards": [-2, 3, -8, -10, -67], "path": ["0", "0", "12", "13", "14", "15", "18"], "rt": [558, 308, 315, 501, 479], "actions": ["right", "right", "right", "up", "left"], "actionTimes": [3836, 4653, 5477, 6482, 7558], "queries": {"click": {"state": {"target": [], "time": []}, "edge": {"target": [], "time": []}}, "mouseover": {"state": {"target": [], "time": []}, "edge": {"target": [], "time": []}}, "mouseout": {"state": {"target": ["16", "0"], "time": [1440, 2037]}, "edge": {"target": [], "time": []}}}, "displayed_time": "17.29", "trialTime": 19231, "trial_type": "mouselab-mdp", "trial_index": 56, "time_elapsed": 2364414, "internal_node_id": "0.0-6.0-1.0-29.0"}}, {"uniqueid": "w70263759:a46241319", "current_trial": 57, "dateTime": 1693567295550, "trialdata": {"revealed_states": [], "clicked_states": [], "num_clicks_accrued": [0, 0, 0, 0, 0, 0, 0, 0, 0, 0, 0, 0, 0], "stateRewards": ["", 1, 1, -5, 8, -6, 45, 16, -6, -7, -22, -38, -1, -4, 8, -11, -16, 21, -45, -15, -59, -32, 42, -1, 3, 6, 11, -7, 34, -27, -8, 85, 43, -9], "withholdReward": false, "trial_id": "mdp_trial_31", "block": "test", "trialIndex": 38, "score": -44, "costs": 0, "simulationMode": [null, null, null, null, null], "rewards": [-1, -4, 8, -15, -32], "path": ["0", "0", "12", "13", "14", "19", "21"], "rt": [1445, 231, 435, 655, 256], "actions": ["right", "right", "right", "down", "down"], "actionTimes": [3083, 3835, 4778, 5958, 6733], "queries": {"click": {"state": {"target": [], "time": []}, "edge": {"target": [], "time": []}}, "mouseover": {"state": {"target": [], "time": []}, "edge": {"target": [], "time": []}}, "mouseout": {"state": {"target": ["0"], "time": [802]}, "edge": {"target": [], "time": []}}}, "displayed_time": "15.64", "trialTime": 18769, "trial_type": "mouselab-mdp", "trial_index": 57, "time_elapsed": 2384827, "internal_node_id": "0.0-6.0-1.0-30.0"}}, {"uniqueid": "w70263759:a46241319", "current_trial": 58, "dateTime": 1693567320473, "trialdata": {"revealed_states": [], "clicked_states": [], "num_clicks_accrued": [0, 0, 0, 0, 0, 0, 0, 0, 0, 0, 0, 0, 0], "stateRewards": ["", -1, 2, 7, 8, 75, 67, -11, 6, 52, -17, 38, -1, 4, -8, 14, 74, -37, -17, -12, 52, 55, 71, -2, -1, -5, 2, 21, 6, -88, -14, 64, -61, -47], "withholdReward": false, "trial_id": "mdp_trial_32", "block": "test", "trialIndex": 39, "score": 83, "costs": 0, "simulationMode": [null, null, null, null, null], "rewards": [-1, 2, 7, 8, 67], "path": ["0", "0", "1", "2", "3", "4", "6"], "rt": [1190, 694, 139, 514, 1279], "actions": ["up", "up", "up", "right", "right"], "actionTimes": [8265, 9470, 10117, 11142, 12922], "queries": {"click": {"state": {"target": [], "time": []}, "edge": {"target": [], "time": []}}, "mouseover": {"state": {"target": [], "time": []}, "edge": {"target": [], "time": []}}, "mouseout": {"state": {"target": ["0", "0", "0"], "time": [4157, 4712, 5685]}, "edge": {"target": [], "time": []}}}, "displayed_time": "21.08", "trialTime": 23397, "trial_type": "mouselab-mdp", "trial_index": 58, "time_elapsed": 2409750, "internal_node_id": "0.0-6.0-1.0-31.0"}}, {"uniqueid": "w70263759:a46241319", "current_trial": 59, "dateTime": 1693567339252, "trialdata": {"revealed_states": [], "clicked_states": [], "num_clicks_accrued": [0, 0, 0, 0, 0, 0, 0, 0, 0, 0, 0, 0, 0], "stateRewards": ["", 2, 4, 7, 7, -79, -2, -21, -5, -53, 47, -21, 1, -3, -1, 7, 83, 7, 84, -7, 80, -37, 69, 2, -4, 5, 2, 4, -20, -30, 7, 71, 44, -81], "withholdReward": false, "trial_id": "mdp_trial_33", "block": "test", "trialIndex": 40, "score": -13, "costs": 0, "simulationMode": [null, null, null, null, null], "rewards": [2, 4, 7, -5, -21], "path": ["0", "0", "1", "2", "3", "8", "11"], "rt": [2478, 417, 18, 1027, 861], "actions": ["up", "up", "up", "left", "left"], "actionTimes": [4351, 5298, 5828, 7390, 8760], "queries": {"click": {"state": {"target": [], "time": []}, "edge": {"target": [], "time": []}}, "mouseover": {"state": {"target": [], "time": []}, "edge": {"target": [], "time": []}}, "mouseout": {"state": {"target": ["0"], "time": [1006]}, "edge": {"target": [], "time": []}}}, "displayed_time": "15.88", "trialTime": 17157, "trial_type": "mouselab-mdp", "trial_index": 59, "time_elapsed": 2428527, "internal_node_id": "0.0-6.0-1.0-32.0"}}, {"uniqueid": "w70263759:a46241319", "current_trial": 60, "dateTime": 1693567358940, "trialdata": {"revealed_states": [], "clicked_states": [], "num_clicks_accrued": [0, 0, 0, 0, 0, 0, 0, 0, 0, 0, 0, 0, 0], "stateRewards": ["", 1, -1, 4, -2, -75, -75, 84, -9, -60, -79, 59, 2, -4, 8, 9, -17, -82, 80, 14, -4, 49, 49, -1, 3, 6, -11, -33, 34, 55, 9, -57, 5, 59], "withholdReward": false, "trial_id": "mdp_trial_34", "block": "test", "trialIndex": 41, "score": 54, "costs": 0, "simulationMode": [null, null, null, null, null], "rewards": [1, -1, 4, -9, 59], "path": ["0", "0", "1", "2", "3", "8", "11"], "rt": [2140, 374, 9, 826, 752], "actions": ["up", "up", "up", "left", "left"], "actionTimes": [4269, 5162, 5679, 7032, 8351], "queries": {"click": {"state": {"target": [], "time": []}, "edge": {"target": [], "time": []}}, "mouseover": {"state": {"target": [], "time": []}, "edge": {"target": [], "time": []}}, "mouseout": {"state": {"target": ["0"], "time": [1297]}, "edge": {"target": [], "time": []}}}, "displayed_time": "16.14", "trialTime": 18006, "trial_type": "mouselab-mdp", "trial_index": 60, "time_elapsed": 2448217, "internal_node_id": "0.0-6.0-1.0-33.0"}}, {"uniqueid": "w70263759:a46241319", "current_trial": 61, "dateTime": 1693567378957, "trialdata": {"revealed_states": [], "clicked_states": [], "num_clicks_accrued": [0, 0, 0, 0, 0, 0, 0, 0, 0, 0, 0, 0, 0], "stateRewards": ["", -1, 3, 1, -11, -22, -36, 19, -5, -70, -52, 50, -2, -4, 4, -2, -41, -83, 29, -2, 22, 10, -6, -2, 3, -2, 14, 54, 44, 77, -9, -65, -37, -40], "withholdReward": false, "trial_id": "mdp_trial_35", "block": "test", "trialIndex": 42, "score": -44, "costs": 0, "simulationMode": [null, null, null, null, null], "rewards": [-1, 3, 1, -11, -36], "path": ["0", "0", "1", "2", "3", "4", "6"], "rt": [2054, 371, 376, 717, 393], "actions": ["up", "up", "up", "right", "right"], "actionTimes": [4197, 5098, 5985, 7216, 8122], "queries": {"click": {"state": {"target": [], "time": []}, "edge": {"target": [], "time": []}}, "mouseover": {"state": {"target": [], "time": []}, "edge": {"target": [], "time": []}}, "mouseout": {"state": {"target": ["0"], "time": [1276]}, "edge": {"target": [], "time": []}}}, "displayed_time": "16.15", "trialTime": 17694, "trial_type": "mouselab-mdp", "trial_index": 61, "time_elapsed": 2468234, "internal_node_id": "0.0-6.0-1.0-34.0"}}, {"uniqueid": "w70263759:a46241319", "current_trial": 62, "dateTime": 1693567398359, "trialdata": {"revealed_states": [], "clicked_states": [], "num_clicks_accrued": [0, 0, 0, 0, 0, 0, 0, 0, 0, 0, 0, 0, 0], "stateRewards": ["", 1, 2, -3, -5, 66, -50, -47, -5, 1, 28, -27, 1, 1, -1, -6, 37, -25, 56, 1, -82, -66, -40, -1, -4, -7, 15, -61, -23, 26, 10, 14, -56, 29], "withholdReward": false, "trial_id": "mdp_trial_36", "block": "test", "trialIndex": 43, "score": -58, "costs": 0, "simulationMode": [null, null, null, null, null], "rewards": [-1, -4, -7, 15, -61], "path": ["0", "0", "23", "24", "25", "26", "27"], "rt": [1196, 14, 81, 683, 277], "actions": ["left", "left", "left", "up", "up"], "actionTimes": [3113, 3630, 4231, 5439, 6235], "queries": {"click": {"state": {"target": [], "time": []}, "edge": {"target": [], "time": []}}, "mouseover": {"state": {"target": [], "time": []}, "edge": {"target": [], "time": []}}, "mouseout": {"state": {"target": ["0"], "time": [872]}, "edge": {"target": [], "time": []}}}, "displayed_time": "15.93", "trialTime": 17300, "trial_type": "mouselab-mdp", "trial_index": 62, "time_elapsed": 2487636, "internal_node_id": "0.0-6.0-1.0-35.0"}}, {"uniqueid": "w70263759:a46241319", "current_trial": 63, "dateTime": 1693567418390, "trialdata": {"revealed_states": [], "clicked_states": [], "num_clicks_accrued": [0, 0, 0, 0, 0, 0, 0, 0, 0, 0, 0, 0, 0], "stateRewards": ["", -2, 4, -7, -3, -76, 39, -28, 10, 14, 12, 60, 2, -3, 6, -10, 88, -34, -41, -3, 72, -13, -56, 1, 3, 2, 8, -51, 23, -57, 1, 14, -46, -16], "withholdReward": false, "trial_id": "mdp_trial_37", "block": "test", "trialIndex": 44, "score": -37, "costs": 0, "simulationMode": [null, null, null, null, null], "rewards": [1, 3, 2, 8, -51], "path": ["0", "0", "23", "24", "25", "26", "27"], "rt": [1086, 232, 11, 1309, 720], "actions": ["left", "left", "left", "up", "up"], "actionTimes": [2784, 3546, 4068, 5899, 7131], "queries": {"click": {"state": {"target": [], "time": []}, "edge": {"target": [], "time": []}}, "mouseover": {"state": {"target": [], "time": []}, "edge": {"target": [], "time": []}}, "mouseout": {"state": {"target": ["0"], "time": [830]}, "edge": {"target": [], "time": []}}}, "displayed_time": "15.71", "trialTime": 17639, "trial_type": "mouselab-mdp", "trial_index": 63, "time_elapsed": 2507667, "internal_node_id": "0.0-6.0-1.0-36.0"}}, {"uniqueid": "w70263759:a46241319", "current_trial": 64, "dateTime": 1693567438776, "trialdata": {"revealed_states": [], "clicked_states": [], "num_clicks_accrued": [0, 0, 0, 0, 0, 0, 0, 0, 0, 0, 0, 0, 0], "stateRewards": ["", 2, 4, -6, -13, -75, -81, 30, 7, 5, 59, -65, -1, -1, 7, 14, -38, 36, -41, 1, -54, -5, 64, 2, -1, 5, 6, -19, 79, 11, 16, -33, -50, 58], "withholdReward": false, "trial_id": "mdp_trial_38", "block": "test", "trialIndex": 45, "score": -58, "costs": 0, "simulationMode": [null, null, null, null, null], "rewards": [2, 4, -6, 7, -65], "path": ["0", "0", "1", "2", "3", "8", "11"], "rt": [2158, 113, 814, 368, 55], "actions": ["up", "up", "up", "left", "left"], "actionTimes": [4459, 5103, 6442, 7311, 7866], "queries": {"click": {"state": {"target": [], "time": []}, "edge": {"target": [], "time": []}}, "mouseover": {"state": {"target": [], "time": []}, "edge": {"target": [], "time": []}}, "mouseout": {"state": {"target": ["0"], "time": [1024]}, "edge": {"target": [], "time": []}}}, "displayed_time": "16.32", "trialTime": 18692, "trial_type": "mouselab-mdp", "trial_index": 64, "time_elapsed": 2528052, "internal_node_id": "0.0-6.0-1.0-37.0"}}, {"uniqueid": "w70263759:a46241319", "current_trial": 65, "dateTime": 1693567458450, "trialdata": {"revealed_states": [], "clicked_states": [], "num_clicks_accrued": [0, 0, 0, 0, 0, 0, 0, 0, 0, 0, 0, 0, 0], "stateRewards": ["", 2, 3, -1, 16, -78, -11, 46, 2, -20, 79, -67, 2, 3, 2, 11, -83, -42, -58, -11, -67, -22, 55, 2, -1, -1, -16, -83, -82, 23, -11, -29, 13, 13], "withholdReward": false, "trial_id": "mdp_trial_39", "block": "test", "trialIndex": 46, "score": 9, "costs": 0, "simulationMode": [null, null, null, null, null], "rewards": [2, 3, -1, 16, -11], "path": ["0", "0", "1", "2", "3", "4", "6"], "rt": [2045, 316, 320, 534, 204], "actions": ["up", "up", "up", "right", "right"], "actionTimes": [3976, 4827, 5646, 6725, 7431], "queries": {"click": {"state": {"target": [], "time": []}, "edge": {"target": [], "time": []}}, "mouseover": {"state": {"target": [], "time": []}, "edge": {"target": [], "time": []}}, "mouseout": {"state": {"target": ["0"], "time": [1010]}, "edge": {"target": [], "time": []}}}, "displayed_time": "15.94", "trialTime": 17702, "trial_type": "mouselab-mdp", "trial_index": 65, "time_elapsed": 2547726, "internal_node_id": "0.0-6.0-1.0-38.0"}}, {"uniqueid": "w70263759:a46241319", "current_trial": 66, "dateTime": 1693567478442, "trialdata": {"revealed_states": [], "clicked_states": [], "num_clicks_accrued": [0, 0, 0, 0, 0, 0, 0, 0, 0, 0, 0, 0, 0], "stateRewards": ["", 2, -2, -8, 9, -20, 55, -58, 14, 42, 2, 36, 1, -3, -5, 5, -58, 57, 60, 16, 57, 30, -70, -2, 1, 3, 10, 59, 23, 77, -13, -26, 88, -72], "withholdReward": false, "trial_id": "mdp_trial_40", "block": "test", "trialIndex": 47, "score": 42, "costs": 0, "simulationMode": [null, null, null, null, null], "rewards": [2, -2, -8, 14, 36], "path": ["0", "0", "1", "2", "3", "8", "11"], "rt": [1702, 214, 146, 844, 381], "actions": ["up", "up", "up", "left", "left"], "actionTimes": [3402, 4122, 4771, 6118, 7008], "queries": {"click": {"state": {"target": [], "time": []}, "edge": {"target": [], "time": []}}, "mouseover": {"state": {"target": [], "time": []}, "edge": {"target": [], "time": []}}, "mouseout": {"state": {"target": ["0"], "time": [731]}, "edge": {"target": [], "time": []}}}, "displayed_time": "15.71", "trialTime": 18108, "trial_type": "mouselab-mdp", "trial_index": 66, "time_elapsed": 2567719, "internal_node_id": "0.0-6.0-1.0-39.0"}}, {"uniqueid": "w70263759:a46241319", "current_trial": 67, "dateTime": 1693567580459, "trialdata": {"rt": 101969, "response": {"Q0": "$-88 to $88", "Q1": "$-32 to $32", "Q2": "$-88 to $88", "Q3": "The cost for clicking on nodes varied between nodes.", "Q4": "Very unmotivated"}, "question_order": [0, 1, 2, 3, 4], "trial_id": "final_quiz_control", "trial_type": "survey-multi-choice", "trial_index": 67, "time_elapsed": 2669737, "internal_node_id": "0.0-6.0-2.0"}}, {"uniqueid": "w70263759:a46241319", "current_trial": 68, "dateTime": 1693567681925, "trialdata": {"rt": 101144, "response": {"Q0": "was just using arrows to move the spider ", "Q1": "not really", "Q2": "very difficult"}, "trial_id": "self_report_control", "trial_type": "survey-text", "trial_index": 68, "time_elapsed": 2771203, "internal_node_id": "0.0-6.0-3.0"}}, {"uniqueid": "w70263759:a46241319", "current_trial": 69, "dateTime": 1693567711670, "trialdata": {"rt": 29479, "response": {"gender": "female", "age": "31", "colorblind": "0", "effort": "0"}, "trial_type": "survey-html-form", "trial_index": 69, "time_elapsed": 2800948, "internal_node_id": "0.0-6.0-4.0"}}, {"uniqueid": "w70263759:a46241319", "current_trial": 70, "dateTime": 1693567759009, "trialdata": {"rt": 47284, "response": {"Q0": "no", "Q1": "i have never", "Q2": "was nice to play"}, "trial_type": "survey-text", "trial_index": 70, "time_elapsed": 2848287, "internal_node_id": "0.0-6.0-5.0"}}, {"uniqueid": "w70263759:a46241319", "current_trial": 71, "dateTime": 1693567773255, "trialdata": {"rt": 14191, "stimulus": "<h1>Completion Code Instructions (1/2)</h1>\n<br><br><br><br>\nYou have reached the end of the experiment! The completion code consists of two parts: (1) a code with 2 characters (2) a code with 6 characters. On this page, you will receive the second part of the code. The first part of the completion code will be on the next page.\n<br><br>\nThe second part of your completion code is: <b>EWEK22</b>\n<br><br>\nPlease note this down. Then, press 'Finish HIT' in order to find the first part of your completion code. Once the data has been saved, you will receive this code either in this window or in the original browser window where you started the experiment.\n", "response": 0, "trial_type": "html-button-response", "trial_index": 71, "time_elapsed": 2862533, "internal_node_id": "0.0-6.0-6.0"}}, {"uniqueid": "w70263759:a46241319", "current_trial": 72, "dateTime": 1693567774343, "trialdata": {"success": true, "trial_type": "fullscreen", "trial_index": 72, "time_elapsed": 2863622, "internal_node_id": "0.0-7.0"}}], "questiondata": {"params": {"CODE": "C6DMOQA6", "MIN_TIME": 14, "inspectCost": 1, "startTime": "Fri Sep 01 2023 12:41:48 GMT+0200 (South Africa Standard Time)", "bonusRate": 0.002, "variance": "1_2_4_8_44", "branching": "31123"}, "final_score": -4}, "eventdata": [{"eventtype": "initialized", "value": null, "timestamp": 1693564907581, "interval": 0}, {"eventtype": "window_resize", "value": [1032, 600], "timestamp": 1693564907581, "interval": 0}, {"eventtype": "window_resize", "value": [1032, 600], "timestamp": 1693564908124, "interval": 543}, {"eventtype": "window_resize", "value": [1280, 720], "timestamp": 1693564921984, "interval": 13860}, {"eventtype": "focus", "value": "off", "timestamp": 1693565074474, "interval": 152490}, {"eventtype": "focus", "value": "on", "timestamp": 1693565103496, "interval": 29022}, {"eventtype": "focus", "value": "off", "timestamp": 1693565814685, "interval": 711189}, {"eventtype": "focus", "value": "on", "timestamp": 1693565814690, "interval": 5}, {"eventtype": "window_resize", "value": [1032, 600], "timestamp": 1693565814959, "interval": 269}, {"eventtype": "window_resize", "value": [1280, 720], "timestamp": 1693565819230, "interval": 4271}, {"eventtype": "focus", "value": "off", "timestamp": 1693566113459, "interval": 294229}, {"eventtype": "focus", "value": "on", "timestamp": 1693566113460, "interval": 1}, {"eventtype": "window_resize", "value": [1032, 600], "timestamp": 1693566113691, "interval": 231}, {"eventtype": "window_resize", "value": [1280, 720], "timestamp": 1693566116632, "interval": 2941}, {"eventtype": "focus", "value": "off", "timestamp": 1693566456245, "interval": 339613}, {"eventtype": "focus", "value": "on", "timestamp": 1693566456248, "interval": 3}, {"eventtype": "window_resize", "value": [1032, 600], "timestamp": 1693566456482, "interval": 234}, {"eventtype": "window_resize", "value": [1280, 720], "timestamp": 1693566458559, "interval": 2077}], "useragent": "Mozilla/5.0 (Windows NT 10.0; Win64; x64) AppleWebKit/537.36 (KHTML, like Gecko) Chrome/116.0.0.0 Safari/537.36", "mode": "live", "id": "w70263759:a46241319", "status": "user data saved", "Beginhit": "2023-09-01 10:41:42.896254", "Beginexp": "2023-09-01 10:42:03.651188", "Endhit": "2023-09-01 11:29:39.747717", "psiturkStatus": 3, "browser": "<redacted>", "platform": "windows", "language": "en-US"}