{"condition": 1, "counterbalance": 0, "assignmentId": "a90611635", "workerId": "w72664870", "hitId": "h43907461", "currenttrial": 56, "bonus": 0, "data": [{"uniqueid": "w72664870:a90611635", "current_trial": 0, "dateTime": 1691070995806, "trialdata": {"success": true, "trial_type": "fullscreen", "trial_index": 0, "time_elapsed": 26274, "internal_node_id": "0.0-0.0"}}, {"uniqueid": "w72664870:a90611635", "current_trial": 1, "dateTime": 1691071009451, "trialdata": {"view_history": [{"page_index": 0, "viewing_time": 13625}], "rt": 13626, "trial_id": "exp_instructions_misaligned", "trial_type": "instructions", "trial_index": 1, "time_elapsed": 39919, "internal_node_id": "0.0-1.0"}}, {"uniqueid": "w72664870:a90611635", "current_trial": 2, "dateTime": 1691071014516, "trialdata": {"success": true, "trial_type": "fullscreen", "trial_index": 2, "time_elapsed": 44984, "internal_node_id": "0.0-2.0-0.0"}}, {"uniqueid": "w72664870:a90611635", "current_trial": 3, "dateTime": 1691071229990, "trialdata": {"view_history": [{"page_index": 0, "viewing_time": 62929}, {"page_index": 1, "viewing_time": 105714}, {"page_index": 2, "viewing_time": 15312}, {"page_index": 3, "viewing_time": 31512}], "rt": 215468, "trial_id": "mouselab_instructions_1_misaligned", "trial_type": "instructions", "trial_index": 3, "time_elapsed": 260458, "internal_node_id": "0.0-2.0-1.0"}}, {"uniqueid": "w72664870:a90611635", "current_trial": 4, "dateTime": 1691071270908, "trialdata": {"revealed_states": [], "clicked_states": ["1", "13", "24"], "num_clicks_accrued": [0, 0, 0, 0, 0, 0, 0, 0, 0, 0, 0, 0, 0], "stateRewards": ["", -10, 10, 10, -10, -10, -10, -10, 10, -10, 10, 10, 10, -10, 10, -10, -10, -10, 10, -10, -10, -10, -10, 10, -10, 10, 10, -10, 10, 10, -10, -10, 10, -10], "withholdReward": false, "trial_id": "practice_1", "block": "test", "trialIndex": 0, "score": 12, "costs": -1.5, "simulationMode": [null, null, null, null, null], "rewards": [10, -10, 10, 10, -10], "path": ["0", "0", "23", "24", "25", "26", "27"], "rt": [8628, 1106, 1143, 716, 357], "actions": ["left", "left", "left", "up", "up"], "actionTimes": [9876, 11493, 13144, 14385, 15243], "queries": {"click": {"state": {"target": ["1", "13", "24"], "time": [3237, 4636, 6299]}, "edge": {"target": [], "time": []}}, "mouseover": {"state": {"target": ["1", "1", "13", "12", "0", "23", "24", "23", "0", "12"], "time": [2152, 2922, 4315, 5332, 5455, 5520, 5876, 6822, 8621, 8713]}, "edge": {"target": [], "time": []}}, "mouseout": {"state": {"target": ["0", "1", "1", "13", "12", "0", "23", "24", "24", "23", "0", "12"], "time": [1343, 2186, 3620, 4859, 5449, 5491, 5847, 6487, 6801, 8271, 8646, 8730]}, "edge": {"target": [], "time": []}}}, "displayed_time": "15.75", "trialTime": 39372, "trial_type": "mouselab-mdp", "trial_index": 4, "time_elapsed": 301373, "internal_node_id": "0.0-2.0-2.0-0.0"}}, {"uniqueid": "w72664870:a90611635", "current_trial": 5, "dateTime": 1691071291792, "trialdata": {"revealed_states": [], "clicked_states": ["1", "23"], "num_clicks_accrued": [0, 0, 0, 0, 0, 0, 0, 0, 0, 0, 0, 0, 0], "stateRewards": ["", -10, 10, -10, 10, -10, 10, 10, 10, 10, 10, 10, -10, 10, 10, 10, 10, 10, -10, -10, -10, 10, 10, 10, -10, -10, 10, -10, -10, -10, 10, 10, -10, -10], "withholdReward": false, "trial_id": "practice_2", "block": "test", "trialIndex": 1, "score": -7.5, "costs": -1, "simulationMode": [null, null, null, null, null], "rewards": [10, -10, -10, 10, -10], "path": ["0", "0", "23", "24", "25", "26", "27"], "rt": [5960, 653, 481, 2115, 233], "actions": ["left", "left", "left", "up", "up"], "actionTimes": [9919, 11093, 12103, 14720, 15471], "queries": {"click": {"state": {"target": ["1", "23"], "time": [5300, 7400]}, "edge": {"target": [], "time": []}}, "mouseover": {"state": {"target": ["1", "23", "0", "12", "12", "0"], "time": [5000, 5955, 7978, 8022, 9056, 9117]}, "edge": {"target": [], "time": []}}, "mouseout": {"state": {"target": ["13", "12", "0", "1", "23", "0", "12", "12", "0"], "time": [1148, 2098, 4099, 5904, 7955, 8001, 8472, 9101, 9148]}, "edge": {"target": [], "time": []}}}, "displayed_time": "15.99", "trialTime": 20160, "trial_type": "mouselab-mdp", "trial_index": 5, "time_elapsed": 322256, "internal_node_id": "0.0-2.0-2.0-1.0"}}, {"uniqueid": "w72664870:a90611635", "current_trial": 6, "dateTime": 1691071342712, "trialdata": {"view_history": [{"page_index": 0, "viewing_time": 42865}, {"page_index": 1, "viewing_time": 8038}], "rt": 50904, "trial_id": "mouselab_instructions_2_misaligned", "trial_type": "instructions", "trial_index": 6, "time_elapsed": 373180, "internal_node_id": "0.0-2.0-3.0"}}, {"uniqueid": "w72664870:a90611635", "current_trial": 7, "dateTime": 1691071394695, "trialdata": {"rt": 51919, "response": {"Q0": "The cost for clicking on nodes may vary between nodes.", "Q1": "The better I perform the higher my bonus will be.", "Q2": "No, the amount of cash at each node of the web may be different each time.", "Q3": "To get the highest total score.", "Q4": "Only before moving the spider.", "Q5": "3 seconds"}, "question_order": [0, 1, 2, 3, 4, 5], "correct": {"Q0": "The cost for clicking on nodes may vary between nodes.", "Q1": "The better I perform the higher my bonus will be.", "Q2": "No, the amount of cash at each node of the web may be different each time.", "Q3": "To get the highest total score.", "Q4": "Only before moving the spider.", "Q5": "3 seconds"}, "trial_id": "mouselab_quiz_misaligned", "trial_type": "survey-multi-choice", "trial_index": 7, "time_elapsed": 425163, "internal_node_id": "0.0-2.0-4.0"}}, {"uniqueid": "w72664870:a90611635", "current_trial": 8, "dateTime": 1691071413870, "trialdata": {"rt": 19130, "stimulus": "\n<h1> Get ready to start the game! </h1>\n\nThank you for reading the instructions. Get ready start with the 40 rounds of this game.\n<br><br>\nIf you need to take a break, feel free to take one after the end of a round, before continuing to the next one.\n<br><br>\nRemember, the more money the spider gets, the bigger your bonus will be!\n<br><br>\n<div style='text-align: center;'>Press <code>space</code> to begin.</div>\n\n<br><br>\n(If, at any point, the <code>space</code> key does not take you to the next page, click once on the text and try again.)", "response": " ", "trial_id": "mdp_ready", "trial_type": "html-keyboard-response", "trial_index": 8, "time_elapsed": 444338, "internal_node_id": "0.0-4.0-0.0"}}, {"uniqueid": "w72664870:a90611635", "current_trial": 9, "dateTime": 1691071438415, "trialdata": {"revealed_states": [], "clicked_states": ["30", "19"], "num_clicks_accrued": [0, 0, 0, 0, 0, 0, 0, 0, 0, 0, 0, 0, 0], "stateRewards": ["", 1, 1, -6, -2, 7, 77, 3, 16, -16, 66, 31, -1, 3, -8, -6, 33, -50, -48, 7, -60, -66, 36, 2, -3, 3, -7, -12, -61, -79, -4, 8, 74, -70], "withholdReward": false, "trial_id": "mdp_trial_1", "block": "test", "trialIndex": 2, "score": -68.1, "costs": -3.1, "simulationMode": [null, null, null, null, null], "rewards": [-1, 3, -8, 7, -66], "path": ["0", "0", "12", "13", "14", "19", "21"], "rt": [10353, 276, 295, 229, 250], "actions": ["right", "right", "right", "down", "down"], "actionTimes": [16405, 17206, 18022, 18772, 19553], "queries": {"click": {"state": {"target": ["30", "19"], "time": [7472, 8937]}, "edge": {"target": [], "time": []}}, "mouseover": {"state": {"target": ["0", "23", "24", "30", "31", "22", "19", "14", "15", "15", "14"], "time": [6193, 6663, 6696, 7102, 8150, 8556, 8606, 10357, 11409, 13794, 15803]}, "edge": {"target": [], "time": []}}, "mouseout": {"state": {"target": ["0", "0", "23", "24", "30", "31", "22", "19", "14", "15", "15", "14"], "time": [5331, 6244, 6690, 6723, 8126, 8170, 8590, 10296, 11395, 11439, 15760, 23260]}, "edge": {"target": [], "time": []}}}, "displayed_time": "20.09", "trialTime": 23761, "trial_type": "mouselab-mdp", "trial_index": 9, "time_elapsed": 468881, "internal_node_id": "0.0-4.0-1.0-0.0"}}, {"uniqueid": "w72664870:a90611635", "current_trial": 10, "dateTime": 1691071461185, "trialdata": {"revealed_states": [], "clicked_states": ["1", "8"], "num_clicks_accrued": [0, 0, 0, 0, 0, 0, 0, 0, 0, 0, 0, 0, 0], "stateRewards": ["", 1, 2, -8, 9, 18, -83, -11, 6, -64, -48, 17, -2, -2, -5, -3, -24, -3, -86, -2, 48, -41, -22, -2, 4, 7, 8, 81, 13, -48, 10, 61, 19, 57], "withholdReward": false, "trial_id": "mdp_trial_2", "block": "test", "trialIndex": 3, "score": -64.3, "costs": -1.3, "simulationMode": [null, null, null, null, null], "rewards": [1, 2, -8, 6, -64], "path": ["0", "0", "1", "2", "3", "8", "9"], "rt": [5088, 247, 294, 190, 173], "actions": ["up", "up", "up", "left", "up"], "actionTimes": [6813, 7623, 8436, 9142, 9840], "queries": {"click": {"state": {"target": ["1", "8"], "time": [2398, 4908]}, "edge": {"target": [], "time": []}}, "mouseover": {"state": {"target": ["1", "2", "3", "8", "3"], "time": [1964, 3066, 3370, 4646, 5774]}, "edge": {"target": [], "time": []}}, "mouseout": {"state": {"target": ["13", "0", "1", "2", "3", "8", "3"], "time": [763, 1864, 2600, 3169, 4470, 5675, 5827]}, "edge": {"target": [], "time": []}}}, "displayed_time": "15.73", "trialTime": 21991, "trial_type": "mouselab-mdp", "trial_index": 10, "time_elapsed": 491651, "internal_node_id": "0.0-4.0-1.0-1.0"}}, {"uniqueid": "w72664870:a90611635", "current_trial": 11, "dateTime": 1691071483042, "trialdata": {"revealed_states": [], "clicked_states": ["2", "26", "30", "19", "15"], "num_clicks_accrued": [0, 0, 0, 0, 0, 0, 0, 0, 0, 0, 0, 0, 0], "stateRewards": ["", 1, -1, 8, 4, 76, -33, -17, -3, -1, -54, -74, -2, 2, -5, 13, -51, 63, 83, 1, 84, 29, -36, 2, -1, 7, -12, -10, -44, -43, -14, 8, -69, 19], "withholdReward": false, "trial_id": "mdp_trial_3", "block": "test", "trialIndex": 4, "score": -49.55, "costs": -6.55, "simulationMode": [null, null, null, null, null], "rewards": [-2, 2, -5, 13, -51], "path": ["0", "0", "12", "13", "14", "15", "16"], "rt": [11463, 319, 340, 307, 564], "actions": ["right", "right", "right", "up", "up"], "actionTimes": [14806, 15660, 16534, 17361, 18438], "queries": {"click": {"state": {"target": ["2", "26", "30", "19", "15"], "time": [4931, 7446, 9082, 10834, 12804]}, "edge": {"target": [], "time": []}}, "mouseover": {"state": {"target": ["1", "2", "10", "26", "25", "30", "22", "19", "14", "15", "15"], "time": [4005, 4085, 6304, 6746, 8320, 8750, 10169, 10602, 11551, 12000, 12483]}, "edge": {"target": [], "time": []}}, "mouseout": {"state": {"target": ["2", "1", "1", "2", "10", "26", "25", "30", "22", "19", "14", "15", "15", "15"], "time": [1385, 1850, 4033, 6286, 6341, 8312, 8372, 9797, 10236, 11162, 11666, 12085, 13681, 19434]}, "edge": {"target": [], "time": []}}}, "displayed_time": "18.95", "trialTime": 20974, "trial_type": "mouselab-mdp", "trial_index": 11, "time_elapsed": 513508, "internal_node_id": "0.0-4.0-1.0-2.0"}}, {"uniqueid": "w72664870:a90611635", "current_trial": 12, "dateTime": 1691071509878, "trialdata": {"revealed_states": [], "clicked_states": ["4", "17", "13", "22"], "num_clicks_accrued": [0, 0, 0, 0, 0, 0, 0, 0, 0, 0, 0, 0, 0], "stateRewards": ["", -1, 1, 3, -8, -23, -15, -14, -11, -23, 58, 68, 1, 3, 5, 12, -17, -41, -7, -10, -4, 82, 10, 1, 4, -4, 11, 73, 55, -55, -1, -86, -86, 54], "withholdReward": false, "trial_id": "mdp_trial_4", "block": "test", "trialIndex": 5, "score": 2.8000000000000007, "costs": -6.199999999999999, "simulationMode": [null, null, null, null, null], "rewards": [1, 3, 5, -10, 10], "path": ["0", "0", "12", "13", "14", "19", "22"], "rt": [12527, 141, 209, 55, 229], "actions": ["right", "right", "right", "down", "left"], "actionTimes": [18734, 19408, 20125, 20688, 21486], "queries": {"click": {"state": {"target": ["4", "17", "13", "22"], "time": [7493, 8731, 12247, 14521]}, "edge": {"target": [], "time": []}}, "mouseover": {"state": {"target": ["0", "7", "4", "16", "17", "13", "22", "19", "22", "19", "20", "21"], "time": [6490, 6827, 7178, 8078, 8444, 11752, 13761, 13827, 14210, 15317, 15388, 16262]}, "edge": {"target": [], "time": []}}, "mouseout": {"state": {"target": ["18", "0", "7", "4", "16", "17", "13", "22", "19", "22", "19", "20", "21"], "time": [2427, 6745, 7046, 8048, 8110, 9548, 13742, 13777, 14194, 15289, 15379, 16200, 17409]}, "edge": {"target": [], "time": []}}}, "displayed_time": "22.00", "trialTime": 25757, "trial_type": "mouselab-mdp", "trial_index": 12, "time_elapsed": 540344, "internal_node_id": "0.0-4.0-1.0-3.0"}}, {"uniqueid": "w72664870:a90611635", "current_trial": 13, "dateTime": 1691071537182, "trialdata": {"revealed_states": [], "clicked_states": ["28", "4", "15", "19", "30", "33"], "num_clicks_accrued": [0, 0, 0, 0, 0, 0, 0, 0, 0, 0, 0, 0, 0], "stateRewards": ["", -2, -3, -6, -7, 9, 16, 65, 5, -41, 20, -25, -1, -4, 1, -11, -49, -4, 71, 1, 39, -62, 52, -2, -3, 7, -9, -28, -70, 84, 8, 24, -58, 82], "withholdReward": false, "trial_id": "mdp_trial_5", "block": "test", "trialIndex": 6, "score": 81.5, "costs": -10.5, "simulationMode": [null, null, null, null, null], "rewards": [-2, -3, 7, 8, 82], "path": ["0", "0", "23", "24", "25", "30", "33"], "rt": [16187, 63, 208, 199, 900], "actions": ["left", "left", "left", "down", "left"], "actionTimes": [18750, 19344, 20088, 20798, 22214], "queries": {"click": {"state": {"target": ["28", "4", "15", "19", "30", "33"], "time": [4266, 8142, 10018, 11174, 12911, 14912]}, "edge": {"target": [], "time": []}}, "mouseover": {"state": {"target": ["23", "28", "10", "3", "4", "6", "4", "3", "4", "15", "15", "14", "19", "22", "32", "30", "25", "33", "32"], "time": [3472, 3966, 5479, 6263, 6318, 6361, 6782, 7190, 7900, 9351, 9739, 10716, 10830, 12066, 12488, 12577, 14310, 14632, 17136]}, "edge": {"target": [], "time": []}}, "mouseout": {"state": {"target": ["23", "23", "28", "10", "3", "4", "6", "4", "3", "4", "4", "15", "15", "14", "19", "22", "32", "30", "25", "33"], "time": [1660, 3491, 5366, 5532, 6298, 6340, 6746, 6834, 7874, 8335, 8781, 9372, 10681, 10782, 12048, 12090, 12525, 13926, 14443, 17047]}, "edge": {"target": [], "time": []}}}, "displayed_time": "22.73", "trialTime": 26452, "trial_type": "mouselab-mdp", "trial_index": 13, "time_elapsed": 567649, "internal_node_id": "0.0-4.0-1.0-4.0"}}, {"uniqueid": "w72664870:a90611635", "current_trial": 14, "dateTime": 1691071566867, "trialdata": {"revealed_states": [], "clicked_states": ["33", "20", "18", "29"], "num_clicks_accrued": [0, 0, 0, 0, 0, 0, 0, 0, 0, 0, 0, 0, 0], "stateRewards": ["", -2, -3, 8, 14, -73, 73, 84, -12, -2, -50, -17, 2, 1, -2, -9, -44, -27, -33, 16, -63, -47, -66, -2, 1, 4, -5, -33, -11, 50, 9, 38, -79, 31], "withholdReward": false, "trial_id": "mdp_trial_6", "block": "test", "trialIndex": 7, "score": 39.4, "costs": -8.6, "simulationMode": [null, null, null, null, null], "rewards": [-2, 1, 4, -5, 50], "path": ["0", "0", "23", "24", "25", "26", "29"], "rt": [19377, 133, 373, 249, 89], "actions": ["left", "left", "left", "up", "left"], "actionTimes": [22376, 23060, 23961, 24736, 25326], "queries": {"click": {"state": {"target": ["33", "20", "18", "29"], "time": [4759, 8520, 12775, 16520]}, "edge": {"target": [], "time": []}}, "mouseover": {"state": {"target": ["0", "31", "30", "33", "31", "22", "19", "20", "19", "14", "18", "1", "26", "29", "26", "28", "28", "25", "25"], "time": [3856, 3894, 3939, 4308, 5434, 7431, 7501, 7588, 10393, 11538, 12461, 15151, 16144, 16190, 17059, 19372, 20422, 20955, 21424]}, "edge": {"target": [], "time": []}}, "mouseout": {"state": {"target": ["32", "31", "0", "0", "31", "30", "33", "31", "22", "19", "20", "19", "14", "18", "18", "18", "1", "26", "29", "26", "28", "28", "25", "25", "25"], "time": [1289, 1374, 1937, 3888, 3909, 4294, 5394, 5453, 7492, 7528, 10327, 11505, 11557, 12957, 13622, 15072, 15588, 16184, 16700, 17096, 19405, 20538, 20988, 21598, 26847]}, "edge": {"target": [], "time": []}}}, "displayed_time": "25.85", "trialTime": 28599, "trial_type": "mouselab-mdp", "trial_index": 14, "time_elapsed": 597333, "internal_node_id": "0.0-4.0-1.0-5.0"}}, {"uniqueid": "w72664870:a90611635", "current_trial": 15, "dateTime": 1691071598924, "trialdata": {"revealed_states": [], "clicked_states": ["3", "11", "29", "33", "17"], "num_clicks_accrued": [0, 0, 0, 0, 0, 0, 0, 0, 0, 0, 0, 0, 0], "stateRewards": ["", -2, 2, 3, -7, -31, -33, 29, -8, -57, 50, -83, -1, -1, 5, 13, -23, -62, 25, 5, -66, -85, 14, 1, -2, -1, 16, 71, 33, -19, -14, 5, -43, 79], "withholdReward": false, "trial_id": "mdp_trial_7", "block": "test", "trialIndex": 8, "score": 53.45, "costs": -9.55, "simulationMode": [null, null, null, null, null], "rewards": [1, -2, -1, -14, 79], "path": ["0", "0", "23", "24", "25", "30", "33"], "rt": [18509, 130, 170, 172, 83], "actions": ["left", "left", "left", "down", "left"], "actionTimes": [25833, 26494, 27213, 27939, 28539], "queries": {"click": {"state": {"target": ["3", "11", "29", "33", "17"], "time": [9034, 10357, 14374, 17759, 21931]}, "edge": {"target": [], "time": []}}, "mouseover": {"state": {"target": ["1", "3", "8", "11", "4", "6", "7", "2", "29", "29", "33", "30", "19", "17", "13"], "time": [8156, 8716, 9921, 9990, 11103, 11720, 12578, 12623, 13557, 14087, 16376, 18344, 18869, 18947, 25082]}, "edge": {"target": [], "time": []}}, "mouseout": {"state": {"target": ["25", "23", "0", "0", "1", "3", "8", "11", "3", "4", "6", "7", "2", "29", "29", "33", "30", "19", "17", "13", "12"], "time": [532, 608, 1100, 7885, 8204, 9887, 9950, 10986, 11053, 11714, 12519, 12602, 12986, 13632, 15253, 18336, 18365, 18895, 22801, 25126, 28365]}, "edge": {"target": [], "time": []}}}, "displayed_time": "29.04", "trialTime": 31175, "trial_type": "mouselab-mdp", "trial_index": 15, "time_elapsed": 629390, "internal_node_id": "0.0-4.0-1.0-6.0"}}, {"uniqueid": "w72664870:a90611635", "current_trial": 16, "dateTime": 1691071626133, "trialdata": {"revealed_states": [], "clicked_states": ["31", "28", "6", "22"], "num_clicks_accrued": [0, 0, 0, 0, 0, 0, 0, 0, 0, 0, 0, 0, 0], "stateRewards": ["", 1, -2, -8, -13, 4, 34, -84, -4, -49, 88, -70, -1, 3, -4, 10, -77, 13, -34, 15, -21, -16, 27, 1, -2, 8, -8, -6, 38, -26, 6, -15, 66, -3], "withholdReward": false, "trial_id": "mdp_trial_8", "block": "test", "trialIndex": 9, "score": 3.3999999999999986, "costs": -8.6, "simulationMode": [null, null, null, null, null], "rewards": [1, -2, -8, -13, 34], "path": ["0", "0", "1", "2", "3", "4", "6"], "rt": [17748, 68, 133, 793, 164], "actions": ["up", "up", "up", "right", "right"], "actionTimes": [20238, 20827, 21490, 22802, 23491], "queries": {"click": {"state": {"target": ["31", "28", "6", "22"], "time": [4461, 7984, 12178, 15690]}, "edge": {"target": [], "time": []}}, "mouseover": {"state": {"target": ["23", "31", "24", "28", "10", "3", "4", "6", "16", "15", "14", "19", "22"], "time": [3254, 3787, 6365, 6459, 9995, 10450, 11305, 11865, 13523, 13575, 13606, 13743, 14909]}, "edge": {"target": [], "time": []}}, "mouseout": {"state": {"target": ["0", "23", "31", "24", "28", "10", "3", "4", "6", "16", "15", "14", "19", "22"], "time": [3226, 3727, 6306, 6419, 9941, 10408, 11282, 11355, 12369, 13549, 13600, 13631, 14233, 15881]}, "edge": {"target": [], "time": []}}}, "displayed_time": "24.05", "trialTime": 26241, "trial_type": "mouselab-mdp", "trial_index": 16, "time_elapsed": 656599, "internal_node_id": "0.0-4.0-1.0-7.0"}}, {"uniqueid": "w72664870:a90611635", "current_trial": 17, "dateTime": 1691071646000, "trialdata": {"revealed_states": [], "clicked_states": ["33", "29"], "num_clicks_accrued": [0, 0, 0, 0, 0, 0, 0, 0, 0, 0, 0, 0, 0], "stateRewards": ["", 2, 3, 6, -12, -29, 12, 87, 4, 35, -30, 67, 2, 3, -5, -9, 44, 69, -8, 1, 45, -8, 28, -2, -1, -8, 11, -12, -5, 81, 9, 87, 82, 88], "withholdReward": false, "trial_id": "mdp_trial_9", "block": "test", "trialIndex": 10, "score": 81.7, "costs": -4.3, "simulationMode": [null, null, null, null, null], "rewards": [-2, -1, -8, 9, 88], "path": ["0", "0", "23", "24", "25", "30", "33"], "rt": [9590, 65, 223, 151, 91], "actions": ["left", "left", "left", "down", "left"], "actionTimes": [12193, 12765, 13504, 14190, 14808], "queries": {"click": {"state": {"target": ["33", "29"], "time": [4132, 8796]}, "edge": {"target": [], "time": []}}, "mouseover": {"state": {"target": ["23", "30", "33", "25", "28", "26", "29", "25", "31"], "time": [3282, 3327, 3793, 4807, 5512, 6164, 6958, 9620, 9685]}, "edge": {"target": [], "time": []}}, "mouseout": {"state": {"target": ["0", "23", "30", "33", "25", "28", "26", "29", "25", "31", "23", "31"], "time": [1705, 3309, 3759, 4763, 4830, 6043, 6814, 9579, 9647, 13895, 15125, 17301]}, "edge": {"target": [], "time": []}}}, "displayed_time": "16.61", "trialTime": 18897, "trial_type": "mouselab-mdp", "trial_index": 17, "time_elapsed": 676466, "internal_node_id": "0.0-4.0-1.0-8.0"}}, {"uniqueid": "w72664870:a90611635", "current_trial": 18, "dateTime": 1691071678416, "trialdata": {"revealed_states": [], "clicked_states": ["33", "29", "3", "6", "17", "22"], "num_clicks_accrued": [0, 0, 0, 0, 0, 0, 0, 0, 0, 0, 0, 0, 0], "stateRewards": ["", 1, 4, 5, -5, 58, -80, 75, 6, 25, -39, 46, 2, -2, 4, 2, 59, 31, -22, -12, -61, 15, 72, 1, -2, -7, 8, 77, 76, -23, -7, 71, -15, -3], "withholdReward": false, "trial_id": "mdp_trial_10", "block": "test", "trialIndex": 11, "score": 52.3, "costs": -11.700000000000001, "simulationMode": [null, null, null, null, null], "rewards": [2, -2, 4, -12, 72], "path": ["0", "0", "12", "13", "14", "19", "22"], "rt": [23065, 461, 230, 262, 701], "actions": ["right", "right", "right", "down", "left"], "actionTimes": [25503, 26492, 27249, 28029, 29282], "queries": {"click": {"state": {"target": ["33", "29", "3", "6", "17", "22"], "time": [4525, 8358, 11940, 14039, 17730, 21502]}, "edge": {"target": [], "time": []}}, "mouseover": {"state": {"target": ["31", "30", "33", "29", "28", "8", "3", "4", "6", "16", "17", "14", "22", "13"], "time": [3158, 3573, 3689, 8078, 9278, 10862, 11625, 13702, 13776, 14748, 17372, 20791, 21281, 24822]}, "edge": {"target": [], "time": []}}, "mouseout": {"state": {"target": ["31", "0", "31", "30", "33", "29", "28", "8", "3", "3", "4", "6", "16", "17", "14", "22", "13"], "time": [1077, 3097, 3192, 3627, 4710, 9194, 10076, 10942, 12156, 12787, 13727, 14710, 16842, 18679, 20839, 22381, 30205]}, "edge": {"target": [], "time": []}}}, "displayed_time": "29.79", "trialTime": 31468, "trial_type": "mouselab-mdp", "trial_index": 18, "time_elapsed": 708882, "internal_node_id": "0.0-4.0-1.0-9.0"}}, {"uniqueid": "w72664870:a90611635", "current_trial": 19, "dateTime": 1691071703218, "trialdata": {"revealed_states": [], "clicked_states": ["10", "14"], "num_clicks_accrued": [0, 0, 0, 0, 0, 0, 0, 0, 0, 0, 0, 0, 0], "stateRewards": ["", -2, 4, -7, -3, -76, 39, -28, 10, 14, 12, 60, 2, -3, 6, -10, 88, -34, -41, -3, 72, -13, -56, 1, 3, 2, 8, -51, 23, -57, 1, 14, -46, -16], "withholdReward": false, "trial_id": "mdp_trial_11", "block": "test", "trialIndex": 12, "score": 13.9, "costs": -3.0999999999999996, "simulationMode": [null, null, null, null, null], "rewards": [-2, 4, -7, 10, 12], "path": ["0", "0", "1", "2", "3", "8", "10"], "rt": [16119, 75, 171, 40, 98], "actions": ["up", "up", "up", "left", "down"], "actionTimes": [19550, 20203, 20952, 21519, 22176], "queries": {"click": {"state": {"target": ["10", "14"], "time": [5887, 10829]}, "edge": {"target": [], "time": []}}, "mouseover": {"state": {"target": ["1", "10", "7", "18", "14", "19", "31", "30", "33"], "time": [4873, 5532, 9428, 9925, 10492, 11845, 14609, 15025, 16056]}, "edge": {"target": [], "time": []}}, "mouseout": {"state": {"target": ["0", "1", "10", "7", "18", "14", "14", "19", "14", "31", "30", "33"], "time": [2526, 4917, 6956, 9452, 9944, 10994, 11828, 13480, 13777, 14627, 16031, 19523]}, "edge": {"target": [], "time": []}}}, "displayed_time": "22.69", "trialTime": 23754, "trial_type": "mouselab-mdp", "trial_index": 19, "time_elapsed": 733684, "internal_node_id": "0.0-4.0-1.0-10.0"}}, {"uniqueid": "w72664870:a90611635", "current_trial": 20, "dateTime": 1691071721985, "trialdata": {"revealed_states": [], "clicked_states": [], "num_clicks_accrued": [0, 0, 0, 0, 0, 0, 0, 0, 0, 0, 0, 0, 0], "stateRewards": ["", 2, -1, -1, -9, -81, -30, 55, -6, 78, 25, 62, 2, 4, -1, 9, -85, 1, -19, 1, -60, 12, -34, 1, 4, -1, -13, -24, -16, -83, -8, 16, 43, 9], "withholdReward": false, "trial_id": "mdp_trial_12", "block": "test", "trialIndex": 13, "score": 5, "costs": 0, "simulationMode": [null, null, null, null, null], "rewards": [1, 4, -1, -8, 9], "path": ["0", "0", "23", "24", "25", "30", "33"], "rt": [6013, 127, 131, 151, 142], "actions": ["left", "left", "left", "down", "left"], "actionTimes": [8349, 8997, 9637, 10290, 10947], "queries": {"click": {"state": {"target": [], "time": []}, "edge": {"target": [], "time": []}}, "mouseover": {"state": {"target": ["23", "33", "30", "33"], "time": [2881, 3422, 5347, 5708]}, "edge": {"target": [], "time": []}}, "mouseout": {"state": {"target": ["23", "0", "23", "33", "30", "33"], "time": [965, 2850, 2900, 4331, 5365, 17234]}, "edge": {"target": [], "time": []}}}, "displayed_time": "16.34", "trialTime": 17646, "trial_type": "mouselab-mdp", "trial_index": 20, "time_elapsed": 752451, "internal_node_id": "0.0-4.0-1.0-11.0"}}, {"uniqueid": "w72664870:a90611635", "current_trial": 21, "dateTime": 1691071747938, "trialdata": {"revealed_states": [], "clicked_states": ["33", "29", "11", "5"], "num_clicks_accrued": [0, 0, 0, 0, 0, 0, 0, 0, 0, 0, 0, 0, 0], "stateRewards": ["", -1, 2, 7, 8, 75, 67, -11, 6, 52, -17, 38, -1, 4, -8, 14, 74, -37, -17, -12, 52, 55, 71, -2, -1, -5, 2, 21, 6, -88, -14, 64, -61, -47], "withholdReward": false, "trial_id": "mdp_trial_13", "block": "test", "trialIndex": 14, "score": 82.4, "costs": -8.6, "simulationMode": [null, null, null, null, null], "rewards": [-1, 2, 7, 8, 75], "path": ["0", "0", "1", "2", "3", "4", "5"], "rt": [16784, 17, 138, 16, 78], "actions": ["up", "up", "up", "right", "up"], "actionTimes": [19385, 19903, 20576, 21119, 21732], "queries": {"click": {"state": {"target": ["33", "29", "11", "5"], "time": [4351, 7910, 11345, 14882]}, "edge": {"target": [], "time": []}}, "mouseover": {"state": {"target": ["33", "33", "30", "31", "24", "28", "26", "29", "10", "11", "3", "4", "4", "5", "18"], "time": [3199, 4107, 5360, 5487, 6250, 6602, 7233, 7516, 9437, 10329, 12011, 12571, 12833, 13415, 16314]}, "edge": {"target": [], "time": []}}, "mouseout": {"state": {"target": ["30", "23", "0", "33", "33", "30", "31", "24", "28", "26", "29", "10", "11", "3", "4", "4", "5", "18"], "time": [1235, 1272, 3129, 3218, 5320, 5415, 6189, 6357, 6656, 7400, 8855, 9504, 11969, 12036, 12678, 13372, 15472, 18541]}, "edge": {"target": [], "time": []}}}, "displayed_time": "22.25", "trialTime": 24802, "trial_type": "mouselab-mdp", "trial_index": 21, "time_elapsed": 778404, "internal_node_id": "0.0-4.0-1.0-12.0"}}, {"uniqueid": "w72664870:a90611635", "current_trial": 22, "dateTime": 1691071776102, "trialdata": {"revealed_states": [], "clicked_states": ["21", "16", "33", "29", "10"], "num_clicks_accrued": [0, 0, 0, 0, 0, 0, 0, 0, 0, 0, 0, 0, 0], "stateRewards": ["", -1, 3, -4, -14, 78, 67, 2, 13, -32, 28, 39, -2, 1, -4, -4, -4, -42, -86, 11, 64, -29, -32, -1, -4, 2, -7, 5, 68, -61, 2, -21, 85, 50], "withholdReward": false, "trial_id": "mdp_trial_14", "block": "test", "trialIndex": 15, "score": 38.25, "costs": -10.75, "simulationMode": [null, null, null, null, null], "rewards": [-1, -4, 2, 2, 50], "path": ["0", "0", "23", "24", "25", "30", "33"], "rt": [20308, 6, 4, 6, 84], "actions": ["left", "left", "left", "down", "left"], "actionTimes": [23171, 23701, 24254, 24795, 25406], "queries": {"click": {"state": {"target": ["21", "16", "33", "29", "10"], "time": [4501, 7334, 11123, 14683, 19406]}, "edge": {"target": [], "time": []}}, "mouseover": {"state": {"target": ["13", "19", "21", "14", "15", "16", "15", "4", "7", "4", "4", "28", "25", "33", "31", "13", "13", "28", "29", "26", "1", "10", "10", "23"], "time": [3525, 3858, 3916, 5299, 5704, 5848, 8207, 8817, 9296, 9812, 10301, 10435, 10752, 10812, 11719, 12378, 12751, 12973, 14365, 15216, 16838, 18305, 19138, 22587]}, "edge": {"target": [], "time": []}}, "mouseout": {"state": {"target": ["13", "19", "21", "14", "15", "16", "15", "4", "7", "4", "4", "28", "25", "33", "31", "13", "13", "28", "29", "26", "1", "10", "10", "23", "23"], "time": [3572, 3885, 5195, 5355, 5775, 8186, 8705, 9256, 9707, 10089, 10336, 10454, 10788, 11689, 11744, 12404, 12785, 13664, 15204, 15243, 17849, 18382, 20118, 23720, 26366]}, "edge": {"target": [], "time": []}}}, "displayed_time": "25.94", "trialTime": 27106, "trial_type": "mouselab-mdp", "trial_index": 22, "time_elapsed": 806568, "internal_node_id": "0.0-4.0-1.0-13.0"}}, {"uniqueid": "w72664870:a90611635", "current_trial": 23, "dateTime": 1691071802477, "trialdata": {"revealed_states": [], "clicked_states": ["20", "33", "16", "14", "2"], "num_clicks_accrued": [0, 0, 0, 0, 0, 0, 0, 0, 0, 0, 0, 0, 0], "stateRewards": ["", 1, 2, -6, -13, -51, 22, -4, -12, -44, -12, 6, -2, -2, -2, -14, -46, -4, -77, -2, 36, -79, 41, 2, -4, 2, -6, -55, 59, 70, -5, 39, -19, 24], "withholdReward": false, "trial_id": "mdp_trial_15", "block": "test", "trialIndex": 16, "score": 20.25, "costs": -7.749999999999999, "simulationMode": [null, null, null, null, null], "rewards": [-2, -2, -2, -2, 36], "path": ["0", "0", "12", "13", "14", "19", "20"], "rt": [16129, 370, 206, 981, 61], "actions": ["right", "right", "right", "down", "right"], "actionTimes": [18402, 19294, 20045, 21536, 22190], "queries": {"click": {"state": {"target": ["20", "33", "16", "14", "2"], "time": [3642, 6517, 10083, 13683, 16207]}, "edge": {"target": [], "time": []}}, "mouseover": {"state": {"target": ["12", "13", "19", "20", "19", "30", "33", "31", "15", "15", "16", "15", "14", "19", "13", "2", "7"], "time": [2745, 2783, 3171, 3213, 4298, 4904, 5557, 7309, 7911, 8624, 9518, 12554, 12873, 14819, 15521, 15920, 16774]}, "edge": {"target": [], "time": []}}, "mouseout": {"state": {"target": ["0", "12", "13", "19", "20", "19", "30", "33", "31", "15", "15", "16", "16", "15", "14", "19", "13", "2", "7", "12"], "time": [1428, 2776, 3141, 3201, 4289, 4320, 4931, 7271, 7329, 7933, 8722, 10269, 10974, 12836, 14784, 15476, 15539, 16748, 16799, 23232]}, "edge": {"target": [], "time": []}}}, "displayed_time": "22.71", "trialTime": 25135, "trial_type": "mouselab-mdp", "trial_index": 23, "time_elapsed": 832943, "internal_node_id": "0.0-4.0-1.0-14.0"}}, {"uniqueid": "w72664870:a90611635", "current_trial": 24, "dateTime": 1691071826487, "trialdata": {"revealed_states": [], "clicked_states": ["17", "20", "33"], "num_clicks_accrued": [0, 0, 0, 0, 0, 0, 0, 0, 0, 0, 0, 0, 0], "stateRewards": ["", -1, -4, -6, -15, 21, -67, -63, 9, 51, 69, -14, -1, 3, 8, -8, 39, 72, 63, 15, 19, 47, 15, 1, 4, 5, 16, -18, 34, 35, -14, -80, 40, 1], "withholdReward": false, "trial_id": "mdp_trial_16", "block": "test", "trialIndex": 17, "score": 67.55, "costs": -6.449999999999999, "simulationMode": [null, null, null, null, null], "rewards": [-1, 3, 8, -8, 72], "path": ["0", "0", "12", "13", "14", "15", "17"], "rt": [13899, 88, 161, 949, 24], "actions": ["right", "right", "right", "up", "right"], "actionTimes": [16104, 16714, 17424, 18908, 19494], "queries": {"click": {"state": {"target": ["17", "20", "33"], "time": [4496, 7598, 11566]}, "edge": {"target": [], "time": []}}, "mouseover": {"state": {"target": ["1", "17", "20", "19", "31", "30", "33", "31", "24", "25", "24"], "time": [2907, 4244, 5089, 8242, 8721, 8751, 8800, 12352, 13659, 14885, 15104]}, "edge": {"target": [], "time": []}}, "mouseout": {"state": {"target": ["0", "1", "17", "20", "19", "31", "30", "33", "31", "24", "25", "24"], "time": [2874, 3470, 5026, 8221, 8269, 8740, 8775, 12305, 12374, 14846, 14906, 15123]}, "edge": {"target": [], "time": []}}}, "displayed_time": "20.03", "trialTime": 23063, "trial_type": "mouselab-mdp", "trial_index": 24, "time_elapsed": 856953, "internal_node_id": "0.0-4.0-1.0-15.0"}}, {"uniqueid": "w72664870:a90611635", "current_trial": 25, "dateTime": 1691071865308, "trialdata": {"revealed_states": [], "clicked_states": ["2", "17", "22", "33", "27", "9", "5", "21"], "num_clicks_accrued": [0, 0, 0, 0, 0, 0, 0, 0, 0, 0, 0, 0, 0], "stateRewards": ["", -1, -3, -7, -7, -76, 30, -49, 11, -70, 56, 2, 1, 4, -3, -14, -59, -83, -25, -9, -21, -67, -73, -2, 4, 4, -9, -11, -32, 60, 9, -87, 22, -64], "withholdReward": false, "trial_id": "mdp_trial_17", "block": "test", "trialIndex": 18, "score": -52.400000000000006, "costs": -15.400000000000002, "simulationMode": [null, null, null, null, null], "rewards": [1, 4, -3, -14, -25], "path": ["0", "0", "12", "13", "14", "15", "18"], "rt": [28857, 310, 143, 308, 744], "actions": ["right", "right", "right", "up", "left"], "actionTimes": [30818, 31649, 32334, 33144, 34416], "queries": {"click": {"state": {"target": ["2", "17", "22", "33", "27", "9", "5", "21"], "time": [3379, 4949, 8591, 11800, 15241, 18278, 21918, 26843]}, "edge": {"target": [], "time": []}}, "mouseover": {"state": {"target": ["1", "2", "7", "14", "17", "19", "22", "31", "30", "33", "30", "24", "28", "27", "8", "9", "5", "4", "7", "12", "22", "21"], "time": [2623, 2818, 3986, 4037, 4584, 6064, 6489, 9373, 9432, 9763, 12500, 13197, 13637, 13730, 16471, 16548, 19593, 22636, 22671, 25735, 26246, 26549]}, "edge": {"target": [], "time": []}}, "mouseout": {"state": {"target": ["0", "1", "2", "7", "14", "17", "17", "19", "22", "31", "30", "33", "30", "24", "28", "27", "8", "9", "5", "5", "4", "7", "12", "22", "21", "21"], "time": [2569, 2715, 3976, 4013, 4060, 5132, 5523, 6110, 9288, 9403, 9737, 12472, 12539, 13222, 13665, 15769, 16498, 18921, 22098, 22608, 22664, 23949, 26102, 26516, 27818, 35914]}, "edge": {"target": [], "time": []}}}, "displayed_time": "34.94", "trialTime": 37403, "trial_type": "mouselab-mdp", "trial_index": 25, "time_elapsed": 895774, "internal_node_id": "0.0-4.0-1.0-16.0"}}, {"uniqueid": "w72664870:a90611635", "current_trial": 26, "dateTime": 1691071894259, "trialdata": {"revealed_states": [], "clicked_states": ["10", "33", "31", "20", "6"], "num_clicks_accrued": [0, 0, 0, 0, 0, 0, 0, 0, 0, 0, 0, 0, 0], "stateRewards": ["", -1, 1, -1, 2, 19, 85, -18, 2, -3, -26, 36, 2, 4, 7, -9, -18, 70, 72, -5, 35, -20, -28, 1, -2, -4, -3, -59, -11, -63, -2, -72, 59, -69], "withholdReward": false, "trial_id": "mdp_trial_18", "block": "test", "trialIndex": 19, "score": 75.25, "costs": -10.75, "simulationMode": [null, null, null, null, null], "rewards": [-1, 1, -1, 2, 85], "path": ["0", "0", "1", "2", "3", "4", "6"], "rt": [20096, 547, 175, 143, 86], "actions": ["up", "up", "up", "right", "right"], "actionTimes": [22385, 23450, 24155, 24807, 25416], "queries": {"click": {"state": {"target": ["10", "33", "31", "20", "6"], "time": [4099, 7439, 10815, 14345, 18113]}, "edge": {"target": [], "time": []}}, "mouseover": {"state": {"target": ["1", "2", "10", "28", "25", "33", "31", "25", "26", "25", "31", "22", "19", "20", "20", "17", "16", "6", "15", "17"], "time": [3112, 3174, 3779, 4851, 5322, 5452, 8480, 8554, 9070, 10251, 10307, 11691, 12631, 12743, 13121, 14981, 15744, 17846, 21130, 21193]}, "edge": {"target": [], "time": []}}, "mouseout": {"state": {"target": ["0", "1", "2", "10", "28", "25", "33", "31", "25", "26", "25", "31", "22", "19", "20", "20", "17", "16", "6", "6", "15", "17", "14"], "time": [3049, 3141, 3742, 4842, 4882, 5444, 7945, 8509, 9010, 9328, 10272, 11604, 11761, 12685, 12775, 14879, 15045, 15779, 18306, 19112, 21158, 21223, 27089]}, "edge": {"target": [], "time": []}}}, "displayed_time": "25.93", "trialTime": 27800, "trial_type": "mouselab-mdp", "trial_index": 26, "time_elapsed": 924725, "internal_node_id": "0.0-4.0-1.0-17.0"}}, {"uniqueid": "w72664870:a90611635", "current_trial": 27, "dateTime": 1691071916024, "trialdata": {"revealed_states": [], "clicked_states": ["31", "20", "33"], "num_clicks_accrued": [0, 0, 0, 0, 0, 0, 0, 0, 0, 0, 0, 0, 0], "stateRewards": ["", -2, 2, -1, -6, 22, 6, 6, -5, 70, -42, 65, 1, 3, 5, -6, -67, -9, 3, 14, 7, -62, -13, -2, 4, 1, 16, 42, -21, -52, -8, 32, 53, 81], "withholdReward": false, "trial_id": "mdp_trial_19", "block": "test", "trialIndex": 20, "score": 69.55, "costs": -6.449999999999999, "simulationMode": [null, null, null, null, null], "rewards": [-2, 4, 1, -8, 81], "path": ["0", "0", "23", "24", "25", "30", "33"], "rt": [12836, 5, 232, 22, 8], "actions": ["left", "left", "left", "down", "left"], "actionTimes": [15605, 16149, 16927, 17480, 18162], "queries": {"click": {"state": {"target": ["31", "20", "33"], "time": [3869, 7772, 11153]}, "edge": {"target": [], "time": []}}, "mouseover": {"state": {"target": ["31", "20", "21", "20", "19", "30", "33", "31", "19", "22", "23", "24", "32"], "time": [3532, 4587, 5081, 7483, 8395, 8903, 8957, 11696, 12968, 13083, 13167, 14345, 14977]}, "edge": {"target": [], "time": []}}, "mouseout": {"state": {"target": ["22", "0", "31", "20", "21", "20", "19", "30", "33", "31", "19", "22", "23", "24"], "time": [968, 3504, 4081, 4610, 6838, 7949, 8423, 8930, 11658, 11722, 13043, 13108, 13192, 14372]}, "edge": {"target": [], "time": []}}}, "displayed_time": "18.69", "trialTime": 20410, "trial_type": "mouselab-mdp", "trial_index": 27, "time_elapsed": 946490, "internal_node_id": "0.0-4.0-1.0-18.0"}}, {"uniqueid": "w72664870:a90611635", "current_trial": 28, "dateTime": 1691071940042, "trialdata": {"revealed_states": [], "clicked_states": ["33", "20", "16", "6"], "num_clicks_accrued": [0, 0, 0, 0, 0, 0, 0, 0, 0, 0, 0, 0, 0], "stateRewards": ["", 1, -3, -6, -5, 47, 80, -29, 11, -71, 10, -29, -2, 3, -6, 12, 2, -78, -6, 8, 34, -16, -5, -1, 3, 3, -13, 84, -36, -62, -3, -27, 66, 15], "withholdReward": false, "trial_id": "mdp_trial_20", "block": "test", "trialIndex": 21, "score": 58.4, "costs": -8.6, "simulationMode": [null, null, null, null, null], "rewards": [1, -3, -6, -5, 80], "path": ["0", "0", "1", "2", "3", "4", "6"], "rt": [15720, 112, 105, 86, 77], "actions": ["up", "up", "up", "right", "right"], "actionTimes": [18791, 19429, 20054, 20649, 21240], "queries": {"click": {"state": {"target": ["33", "20", "16", "6"], "time": [4502, 7895, 11124, 14491]}, "edge": {"target": [], "time": []}}, "mouseover": {"state": {"target": ["30", "33", "30", "22", "19", "20", "20", "19", "16", "6", "18"], "time": [3728, 4235, 5199, 5764, 6562, 6632, 7165, 8599, 9731, 13250, 15276]}, "edge": {"target": [], "time": []}}, "mouseout": {"state": {"target": ["32", "0", "30", "33", "30", "22", "19", "20", "20", "19", "16", "6", "18"], "time": [1660, 3660, 3761, 5189, 5279, 5928, 6605, 6656, 8572, 8642, 11295, 15226, 17944]}, "edge": {"target": [], "time": []}}}, "displayed_time": "21.76", "trialTime": 22892, "trial_type": "mouselab-mdp", "trial_index": 28, "time_elapsed": 970506, "internal_node_id": "0.0-4.0-1.0-19.0"}}, {"uniqueid": "w72664870:a90611635", "current_trial": 29, "dateTime": 1691071970978, "trialdata": {"revealed_states": [], "clicked_states": ["5", "17", "22", "9", "33"], "num_clicks_accrued": [0, 0, 0, 0, 0, 0, 0, 0, 0, 0, 0, 0, 0], "stateRewards": ["", -2, -4, -8, 8, 63, -50, -19, -7, -17, -31, 31, 1, 3, -5, 12, -35, -63, -29, -4, -17, -75, -79, -2, -3, -2, 8, -3, -85, 10, -2, -82, -82, 56], "withholdReward": false, "trial_id": "mdp_trial_21", "block": "test", "trialIndex": 22, "score": 46.25, "costs": -10.75, "simulationMode": [null, null, null, null, null], "rewards": [-2, -4, -8, 8, 63], "path": ["0", "0", "1", "2", "3", "4", "5"], "rt": [20274, 33, 172, 889, 6], "actions": ["up", "up", "up", "right", "up"], "actionTimes": [24634, 25215, 25914, 27315, 27851], "queries": {"click": {"state": {"target": ["5", "17", "22", "9", "33"], "time": [5679, 9704, 13569, 17612, 21407]}, "edge": {"target": [], "time": []}}, "mouseover": {"state": {"target": ["4", "5", "6", "6", "16", "17", "15", "18", "13", "22", "13", "12", "1", "2", "9", "8", "10", "28", "26", "33", "15"], "time": [4942, 5382, 6394, 7955, 8152, 8538, 10416, 12234, 12911, 12974, 14502, 14553, 16347, 16456, 17362, 18207, 19965, 20711, 20757, 21154, 21960]}, "edge": {"target": [], "time": []}}, "mouseout": {"state": {"target": ["4", "5", "6", "6", "16", "17", "15", "18", "13", "22", "13", "12", "1", "2", "9", "8", "10", "28", "26", "33"], "time": [4972, 6385, 6427, 8076, 8195, 10390, 10444, 12337, 12937, 14379, 14528, 14579, 16373, 16520, 18194, 18232, 20027, 20736, 20776, 21858]}, "edge": {"target": [], "time": []}}}, "displayed_time": "28.39", "trialTime": 29878, "trial_type": "mouselab-mdp", "trial_index": 29, "time_elapsed": 1001444, "internal_node_id": "0.0-4.0-1.0-20.0"}}, {"uniqueid": "w72664870:a90611635", "current_trial": 30, "dateTime": 1691071998577, "trialdata": {"revealed_states": [], "clicked_states": ["9", "5", "33", "22", "32"], "num_clicks_accrued": [0, 0, 0, 0, 0, 0, 0, 0, 0, 0, 0, 0, 0], "stateRewards": ["", 2, 3, -1, 16, -78, -11, 46, 2, -20, 79, -67, 2, 3, 2, 11, -83, -42, -58, -11, -67, -22, 55, 2, -1, -1, -16, -83, -82, 23, -11, -29, 13, 13], "withholdReward": false, "trial_id": "mdp_trial_22", "block": "test", "trialIndex": 23, "score": 40.25, "costs": -10.75, "simulationMode": [null, null, null, null, null], "rewards": [2, 3, 2, -11, 55], "path": ["0", "0", "12", "13", "14", "19", "22"], "rt": [19835, 94, 160, 51, 92], "actions": ["right", "right", "right", "down", "left"], "actionTimes": [21889, 22492, 23177, 23751, 24373], "queries": {"click": {"state": {"target": ["9", "5", "33", "22", "32"], "time": [3905, 7168, 10404, 14316, 17821]}, "edge": {"target": [], "time": []}}, "mouseover": {"state": {"target": ["10", "8", "9", "5", "3", "10", "33", "22", "22", "22", "32"], "time": [2982, 3017, 3585, 4607, 7839, 8241, 8958, 11546, 13727, 14022, 17550]}, "edge": {"target": [], "time": []}}, "mouseout": {"state": {"target": ["15", "14", "19", "0", "10", "8", "9", "5", "3", "10", "33", "22", "22", "22", "32"], "time": [197, 227, 810, 2918, 3011, 3563, 4086, 7814, 7864, 8265, 10964, 11608, 13764, 16334, 18330]}, "edge": {"target": [], "time": []}}}, "displayed_time": "24.90", "trialTime": 26437, "trial_type": "mouselab-mdp", "trial_index": 30, "time_elapsed": 1029042, "internal_node_id": "0.0-4.0-1.0-21.0"}}, {"uniqueid": "w72664870:a90611635", "current_trial": 31, "dateTime": 1691072036772, "trialdata": {"revealed_states": [], "clicked_states": ["20", "33", "32", "16", "6", "5", "17"], "num_clicks_accrued": [0, 0, 0, 0, 0, 0, 0, 0, 0, 0, 0, 0, 0], "stateRewards": ["", -2, -3, 1, -7, 39, -67, 16, 5, -20, 73, 66, -1, 4, 5, -3, 23, -68, -87, -8, 3, -3, 17, 1, -4, -2, -13, -32, 34, 61, -5, -11, -18, 12], "withholdReward": false, "trial_id": "mdp_trial_23", "block": "test", "trialIndex": 24, "score": 1.9499999999999993, "costs": -15.05, "simulationMode": [null, null, null, null, null], "rewards": [-1, 4, 5, -8, 17], "path": ["0", "0", "12", "13", "14", "19", "22"], "rt": [28606, 644, 138, 614, 207], "actions": ["right", "right", "right", "down", "left"], "actionTimes": [31648, 32814, 33475, 34631, 35361], "queries": {"click": {"state": {"target": ["20", "33", "32", "16", "6", "5", "17"], "time": [4310, 7575, 11086, 15844, 19155, 22961, 26751]}, "edge": {"target": [], "time": []}}, "mouseover": {"state": {"target": ["12", "13", "20", "20", "21", "31", "33", "32", "22", "22", "13", "15", "16", "6", "5", "15", "17", "17", "13"], "time": [3117, 3205, 3640, 4073, 4922, 5327, 5803, 10806, 12267, 14664, 14972, 15233, 15602, 16777, 22579, 25942, 26003, 26527, 30335]}, "edge": {"target": [], "time": []}}, "mouseout": {"state": {"target": ["20", "19", "22", "12", "0", "12", "13", "20", "20", "21", "31", "33", "32", "22", "22", "13", "15", "16", "6", "5", "5", "6", "15", "17", "17", "13"], "time": [532, 604, 1308, 1464, 3070, 3185, 3618, 3660, 4896, 4967, 5362, 8074, 11639, 12364, 14855, 15182, 15563, 16721, 21472, 23145, 23525, 23553, 25984, 26022, 30290, 30362]}, "edge": {"target": [], "time": []}}}, "displayed_time": "35.89", "trialTime": 37025, "trial_type": "mouselab-mdp", "trial_index": 31, "time_elapsed": 1067238, "internal_node_id": "0.0-4.0-1.0-22.0"}}, {"uniqueid": "w72664870:a90611635", "current_trial": 32, "dateTime": 1691072062092, "trialdata": {"revealed_states": [], "clicked_states": ["9", "28", "33", "20"], "num_clicks_accrued": [0, 0, 0, 0, 0, 0, 0, 0, 0, 0, 0, 0, 0], "stateRewards": ["", 1, -2, -2, 10, -31, -77, 35, 9, -47, 8, 48, -2, 1, -4, -3, -26, -50, 43, -11, 76, -38, 17, 1, -1, 6, 10, 15, -9, 12, -8, 85, 11, -55], "withholdReward": false, "trial_id": "mdp_trial_24", "block": "test", "trialIndex": 25, "score": 51.4, "costs": -8.6, "simulationMode": [null, null, null, null, null], "rewards": [-2, 1, -4, -11, 76], "path": ["0", "0", "12", "13", "14", "19", "20"], "rt": [16629, 159, 103, 911, 193], "actions": ["right", "right", "right", "down", "right"], "actionTimes": [18539, 19229, 19855, 21331, 22042], "queries": {"click": {"state": {"target": ["9", "28", "33", "20"], "time": [3816, 7038, 10326, 13672]}, "edge": {"target": [], "time": []}}, "mouseover": {"state": {"target": ["1", "2", "9", "8", "10", "10", "28", "28", "24", "31", "31", "33", "19", "20", "21"], "time": [2642, 3164, 3492, 4305, 4340, 4644, 4698, 5147, 7576, 7627, 8045, 8138, 10822, 13078, 17064]}, "edge": {"target": [], "time": []}}, "mouseout": {"state": {"target": ["12", "0", "1", "2", "9", "8", "10", "10", "28", "28", "24", "31", "31", "33", "19", "20"], "time": [911, 2610, 3159, 3426, 4278, 4332, 4368, 4670, 4742, 7550, 7599, 7653, 8069, 10508, 10846, 15360]}, "edge": {"target": [], "time": []}}}, "displayed_time": "22.57", "trialTime": 24174, "trial_type": "mouselab-mdp", "trial_index": 32, "time_elapsed": 1092558, "internal_node_id": "0.0-4.0-1.0-23.0"}}, {"uniqueid": "w72664870:a90611635", "current_trial": 33, "dateTime": 1691072082687, "trialdata": {"revealed_states": [], "clicked_states": ["8"], "num_clicks_accrued": [0, 0, 0, 0, 0, 0, 0, 0, 0, 0, 0, 0, 0], "stateRewards": ["", 2, 3, -2, -8, -8, -41, 74, 15, -23, -80, 1, 1, 3, 3, -15, -63, -78, 67, 13, 75, -41, 86, 2, -2, 6, -3, -8, -49, 50, -6, 83, 74, 80], "withholdReward": false, "trial_id": "mdp_trial_25", "block": "test", "trialIndex": 26, "score": 72.45, "costs": -1.55, "simulationMode": [null, null, null, null, null], "rewards": [2, -2, 6, -6, 74], "path": ["0", "0", "23", "24", "25", "30", "32"], "rt": [8508, 170, 1760, 6, 192], "actions": ["left", "left", "left", "down", "down"], "actionTimes": [10900, 11581, 13886, 14468, 15183], "queries": {"click": {"state": {"target": ["8"], "time": [4668]}, "edge": {"target": [], "time": []}}, "mouseover": {"state": {"target": ["2", "3", "8", "8", "1", "23", "30", "33", "33"], "time": [3190, 3253, 3701, 3813, 6227, 6287, 6905, 7598, 8338]}, "edge": {"target": [], "time": []}}, "mouseout": {"state": {"target": ["21", "0", "2", "3", "8", "8", "1", "23", "30", "33", "33"], "time": [956, 3144, 3219, 3658, 3738, 5240, 6256, 6306, 7541, 7619, 9458]}, "edge": {"target": [], "time": []}}}, "displayed_time": "16.39", "trialTime": 19083, "trial_type": "mouselab-mdp", "trial_index": 33, "time_elapsed": 1113153, "internal_node_id": "0.0-4.0-1.0-24.0"}}, {"uniqueid": "w72664870:a90611635", "current_trial": 34, "dateTime": 1691072107297, "trialdata": {"revealed_states": [], "clicked_states": ["32", "20", "6"], "num_clicks_accrued": [0, 0, 0, 0, 0, 0, 0, 0, 0, 0, 0, 0, 0], "stateRewards": ["", 2, -3, -2, 14, -4, 85, 46, 15, -28, 41, 31, -1, -1, -1, 5, 62, 79, 57, 12, -73, -64, 86, -1, 1, -3, -5, 68, 11, -32, 8, -80, -21, -56], "withholdReward": false, "trial_id": "mdp_trial_26", "block": "test", "trialIndex": 27, "score": 89.55, "costs": -6.449999999999999, "simulationMode": [null, null, null, null, null], "rewards": [2, -3, -2, 14, 85], "path": ["0", "0", "1", "2", "3", "4", "6"], "rt": [13926, 28, 214, 650, 185], "actions": ["up", "up", "up", "right", "right"], "actionTimes": [17920, 18475, 19211, 20393, 21096], "queries": {"click": {"state": {"target": ["32", "20", "6"], "time": [5902, 9270, 13566]}, "edge": {"target": [], "time": []}}, "mouseover": {"state": {"target": ["32", "32", "31", "22", "20", "14", "15", "16", "4", "6", "4"], "time": [4493, 5663, 6565, 7575, 8128, 10228, 11281, 11415, 12608, 13346, 16930]}, "edge": {"target": [], "time": []}}, "mouseout": {"state": {"target": ["31", "0", "32", "32", "31", "22", "20", "14", "15", "16", "4", "6"], "time": [2109, 4455, 4526, 6477, 7511, 7601, 10161, 10273, 11313, 12011, 12628, 13757]}, "edge": {"target": [], "time": []}}}, "displayed_time": "21.61", "trialTime": 23451, "trial_type": "mouselab-mdp", "trial_index": 34, "time_elapsed": 1137764, "internal_node_id": "0.0-4.0-1.0-25.0"}}, {"uniqueid": "w72664870:a90611635", "current_trial": 35, "dateTime": 1691072136275, "trialdata": {"revealed_states": [], "clicked_states": ["9", "33", "6", "20", "29"], "num_clicks_accrued": [0, 0, 0, 0, 0, 0, 0, 0, 0, 0, 0, 0, 0], "stateRewards": ["", -2, -3, 1, -14, 48, -49, 67, -1, -35, -48, 3, -2, 1, -4, -5, 86, -84, 39, 1, 48, 41, -42, -1, -4, 2, -7, 18, -86, 17, 7, -9, 57, -69], "withholdReward": false, "trial_id": "mdp_trial_27", "block": "test", "trialIndex": 28, "score": 33.25, "costs": -10.75, "simulationMode": [null, null, null, null, null], "rewards": [-2, 1, -4, 1, 48], "path": ["0", "0", "12", "13", "14", "19", "20"], "rt": [20573, 184, 171, 99, 164], "actions": ["right", "right", "right", "down", "right"], "actionTimes": [23229, 23939, 24642, 25284, 25975], "queries": {"click": {"state": {"target": ["9", "33", "6", "20", "29"], "time": [3986, 8529, 11854, 15113, 18818]}, "edge": {"target": [], "time": []}}, "mouseover": {"state": {"target": ["8", "9", "2", "25", "33", "6", "14", "19", "20", "19", "22", "23", "29", "26", "13", "18"], "time": [3324, 3704, 6004, 7046, 8264, 10005, 13315, 13455, 14541, 15785, 16180, 16232, 17814, 19329, 20795, 20894]}, "edge": {"target": [], "time": []}}, "mouseout": {"state": {"target": ["4", "12", "0", "8", "9", "2", "25", "33", "6", "14", "19", "20", "19", "22", "23", "29", "26", "13", "18"], "time": [1247, 1671, 3268, 3343, 4659, 6084, 7098, 9069, 12464, 13366, 14491, 15295, 15817, 16205, 16259, 19317, 19361, 20844, 27284]}, "edge": {"target": [], "time": []}}}, "displayed_time": "26.50", "trialTime": 27837, "trial_type": "mouselab-mdp", "trial_index": 35, "time_elapsed": 1166741, "internal_node_id": "0.0-4.0-1.0-26.0"}}, {"uniqueid": "w72664870:a90611635", "current_trial": 36, "dateTime": 1691072156313, "trialdata": {"revealed_states": [], "clicked_states": [], "num_clicks_accrued": [0, 0, 0, 0, 0, 0, 0, 0, 0, 0, 0, 0, 0], "stateRewards": ["", -2, 3, 3, -14, 62, 36, 49, 16, 11, 17, -84, 2, -1, 6, 2, -82, -73, 49, -6, -87, 48, 50, -1, -2, -1, -16, -11, 37, -44, 4, 55, 73, -10], "withholdReward": false, "trial_id": "mdp_trial_28", "block": "test", "trialIndex": 29, "score": 73, "costs": 0, "simulationMode": [null, null, null, null, null], "rewards": [-1, -2, -1, 4, 73], "path": ["0", "0", "23", "24", "25", "30", "32"], "rt": [5513, 7, 68, 12, 99], "actions": ["left", "left", "left", "down", "down"], "actionTimes": [8245, 8773, 9410, 9944, 10580], "queries": {"click": {"state": {"target": [], "time": []}, "edge": {"target": [], "time": []}}, "mouseover": {"state": {"target": ["1", "10", "1", "14"], "time": [2759, 3700, 5371, 5865]}, "edge": {"target": [], "time": []}}, "mouseout": {"state": {"target": ["12", "1", "10", "1", "14"], "time": [1606, 3554, 4854, 5393, 17797]}, "edge": {"target": [], "time": []}}}, "displayed_time": "16.74", "trialTime": 18876, "trial_type": "mouselab-mdp", "trial_index": 36, "time_elapsed": 1186779, "internal_node_id": "0.0-4.0-1.0-27.0"}}, {"uniqueid": "w72664870:a90611635", "current_trial": 37, "dateTime": 1691072179734, "trialdata": {"revealed_states": [], "clicked_states": ["30", "32", "33"], "num_clicks_accrued": [0, 0, 0, 0, 0, 0, 0, 0, 0, 0, 0, 0, 0], "stateRewards": ["", -2, -1, -2, -15, 87, 57, 29, -10, 77, -80, -7, 1, -3, 6, 14, -11, 87, -59, 4, -71, 16, -11, 2, 2, -7, 2, -47, 61, 50, 14, -20, 17, 81], "withholdReward": false, "trial_id": "mdp_trial_29", "block": "test", "trialIndex": 30, "score": 86.15, "costs": -5.85, "simulationMode": [null, null, null, null, null], "rewards": [2, 2, -7, 14, 81], "path": ["0", "0", "23", "24", "25", "30", "33"], "rt": [11178, 777, 177, 91, 217], "actions": ["left", "left", "left", "down", "left"], "actionTimes": [14518, 15803, 16504, 17116, 17861], "queries": {"click": {"state": {"target": ["30", "32", "33"], "time": [4362, 5612, 10392]}, "edge": {"target": [], "time": []}}, "mouseover": {"state": {"target": ["30", "32", "22", "19", "19", "22", "31", "30", "33"], "time": [4074, 5100, 7791, 7825, 9289, 9344, 9735, 9816, 10122]}, "edge": {"target": [], "time": []}}, "mouseout": {"state": {"target": ["15", "13", "0", "30", "32", "22", "19", "19", "22", "31", "30", "33"], "time": [218, 1389, 3371, 5052, 6875, 7818, 9046, 9337, 9371, 9792, 10091, 10965]}, "edge": {"target": [], "time": []}}}, "displayed_time": "18.38", "trialTime": 21976, "trial_type": "mouselab-mdp", "trial_index": 37, "time_elapsed": 1210199, "internal_node_id": "0.0-4.0-1.0-28.0"}}, {"uniqueid": "w72664870:a90611635", "current_trial": 38, "dateTime": 1691072218886, "trialdata": {"revealed_states": [], "clicked_states": ["4", "15", "19", "30", "33", "26", "32"], "num_clicks_accrued": [0, 0, 0, 0, 0, 0, 0, 0, 0, 0, 0, 0, 0], "stateRewards": ["", 1, 2, -5, 14, 54, -14, -25, 16, -5, -87, 78, -1, 1, 3, -3, 52, 53, 53, -10, 73, -69, -48, 2, 3, 1, 8, -62, -7, 85, 7, 82, 52, -28], "withholdReward": false, "trial_id": "mdp_trial_30", "block": "test", "trialIndex": 31, "score": 52.95, "costs": -12.05, "simulationMode": [null, null, null, null, null], "rewards": [2, 3, 1, 7, 52], "path": ["0", "0", "23", "24", "25", "30", "32"], "rt": [18189, 7, 52, 607, 251], "actions": ["left", "left", "left", "down", "down"], "actionTimes": [21510, 22035, 22631, 23744, 24532], "queries": {"click": {"state": {"target": ["4", "15", "19", "30", "33", "26", "32"], "time": [4483, 5689, 7518, 8803, 10232, 13641, 16725]}, "edge": {"target": [], "time": []}}, "mouseover": {"state": {"target": ["7", "4", "15", "14", "19", "31", "30", "33", "26", "25", "30", "32", "30", "25", "26", "25"], "time": [4101, 4148, 5390, 6312, 7305, 8442, 8516, 9714, 11987, 14800, 15174, 15218, 19832, 20347, 20396, 20981]}, "edge": {"target": [], "time": []}}, "mouseout": {"state": {"target": ["0", "7", "4", "15", "14", "19", "31", "30", "33", "30", "26", "25", "30", "32", "30", "25", "26", "25", "30"], "time": [1732, 4121, 4918, 6284, 6672, 7711, 8509, 9661, 10904, 10955, 14782, 14831, 15213, 19781, 20323, 20365, 20963, 21011, 25698]}, "edge": {"target": [], "time": []}}}, "displayed_time": "25.06", "trialTime": 37548, "trial_type": "mouselab-mdp", "trial_index": 38, "time_elapsed": 1249353, "internal_node_id": "0.0-4.0-1.0-29.0"}}, {"uniqueid": "w72664870:a90611635", "current_trial": 39, "dateTime": 1691072325221, "trialdata": {"revealed_states": [], "clicked_states": ["25", "33", "20", "6", "7"], "num_clicks_accrued": [0, 0, 0, 0, 0, 0, 0, 0, 0, 0, 0, 0, 0], "stateRewards": ["", -1, 3, 8, 9, -53, 20, -84, 2, -28, -62, -31, -1, -2, -7, 2, 51, 58, 45, -4, -17, -41, 36, 2, -2, -7, -15, 29, -54, -37, -16, -43, 65, -17], "withholdReward": false, "trial_id": "mdp_trial_31", "block": "test", "trialIndex": 32, "score": -43.55, "costs": -9.55, "simulationMode": [null, null, null, null, null], "rewards": [-1, 3, 8, 9, -53], "path": ["0", "0", "1", "2", "3", "4", "5"], "rt": [18307, 7, 456, 389, 82], "actions": ["up", "up", "up", "right", "up"], "actionTimes": [20712, 21230, 22212, 23112, 23708], "queries": {"click": {"state": {"target": ["25", "33", "20", "6", "7"], "time": [4327, 6263, 9618, 12612, 17570]}, "edge": {"target": [], "time": []}}, "mouseover": {"state": {"target": ["23", "25", "33", "30", "20", "14", "15", "15", "16", "6", "5", "6", "7", "4", "3", "2", "7"], "time": [3260, 3954, 5906, 6700, 7497, 10276, 10345, 10593, 10658, 11257, 11344, 12146, 13689, 14240, 15095, 16937, 17198]}, "edge": {"target": [], "time": []}}, "mouseout": {"state": {"target": ["0", "23", "25", "33", "30", "20", "14", "15", "15", "16", "6", "5", "6", "7", "4", "3", "2", "7"], "time": [1256, 3322, 4889, 6690, 6728, 10224, 10319, 10391, 10623, 11209, 11294, 11964, 13639, 13975, 14914, 16435, 17082, 17763]}, "edge": {"target": [], "time": []}}}, "displayed_time": "24.25", "trialTime": 104770, "trial_type": "mouselab-mdp", "trial_index": 39, "time_elapsed": 1355687, "internal_node_id": "0.0-4.0-1.0-30.0"}}, {"uniqueid": "w72664870:a90611635", "current_trial": 40, "dateTime": 1691072354974, "trialdata": {"revealed_states": [], "clicked_states": ["14", "20", "33", "6", "9", "7"], "num_clicks_accrued": [0, 0, 0, 0, 0, 0, 0, 0, 0, 0, 0, 0, 0], "stateRewards": ["", -2, 3, -1, -9, 44, 48, -37, -3, 71, -39, 87, -1, 3, -4, 4, -21, 59, -15, -8, -1, 28, -38, 2, 4, 4, 8, -85, -72, -63, 14, 58, 63, -46], "withholdReward": false, "trial_id": "mdp_trial_32", "block": "test", "trialIndex": 33, "score": 56.3, "costs": -11.700000000000001, "simulationMode": [null, null, null, null, null], "rewards": [-2, 3, -1, -3, 71], "path": ["0", "0", "1", "2", "3", "8", "9"], "rt": [19647, 508, 286, 144, 286], "actions": ["up", "up", "up", "left", "up"], "actionTimes": [22385, 23413, 24208, 24865, 25698], "queries": {"click": {"state": {"target": ["14", "20", "33", "6", "9", "7"], "time": [5201, 6515, 9726, 12638, 16055, 19282]}, "edge": {"target": [], "time": []}}, "mouseover": {"state": {"target": ["0", "13", "14", "14", "14", "19", "20", "22", "33", "33", "30", "31", "30", "33", "12", "6", "5", "8", "9", "7", "7", "2"], "time": [2764, 3935, 3961, 4323, 4915, 5752, 6244, 7083, 7512, 7934, 8818, 8848, 9334, 9399, 11154, 11966, 13344, 14008, 14722, 16616, 17219, 20003]}, "edge": {"target": [], "time": []}}, "mouseout": {"state": {"target": ["7", "3", "2", "1", "0", "13", "14", "14", "14", "19", "20", "22", "33", "33", "30", "31", "30", "33", "12", "6", "5", "8", "9", "7", "7"], "time": [1160, 1365, 1465, 1515, 3913, 3954, 3984, 4369, 5722, 6218, 7074, 7124, 7536, 8810, 8842, 9315, 9365, 10419, 11182, 13272, 13393, 14364, 16571, 16636, 19971]}, "edge": {"target": [], "time": []}}}, "displayed_time": "26.22", "trialTime": 28135, "trial_type": "mouselab-mdp", "trial_index": 40, "time_elapsed": 1385440, "internal_node_id": "0.0-4.0-1.0-31.0"}}, {"uniqueid": "w72664870:a90611635", "current_trial": 41, "dateTime": 1691072386167, "trialdata": {"revealed_states": [], "clicked_states": ["33", "20", "9", "21", "6"], "num_clicks_accrued": [0, 0, 0, 0, 0, 0, 0, 0, 0, 0, 0, 0, 0], "stateRewards": ["", -1, -4, 8, 8, -68, 47, 24, -7, -61, 49, -69, -1, -1, 8, -7, 42, 1, -45, -11, 10, -63, -6, 1, 4, 6, -16, 79, -37, -58, -12, 81, 18, -53], "withholdReward": false, "trial_id": "mdp_trial_33", "block": "test", "trialIndex": 34, "score": 47.25, "costs": -10.75, "simulationMode": [null, null, null, null, null], "rewards": [-1, -4, 8, 8, 47], "path": ["0", "0", "1", "2", "3", "4", "6"], "rt": [21097, 8, 123, 1121, 242], "actions": ["up", "up", "up", "right", "right"], "actionTimes": [24481, 25011, 25657, 27314, 28089], "queries": {"click": {"state": {"target": ["33", "20", "9", "21", "6"], "time": [5973, 9759, 12961, 16692, 20561]}, "edge": {"target": [], "time": []}}, "mouseover": {"state": {"target": ["1", "10", "26", "25", "33", "30", "12", "20", "20", "14", "7", "8", "9", "4", "4", "4", "18", "19", "21", "18", "6"], "time": [3992, 4103, 4848, 4886, 5761, 6585, 6993, 7030, 7715, 10381, 10824, 11284, 11334, 13486, 14052, 15919, 15995, 16353, 16416, 17574, 20308]}, "edge": {"target": [], "time": []}}, "mouseout": {"state": {"target": ["2", "0", "1", "10", "26", "25", "33", "30", "12", "20", "20", "14", "7", "8", "9", "4", "4", "4", "18", "19", "21", "18", "6"], "time": [2169, 3935, 4013, 4630, 4880, 4913, 6572, 6614, 7024, 7377, 10351, 10410, 10850, 11312, 13436, 13511, 14142, 15966, 16015, 16410, 17194, 17622, 28624]}, "edge": {"target": [], "time": []}}}, "displayed_time": "28.60", "trialTime": 29618, "trial_type": "mouselab-mdp", "trial_index": 41, "time_elapsed": 1416634, "internal_node_id": "0.0-4.0-1.0-32.0"}}, {"uniqueid": "w72664870:a90611635", "current_trial": 42, "dateTime": 1691072417314, "trialdata": {"revealed_states": [], "clicked_states": ["32", "30", "31", "33", "9", "10"], "num_clicks_accrued": [0, 0, 0, 0, 0, 0, 0, 0, 0, 0, 0, 0, 0], "stateRewards": ["", 1, 2, 8, -2, 23, -69, -18, -16, 54, -21, 71, -1, -4, 7, 11, 43, -6, 88, 6, -55, 72, 43, 1, -3, -2, -1, 68, -31, -54, 4, -8, 25, -2], "withholdReward": false, "trial_id": "mdp_trial_34", "block": "test", "trialIndex": 35, "score": 36.7, "costs": -12.3, "simulationMode": [null, null, null, null, null], "rewards": [1, 2, 8, -16, 54], "path": ["0", "0", "1", "2", "3", "8", "9"], "rt": [21670, 15, 151, 16, 728], "actions": ["up", "up", "up", "left", "up"], "actionTimes": [24067, 24585, 25253, 25834, 27080], "queries": {"click": {"state": {"target": ["32", "30", "31", "33", "9", "10"], "time": [3804, 7588, 9062, 12672, 16416, 20836]}, "edge": {"target": [], "time": []}}, "mouseover": {"state": {"target": ["31", "32", "32", "31", "31", "30", "31", "30", "33", "30", "7", "3", "9", "4", "15", "18", "10"], "time": [3087, 3136, 3532, 4750, 6634, 7318, 8640, 11531, 12420, 13431, 14596, 15621, 16098, 16921, 17669, 20086, 20202]}, "edge": {"target": [], "time": []}}, "mouseout": {"state": {"target": ["6", "7", "0", "31", "32", "32", "31", "31", "30", "31", "30", "33", "30", "31", "7", "3", "9", "4", "15", "18"], "time": [592, 650, 1396, 3116, 3165, 3990, 4799, 7261, 8618, 11481, 12370, 13382, 13460, 13821, 15519, 16061, 16645, 16945, 20066, 20113]}, "edge": {"target": [], "time": []}}}, "displayed_time": "27.59", "trialTime": 29733, "trial_type": "mouselab-mdp", "trial_index": 42, "time_elapsed": 1447778, "internal_node_id": "0.0-4.0-1.0-33.0"}}, {"uniqueid": "w72664870:a90611635", "current_trial": 43, "dateTime": 1691072443112, "trialdata": {"revealed_states": [], "clicked_states": ["20", "33", "21", "32"], "num_clicks_accrued": [0, 0, 0, 0, 0, 0, 0, 0, 0, 0, 0, 0, 0], "stateRewards": ["", -1, 2, 5, -6, 13, -64, -47, 8, -79, -80, -33, 1, 2, -2, -16, 56, -71, -10, 3, 29, 44, 85, -1, 4, 5, 4, -36, -56, 19, 8, 52, -13, -2], "withholdReward": false, "trial_id": "mdp_trial_35", "block": "test", "trialIndex": 36, "score": 39.4, "costs": -8.6, "simulationMode": [null, null, null, null, null], "rewards": [1, 2, -2, 3, 44], "path": ["0", "0", "12", "13", "14", "19", "21"], "rt": [15115, 49, 14, 274, 135], "actions": ["right", "right", "right", "down", "down"], "actionTimes": [20155, 20709, 21274, 22067, 22712], "queries": {"click": {"state": {"target": ["20", "33", "21", "32"], "time": [6389, 10255, 13621, 16973]}, "edge": {"target": [], "time": []}}, "mouseover": {"state": {"target": ["13", "20", "22", "30", "33", "22", "19", "21", "32"], "time": [5272, 6065, 6941, 6995, 7497, 11300, 11353, 11791, 15008]}, "edge": {"target": [], "time": []}}, "mouseout": {"state": {"target": ["10", "0", "13", "20", "22", "30", "33", "22", "19", "21", "32"], "time": [3625, 5211, 5653, 6910, 6969, 7023, 10830, 11327, 11741, 14059, 17540]}, "edge": {"target": [], "time": []}}}, "displayed_time": "23.23", "trialTime": 24225, "trial_type": "mouselab-mdp", "trial_index": 43, "time_elapsed": 1473577, "internal_node_id": "0.0-4.0-1.0-34.0"}}, {"uniqueid": "w72664870:a90611635", "current_trial": 44, "dateTime": 1691072470158, "trialdata": {"revealed_states": [], "clicked_states": ["2", "6", "5", "33"], "num_clicks_accrued": [0, 0, 0, 0, 0, 0, 0, 0, 0, 0, 0, 0, 0], "stateRewards": ["", 1, 1, 4, 11, 83, -66, 18, -16, -23, 5, 25, 1, -3, 1, -12, 18, 24, -86, -11, -64, 36, 40, 2, 1, -6, 13, 55, 29, 72, -2, 81, -72, -41], "withholdReward": false, "trial_id": "mdp_trial_36", "block": "test", "trialIndex": 37, "score": 93.2, "costs": -6.800000000000001, "simulationMode": [null, null, null, null, null], "rewards": [1, 1, 4, 11, 83], "path": ["0", "0", "1", "2", "3", "4", "5"], "rt": [13272, 474, 59, 60, 626], "actions": ["up", "up", "up", "right", "up"], "actionTimes": [15711, 16712, 17305, 17891, 19043], "queries": {"click": {"state": {"target": ["2", "6", "5", "33"], "time": [3820, 5556, 8832, 11978]}, "edge": {"target": [], "time": []}}, "mouseover": {"state": {"target": ["2", "7", "6", "6", "4", "5", "4", "7", "12", "23", "24", "33", "24", "10"], "time": [3480, 4359, 4929, 5324, 6270, 8411, 9403, 9480, 10215, 10249, 10281, 11239, 12661, 13442]}, "edge": {"target": [], "time": []}}, "mouseout": {"state": {"target": ["0", "2", "7", "6", "6", "4", "5", "4", "7", "12", "23", "24", "33", "24", "10"], "time": [3417, 4330, 4386, 4959, 6220, 8362, 9349, 9475, 9844, 10242, 10275, 10307, 12654, 13394, 13471]}, "edge": {"target": [], "time": []}}}, "displayed_time": "19.56", "trialTime": 25508, "trial_type": "mouselab-mdp", "trial_index": 44, "time_elapsed": 1500624, "internal_node_id": "0.0-4.0-1.0-35.0"}}, {"uniqueid": "w72664870:a90611635", "current_trial": 45, "dateTime": 1691072494816, "trialdata": {"revealed_states": [], "clicked_states": ["17", "19", "15", "18", "4"], "num_clicks_accrued": [0, 0, 0, 0, 0, 0, 0, 0, 0, 0, 0, 0, 0], "stateRewards": ["", 1, 1, -7, -9, -44, 24, -83, -15, 44, -24, 72, -2, -3, 4, -5, 57, 55, 29, -11, 22, 12, -25, -1, 2, 7, 12, 33, -8, 47, -4, 8, 50, -4], "withholdReward": false, "trial_id": "mdp_trial_37", "block": "test", "trialIndex": 38, "score": 40.05, "costs": -8.950000000000001, "simulationMode": [null, null, null, null, null], "rewards": [-2, -3, 4, -5, 55], "path": ["0", "0", "12", "13", "14", "15", "17"], "rt": [14506, 614, 271, 137, 40], "actions": ["right", "right", "right", "up", "right"], "actionTimes": [17660, 18800, 19588, 20238, 20790], "queries": {"click": {"state": {"target": ["17", "19", "15", "18", "4"], "time": [5231, 8519, 9548, 11958, 15516]}, "edge": {"target": [], "time": []}}, "mouseover": {"state": {"target": ["18", "17", "17", "19", "14", "15", "16", "18", "18", "13", "12", "4", "6", "15"], "time": [4262, 4290, 4852, 6085, 9052, 9114, 10696, 11330, 11653, 12667, 13503, 14702, 16249, 16700]}, "edge": {"target": [], "time": []}}, "mouseout": {"state": {"target": ["3", "0", "18", "17", "17", "19", "14", "15", "16", "18", "18", "13", "12", "4", "6"], "time": [988, 3185, 4283, 4316, 5973, 8697, 9085, 10647, 11280, 11348, 12659, 12696, 13552, 16221, 16279]}, "edge": {"target": [], "time": []}}}, "displayed_time": "21.35", "trialTime": 23240, "trial_type": "mouselab-mdp", "trial_index": 45, "time_elapsed": 1525282, "internal_node_id": "0.0-4.0-1.0-36.0"}}, {"uniqueid": "w72664870:a90611635", "current_trial": 46, "dateTime": 1691072531847, "trialdata": {"revealed_states": [], "clicked_states": ["29", "33", "20", "4", "6", "7", "9"], "num_clicks_accrued": [0, 0, 0, 0, 0, 0, 0, 0, 0, 0, 0, 0, 0], "stateRewards": ["", -2, 1, -7, 9, 8, 25, 61, -7, -17, 69, -81, 1, 4, -4, -11, 16, 67, 44, 3, 6, -45, -54, -2, 3, 6, -11, -15, 32, -47, 3, -39, -6, -88], "withholdReward": false, "trial_id": "mdp_trial_38", "block": "test", "trialIndex": 39, "score": 47.55, "costs": -14.45, "simulationMode": [null, null, null, null, null], "rewards": [-2, 1, -7, 9, 61], "path": ["0", "0", "1", "2", "3", "4", "7"], "rt": [25882, 538, 111, 748, 522], "actions": ["up", "up", "up", "right", "down"], "actionTimes": [29568, 30646, 31265, 32537, 33610], "queries": {"click": {"state": {"target": ["29", "33", "20", "4", "6", "7", "9"], "time": [5165, 8538, 11773, 15617, 17169, 21492, 26423]}, "edge": {"target": [], "time": []}}, "mouseover": {"state": {"target": ["28", "26", "29", "33", "30", "14", "20", "17", "16", "5", "4", "6", "6", "7", "3", "9", "9"], "time": [4378, 4729, 4829, 6080, 9119, 9678, 10302, 12550, 13087, 13584, 15359, 16502, 16855, 21192, 23135, 25824, 25933]}, "edge": {"target": [], "time": []}}, "mouseout": {"state": {"target": ["15", "31", "31", "0", "28", "26", "29", "29", "33", "30", "14", "20", "17", "16", "5", "4", "6", "6", "7", "3", "9", "9"], "time": [1763, 1985, 2216, 4271, 4708, 4776, 5344, 5653, 9112, 9147, 10249, 12459, 13059, 13115, 14951, 16489, 16547, 20599, 23054, 23165, 25885, 26632]}, "edge": {"target": [], "time": []}}}, "displayed_time": "34.14", "trialTime": 35218, "trial_type": "mouselab-mdp", "trial_index": 46, "time_elapsed": 1562312, "internal_node_id": "0.0-4.0-1.0-37.0"}}, {"uniqueid": "w72664870:a90611635", "current_trial": 47, "dateTime": 1691072557781, "trialdata": {"revealed_states": [], "clicked_states": ["19", "20", "33", "7"], "num_clicks_accrued": [0, 0, 0, 0, 0, 0, 0, 0, 0, 0, 0, 0, 0], "stateRewards": ["", 2, -1, 4, -9, -43, 7, 54, -13, 38, -40, -83, -1, 2, -8, -10, 34, -33, 11, -14, -79, 65, 26, 1, 2, 4, 10, 21, 1, 86, 4, -53, 28, -29], "withholdReward": false, "trial_id": "mdp_trial_39", "block": "test", "trialIndex": 40, "score": 42, "costs": -8, "simulationMode": [null, null, null, null, null], "rewards": [2, -1, 4, -9, 54], "path": ["0", "0", "1", "2", "3", "4", "7"], "rt": [15835, 9, 152, 737, 23], "actions": ["up", "up", "up", "right", "down"], "actionTimes": [19343, 19869, 20559, 21821, 22364], "queries": {"click": {"state": {"target": ["19", "20", "33", "7"], "time": [5734, 6848, 11273, 15084]}, "edge": {"target": [], "time": []}}, "mouseover": {"state": {"target": ["18", "15", "20", "19", "20", "14", "18", "33", "33", "24", "10", "8", "4", "7", "6"], "time": [4257, 4371, 5028, 5421, 6562, 7541, 7630, 10475, 10909, 11952, 12990, 13074, 14141, 14759, 15790]}, "edge": {"target": [], "time": []}}, "mouseout": {"state": {"target": ["1", "18", "15", "20", "19", "19", "20", "14", "18", "33", "33", "24", "10", "8", "4", "7", "6"], "time": [2480, 4338, 4842, 5359, 5908, 6532, 7512, 7603, 8431, 10525, 11455, 12890, 13019, 13650, 14705, 15689, 23943]}, "edge": {"target": [], "time": []}}}, "displayed_time": "22.89", "trialTime": 24346, "trial_type": "mouselab-mdp", "trial_index": 47, "time_elapsed": 1588248, "internal_node_id": "0.0-4.0-1.0-38.0"}}, {"uniqueid": "w72664870:a90611635", "current_trial": 48, "dateTime": 1691072582276, "trialdata": {"revealed_states": [], "clicked_states": ["9", "7", "6", "33"], "num_clicks_accrued": [0, 0, 0, 0, 0, 0, 0, 0, 0, 0, 0, 0, 0], "stateRewards": ["", -1, 3, 8, 10, -86, 61, -36, 10, 17, -60, 24, -1, -3, 3, 11, 50, 60, 33, -3, -20, 58, -6, 1, -4, -4, 13, -70, -71, 43, 14, 52, 82, -11], "withholdReward": false, "trial_id": "mdp_trial_40", "block": "test", "trialIndex": 41, "score": 72.4, "costs": -8.6, "simulationMode": [null, null, null, null, null], "rewards": [-1, 3, 8, 10, 61], "path": ["0", "0", "1", "2", "3", "4", "6"], "rt": [16107, 40, 69, 33, 399], "actions": ["up", "up", "up", "right", "right"], "actionTimes": [18545, 19094, 19716, 20296, 21227], "queries": {"click": {"state": {"target": ["9", "7", "6", "33"], "time": [3889, 7306, 11086, 15398]}, "edge": {"target": [], "time": []}}, "mouseover": {"state": {"target": ["1", "9", "9", "7", "7", "6", "4", "3", "10", "25", "33"], "time": [2617, 3169, 3589, 4399, 4970, 10732, 11689, 12135, 12621, 14382, 15184]}, "edge": {"target": [], "time": []}}, "mouseout": {"state": {"target": ["0", "1", "9", "9", "7", "7", "6", "4", "3", "10", "25", "33"], "time": [2612, 3132, 3218, 4343, 4429, 10314, 11651, 12107, 12569, 14288, 14688, 15581]}, "edge": {"target": [], "time": []}}}, "displayed_time": "21.69", "trialTime": 22971, "trial_type": "mouselab-mdp", "trial_index": 48, "time_elapsed": 1612742, "internal_node_id": "0.0-4.0-1.0-39.0"}}, {"uniqueid": "w72664870:a90611635", "current_trial": 49, "dateTime": 1691072667642, "trialdata": {"rt": 85258, "response": {"Q0": "$-16 to 16", "Q1": "$-32 to $32", "Q2": "$-32 to $32", "Q3": "The cost for clicking on nodes varied between nodes.", "Q4": "Slightly motivated"}, "question_order": [0, 1, 2, 3, 4], "trial_id": "final_quiz_control", "trial_type": "survey-multi-choice", "trial_index": 49, "time_elapsed": 1698109, "internal_node_id": "0.0-4.0-2.0"}}, {"uniqueid": "w72664870:a90611635", "current_trial": 50, "dateTime": 1691072957783, "trialdata": {"rt": 290022, "response": {"Q0": "I generally clicked on the nodes on the side. I started from the bottom and clicked on the top side nodes if I saw that the bottom side nodes gave small numbers. I also used the node assistant a lot", "Q1": "no. I used the same method throughout.", "Q2": "It was abit difficult. The game was so random. I couldn't find the pattern because I was mindful of the costs that came with the assistance. I wanted to be able to make as much money as I could"}, "trial_id": "self_report_control", "trial_type": "survey-text", "trial_index": 50, "time_elapsed": 1988250, "internal_node_id": "0.0-4.0-3.0"}}, {"uniqueid": "w72664870:a90611635", "current_trial": 51, "dateTime": 1691073026293, "trialdata": {"rt": 68487, "response": {"Q0": "Disagree", "Q1": "Disagree", "Q2": "Neither disagree nor agree", "Q3": "Neither disagree nor agree", "Q4": "Neither disagree nor agree", "Q5": "Neither disagree nor agree", "Q6": "Neither disagree nor agree"}, "question_order": [0, 1, 2, 3, 4, 5, 6], "trial_id": "self_report_2", "trial_type": "survey-multi-choice", "trial_index": 51, "time_elapsed": 2056760, "internal_node_id": "0.0-4.0-4.0"}}, {"uniqueid": "w72664870:a90611635", "current_trial": 52, "dateTime": 1691073056029, "trialdata": {"rt": 29690, "response": {"gender": "female", "age": "24", "colorblind": "0", "effort": "0"}, "trial_type": "survey-html-form", "trial_index": 52, "time_elapsed": 2086497, "internal_node_id": "0.0-4.0-5.0"}}, {"uniqueid": "w72664870:a90611635", "current_trial": 53, "dateTime": 1691073112679, "trialdata": {"rt": 56610, "response": {"Q0": "not  really.", "Q1": "no. I really can't remember", "Q2": ""}, "trial_type": "survey-text", "trial_index": 53, "time_elapsed": 2143147, "internal_node_id": "0.0-4.0-6.0"}}, {"uniqueid": "w72664870:a90611635", "current_trial": 54, "dateTime": 1691073116012, "trialdata": {"rt": 3235, "stimulus": "Press 'Finish HIT' in order to reach the completion code. Once the data has been saved, you will receive the code either in this window or in the original browser window where you started the experiment.\n", "response": 0, "trial_type": "html-button-response", "trial_index": 54, "time_elapsed": 2146479, "internal_node_id": "0.0-5.0"}}, {"uniqueid": "w72664870:a90611635", "current_trial": 55, "dateTime": 1691073117042, "trialdata": {"success": true, "trial_type": "fullscreen", "trial_index": 55, "time_elapsed": 2147510, "internal_node_id": "0.0-6.0"}}], "questiondata": {"params": {"CODE": "C6DMOQA6", "MIN_TIME": 14, "inspectCost": 1, "startTime": "Thu Aug 03 2023 15:56:07 GMT+0200 (South Africa Standard Time)", "bonusRate": 0.002, "variance": "1_2_4_8_44", "branching": "31123"}, "final_score": 1489.25}, "eventdata": [{"eventtype": "initialized", "value": null, "timestamp": 1691070966398, "interval": 0}, {"eventtype": "window_resize", "value": [1028, 744], "timestamp": 1691070966398, "interval": 0}, {"eventtype": "window_resize", "value": [1028, 744], "timestamp": 1691070967089, "interval": 691}, {"eventtype": "focus", "value": "off", "timestamp": 1691070991742, "interval": 24653}, {"eventtype": "focus", "value": "on", "timestamp": 1691070994601, "interval": 2859}, {"eventtype": "window_resize", "value": [1536, 864], "timestamp": 1691070995162, "interval": 561}, {"eventtype": "window_resize", "value": [1028, 744], "timestamp": 1691073116651, "interval": 2121489}], "useragent": "Mozilla/5.0 (Windows NT 10.0; Win64; x64) AppleWebKit/537.36 (KHTML, like Gecko) Chrome/115.0.0.0 Safari/537.36", "mode": "live", "id": "w72664870:a90611635", "status": "user data saved", "Beginhit": "2023-08-03 13:56:03.208543", "Beginexp": "2023-08-03 13:56:37.177793", "Endhit": "2023-08-03 14:31:58.916033", "psiturkStatus": 3, "browser": "<redacted>", "platform": "windows", "language": "en-US"}