{"condition": 0, "counterbalance": 0, "assignmentId": "a49515035", "workerId": "w90991578", "hitId": "h27217939", "currenttrial": 55, "bonus": 0, "data": [{"uniqueid": "w90991578:a49515035", "current_trial": 0, "dateTime": 1693566746228, "trialdata": {"success": true, "trial_type": "fullscreen", "trial_index": 0, "time_elapsed": 3998, "internal_node_id": "0.0-0.0"}}, {"uniqueid": "w90991578:a49515035", "current_trial": 1, "dateTime": 1693566758451, "trialdata": {"view_history": [{"page_index": 0, "viewing_time": 12220}], "rt": 12220, "trial_id": "exp_instructions_control", "trial_type": "instructions", "trial_index": 1, "time_elapsed": 16221, "internal_node_id": "0.0-1.0"}}, {"uniqueid": "w90991578:a49515035", "current_trial": 2, "dateTime": 1693566901525, "trialdata": {"view_history": [{"page_index": 0, "viewing_time": 65926}, {"page_index": 1, "viewing_time": 36192}, {"page_index": 2, "viewing_time": 17985}, {"page_index": 3, "viewing_time": 22965}], "rt": 143068, "trial_id": "mouselab_instructions_1_control", "trial_type": "instructions", "trial_index": 2, "time_elapsed": 159295, "internal_node_id": "0.0-2.0-1.0"}}, {"uniqueid": "w90991578:a49515035", "current_trial": 3, "dateTime": 1693566962264, "trialdata": {"revealed_states": [], "clicked_states": ["23", "1", "12", "13", "14", "19", "21", "24", "25", "30", "32", "31", "33", "26", "28", "2", "3", "8"], "num_clicks_accrued": [0, 0, 0, 0, 0, 0, 0, 0, 0, 0, 0, 0, 0], "stateRewards": ["", 10, 10, -10, 10, 10, 10, -10, -10, -10, -10, -10, 10, -10, -10, -10, 10, 10, 10, 10, 10, -10, -10, -10, -10, 10, -10, 10, -10, -10, -10, -10, -10, -10], "withholdReward": false, "trial_id": "practice_1", "block": "test", "trialIndex": 0, "score": 24.5, "costs": -9, "simulationMode": [null, null, null, null, null], "rewards": [10, 10, -10, 10, 10], "path": ["0", "0", "1", "2", "3", "4", "5"], "rt": [35190, 627, 428, 336, 294], "actions": ["up", "up", "up", "right", "up"], "actionTimes": [51297, 52427, 53374, 54200, 54990], "queries": {"click": {"state": {"target": ["23", "1", "12", "13", "14", "19", "21", "24", "25", "30", "32", "31", "33", "26", "28", "2", "3", "8"], "time": [18091, 19757, 20801, 25381, 26427, 29153, 30272, 33934, 35127, 36330, 38223, 39357, 40745, 41758, 43308, 45081, 46441, 48032]}, "edge": {"target": [], "time": []}}, "mouseover": {"state": {"target": ["0", "23", "0", "1", "12", "13", "14", "15", "18", "19", "21", "22", "14", "13", "24", "24", "24", "25", "25", "30", "32", "31", "33", "25", "26", "29", "28", "1", "2", "3", "8", "11", "7"], "time": [16113, 17846, 18831, 19343, 20629, 25294, 25911, 26744, 27778, 28928, 30030, 30845, 32363, 33047, 33161, 33510, 33795, 34244, 34929, 35530, 36879, 38995, 40512, 41246, 41495, 42278, 42912, 43612, 44877, 45594, 46795, 48348, 49943]}, "edge": {"target": [], "time": []}}, "mouseout": {"state": {"target": ["12", "1", "10", "7", "3", "9", "0", "23", "0", "1", "12", "12", "1", "13", "14", "15", "18", "13", "19", "21", "22", "14", "13", "24", "24", "24", "25", "25", "30", "32", "31", "30", "33", "25", "26", "29", "26", "28", "1", "2", "3", "8", "11", "7"], "time": [296, 461, 543, 2726, 2859, 2927, 17614, 18745, 19115, 20279, 20915, 21878, 24860, 25777, 26627, 27712, 28296, 28360, 29610, 30392, 31744, 33028, 33061, 33278, 33577, 34195, 34745, 35428, 36745, 38577, 39978, 40347, 41112, 41312, 42245, 42810, 42893, 43532, 44794, 45566, 46713, 48329, 48662, 49963]}, "edge": {"target": [], "time": []}}}, "displayed_time": "55.48", "trialTime": 60203, "trial_type": "mouselab-mdp", "trial_index": 3, "time_elapsed": 220033, "internal_node_id": "0.0-2.0-2.0-0.0"}}, {"uniqueid": "w90991578:a49515035", "current_trial": 4, "dateTime": 1693566974159, "trialdata": {"revealed_states": [], "clicked_states": [], "num_clicks_accrued": [0, 0, 0, 0, 0, 0, 0, 0, 0, 0, 0, 0, 0], "stateRewards": ["", -10, -10, 10, 10, 10, 10, -10, 10, -10, -10, 10, -10, 10, -10, -10, -10, 10, 10, -10, 10, -10, 10, -10, 10, -10, -10, 10, -10, -10, 10, -10, -10, 10], "withholdReward": false, "trial_id": "practice_2", "block": "test", "trialIndex": 1, "score": -6.5, "costs": 0, "simulationMode": [null, null, null, null, null], "rewards": [-10, -10, 10, 10, -10], "path": ["0", "0", "1", "2", "3", "8", "9"], "rt": [2053, 184, 235, 139, 193], "actions": ["up", "up", "up", "left", "up"], "actionTimes": [5767, 6469, 7201, 7837, 8525], "queries": {"click": {"state": {"target": [], "time": []}, "edge": {"target": [], "time": []}}, "mouseover": {"state": {"target": ["17"], "time": [3862]}, "edge": {"target": [], "time": []}}, "mouseout": {"state": {"target": ["7", "1", "17"], "time": [2947, 3030, 4166]}, "edge": {"target": [], "time": []}}}, "displayed_time": "9.02", "trialTime": 11649, "trial_type": "mouselab-mdp", "trial_index": 4, "time_elapsed": 231928, "internal_node_id": "0.0-2.0-2.0-1.0"}}, {"uniqueid": "w90991578:a49515035", "current_trial": 5, "dateTime": 1693566999753, "trialdata": {"view_history": [{"page_index": 0, "viewing_time": 22333}, {"page_index": 1, "viewing_time": 3257}], "rt": 25590, "trial_id": "mouselab_instructions_2_control", "trial_type": "instructions", "trial_index": 5, "time_elapsed": 257523, "internal_node_id": "0.0-2.0-3.0"}}, {"uniqueid": "w90991578:a49515035", "current_trial": 6, "dateTime": 1693567114416, "trialdata": {"rt": 114657, "response": {"Q0": "The cost for clicking on nodes may vary between nodes.", "Q1": "The better I perform the higher my bonus will be.", "Q2": "No, the amount of cash at each node of the web may be different each time.", "Q3": "To get the highest total score.", "Q4": "Only before moving the spider.", "Q5": "3 seconds"}, "question_order": [0, 1, 2, 3, 4, 5], "correct": {"Q0": "The cost for clicking on nodes may vary between nodes.", "Q1": "The better I perform the higher my bonus will be.", "Q2": "No, the amount of cash at each node of the web may be different each time.", "Q3": "To get the highest total score.", "Q4": "Only before moving the spider.", "Q5": "3 seconds"}, "trial_id": "mouselab_quiz_control", "trial_type": "survey-multi-choice", "trial_index": 6, "time_elapsed": 372186, "internal_node_id": "0.0-2.0-4.0"}}, {"uniqueid": "w90991578:a49515035", "current_trial": 7, "dateTime": 1693567124555, "trialdata": {"rt": 10130, "response": {"Q0": "No"}, "question_order": [0], "trial_id": "repeat_check", "trial_type": "survey-multi-choice", "trial_index": 7, "time_elapsed": 382324, "internal_node_id": "0.0-4.0-0.0"}}, {"uniqueid": "w90991578:a49515035", "current_trial": 8, "dateTime": 1693567128446, "trialdata": {"rt": 3886, "stimulus": "\n<h1> Get ready to start the game! </h1>\n\nThank you for reading the instructions. Get ready start with the 40 rounds of this game.\n<br><br>\nIf you need to take a break, feel free to take one after the end of a round, before continuing to the next one.\n<br><br>\nRemember, the more money the spider gets, the bigger your bonus will be!\n<br><br>\n<div style='text-align: center;'>Press <code>space</code> to begin.</div>\n\n<br><br>\n(If, at any point, the <code>space</code> key does not take you to the next page, click once on the text and try again.)", "response": " ", "trial_id": "mdp_ready", "trial_type": "html-keyboard-response", "trial_index": 8, "time_elapsed": 386216, "internal_node_id": "0.0-6.0-0.0"}}, {"uniqueid": "w90991578:a49515035", "current_trial": 9, "dateTime": 1693567151322, "trialdata": {"revealed_states": [], "clicked_states": ["1", "2", "3", "4", "5", "9"], "num_clicks_accrued": [0, 0, 0, 0, 0, 0, 0, 0, 0, 0, 0, 0, 0], "stateRewards": ["", -1, 2, 5, -6, 13, -64, -47, 8, -79, -80, -33, 1, 2, -2, -16, 56, -71, -10, 3, 29, 44, 85, -1, 4, 5, 4, -36, -56, 19, 8, 52, -13, -2], "withholdReward": false, "trial_id": "mdp_trial_1", "block": "test", "trialIndex": 2, "score": 4.6, "costs": -8.4, "simulationMode": [null, null, null, null, null], "rewards": [-1, 2, 5, -6, 13], "path": ["0", "0", "1", "2", "3", "4", "5"], "rt": [14085, 37, 8, 308, 161], "actions": ["up", "up", "up", "right", "up"], "actionTimes": [15802, 16357, 16880, 17699, 18363], "queries": {"click": {"state": {"target": ["1", "2", "3", "4", "5", "9"], "time": [2501, 5407, 7198, 8923, 11036, 12629]}, "edge": {"target": [], "time": []}}, "mouseover": {"state": {"target": ["1", "2", "7", "2", "3", "2", "3", "4", "5", "9", "8", "3", "2", "7"], "time": [2235, 3036, 3470, 3751, 4235, 4802, 6084, 7770, 9485, 12385, 12953, 14169, 14267, 14320]}, "edge": {"target": [], "time": []}}, "mouseout": {"state": {"target": ["0", "1", "2", "7", "2", "3", "2", "3", "4", "5", "5", "9", "8", "3", "2", "7", "15", "13"], "time": [726, 2921, 3419, 3685, 4153, 4702, 5818, 7344, 9029, 11069, 11602, 12867, 13919, 14207, 14284, 14353, 21268, 21368]}, "edge": {"target": [], "time": []}}}, "displayed_time": "18.87", "trialTime": 22581, "trial_type": "mouselab-mdp", "trial_index": 9, "time_elapsed": 409091, "internal_node_id": "0.0-6.0-1.0-0.0"}}, {"uniqueid": "w90991578:a49515035", "current_trial": 10, "dateTime": 1693567175101, "trialdata": {"revealed_states": [], "clicked_states": ["21", "32", "27", "5"], "num_clicks_accrued": [0, 0, 0, 0, 0, 0, 0, 0, 0, 0, 0, 0, 0], "stateRewards": ["", -2, 2, -5, -6, 10, -66, -58, -10, -11, -63, -70, -1, -4, -5, 7, 66, -64, -43, -3, 45, -37, 4, -2, -2, -6, -4, -30, 33, 43, 15, -32, -65, -59], "withholdReward": false, "trial_id": "mdp_trial_2", "block": "test", "trialIndex": 3, "score": -6.600000000000001, "costs": -5.6, "simulationMode": [null, null, null, null, null], "rewards": [-2, 2, -5, -6, 10], "path": ["0", "0", "1", "2", "3", "4", "5"], "rt": [13462, 83, 1, 284, 179], "actions": ["up", "up", "up", "right", "up"], "actionTimes": [14614, 15201, 15703, 16503, 17182], "queries": {"click": {"state": {"target": ["21", "32", "27", "5"], "time": [2721, 4302, 7273, 9613]}, "edge": {"target": [], "time": []}}, "mouseover": {"state": {"target": ["12", "22", "19", "21", "32", "30", "25", "26", "27", "10", "3", "5", "3", "4", "6"], "time": [1850, 1935, 2050, 2472, 4083, 4899, 5083, 5232, 5517, 8350, 8466, 8999, 10134, 10801, 11068]}, "edge": {"target": [], "time": []}}, "mouseout": {"state": {"target": ["12", "12", "22", "19", "21", "32", "30", "25", "26", "27", "10", "3", "5", "3", "4"], "time": [634, 1883, 2016, 2117, 3200, 4754, 5033, 5182, 5349, 8050, 8382, 8482, 9901, 10768, 10834]}, "edge": {"target": [], "time": []}}}, "displayed_time": "17.68", "trialTime": 23491, "trial_type": "mouselab-mdp", "trial_index": 10, "time_elapsed": 432870, "internal_node_id": "0.0-6.0-1.0-1.0"}}, {"uniqueid": "w90991578:a49515035", "current_trial": 11, "dateTime": 1693567205987, "trialdata": {"revealed_states": [], "clicked_states": ["1", "2", "3", "8", "9", "11", "4", "5", "6"], "num_clicks_accrued": [0, 0, 0, 0, 0, 0, 0, 0, 0, 0, 0, 0, 0], "stateRewards": ["", 1, 2, -6, -13, -51, 22, -4, -12, -44, -12, 6, -2, -2, -2, -14, -46, -4, -77, -2, 36, -79, 41, 2, -4, 2, -6, -55, 59, 70, -5, 39, -19, 24], "withholdReward": false, "trial_id": "mdp_trial_3", "block": "test", "trialIndex": 4, "score": -6.600000000000001, "costs": -12.600000000000001, "simulationMode": [null, null, null, null, null], "rewards": [1, 2, -6, -13, 22], "path": ["0", "0", "1", "2", "3", "4", "6"], "rt": [21471, 35, 73, 114, 251], "actions": ["up", "up", "up", "right", "right"], "actionTimes": [23817, 24350, 24954, 25578, 26336], "queries": {"click": {"state": {"target": ["1", "2", "3", "8", "9", "11", "4", "5", "6"], "time": [3056, 5074, 7070, 9559, 11483, 14045, 16161, 18713, 20966]}, "edge": {"target": [], "time": []}}, "mouseover": {"state": {"target": ["1", "2", "3", "4", "8", "9", "11", "3", "4", "4", "6", "5", "6", "7"], "time": [2876, 3396, 5462, 7696, 9358, 9929, 13317, 14597, 14680, 15146, 16748, 18382, 19548, 21396]}, "edge": {"target": [], "time": []}}, "mouseout": {"state": {"target": ["6", "4", "7", "1", "1", "2", "3", "4", "8", "9", "8", "11", "3", "4", "4", "6", "5", "6", "7"], "time": [612, 728, 761, 1113, 3061, 5365, 7479, 9064, 9680, 12180, 12713, 14479, 14631, 14746, 16514, 18212, 19247, 21346, 29363]}, "edge": {"target": [], "time": []}}}, "displayed_time": "26.83", "trialTime": 30624, "trial_type": "mouselab-mdp", "trial_index": 11, "time_elapsed": 463756, "internal_node_id": "0.0-6.0-1.0-2.0"}}, {"uniqueid": "w90991578:a49515035", "current_trial": 12, "dateTime": 1693567227334, "trialdata": {"revealed_states": [], "clicked_states": ["12", "13", "14", "19", "21"], "num_clicks_accrued": [0, 0, 0, 0, 0, 0, 0, 0, 0, 0, 0, 0, 0], "stateRewards": ["", -1, 3, -5, -2, -13, -9, -34, -7, -81, 32, 35, -2, -2, 1, -14, -32, 81, 7, 4, 82, 56, -8, -1, 3, -8, 6, -24, -24, -53, 2, 38, 61, 54], "withholdReward": false, "trial_id": "mdp_trial_4", "block": "test", "trialIndex": 5, "score": 50, "costs": -7, "simulationMode": [null, null, null, null, null], "rewards": [-2, -2, 1, 4, 56], "path": ["0", "0", "12", "13", "14", "19", "21"], "rt": [11573, 98, 238, 118, 50], "actions": ["right", "right", "right", "down", "down"], "actionTimes": [14755, 15368, 16124, 16738, 17289], "queries": {"click": {"state": {"target": ["12", "13", "14", "19", "21"], "time": [4422, 6323, 8173, 10059, 11915]}, "edge": {"target": [], "time": []}}, "mouseover": {"state": {"target": ["12", "13", "12", "13", "14", "19", "21", "20"], "time": [3687, 3802, 4153, 4819, 6585, 8951, 10552, 12436]}, "edge": {"target": [], "time": []}}, "mouseout": {"state": {"target": ["7", "12", "13", "12", "13", "14", "19", "21", "20"], "time": [2480, 3770, 4136, 4601, 6552, 8769, 10386, 12168, 20969]}, "edge": {"target": [], "time": []}}}, "displayed_time": "17.80", "trialTime": 21097, "trial_type": "mouselab-mdp", "trial_index": 12, "time_elapsed": 485104, "internal_node_id": "0.0-6.0-1.0-3.0"}}, {"uniqueid": "w90991578:a49515035", "current_trial": 13, "dateTime": 1693567257865, "trialdata": {"revealed_states": [], "clicked_states": ["12", "13", "14", "19", "21", "20", "22", "31", "33", "32"], "num_clicks_accrued": [0, 0, 0, 0, 0, 0, 0, 0, 0, 0, 0, 0, 0], "stateRewards": ["", 2, 4, 4, 9, -88, -10, 44, 16, -54, 64, 78, 1, 2, 5, 16, 80, 36, 7, -4, 9, -47, -70, -1, -3, 6, -16, 11, 80, 28, 8, -1, 34, -17], "withholdReward": false, "trial_id": "mdp_trial_5", "block": "test", "trialIndex": 6, "score": 30, "costs": -14.000000000000002, "simulationMode": [null, null, null, null, null], "rewards": [-1, -3, 6, 8, 34], "path": ["0", "0", "23", "24", "25", "30", "32"], "rt": [23801, 73, 291, 64, 23], "actions": ["left", "left", "left", "down", "down"], "actionTimes": [25161, 25744, 26547, 27118, 27643], "queries": {"click": {"state": {"target": ["12", "13", "14", "19", "21", "20", "22", "31", "33", "32"], "time": [3263, 5129, 7012, 8846, 10703, 12729, 14692, 18310, 20322, 22342]}, "edge": {"target": [], "time": []}}, "mouseover": {"state": {"target": ["12", "22", "19", "13", "12", "13", "14", "19", "21", "20", "22", "19", "31", "30", "33", "32", "30", "25", "29"], "time": [2085, 2152, 2219, 2668, 3003, 3452, 5435, 7419, 9452, 10985, 13302, 15269, 17520, 18587, 18953, 20770, 22619, 22752, 23169]}, "edge": {"target": [], "time": []}}, "mouseout": {"state": {"target": ["12", "22", "19", "13", "12", "13", "14", "19", "21", "20", "19", "22", "19", "20", "31", "30", "33", "32", "30", "25", "29", "29", "26", "28"], "time": [2101, 2185, 2570, 2702, 3419, 5418, 7319, 9235, 10885, 13136, 13284, 15252, 15301, 15353, 18535, 18669, 20719, 22484, 22702, 22768, 29586, 30019, 30069, 30085]}, "edge": {"target": [], "time": []}}}, "displayed_time": "28.15", "trialTime": 30275, "trial_type": "mouselab-mdp", "trial_index": 13, "time_elapsed": 515634, "internal_node_id": "0.0-6.0-1.0-4.0"}}, {"uniqueid": "w90991578:a49515035", "current_trial": 14, "dateTime": 1693567276022, "trialdata": {"revealed_states": [], "clicked_states": ["9", "5"], "num_clicks_accrued": [0, 0, 0, 0, 0, 0, 0, 0, 0, 0, 0, 0, 0], "stateRewards": ["", 2, 3, 8, 14, 69, -27, 17, 2, -71, -65, -10, 2, -3, 7, 8, 65, -10, 65, -12, 73, -12, 13, -2, -2, 6, 10, -79, -69, -18, 10, -85, 67, 74], "withholdReward": false, "trial_id": "mdp_trial_6", "block": "test", "trialIndex": 7, "score": 93.2, "costs": -2.8, "simulationMode": [null, null, null, null, null], "rewards": [2, 3, 8, 14, 69], "path": ["0", "0", "1", "2", "3", "4", "5"], "rt": [5660, 104, 111, 26, 158], "actions": ["up", "up", "up", "right", "up"], "actionTimes": [7877, 8482, 9103, 9638, 10317], "queries": {"click": {"state": {"target": ["9", "5"], "time": [3273, 5305]}, "edge": {"target": [], "time": []}}, "mouseover": {"state": {"target": ["1", "2", "9", "5", "4", "6", "16", "15", "16"], "time": [2257, 2359, 2875, 3741, 5608, 5643, 5707, 5874, 6109]}, "edge": {"target": [], "time": []}}, "mouseout": {"state": {"target": ["1", "2", "2", "2", "1", "2", "9", "9", "5", "4", "6", "16", "15", "16", "6", "5", "3", "2"], "time": [507, 591, 875, 1592, 2324, 2490, 3369, 3557, 5575, 5624, 5660, 5758, 6075, 12545, 12712, 14551, 14645, 15413]}, "edge": {"target": [], "time": []}}}, "displayed_time": "16.22", "trialTime": 17906, "trial_type": "mouselab-mdp", "trial_index": 14, "time_elapsed": 533792, "internal_node_id": "0.0-6.0-1.0-5.0"}}, {"uniqueid": "w90991578:a49515035", "current_trial": 15, "dateTime": 1693567295138, "trialdata": {"revealed_states": [], "clicked_states": ["5"], "num_clicks_accrued": [0, 0, 0, 0, 0, 0, 0, 0, 0, 0, 0, 0, 0], "stateRewards": ["", -1, 1, 6, -6, 70, 66, 67, -16, -75, -35, 37, -1, 4, 4, -6, 47, -9, 63, 15, 21, -63, 13, 1, 3, -6, 10, 79, -29, 18, -15, 9, -67, -19], "withholdReward": false, "trial_id": "mdp_trial_7", "block": "test", "trialIndex": 8, "score": 68.6, "costs": -1.4, "simulationMode": [null, null, null, null, null], "rewards": [-1, 1, 6, -6, 70], "path": ["0", "0", "1", "2", "3", "4", "5"], "rt": [4037, 130, 1016, 73, 131], "actions": ["up", "up", "up", "right", "up"], "actionTimes": [6411, 7033, 8552, 9127, 9753], "queries": {"click": {"state": {"target": ["5"], "time": [3022]}, "edge": {"target": [], "time": []}}, "mouseover": {"state": {"target": ["1", "4", "5"], "time": [2409, 2549, 2817]}, "edge": {"target": [], "time": []}}, "mouseout": {"state": {"target": ["2", "3", "4", "4", "7", "1", "0", "1", "4", "5"], "time": [565, 765, 833, 1516, 1716, 1750, 2049, 2433, 2732, 3250]}, "edge": {"target": [], "time": []}}}, "displayed_time": "16.38", "trialTime": 18894, "trial_type": "mouselab-mdp", "trial_index": 15, "time_elapsed": 552908, "internal_node_id": "0.0-6.0-1.0-6.0"}}, {"uniqueid": "w90991578:a49515035", "current_trial": 16, "dateTime": 1693567316226, "trialdata": {"revealed_states": [], "clicked_states": ["5"], "num_clicks_accrued": [0, 0, 0, 0, 0, 0, 0, 0, 0, 0, 0, 0, 0], "stateRewards": ["", -2, -3, 1, -7, 39, -67, 16, 5, -20, 73, 66, -1, 4, 5, -3, 23, -68, -87, -8, 3, -3, 17, 1, -4, -2, -13, -32, 34, 61, -5, -11, -18, 12], "withholdReward": false, "trial_id": "mdp_trial_8", "block": "test", "trialIndex": 9, "score": 26.6, "costs": -1.4, "simulationMode": [null, null, null, null, null], "rewards": [-2, -3, 1, -7, 39], "path": ["0", "0", "1", "2", "3", "4", "5"], "rt": [4599, 87, 362, 21, 204], "actions": ["up", "up", "up", "right", "up"], "actionTimes": [7293, 7874, 8730, 9254, 9955], "queries": {"click": {"state": {"target": ["5"], "time": [3460]}, "edge": {"target": [], "time": []}}, "mouseover": {"state": {"target": ["7", "6", "5"], "time": [2813, 2880, 3266]}, "edge": {"target": [], "time": []}}, "mouseout": {"state": {"target": ["5", "4", "2", "1", "1", "7", "7", "1", "7", "6", "5", "5"], "time": [298, 997, 1031, 1213, 1648, 1730, 1998, 2197, 2832, 2980, 3649, 13015]}, "edge": {"target": [], "time": []}}}, "displayed_time": "16.70", "trialTime": 20828, "trial_type": "mouselab-mdp", "trial_index": 16, "time_elapsed": 573995, "internal_node_id": "0.0-6.0-1.0-7.0"}}, {"uniqueid": "w90991578:a49515035", "current_trial": 17, "dateTime": 1693567343914, "trialdata": {"revealed_states": [], "clicked_states": ["17", "16", "20", "21", "32", "31", "33", "27", "9", "5"], "num_clicks_accrued": [0, 0, 0, 0, 0, 0, 0, 0, 0, 0, 0, 0, 0], "stateRewards": ["", 1, 4, -4, 14, 35, 51, 19, -13, 54, 78, -74, -2, -1, -3, 13, -11, -42, -73, -15, -24, -3, -69, 2, -1, 5, 16, -27, 73, 58, 9, -60, 5, -60], "withholdReward": false, "trial_id": "mdp_trial_9", "block": "test", "trialIndex": 10, "score": 28, "costs": -14.000000000000002, "simulationMode": [null, null, null, null, null], "rewards": [1, 4, -4, -13, 54], "path": ["0", "0", "1", "2", "3", "8", "9"], "rt": [20725, 20, 75, 80, 181], "actions": ["up", "up", "up", "left", "up"], "actionTimes": [22332, 22852, 23437, 24012, 24694], "queries": {"click": {"state": {"target": ["17", "16", "20", "21", "32", "31", "33", "27", "9", "5"], "time": [2679, 4694, 6618, 8517, 10443, 12471, 14348, 16272, 18228, 20320]}, "edge": {"target": [], "time": []}}, "mouseover": {"state": {"target": ["18", "14", "17", "16", "20", "21", "32", "31", "30", "33", "25", "26", "27", "11", "9", "5"], "time": [1977, 2027, 2343, 3512, 5211, 7227, 9061, 10927, 12810, 13361, 14710, 14777, 15195, 17528, 17845, 18527]}, "edge": {"target": [], "time": []}}, "mouseout": {"state": {"target": ["4", "1", "18", "14", "17", "16", "20", "21", "32", "31", "30", "33", "25", "26", "27", "27", "11", "9"], "time": [1010, 1143, 1994, 2044, 3127, 5046, 6960, 8793, 10694, 12778, 12945, 14565, 14728, 14943, 16578, 17478, 17611, 18462]}, "edge": {"target": [], "time": []}}}, "displayed_time": "25.20", "trialTime": 27380, "trial_type": "mouselab-mdp", "trial_index": 17, "time_elapsed": 601684, "internal_node_id": "0.0-6.0-1.0-8.0"}}, {"uniqueid": "w90991578:a49515035", "current_trial": 18, "dateTime": 1693567362383, "trialdata": {"revealed_states": [], "clicked_states": ["5", "9"], "num_clicks_accrued": [0, 0, 0, 0, 0, 0, 0, 0, 0, 0, 0, 0, 0], "stateRewards": ["", 2, -1, -2, -5, -47, -57, -33, -11, 31, -18, -72, -2, 1, -4, -8, -46, -53, -50, 15, -85, -9, 39, -2, -2, 1, 14, -1, -8, 53, -12, -41, -74, 62], "withholdReward": false, "trial_id": "mdp_trial_10", "block": "test", "trialIndex": 11, "score": 16.2, "costs": -2.8, "simulationMode": [null, null, null, null, null], "rewards": [2, -1, -2, -11, 31], "path": ["0", "0", "1", "2", "3", "8", "9"], "rt": [5566, 138, 325, 199, 146], "actions": ["up", "up", "up", "left", "up"], "actionTimes": [7698, 8345, 9184, 9873, 10534], "queries": {"click": {"state": {"target": ["5", "9"], "time": [2704, 4605]}, "edge": {"target": [], "time": []}}, "mouseover": {"state": {"target": ["7", "5", "9", "3", "4", "18", "21"], "time": [2171, 2570, 3837, 4970, 5038, 5804, 6189]}, "edge": {"target": [], "time": []}}, "mouseout": {"state": {"target": ["5", "5", "5", "2", "7", "5", "5", "9", "3", "4", "18", "21"], "time": [179, 404, 1404, 1519, 2192, 2782, 2921, 4870, 5021, 5055, 5889, 17989]}, "edge": {"target": [], "time": []}}}, "displayed_time": "16.14", "trialTime": 18208, "trial_type": "mouselab-mdp", "trial_index": 18, "time_elapsed": 620152, "internal_node_id": "0.0-6.0-1.0-9.0"}}, {"uniqueid": "w90991578:a49515035", "current_trial": 19, "dateTime": 1693567379816, "trialdata": {"revealed_states": [], "clicked_states": ["9", "5", "17", "21"], "num_clicks_accrued": [0, 0, 0, 0, 0, 0, 0, 0, 0, 0, 0, 0, 0], "stateRewards": ["", -1, -3, 1, 13, -64, -29, 12, -4, -33, 50, 56, 2, -3, 4, 11, -64, -58, -55, 12, 47, 38, -25, -2, 2, 5, -15, 85, 7, 84, 10, 8, 57, 26], "withholdReward": false, "trial_id": "mdp_trial_11", "block": "test", "trialIndex": 12, "score": 47.4, "costs": -5.6, "simulationMode": [null, null, null, null, null], "rewards": [2, -3, 4, 12, 38], "path": ["0", "0", "12", "13", "14", "19", "21"], "rt": [9292, 122, 27, 138, 63], "actions": ["right", "right", "right", "down", "down"], "actionTimes": [10758, 11374, 11915, 12574, 13131], "queries": {"click": {"state": {"target": ["9", "5", "17", "21"], "time": [2169, 4076, 6147, 8069]}, "edge": {"target": [], "time": []}}, "mouseover": {"state": {"target": ["10", "8", "9", "5", "5", "4", "15", "17", "17", "16", "15", "21", "19", "22", "32"], "time": [1751, 1800, 1867, 2398, 2681, 4415, 4684, 4854, 5315, 6581, 6716, 7051, 8500, 8532, 9233]}, "edge": {"target": [], "time": []}}, "mouseout": {"state": {"target": ["20", "13", "13", "13", "22", "12", "0", "10", "8", "9", "5", "5", "4", "15", "17", "17", "16", "15", "21", "19", "22", "32", "4", "6"], "time": [164, 231, 282, 332, 581, 848, 1481, 1784, 1817, 2365, 2415, 4400, 4467, 4837, 5017, 6382, 6649, 6748, 8298, 8516, 8550, 15315, 15582, 15616]}, "edge": {"target": [], "time": []}}}, "displayed_time": "15.47", "trialTime": 17103, "trial_type": "mouselab-mdp", "trial_index": 19, "time_elapsed": 637586, "internal_node_id": "0.0-6.0-1.0-10.0"}}, {"uniqueid": "w90991578:a49515035", "current_trial": 20, "dateTime": 1693567397671, "trialdata": {"revealed_states": [], "clicked_states": ["9", "5", "21", "32"], "num_clicks_accrued": [0, 0, 0, 0, 0, 0, 0, 0, 0, 0, 0, 0, 0], "stateRewards": ["", 2, 4, 4, -8, -36, -33, 38, 16, -51, 57, 57, 1, 3, 4, -6, 45, 68, 87, 1, 63, 24, -55, -2, 2, -6, -13, -63, -50, 8, 2, 80, 6, 60], "withholdReward": false, "trial_id": "mdp_trial_12", "block": "test", "trialIndex": 13, "score": 27.4, "costs": -5.6, "simulationMode": [null, null, null, null, null], "rewards": [1, 3, 4, 1, 24], "path": ["0", "0", "12", "13", "14", "19", "21"], "rt": [8694, 948, 70, 178, 17], "actions": ["right", "right", "right", "down", "down"], "actionTimes": [10191, 11652, 12224, 12917, 13437], "queries": {"click": {"state": {"target": ["9", "5", "21", "32"], "time": [2243, 4078, 5950, 8264]}, "edge": {"target": [], "time": []}}, "mouseover": {"state": {"target": ["1", "2", "9", "5", "6", "16", "17", "19", "21", "32"], "time": [1773, 1854, 1989, 2522, 4423, 4458, 4540, 5255, 5372, 6489]}, "edge": {"target": [], "time": []}}, "mouseout": {"state": {"target": ["1", "2", "9", "5", "6", "16", "17", "19", "21", "32"], "time": [1822, 1889, 2344, 4388, 4439, 4472, 5139, 5272, 6306, 8772]}, "edge": {"target": [], "time": []}}}, "displayed_time": "15.50", "trialTime": 17579, "trial_type": "mouselab-mdp", "trial_index": 20, "time_elapsed": 655440, "internal_node_id": "0.0-6.0-1.0-11.0"}}, {"uniqueid": "w90991578:a49515035", "current_trial": 21, "dateTime": 1693567414871, "trialdata": {"revealed_states": [], "clicked_states": ["9"], "num_clicks_accrued": [0, 0, 0, 0, 0, 0, 0, 0, 0, 0, 0, 0, 0], "stateRewards": ["", 1, 1, 1, -3, -7, -1, -41, -10, 20, -72, -63, 1, -4, -2, 2, -66, 30, -84, -2, 49, 23, 71, -1, -4, 4, -12, 67, 5, 18, -16, 88, 56, -5], "withholdReward": false, "trial_id": "mdp_trial_13", "block": "test", "trialIndex": 14, "score": 11.6, "costs": -1.4, "simulationMode": [null, null, null, null, null], "rewards": [1, 1, 1, -10, 20], "path": ["0", "0", "1", "2", "3", "8", "9"], "rt": [3600, 136, 175, 25, 49], "actions": ["up", "up", "up", "left", "up"], "actionTimes": [4899, 5534, 6218, 6757, 7311], "queries": {"click": {"state": {"target": ["9"], "time": [2167]}, "edge": {"target": [], "time": []}}, "mouseover": {"state": {"target": ["7", "4", "3", "9", "5"], "time": [1661, 1744, 1861, 1928, 2427]}, "edge": {"target": [], "time": []}}, "mouseout": {"state": {"target": ["0", "7", "4", "3", "9", "5"], "time": [108, 1694, 1794, 1877, 2263, 16146]}, "edge": {"target": [], "time": []}}}, "displayed_time": "15.30", "trialTime": 16837, "trial_type": "mouselab-mdp", "trial_index": 21, "time_elapsed": 672640, "internal_node_id": "0.0-6.0-1.0-12.0"}}, {"uniqueid": "w90991578:a49515035", "current_trial": 22, "dateTime": 1693567435838, "trialdata": {"revealed_states": [], "clicked_states": ["5", "6", "9", "11"], "num_clicks_accrued": [0, 0, 0, 0, 0, 0, 0, 0, 0, 0, 0, 0, 0], "stateRewards": ["", -1, -3, -3, 1, -38, 2, -53, -2, -1, -81, 70, -1, 1, -5, -9, 46, 15, 35, -1, -22, 38, 59, -2, 4, -8, 13, 1, -83, -43, 4, 76, 13, 48], "withholdReward": false, "trial_id": "mdp_trial_14", "block": "test", "trialIndex": 15, "score": 55.4, "costs": -5.6, "simulationMode": [null, null, null, null, null], "rewards": [-1, -3, -3, -2, 70], "path": ["0", "0", "1", "2", "3", "8", "11"], "rt": [9046, 64, 271, 25, 48], "actions": ["up", "up", "up", "left", "left"], "actionTimes": [11971, 12534, 13310, 13830, 14385], "queries": {"click": {"state": {"target": ["5", "6", "9", "11"], "time": [3529, 5506, 7463, 9345]}, "edge": {"target": [], "time": []}}, "mouseover": {"state": {"target": ["7", "4", "5", "6", "8", "9", "8", "11", "10", "1", "15", "16"], "time": [3036, 3169, 3369, 4902, 6002, 6436, 7785, 8170, 9820, 9936, 10704, 10887]}, "edge": {"target": [], "time": []}}, "mouseout": {"state": {"target": ["5", "4", "7", "1", "7", "4", "5", "6", "8", "9", "8", "11", "10", "1", "15"], "time": [2002, 2279, 2369, 2518, 3102, 3301, 4169, 5768, 6335, 7743, 7920, 9720, 9904, 9970, 10804]}, "edge": {"target": [], "time": []}}}, "displayed_time": "16.93", "trialTime": 20697, "trial_type": "mouselab-mdp", "trial_index": 22, "time_elapsed": 693608, "internal_node_id": "0.0-6.0-1.0-13.0"}}, {"uniqueid": "w90991578:a49515035", "current_trial": 23, "dateTime": 1693567453832, "trialdata": {"revealed_states": [], "clicked_states": ["5", "9", "21", "16"], "num_clicks_accrued": [0, 0, 0, 0, 0, 0, 0, 0, 0, 0, 0, 0, 0], "stateRewards": ["", -2, -4, -6, 12, -58, -70, -80, 2, 16, -88, -62, 1, 2, -5, 11, 77, -35, -44, -5, 18, -83, 87, 1, -3, -5, 13, -44, -21, -86, 10, -52, 8, 29], "withholdReward": false, "trial_id": "mdp_trial_15", "block": "test", "trialIndex": 16, "score": 80.4, "costs": -5.6, "simulationMode": [null, null, null, null, null], "rewards": [1, 2, -5, 11, 77], "path": ["0", "0", "12", "13", "14", "15", "16"], "rt": [9172, 125, 128, 535, 133], "actions": ["right", "right", "right", "up", "up"], "actionTimes": [10917, 11540, 12177, 13202, 13832], "queries": {"click": {"state": {"target": ["5", "9", "21", "16"], "time": [2292, 4144, 6267, 8196]}, "edge": {"target": [], "time": []}}, "mouseover": {"state": {"target": ["1", "4", "5", "9", "4", "16", "17", "17", "20", "21", "19", "14", "15", "16", "16", "1", "27"], "time": [1755, 1846, 2081, 2647, 4431, 4497, 4615, 4882, 5680, 5814, 6480, 6531, 6565, 6630, 6947, 8898, 9481]}, "edge": {"target": [], "time": []}}, "mouseout": {"state": {"target": ["1", "4", "5", "9", "4", "16", "17", "17", "20", "21", "19", "14", "15", "16", "16", "1", "27", "28", "0", "12"], "time": [1780, 1898, 2581, 4365, 4447, 4514, 4664, 5630, 5760, 6356, 6515, 6563, 6597, 6815, 8780, 8931, 16647, 16698, 16764, 16981]}, "edge": {"target": [], "time": []}}}, "displayed_time": "15.75", "trialTime": 17719, "trial_type": "mouselab-mdp", "trial_index": 23, "time_elapsed": 711602, "internal_node_id": "0.0-6.0-1.0-14.0"}}, {"uniqueid": "w90991578:a49515035", "current_trial": 24, "dateTime": 1693567471359, "trialdata": {"revealed_states": [], "clicked_states": ["9"], "num_clicks_accrued": [0, 0, 0, 0, 0, 0, 0, 0, 0, 0, 0, 0, 0], "stateRewards": ["", 1, -3, -1, 9, -34, -40, 22, -7, 45, 53, -11, 2, 4, 5, 15, 21, 37, -49, -3, 80, -28, -34, 1, -3, 1, 1, -40, -6, -5, -16, -85, -86, 59], "withholdReward": false, "trial_id": "mdp_trial_16", "block": "test", "trialIndex": 17, "score": 33.6, "costs": -1.4, "simulationMode": [null, null, null, null, null], "rewards": [1, -3, -1, -7, 45], "path": ["0", "0", "1", "2", "3", "8", "9"], "rt": [3834, 366, 158, 46, 54], "actions": ["up", "up", "up", "left", "up"], "actionTimes": [5443, 6306, 6962, 7501, 8091], "queries": {"click": {"state": {"target": ["9"], "time": [2658]}, "edge": {"target": [], "time": []}}, "mouseover": {"state": {"target": ["10", "8", "9", "9", "5"], "time": [1818, 2120, 2236, 2418, 3036]}, "edge": {"target": [], "time": []}}, "mouseout": {"state": {"target": ["12", "12", "0", "10", "8", "9", "9", "5", "5", "11", "10"], "time": [487, 626, 1700, 2087, 2169, 2277, 2869, 12944, 13238, 13336, 14370]}, "edge": {"target": [], "time": []}}}, "displayed_time": "15.61", "trialTime": 17251, "trial_type": "mouselab-mdp", "trial_index": 24, "time_elapsed": 729129, "internal_node_id": "0.0-6.0-1.0-15.0"}}, {"uniqueid": "w90991578:a49515035", "current_trial": 25, "dateTime": 1693567488396, "trialdata": {"revealed_states": [], "clicked_states": ["9", "5", "16", "27"], "num_clicks_accrued": [0, 0, 0, 0, 0, 0, 0, 0, 0, 0, 0, 0, 0], "stateRewards": ["", -1, 3, 8, 9, -53, 20, -84, 2, -28, -62, -31, -1, -2, -7, 2, 51, 58, 45, -4, -17, -41, 36, 2, -2, -7, -15, 29, -54, -37, -16, -43, 65, -17], "withholdReward": false, "trial_id": "mdp_trial_17", "block": "test", "trialIndex": 18, "score": 37.4, "costs": -5.6, "simulationMode": [null, null, null, null, null], "rewards": [-1, -2, -7, 2, 51], "path": ["0", "0", "12", "13", "14", "15", "16"], "rt": [8787, 86, 76, 61, 23], "actions": ["right", "right", "right", "up", "up"], "actionTimes": [10014, 10596, 11184, 11743, 12268], "queries": {"click": {"state": {"target": ["9", "5", "16", "27"], "time": [1950, 3822, 5702, 8111]}, "edge": {"target": [], "time": []}}, "mouseover": {"state": {"target": ["1", "2", "8", "9", "5", "5", "6", "16", "15", "14", "15", "16", "17", "14", "23", "24", "26", "27"], "time": [1324, 1492, 1560, 1634, 2208, 2458, 4143, 4193, 4493, 4647, 4874, 4993, 5975, 6126, 6191, 6225, 6357, 6641]}, "edge": {"target": [], "time": []}}, "mouseout": {"state": {"target": ["2", "1", "1", "2", "8", "9", "5", "5", "6", "16", "15", "14", "15", "16", "17", "14", "23", "24", "26", "27", "10", "1"], "time": [106, 691, 1476, 1527, 1576, 2159, 2225, 4093, 4160, 4360, 4610, 4843, 4908, 5942, 6058, 6158, 6208, 6241, 6508, 16358, 16407, 16440]}, "edge": {"target": [], "time": []}}}, "displayed_time": "15.23", "trialTime": 16742, "trial_type": "mouselab-mdp", "trial_index": 25, "time_elapsed": 746165, "internal_node_id": "0.0-6.0-1.0-16.0"}}, {"uniqueid": "w90991578:a49515035", "current_trial": 26, "dateTime": 1693567505597, "trialdata": {"revealed_states": [], "clicked_states": ["21", "32"], "num_clicks_accrued": [0, 0, 0, 0, 0, 0, 0, 0, 0, 0, 0, 0, 0], "stateRewards": ["", 1, -4, -6, 11, -20, 8, -30, 1, -38, 88, 42, 2, 3, 5, -12, -8, -74, 30, -8, 67, -19, 42, 2, -1, 4, 13, 50, -68, 2, -8, -15, 87, -46], "withholdReward": false, "trial_id": "mdp_trial_18", "block": "test", "trialIndex": 19, "score": 81.2, "costs": -2.8, "simulationMode": [null, null, null, null, null], "rewards": [2, -1, 4, -8, 87], "path": ["0", "0", "23", "24", "25", "30", "32"], "rt": [5747, 73, 235, 66, 3], "actions": ["left", "left", "left", "down", "down"], "actionTimes": [6819, 7383, 8113, 8690, 9195], "queries": {"click": {"state": {"target": ["21", "32"], "time": [2067, 3992]}, "edge": {"target": [], "time": []}}, "mouseover": {"state": {"target": ["0", "0", "22", "21", "32", "30", "25", "27"], "time": [1290, 1491, 1640, 1859, 2958, 4289, 4490, 4689]}, "edge": {"target": [], "time": []}}, "mouseout": {"state": {"target": ["22", "0", "0", "0", "22", "21", "32", "30", "25", "27", "28"], "time": [173, 1078, 1356, 1524, 1656, 2357, 4190, 4407, 4540, 13288, 16274]}, "edge": {"target": [], "time": []}}}, "displayed_time": "15.08", "trialTime": 16909, "trial_type": "mouselab-mdp", "trial_index": 26, "time_elapsed": 763366, "internal_node_id": "0.0-6.0-1.0-17.0"}}, {"uniqueid": "w90991578:a49515035", "current_trial": 27, "dateTime": 1693567522638, "trialdata": {"revealed_states": [], "clicked_states": ["32"], "num_clicks_accrued": [0, 0, 0, 0, 0, 0, 0, 0, 0, 0, 0, 0, 0], "stateRewards": ["", 2, -3, -4, -1, 25, -16, 16, 10, -71, -20, -55, 1, 3, -4, -9, 1, 32, 11, -6, 32, -50, -41, -1, 4, 4, -8, 7, -81, 70, 2, -52, 45, -10], "withholdReward": false, "trial_id": "mdp_trial_19", "block": "test", "trialIndex": 20, "score": 52.6, "costs": -1.4, "simulationMode": [null, null, null, null, null], "rewards": [-1, 4, 4, 2, 45], "path": ["0", "0", "23", "24", "25", "30", "32"], "rt": [3738, 236, 13, 127, 15], "actions": ["left", "left", "left", "down", "down"], "actionTimes": [5527, 6265, 6779, 7406, 7911], "queries": {"click": {"state": {"target": ["32"], "time": [2713]}, "edge": {"target": [], "time": []}}, "mouseover": {"state": {"target": ["2", "24", "25", "30", "32", "29"], "time": [1809, 2090, 2224, 2341, 2675, 3541]}, "edge": {"target": [], "time": []}}, "mouseout": {"state": {"target": ["0", "2", "24", "25", "30", "32"], "time": [1792, 1973, 2175, 2275, 2375, 2857]}, "edge": {"target": [], "time": []}}}, "displayed_time": "15.79", "trialTime": 16800, "trial_type": "mouselab-mdp", "trial_index": 27, "time_elapsed": 780407, "internal_node_id": "0.0-6.0-1.0-18.0"}}, {"uniqueid": "w90991578:a49515035", "current_trial": 28, "dateTime": 1693567541929, "trialdata": {"revealed_states": [], "clicked_states": ["9", "5"], "num_clicks_accrued": [0, 0, 0, 0, 0, 0, 0, 0, 0, 0, 0, 0, 0], "stateRewards": ["", -1, 1, -2, 5, 73, 15, 61, 8, 7, 38, 76, 2, 2, -4, -6, -6, -26, 43, -5, -45, -85, -35, -2, 1, -4, 15, -10, 69, 72, -11, 84, -49, -38], "withholdReward": false, "trial_id": "mdp_trial_20", "block": "test", "trialIndex": 21, "score": 73.2, "costs": -2.8, "simulationMode": [null, null, null, null, null], "rewards": [-1, 1, -2, 5, 73], "path": ["0", "0", "1", "2", "3", "4", "5"], "rt": [5368, 43, 100, 98, 100], "actions": ["up", "up", "up", "right", "up"], "actionTimes": [7316, 7873, 8481, 9078, 9697], "queries": {"click": {"state": {"target": ["9", "5"], "time": [2756, 4754]}, "edge": {"target": [], "time": []}}, "mouseover": {"state": {"target": ["1", "9", "9", "5", "8", "11", "27", "27"], "time": [1955, 2312, 2680, 3113, 5131, 5180, 5280, 5782]}, "edge": {"target": [], "time": []}}, "mouseout": {"state": {"target": ["29", "26", "28", "1", "9", "9", "5", "8", "11", "27", "27", "10", "8", "2"], "time": [1145, 1178, 1195, 2146, 2413, 2868, 4856, 5147, 5197, 5316, 17611, 17734, 17896, 18381]}, "edge": {"target": [], "time": []}}}, "displayed_time": "15.95", "trialTime": 18942, "trial_type": "mouselab-mdp", "trial_index": 28, "time_elapsed": 799698, "internal_node_id": "0.0-6.0-1.0-19.0"}}, {"uniqueid": "w90991578:a49515035", "current_trial": 29, "dateTime": 1693567559690, "trialdata": {"revealed_states": [], "clicked_states": ["21", "29", "27", "20"], "num_clicks_accrued": [0, 0, 0, 0, 0, 0, 0, 0, 0, 0, 0, 0, 0], "stateRewards": ["", -1, 3, 1, -7, 56, 76, 57, 3, 11, -9, 14, 1, -2, 2, 8, -77, -3, 79, -5, 88, 24, -66, -2, -1, 7, -7, -30, 14, -76, 11, -36, 28, -6], "withholdReward": false, "trial_id": "mdp_trial_21", "block": "test", "trialIndex": 22, "score": 78.4, "costs": -5.6, "simulationMode": [null, null, null, null, null], "rewards": [1, -2, 2, -5, 88], "path": ["0", "0", "12", "13", "14", "19", "20"], "rt": [9445, 459, 344, 102, 133], "actions": ["right", "right", "right", "down", "right"], "actionTimes": [11603, 12558, 13393, 14016, 14663], "queries": {"click": {"state": {"target": ["21", "29", "27", "20"], "time": [2799, 4850, 6761, 8719]}, "edge": {"target": [], "time": []}}, "mouseover": {"state": {"target": ["0", "12", "19", "20", "21", "29", "27", "27", "28", "12", "19", "20", "16"], "time": [2169, 2195, 2244, 2297, 2613, 3679, 5195, 5797, 7266, 7464, 7581, 7730, 9663]}, "edge": {"target": [], "time": []}}, "mouseout": {"state": {"target": ["0", "0", "0", "12", "19", "20", "21", "29", "27", "27", "27", "28", "12", "19", "20"], "time": [1068, 1694, 2178, 2212, 2278, 2435, 2829, 5130, 5546, 6867, 7130, 7320, 7497, 7681, 9014]}, "edge": {"target": [], "time": []}}}, "displayed_time": "16.16", "trialTime": 17437, "trial_type": "mouselab-mdp", "trial_index": 29, "time_elapsed": 817459, "internal_node_id": "0.0-6.0-1.0-20.0"}}, {"uniqueid": "w90991578:a49515035", "current_trial": 30, "dateTime": 1693567580617, "trialdata": {"revealed_states": [], "clicked_states": ["9"], "num_clicks_accrued": [0, 0, 0, 0, 0, 0, 0, 0, 0, 0, 0, 0, 0], "stateRewards": ["", 2, -3, -8, 14, -7, -51, 73, 2, 36, 36, -43, -1, 3, -4, 1, 6, 87, -65, 15, 61, -42, -83, -1, 3, -2, -7, 30, -48, 35, 13, 26, 60, 78], "withholdReward": false, "trial_id": "mdp_trial_22", "block": "test", "trialIndex": 23, "score": 27.6, "costs": -1.4, "simulationMode": [null, null, null, null, null], "rewards": [2, -3, -8, 2, 36], "path": ["0", "0", "1", "2", "3", "8", "9"], "rt": [4845, 15, 243, 681, 124], "actions": ["up", "up", "up", "left", "up"], "actionTimes": [7524, 8045, 8803, 9989, 10601], "queries": {"click": {"state": {"target": ["9"], "time": [4506]}, "edge": {"target": [], "time": []}}, "mouseover": {"state": {"target": ["5", "9", "5", "5"], "time": [4044, 4276, 4862, 5310]}, "edge": {"target": [], "time": []}}, "mouseout": {"state": {"target": ["16", "18", "12", "1", "5", "9", "5"], "time": [826, 975, 1174, 2075, 4192, 4571, 5161]}, "edge": {"target": [], "time": []}}}, "displayed_time": "16.68", "trialTime": 20643, "trial_type": "mouselab-mdp", "trial_index": 30, "time_elapsed": 838386, "internal_node_id": "0.0-6.0-1.0-21.0"}}, {"uniqueid": "w90991578:a49515035", "current_trial": 31, "dateTime": 1693567597150, "trialdata": {"revealed_states": [], "clicked_states": ["9"], "num_clicks_accrued": [0, 0, 0, 0, 0, 0, 0, 0, 0, 0, 0, 0, 0], "stateRewards": ["", 1, -3, -2, 14, 49, -40, -39, 2, 26, -61, 73, 1, -4, -8, 12, 79, 29, -65, -13, 55, -26, 27, -1, 3, 3, 9, -17, -60, -18, -8, 35, -88, 69], "withholdReward": false, "trial_id": "mdp_trial_23", "block": "test", "trialIndex": 24, "score": 22.6, "costs": -1.4, "simulationMode": [null, null, null, null, null], "rewards": [1, -3, -2, 2, 26], "path": ["0", "0", "1", "2", "3", "8", "9"], "rt": [4008, 20, 44, 546, 245], "actions": ["up", "up", "up", "left", "up"], "actionTimes": [5608, 6146, 6702, 7755, 8518], "queries": {"click": {"state": {"target": ["9"], "time": [2805]}, "edge": {"target": [], "time": []}}, "mouseover": {"state": {"target": ["1", "2", "10", "11", "9", "3", "5"], "time": [1614, 1644, 2156, 2238, 2574, 3307, 3805]}, "edge": {"target": [], "time": []}}, "mouseout": {"state": {"target": ["5", "1", "2", "10", "11", "9", "3"], "time": [655, 1635, 1855, 2173, 2255, 3040, 3323]}, "edge": {"target": [], "time": []}}}, "displayed_time": "15.61", "trialTime": 16194, "trial_type": "mouselab-mdp", "trial_index": 31, "time_elapsed": 854920, "internal_node_id": "0.0-6.0-1.0-22.0"}}, {"uniqueid": "w90991578:a49515035", "current_trial": 32, "dateTime": 1693567615091, "trialdata": {"revealed_states": [], "clicked_states": ["9", "5", "16", "21"], "num_clicks_accrued": [0, 0, 0, 0, 0, 0, 0, 0, 0, 0, 0, 0, 0], "stateRewards": ["", 2, -2, -3, 10, -4, -1, -11, -8, -9, -36, -78, 2, 1, 7, -7, 44, -1, -31, -1, 26, 47, 83, 2, -4, -4, -6, -52, -76, -81, -1, -59, 45, 67], "withholdReward": false, "trial_id": "mdp_trial_24", "block": "test", "trialIndex": 25, "score": 50.4, "costs": -5.6, "simulationMode": [null, null, null, null, null], "rewards": [2, 1, 7, -1, 47], "path": ["0", "0", "12", "13", "14", "19", "21"], "rt": [8825, 50, 28, 77, 129], "actions": ["right", "right", "right", "down", "down"], "actionTimes": [10700, 11260, 11803, 12371, 13045], "queries": {"click": {"state": {"target": ["9", "5", "16", "21"], "time": [2855, 4948, 6856, 8820]}, "edge": {"target": [], "time": []}}, "mouseover": {"state": {"target": ["1", "2", "3", "9", "5", "6", "16", "15", "14", "19", "21", "19"], "time": [2208, 2275, 2325, 2759, 3924, 5309, 5725, 7175, 7308, 7441, 7709, 9392]}, "edge": {"target": [], "time": []}}, "mouseout": {"state": {"target": ["5", "3", "2", "1", "1", "2", "3", "9", "5", "6", "16", "15", "14", "19", "21", "19"], "time": [1290, 1339, 1375, 1457, 2242, 2310, 2358, 2946, 5293, 5343, 7125, 7258, 7375, 7592, 9192, 9445]}, "edge": {"target": [], "time": []}}}, "displayed_time": "15.88", "trialTime": 17570, "trial_type": "mouselab-mdp", "trial_index": 32, "time_elapsed": 872860, "internal_node_id": "0.0-6.0-1.0-23.0"}}, {"uniqueid": "w90991578:a49515035", "current_trial": 33, "dateTime": 1693567641211, "trialdata": {"revealed_states": [], "clicked_states": ["32"], "num_clicks_accrued": [0, 0, 0, 0, 0, 0, 0, 0, 0, 0, 0, 0, 0], "stateRewards": ["", -2, 2, -5, 1, 42, -63, -58, -6, 2, 16, 81, -2, 4, 7, -10, 33, 3, -33, -2, -52, -84, -27, 2, -3, -3, 15, -74, -14, -5, -5, -84, 79, -31], "withholdReward": false, "trial_id": "mdp_trial_25", "block": "test", "trialIndex": 26, "score": 68.6, "costs": -1.4, "simulationMode": [null, null, null, null, null], "rewards": [2, -3, -3, -5, 79], "path": ["0", "0", "23", "24", "25", "30", "32"], "rt": [3502, 92, 429, 283, 94], "actions": ["left", "left", "left", "down", "down"], "actionTimes": [6105, 6697, 7637, 8425, 9024], "queries": {"click": {"state": {"target": ["32"], "time": [3269]}, "edge": {"target": [], "time": []}}, "mouseover": {"state": {"target": ["0", "31", "32", "21"], "time": [2623, 2888, 3087, 4271]}, "edge": {"target": [], "time": []}}, "mouseout": {"state": {"target": ["17", "12", "0", "0", "31", "32"], "time": [838, 937, 2609, 2703, 2938, 3472]}, "edge": {"target": [], "time": []}}}, "displayed_time": "16.61", "trialTime": 25786, "trial_type": "mouselab-mdp", "trial_index": 33, "time_elapsed": 898980, "internal_node_id": "0.0-6.0-1.0-24.0"}}, {"uniqueid": "w90991578:a49515035", "current_trial": 34, "dateTime": 1693567666481, "trialdata": {"revealed_states": [], "clicked_states": ["27", "16", "21", "32"], "num_clicks_accrued": [0, 0, 0, 0, 0, 0, 0, 0, 0, 0, 0, 0, 0], "stateRewards": ["", -2, -3, 7, -13, 60, 9, 37, -6, 37, 20, 1, 2, -2, -8, 6, -80, -31, -10, -7, 70, -65, -44, -1, 1, 7, 6, -11, 73, -85, 16, -21, 47, 34], "withholdReward": false, "trial_id": "mdp_trial_26", "block": "test", "trialIndex": 27, "score": 64.4, "costs": -5.6, "simulationMode": [null, null, null, null, null], "rewards": [-1, 1, 7, 16, 47], "path": ["0", "0", "23", "24", "25", "30", "32"], "rt": [10948, 148, 353, 252, 122], "actions": ["left", "left", "left", "down", "down"], "actionTimes": [14796, 15437, 16290, 17056, 17678], "queries": {"click": {"state": {"target": ["27", "16", "21", "32"], "time": [5288, 7793, 9732, 11671]}, "edge": {"target": [], "time": []}}, "mouseover": {"state": {"target": ["1", "1", "27", "15", "17", "16", "15", "19", "21", "32", "31"], "time": [3885, 4554, 4970, 7286, 7335, 7637, 8453, 8502, 8886, 10485, 12153]}, "edge": {"target": [], "time": []}}, "mouseout": {"state": {"target": ["21", "9", "27", "23", "1", "1", "27", "27", "15", "17", "16", "15", "19", "21", "32"], "time": [1435, 1501, 2234, 2635, 3905, 4570, 5537, 5786, 7302, 7470, 8419, 8469, 8519, 10102, 11919]}, "edge": {"target": [], "time": []}}}, "displayed_time": "18.17", "trialTime": 24967, "trial_type": "mouselab-mdp", "trial_index": 34, "time_elapsed": 924251, "internal_node_id": "0.0-6.0-1.0-25.0"}}, {"uniqueid": "w90991578:a49515035", "current_trial": 35, "dateTime": 1693567683901, "trialdata": {"revealed_states": [], "clicked_states": ["11"], "num_clicks_accrued": [0, 0, 0, 0, 0, 0, 0, 0, 0, 0, 0, 0, 0], "stateRewards": ["", 2, -2, 7, -11, -76, -65, -23, 16, -58, 30, 81, 1, 2, 7, 14, 9, 55, -2, 6, 11, -15, 31, -1, -1, -3, 2, 15, 2, 46, 15, 18, 45, -34], "withholdReward": false, "trial_id": "mdp_trial_27", "block": "test", "trialIndex": 28, "score": 102.6, "costs": -1.4, "simulationMode": [null, null, null, null, null], "rewards": [2, -2, 7, 16, 81], "path": ["0", "0", "1", "2", "3", "8", "11"], "rt": [3650, 173, 162, 130, 52], "actions": ["up", "up", "up", "left", "left"], "actionTimes": [5633, 6318, 6975, 7610, 8167], "queries": {"click": {"state": {"target": ["11"], "time": [3005]}, "edge": {"target": [], "time": []}}, "mouseover": {"state": {"target": ["1", "10", "8", "11", "8", "3", "4", "6"], "time": [1991, 2294, 2660, 2869, 3195, 3244, 3277, 3328]}, "edge": {"target": [], "time": []}}, "mouseout": {"state": {"target": ["31", "23", "1", "1", "1", "10", "8", "11", "8", "3", "4", "6", "7", "1"], "time": [1227, 1244, 1295, 1545, 2262, 2312, 2677, 3144, 3228, 3261, 3294, 10511, 10546, 10829]}, "edge": {"target": [], "time": []}}}, "displayed_time": "15.99", "trialTime": 17078, "trial_type": "mouselab-mdp", "trial_index": 35, "time_elapsed": 941671, "internal_node_id": "0.0-6.0-1.0-26.0"}}, {"uniqueid": "w90991578:a49515035", "current_trial": 36, "dateTime": 1693567716456, "trialdata": {"revealed_states": [], "clicked_states": ["6", "11", "29", "28", "31", "33", "32", "21", "14", "20", "22"], "num_clicks_accrued": [0, 0, 0, 0, 0, 0, 0, 0, 0, 0, 0, 0, 0], "stateRewards": ["", 2, 3, -1, 6, 44, -4, -59, -14, -3, 64, 16, 1, -3, 3, 6, 3, 49, 19, 3, -49, -14, -86, 1, 2, -3, -8, -33, 14, 32, -13, -77, -47, -67], "withholdReward": false, "trial_id": "mdp_trial_28", "block": "test", "trialIndex": 29, "score": 8.599999999999998, "costs": -15.400000000000002, "simulationMode": [null, null, null, null, null], "rewards": [1, 2, -3, -8, 32], "path": ["0", "0", "23", "24", "25", "26", "29"], "rt": [23885, 19, 357, 114, 520], "actions": ["left", "left", "left", "up", "left"], "actionTimes": [25991, 26503, 27388, 27998, 29018], "queries": {"click": {"state": {"target": ["6", "11", "29", "28", "31", "33", "32", "21", "14", "20", "22"], "time": [3119, 6208, 8182, 10194, 12196, 14479, 16384, 18278, 20159, 22090, 24200]}, "edge": {"target": [], "time": []}}, "mouseover": {"state": {"target": ["1", "7", "6", "11", "11", "27", "29", "26", "28", "24", "31", "30", "33", "32", "21", "14", "20", "19", "22"], "time": [2568, 2718, 2984, 5168, 6120, 6600, 6712, 8546, 8729, 10596, 10781, 14098, 14249, 15015, 17181, 19315, 20680, 22365, 22497]}, "edge": {"target": [], "time": []}}, "mouseout": {"state": {"target": ["1", "7", "6", "11", "11", "27", "29", "26", "28", "24", "31", "30", "33", "32", "21", "14", "20", "19"], "time": [2602, 2835, 3402, 5184, 6533, 6667, 8250, 8680, 10529, 10713, 14064, 14214, 14849, 16597, 18630, 20413, 22332, 22481]}, "edge": {"target": [], "time": []}}}, "displayed_time": "29.52", "trialTime": 32206, "trial_type": "mouselab-mdp", "trial_index": 36, "time_elapsed": 974226, "internal_node_id": "0.0-6.0-1.0-27.0"}}, {"uniqueid": "w90991578:a49515035", "current_trial": 37, "dateTime": 1693567733836, "trialdata": {"revealed_states": [], "clicked_states": ["6"], "num_clicks_accrued": [0, 0, 0, 0, 0, 0, 0, 0, 0, 0, 0, 0, 0], "stateRewards": ["", -2, -3, 8, -4, -30, 31, 69, 9, 66, 87, 64, -2, 2, 8, 5, 47, 16, -39, -8, -54, 51, -19, 1, -2, -2, -11, -25, -26, 43, -9, 19, -84, 86], "withholdReward": false, "trial_id": "mdp_trial_29", "block": "test", "trialIndex": 30, "score": 28.6, "costs": -1.4, "simulationMode": [null, null, null, null, null], "rewards": [-2, -3, 8, -4, 31], "path": ["0", "0", "1", "2", "3", "4", "6"], "rt": [3256, 37, 401, 289, 86], "actions": ["up", "up", "up", "right", "right"], "actionTimes": [4587, 5135, 6035, 6819, 7420], "queries": {"click": {"state": {"target": ["6"], "time": [2115]}, "edge": {"target": [], "time": []}}, "mouseover": {"state": {"target": ["18", "6"], "time": [1595, 1930]}, "edge": {"target": [], "time": []}}, "mouseout": {"state": {"target": ["22", "0", "18", "6", "7", "7"], "time": [779, 1354, 1612, 2296, 9652, 10763]}, "edge": {"target": [], "time": []}}}, "displayed_time": "15.34", "trialTime": 17084, "trial_type": "mouselab-mdp", "trial_index": 37, "time_elapsed": 991605, "internal_node_id": "0.0-6.0-1.0-28.0"}}, {"uniqueid": "w90991578:a49515035", "current_trial": 38, "dateTime": 1693567753508, "trialdata": {"revealed_states": [], "clicked_states": ["29", "17", "5"], "num_clicks_accrued": [0, 0, 0, 0, 0, 0, 0, 0, 0, 0, 0, 0, 0], "stateRewards": ["", 1, 4, -8, -5, -15, -7, 21, 13, -30, 40, -65, 1, 1, 5, -14, 35, 27, -38, -11, 36, -58, -47, -2, 4, -3, 13, -16, -49, 22, 15, -56, -44, -10], "withholdReward": false, "trial_id": "mdp_trial_30", "block": "test", "trialIndex": 31, "score": 15.8, "costs": -4.199999999999999, "simulationMode": [null, null, null, null, null], "rewards": [1, 1, 5, -14, 27], "path": ["0", "0", "12", "13", "14", "15", "17"], "rt": [7463, 86, 126, 269, 366], "actions": ["right", "right", "right", "up", "right"], "actionTimes": [11676, 12262, 12884, 13661, 14544], "queries": {"click": {"state": {"target": ["29", "17", "5"], "time": [5292, 7246, 9563]}, "edge": {"target": [], "time": []}}, "mouseover": {"state": {"target": ["28", "26", "29", "26", "28", "1", "18", "15", "17", "16", "5"], "time": [4788, 4974, 5173, 5474, 5508, 5574, 5657, 5708, 5974, 7841, 8491]}, "edge": {"target": [], "time": []}}, "mouseout": {"state": {"target": ["1", "0", "28", "26", "29", "26", "28", "1", "18", "15", "17", "16", "5"], "time": [2705, 4592, 4940, 5022, 5382, 5489, 5524, 5591, 5692, 5760, 7573, 8108, 9662]}, "edge": {"target": [], "time": []}}}, "displayed_time": "18.23", "trialTime": 19268, "trial_type": "mouselab-mdp", "trial_index": 38, "time_elapsed": 1011278, "internal_node_id": "0.0-6.0-1.0-29.0"}}, {"uniqueid": "w90991578:a49515035", "current_trial": 39, "dateTime": 1693567793276, "trialdata": {"revealed_states": [], "clicked_states": ["21", "31", "27", "9", "6", "7", "10", "33", "16", "17", "18", "14", "29", "23"], "num_clicks_accrued": [0, 0, 0, 0, 0, 0, 0, 0, 0, 0, 0, 0, 0], "stateRewards": ["", -2, -1, 3, -3, 71, -58, -21, 7, -10, -75, -37, 2, 4, -1, -12, -79, -29, -48, 3, -41, -10, -30, -1, -2, 1, -15, 13, 66, 22, -1, -42, -86, -55], "withholdReward": false, "trial_id": "mdp_trial_31", "block": "test", "trialIndex": 32, "score": -14.599999999999994, "costs": -19.599999999999998, "simulationMode": [null, null, null, null, null], "rewards": [-1, -2, 1, -15, 22], "path": ["0", "0", "23", "24", "25", "26", "29"], "rt": [28469, 243, 79, 667, 44], "actions": ["left", "left", "left", "up", "left"], "actionTimes": [30077, 30821, 31394, 32563, 33125], "queries": {"click": {"state": {"target": ["21", "31", "27", "9", "6", "7", "10", "33", "16", "17", "18", "14", "29", "23"], "time": [2502, 4421, 6287, 8197, 10136, 12000, 13900, 16441, 18381, 20297, 22181, 24041, 26047, 27885]}, "edge": {"target": [], "time": []}}, "mouseover": {"state": {"target": ["12", "13", "21", "21", "31", "31", "25", "26", "27", "8", "9", "4", "6", "7", "2", "10", "24", "25", "33", "30", "0", "12", "18", "16", "17", "14", "18", "13", "14", "13", "1", "28", "26", "29", "26", "28", "23", "28", "10"], "time": [1895, 1948, 2096, 2344, 3045, 3546, 4829, 5045, 5312, 6563, 6779, 8897, 9230, 10730, 12313, 12462, 15329, 15880, 16261, 16711, 16828, 16878, 17078, 17430, 18928, 20830, 21130, 22901, 22928, 24295, 24345, 24463, 24746, 25062, 26329, 26412, 26764, 28278, 28880]}, "edge": {"target": [], "time": []}}, "mouseout": {"state": {"target": ["5", "3", "2", "1", "0", "12", "13", "21", "21", "31", "31", "25", "26", "27", "8", "9", "4", "6", "7", "2", "10", "24", "25", "33", "30", "0", "12", "18", "16", "17", "14", "18", "13", "14", "13", "1", "28", "26", "29", "26", "28", "23", "28", "10"], "time": [696, 829, 911, 1194, 1679, 1946, 1963, 2129, 2711, 3078, 4662, 4945, 5229, 6512, 6696, 8479, 9114, 10365, 12279, 12446, 14628, 15596, 15895, 16661, 16728, 16863, 16911, 17178, 18744, 20714, 20972, 22596, 22912, 24102, 24312, 24378, 24496, 24795, 26133, 26379, 26445, 28044, 28595, 28897]}, "edge": {"target": [], "time": []}}}, "displayed_time": "33.63", "trialTime": 39468, "trial_type": "mouselab-mdp", "trial_index": 39, "time_elapsed": 1051045, "internal_node_id": "0.0-6.0-1.0-30.0"}}, {"uniqueid": "w90991578:a49515035", "current_trial": 40, "dateTime": 1693567810850, "trialdata": {"revealed_states": [], "clicked_states": ["9", "5", "7"], "num_clicks_accrued": [0, 0, 0, 0, 0, 0, 0, 0, 0, 0, 0, 0, 0], "stateRewards": ["", -2, -3, 8, 14, -73, 73, 84, -12, -2, -50, -17, 2, 1, -2, -9, -44, -27, -33, 16, -63, -47, -66, -2, 1, 4, -5, -33, -11, 50, 9, 38, -79, 31], "withholdReward": false, "trial_id": "mdp_trial_32", "block": "test", "trialIndex": 33, "score": 96.8, "costs": -4.199999999999999, "simulationMode": [null, null, null, null, null], "rewards": [-2, -3, 8, 14, 84], "path": ["0", "0", "1", "2", "3", "4", "7"], "rt": [7368, 5, 405, 455, 148], "actions": ["up", "up", "up", "right", "down"], "actionTimes": [9354, 9860, 10793, 11763, 12402], "queries": {"click": {"state": {"target": ["9", "5", "7"], "time": [2918, 4874, 6769]}, "edge": {"target": [], "time": []}}, "mouseover": {"state": {"target": ["2", "3", "8", "9", "5", "4", "7", "7", "0", "23", "24", "26"], "time": [2421, 2519, 2635, 2819, 3871, 5135, 5253, 5669, 7219, 7402, 7471, 7854]}, "edge": {"target": [], "time": []}}, "mouseout": {"state": {"target": ["0", "2", "3", "8", "9", "5", "4", "7", "7", "0", "23", "24", "26"], "time": [2302, 2469, 2569, 2651, 3487, 5103, 5203, 5385, 7018, 7304, 7454, 7504, 8670]}, "edge": {"target": [], "time": []}}}, "displayed_time": "15.99", "trialTime": 17201, "trial_type": "mouselab-mdp", "trial_index": 40, "time_elapsed": 1068620, "internal_node_id": "0.0-6.0-1.0-31.0"}}, {"uniqueid": "w90991578:a49515035", "current_trial": 41, "dateTime": 1693567828486, "trialdata": {"revealed_states": [], "clicked_states": ["7", "10", "27", "29"], "num_clicks_accrued": [0, 0, 0, 0, 0, 0, 0, 0, 0, 0, 0, 0, 0], "stateRewards": ["", -1, 1, -5, -6, -78, 47, -13, 12, 48, -88, 20, 2, -3, -2, 13, -20, 37, -57, 14, -38, 30, 31, -2, -2, 8, 2, -23, 78, 28, 12, -74, -88, 8], "withholdReward": false, "trial_id": "mdp_trial_33", "block": "test", "trialIndex": 34, "score": 28.4, "costs": -5.6, "simulationMode": [null, null, null, null, null], "rewards": [-2, -2, 8, 2, 28], "path": ["0", "0", "23", "24", "25", "26", "29"], "rt": [9642, 155, 82, 117, 206], "actions": ["left", "left", "left", "up", "left"], "actionTimes": [11427, 12091, 12667, 13288, 13994], "queries": {"click": {"state": {"target": ["7", "10", "27", "29"], "time": [2434, 4833, 6711, 8864]}, "edge": {"target": [], "time": []}}, "mouseover": {"state": {"target": ["18", "7", "2", "8", "11", "10", "27", "29", "23", "12", "13", "14", "15", "16"], "time": [2034, 2266, 2683, 3135, 3401, 4740, 5100, 7817, 9117, 9183, 9251, 9334, 9468, 9685]}, "edge": {"target": [], "time": []}}, "mouseout": {"state": {"target": ["28", "10", "12", "18", "7", "2", "8", "11", "10", "27", "29", "23", "12", "13", "14", "15"], "time": [935, 981, 1366, 2067, 2667, 2700, 3284, 4384, 5017, 7717, 9067, 9134, 9219, 9317, 9367, 9569]}, "edge": {"target": [], "time": []}}}, "displayed_time": "15.79", "trialTime": 17318, "trial_type": "mouselab-mdp", "trial_index": 41, "time_elapsed": 1086255, "internal_node_id": "0.0-6.0-1.0-32.0"}}, {"uniqueid": "w90991578:a49515035", "current_trial": 42, "dateTime": 1693567849002, "trialdata": {"revealed_states": [], "clicked_states": ["16", "6", "32", "20", "29", "27"], "num_clicks_accrued": [0, 0, 0, 0, 0, 0, 0, 0, 0, 0, 0, 0, 0], "stateRewards": ["", -1, -1, 7, -15, -43, -21, -84, -9, -45, -66, 2, 1, -2, 2, 8, -27, 44, -52, -5, -84, 11, 53, 1, 4, -4, 16, 83, -82, -15, -16, 68, -43, 81], "withholdReward": false, "trial_id": "mdp_trial_34", "block": "test", "trialIndex": 35, "score": 91.6, "costs": -8.4, "simulationMode": [null, null, null, null, null], "rewards": [1, 4, -4, 16, 83], "path": ["0", "0", "23", "24", "25", "26", "27"], "rt": [12935, 137, 127, 225, 67], "actions": ["left", "left", "left", "up", "up"], "actionTimes": [15378, 16024, 16646, 17394, 17969], "queries": {"click": {"state": {"target": ["16", "6", "32", "20", "29", "27"], "time": [3103, 5015, 6940, 8848, 10738, 12625]}, "edge": {"target": [], "time": []}}, "mouseover": {"state": {"target": ["18", "16", "16", "6", "6", "4", "10", "28", "25", "30", "32", "22", "19", "20", "19", "22", "24", "29", "27", "11", "9"], "time": [2635, 2682, 2985, 3351, 3817, 5350, 5583, 5735, 5934, 6049, 6418, 7519, 7585, 7715, 9368, 9400, 9684, 10033, 11216, 12999, 13202]}, "edge": {"target": [], "time": []}}, "mouseout": {"state": {"target": ["16", "18", "23", "0", "18", "16", "16", "6", "6", "4", "10", "28", "25", "30", "32", "22", "19", "20", "19", "22", "24", "29", "27", "11"], "time": [1298, 1416, 1967, 2507, 2649, 2699, 3317, 3583, 5334, 5367, 5634, 5785, 5986, 6100, 7101, 7551, 7684, 9366, 9383, 9416, 9733, 10999, 12833, 13016]}, "edge": {"target": [], "time": []}}}, "displayed_time": "18.49", "trialTime": 20199, "trial_type": "mouselab-mdp", "trial_index": 42, "time_elapsed": 1106771, "internal_node_id": "0.0-6.0-1.0-33.0"}}, {"uniqueid": "w90991578:a49515035", "current_trial": 43, "dateTime": 1693567868469, "trialdata": {"revealed_states": [], "clicked_states": ["7", "29", "16"], "num_clicks_accrued": [0, 0, 0, 0, 0, 0, 0, 0, 0, 0, 0, 0, 0], "stateRewards": ["", -2, -4, -2, 10, -8, -15, -47, 7, -84, 53, 5, -1, 2, -7, 3, 83, 31, 47, -1, 30, -8, 69, 2, -4, -1, 8, -7, 12, -8, -8, -13, 30, -84], "withholdReward": false, "trial_id": "mdp_trial_35", "block": "test", "trialIndex": 36, "score": 75.8, "costs": -4.199999999999999, "simulationMode": [null, null, null, null, null], "rewards": [-1, 2, -7, 3, 83], "path": ["0", "0", "12", "13", "14", "15", "16"], "rt": [7488, 111, 185, 128, 164], "actions": ["right", "right", "right", "up", "up"], "actionTimes": [9079, 9702, 10407, 11035, 11720], "queries": {"click": {"state": {"target": ["7", "29", "16"], "time": [2810, 4678, 6528]}, "edge": {"target": [], "time": []}}, "mouseover": {"state": {"target": ["7", "7", "2", "26", "29", "26", "28", "1", "18", "16", "15", "14", "19", "21"], "time": [2188, 2639, 3241, 3420, 3720, 4888, 4909, 4972, 5155, 5389, 6789, 6856, 6924, 7054]}, "edge": {"target": [], "time": []}}, "mouseout": {"state": {"target": ["9", "8", "0", "0", "7", "7", "2", "26", "29", "26", "28", "1", "18", "16", "15", "14", "19"], "time": [539, 586, 1088, 1990, 2206, 3238, 3255, 3471, 4871, 4906, 4921, 5005, 5272, 6756, 6839, 6921, 7021]}, "edge": {"target": [], "time": []}}}, "displayed_time": "15.60", "trialTime": 19006, "trial_type": "mouselab-mdp", "trial_index": 43, "time_elapsed": 1126239, "internal_node_id": "0.0-6.0-1.0-34.0"}}, {"uniqueid": "w90991578:a49515035", "current_trial": 44, "dateTime": 1693567886152, "trialdata": {"revealed_states": [], "clicked_states": ["16", "9", "7", "21"], "num_clicks_accrued": [0, 0, 0, 0, 0, 0, 0, 0, 0, 0, 0, 0, 0], "stateRewards": ["", -1, 4, 3, 12, -27, 34, -33, 3, -63, 1, 6, 2, 2, -6, -11, -77, -85, 68, -6, 51, 81, -60, -2, -2, 1, 15, 20, 15, 68, -10, -14, 6, -4], "withholdReward": false, "trial_id": "mdp_trial_36", "block": "test", "trialIndex": 37, "score": 67.4, "costs": -5.6, "simulationMode": [null, null, null, null, null], "rewards": [2, 2, -6, -6, 81], "path": ["0", "0", "12", "13", "14", "19", "21"], "rt": [9220, 141, 306, 3, 209], "actions": ["right", "right", "right", "down", "down"], "actionTimes": [11749, 12383, 13197, 13713, 14453], "queries": {"click": {"state": {"target": ["16", "9", "7", "21"], "time": [3375, 5278, 7166, 9015]}, "edge": {"target": [], "time": []}}, "mouseover": {"state": {"target": ["0", "0", "12", "18", "16", "7", "2", "9", "8", "2", "7", "13", "21", "33", "29"], "time": [2541, 2741, 2824, 2957, 3274, 3623, 3642, 3941, 5590, 5691, 6042, 7592, 7956, 9558, 10592]}, "edge": {"target": [], "time": []}}, "mouseout": {"state": {"target": ["21", "13", "12", "0", "0", "12", "18", "16", "7", "2", "9", "8", "2", "7", "13", "21", "33"], "time": [894, 1745, 1929, 2546, 2758, 2909, 2973, 3591, 3640, 3673, 5557, 5641, 5858, 7475, 7625, 9341, 9625]}, "edge": {"target": [], "time": []}}}, "displayed_time": "16.54", "trialTime": 17395, "trial_type": "mouselab-mdp", "trial_index": 44, "time_elapsed": 1143922, "internal_node_id": "0.0-6.0-1.0-35.0"}}, {"uniqueid": "w90991578:a49515035", "current_trial": 45, "dateTime": 1693567903955, "trialdata": {"revealed_states": [], "clicked_states": ["32"], "num_clicks_accrued": [0, 0, 0, 0, 0, 0, 0, 0, 0, 0, 0, 0, 0], "stateRewards": ["", -2, -3, 1, -14, 48, -49, 67, -1, -35, -48, 3, -2, 1, -4, -5, 86, -84, 39, 1, 48, 41, -42, -1, -4, 2, -7, 18, -86, 17, 7, -9, 57, -69], "withholdReward": false, "trial_id": "mdp_trial_37", "block": "test", "trialIndex": 38, "score": 59.6, "costs": -1.4, "simulationMode": [null, null, null, null, null], "rewards": [-1, -4, 2, 7, 57], "path": ["0", "0", "23", "24", "25", "30", "32"], "rt": [5272, 5, 105, 97, 141], "actions": ["left", "left", "left", "down", "down"], "actionTimes": [7763, 8288, 8907, 9513, 10155], "queries": {"click": {"state": {"target": ["32"], "time": [3918]}, "edge": {"target": [], "time": []}}, "mouseover": {"state": {"target": ["23", "30", "32"], "time": [2548, 2844, 3445]}, "edge": {"target": [], "time": []}}, "mouseout": {"state": {"target": ["29", "26", "28", "23", "0", "12", "0", "23", "30", "32"], "time": [730, 760, 845, 1096, 1479, 1746, 2540, 2570, 2894, 3946]}, "edge": {"target": [], "time": []}}}, "displayed_time": "16.49", "trialTime": 17502, "trial_type": "mouselab-mdp", "trial_index": 45, "time_elapsed": 1161724, "internal_node_id": "0.0-6.0-1.0-36.0"}}, {"uniqueid": "w90991578:a49515035", "current_trial": 46, "dateTime": 1693567921288, "trialdata": {"revealed_states": [], "clicked_states": ["9", "17"], "num_clicks_accrued": [0, 0, 0, 0, 0, 0, 0, 0, 0, 0, 0, 0, 0], "stateRewards": ["", -1, 2, 6, 11, 21, -21, -21, -6, 48, -71, 88, -1, -3, 3, 7, 64, 2, 9, -4, 37, -67, 72, 2, 2, -8, -8, -10, 71, -40, -3, 73, 80, 47], "withholdReward": false, "trial_id": "mdp_trial_38", "block": "test", "trialIndex": 39, "score": 46.2, "costs": -2.8, "simulationMode": [null, null, null, null, null, null], "rewards": [-1, 2, 6, -6, 48], "path": ["0", "0", "1", "2", "3", "8", "9"], "rt": [4591, 224, 47, 3, 410, 298], "actions": ["up", "up", "up", "up", "left", "up"], "actionTimes": [6142, 6369, 6948, 7484, 8408, 9200], "queries": {"click": {"state": {"target": ["9", "17"], "time": [3043, 4897]}, "edge": {"target": [], "time": []}}, "mouseover": {"state": {"target": ["1", "2", "9", "3", "4", "6", "16", "17"], "time": [2231, 2530, 2863, 3363, 3397, 3447, 3663, 4163]}, "edge": {"target": [], "time": []}}, "mouseout": {"state": {"target": ["0", "1", "2", "9", "3", "4", "6", "16"], "time": [1246, 2298, 2582, 3330, 3380, 3413, 3630, 3697]}, "edge": {"target": [], "time": []}}}, "displayed_time": "15.55", "trialTime": 16986, "trial_type": "mouselab-mdp", "trial_index": 46, "time_elapsed": 1179057, "internal_node_id": "0.0-6.0-1.0-37.0"}}, {"uniqueid": "w90991578:a49515035", "current_trial": 47, "dateTime": 1693567939584, "trialdata": {"revealed_states": [], "clicked_states": ["21", "5", "11"], "num_clicks_accrued": [0, 0, 0, 0, 0, 0, 0, 0, 0, 0, 0, 0, 0], "stateRewards": ["", -2, -2, -7, -13, -10, 49, -68, -1, 84, 70, 88, 1, 4, 4, 12, -57, 25, 30, 8, -1, -77, 57, 2, 3, 2, 3, -18, -80, 23, -15, -41, 70, 11], "withholdReward": false, "trial_id": "mdp_trial_39", "block": "test", "trialIndex": 40, "score": 71.8, "costs": -4.199999999999999, "simulationMode": [null, null, null, null, null], "rewards": [-2, -2, -7, -1, 88], "path": ["0", "0", "1", "2", "3", "8", "11"], "rt": [7300, 1201, 77, 272, 48], "actions": ["up", "up", "up", "left", "left"], "actionTimes": [9613, 11313, 11888, 12650, 13193], "queries": {"click": {"state": {"target": ["21", "5", "11"], "time": [2854, 4725, 6827]}, "edge": {"target": [], "time": []}}, "mouseover": {"state": {"target": ["21", "1", "2", "3", "5", "11", "11", "27", "29"], "time": [2759, 3224, 3242, 3293, 3643, 5594, 6193, 7208, 7560]}, "edge": {"target": [], "time": []}}, "mouseout": {"state": {"target": ["17", "0", "21", "1", "2", "3", "5", "11", "11", "27"], "time": [775, 2344, 3108, 3241, 3274, 3309, 5092, 5676, 7143, 7293]}, "edge": {"target": [], "time": []}}}, "displayed_time": "16.32", "trialTime": 17962, "trial_type": "mouselab-mdp", "trial_index": 47, "time_elapsed": 1197354, "internal_node_id": "0.0-6.0-1.0-38.0"}}, {"uniqueid": "w90991578:a49515035", "current_trial": 48, "dateTime": 1693567963067, "trialdata": {"revealed_states": [], "clicked_states": ["32", "27", "6", "18", "21", "9", "5"], "num_clicks_accrued": [0, 0, 0, 0, 0, 0, 0, 0, 0, 0, 0, 0, 0], "stateRewards": ["", -2, -4, -8, 8, 63, -50, -19, -7, -17, -31, 31, 1, 3, -5, 12, -35, -63, -29, -4, -17, -75, -79, -2, -3, -2, 8, -3, -85, 10, -2, -82, -82, 56], "withholdReward": false, "trial_id": "mdp_trial_40", "block": "test", "trialIndex": 41, "score": 47.2, "costs": -9.8, "simulationMode": [null, null, null, null, null], "rewards": [-2, -4, -8, 8, 63], "path": ["0", "0", "1", "2", "3", "4", "5"], "rt": [15390, 78, 9, 91, 126], "actions": ["up", "up", "up", "right", "up"], "actionTimes": [16715, 17296, 17794, 18412, 19045], "queries": {"click": {"state": {"target": ["32", "27", "6", "18", "21", "9", "5"], "time": [1852, 3750, 5631, 7504, 9420, 11392, 14097]}, "edge": {"target": [], "time": []}}, "mouseover": {"state": {"target": ["31", "32", "30", "27", "8", "5", "6", "18", "19", "21", "12", "1", "2", "8", "9", "9", "5", "5", "6", "16"], "time": [1400, 1733, 2050, 2499, 4117, 4584, 4800, 6301, 8001, 8384, 9683, 9733, 9767, 9833, 9916, 10333, 12201, 13900, 14535, 14735]}, "edge": {"target": [], "time": []}}, "mouseout": {"state": {"target": ["29", "26", "23", "0", "31", "32", "30", "27", "8", "5", "6", "6", "18", "19", "21", "12", "1", "2", "8", "9", "9", "5", "5", "6"], "time": [667, 700, 754, 1334, 1466, 2000, 2066, 4033, 4217, 4684, 5741, 5966, 7866, 8084, 9600, 9700, 9751, 9784, 9850, 10035, 11934, 13634, 14367, 14567]}, "edge": {"target": [], "time": []}}}, "displayed_time": "19.54", "trialTime": 23151, "trial_type": "mouselab-mdp", "trial_index": 48, "time_elapsed": 1220836, "internal_node_id": "0.0-6.0-1.0-39.0"}}, {"uniqueid": "w90991578:a49515035", "current_trial": 49, "dateTime": 1693568075098, "trialdata": {"rt": 112017, "response": {"Q0": "$-2 to $2", "Q1": "$-16 to $16", "Q2": "$-88 to $88", "Q3": "The cost for clicking on nodes varied between nodes.", "Q4": "Very motivated"}, "question_order": [0, 1, 2, 3, 4], "trial_id": "final_quiz_control", "trial_type": "survey-multi-choice", "trial_index": 49, "time_elapsed": 1332867, "internal_node_id": "0.0-6.0-2.0"}}, {"uniqueid": "w90991578:a49515035", "current_trial": 50, "dateTime": 1693568207340, "trialdata": {"rt": 132213, "response": {"Q0": "I was going for top node, and was trying fine any green once to make as much as possible with the bonus.", "Q1": "No I had same strategy whole game", "Q2": "Their was nothing difficult about the game."}, "trial_id": "self_report_control", "trial_type": "survey-text", "trial_index": 50, "time_elapsed": 1465110, "internal_node_id": "0.0-6.0-3.0"}}, {"uniqueid": "w90991578:a49515035", "current_trial": 51, "dateTime": 1693568245551, "trialdata": {"rt": 38205, "response": {"gender": "male", "age": "34", "colorblind": "0", "effort": "0"}, "trial_type": "survey-html-form", "trial_index": 51, "time_elapsed": 1503321, "internal_node_id": "0.0-6.0-4.0"}}, {"uniqueid": "w90991578:a49515035", "current_trial": 52, "dateTime": 1693568319496, "trialdata": {"rt": 73935, "response": {"Q0": "No", "Q1": "No never seen this game before", "Q2": "no"}, "trial_type": "survey-text", "trial_index": 52, "time_elapsed": 1577266, "internal_node_id": "0.0-6.0-5.0"}}, {"uniqueid": "w90991578:a49515035", "current_trial": 53, "dateTime": 1693568356823, "trialdata": {"rt": 37320, "stimulus": "<h1>Completion Code Instructions (1/2)</h1>\n<br><br><br><br>\nYou have reached the end of the experiment! The completion code consists of two parts: (1) a code with 2 characters (2) a code with 6 characters. On this page, you will receive the second part of the code. The first part of the completion code will be on the next page.\n<br><br>\nThe second part of your completion code is: <b>EWEK22</b>\n<br><br>\nPlease note this down. Then, press 'Finish HIT' in order to find the first part of your completion code. Once the data has been saved, you will receive this code either in this window or in the original browser window where you started the experiment.\n", "response": 0, "trial_type": "html-button-response", "trial_index": 53, "time_elapsed": 1614593, "internal_node_id": "0.0-6.0-6.0"}}, {"uniqueid": "w90991578:a49515035", "current_trial": 54, "dateTime": 1693568357834, "trialdata": {"success": true, "trial_type": "fullscreen", "trial_index": 54, "time_elapsed": 1615604, "internal_node_id": "0.0-7.0"}}], "questiondata": {"params": {"CODE": "C6DMOQA6", "MIN_TIME": 14, "inspectCost": 1, "startTime": "Fri Sep 01 2023 12:12:21 GMT+0100 (British Summer Time)", "bonusRate": 0.002, "variance": "1_2_4_8_44", "branching": "31123"}, "final_score": 1842}, "eventdata": [{"eventtype": "initialized", "value": null, "timestamp": 1693566740702, "interval": 0}, {"eventtype": "window_resize", "value": [1536, 766], "timestamp": 1693566740702, "interval": 0}, {"eventtype": "window_resize", "value": [1536, 766], "timestamp": 1693566741031, "interval": 329}, {"eventtype": "window_resize", "value": [1536, 864], "timestamp": 1693566745451, "interval": 4420}, {"eventtype": "window_resize", "value": [1536, 766], "timestamp": 1693566795733, "interval": 50282}, {"eventtype": "window_resize", "value": [1028, 752], "timestamp": 1693566798099, "interval": 2366}, {"eventtype": "focus", "value": "off", "timestamp": 1693566799747, "interval": 1648}, {"eventtype": "focus", "value": "on", "timestamp": 1693566819717, "interval": 19970}, {"eventtype": "window_resize", "value": [1536, 766], "timestamp": 1693566822596, "interval": 2879}, {"eventtype": "focus", "value": "off", "timestamp": 1693566830582, "interval": 7986}, {"eventtype": "focus", "value": "on", "timestamp": 1693566831379, "interval": 797}, {"eventtype": "focus", "value": "off", "timestamp": 1693566832350, "interval": 971}, {"eventtype": "focus", "value": "on", "timestamp": 1693566836349, "interval": 3999}, {"eventtype": "focus", "value": "off", "timestamp": 1693566851251, "interval": 14902}, {"eventtype": "focus", "value": "on", "timestamp": 1693566852416, "interval": 1165}, {"eventtype": "focus", "value": "off", "timestamp": 1693566869951, "interval": 17535}, {"eventtype": "focus", "value": "on", "timestamp": 1693566870609, "interval": 658}, {"eventtype": "focus", "value": "off", "timestamp": 1693566872179, "interval": 1570}, {"eventtype": "focus", "value": "on", "timestamp": 1693566877711, "interval": 5532}, {"eventtype": "focus", "value": "off", "timestamp": 1693566884606, "interval": 6895}, {"eventtype": "focus", "value": "on", "timestamp": 1693566885306, "interval": 700}, {"eventtype": "focus", "value": "off", "timestamp": 1693566886035, "interval": 729}, {"eventtype": "focus", "value": "on", "timestamp": 1693566894850, "interval": 8815}, {"eventtype": "window_resize", "value": [1028, 752], "timestamp": 1693566908760, "interval": 13910}, {"eventtype": "window_resize", "value": [1536, 766], "timestamp": 1693566912735, "interval": 3975}, {"eventtype": "focus", "value": "off", "timestamp": 1693566988994, "interval": 76259}, {"eventtype": "focus", "value": "on", "timestamp": 1693566994761, "interval": 5767}, {"eventtype": "focus", "value": "off", "timestamp": 1693567004042, "interval": 9281}, {"eventtype": "focus", "value": "on", "timestamp": 1693567023845, "interval": 19803}, {"eventtype": "focus", "value": "off", "timestamp": 1693567030251, "interval": 6406}, {"eventtype": "focus", "value": "on", "timestamp": 1693567040564, "interval": 10313}, {"eventtype": "focus", "value": "off", "timestamp": 1693567047946, "interval": 7382}, {"eventtype": "focus", "value": "on", "timestamp": 1693567059494, "interval": 11548}, {"eventtype": "focus", "value": "off", "timestamp": 1693567065878, "interval": 6384}, {"eventtype": "focus", "value": "on", "timestamp": 1693567074989, "interval": 9111}, {"eventtype": "focus", "value": "off", "timestamp": 1693567080938, "interval": 5949}, {"eventtype": "focus", "value": "on", "timestamp": 1693567091263, "interval": 10325}, {"eventtype": "focus", "value": "off", "timestamp": 1693567096574, "interval": 5311}, {"eventtype": "focus", "value": "on", "timestamp": 1693567099310, "interval": 2736}, {"eventtype": "focus", "value": "off", "timestamp": 1693567104309, "interval": 4999}, {"eventtype": "focus", "value": "on", "timestamp": 1693567112072, "interval": 7763}, {"eventtype": "focus", "value": "off", "timestamp": 1693567989198, "interval": 877126}, {"eventtype": "focus", "value": "on", "timestamp": 1693567997909, "interval": 8711}, {"eventtype": "focus", "value": "off", "timestamp": 1693568001683, "interval": 3774}, {"eventtype": "focus", "value": "on", "timestamp": 1693568014682, "interval": 12999}, {"eventtype": "focus", "value": "off", "timestamp": 1693568022556, "interval": 7874}, {"eventtype": "focus", "value": "on", "timestamp": 1693568031846, "interval": 9290}, {"eventtype": "focus", "value": "off", "timestamp": 1693568036922, "interval": 5076}, {"eventtype": "focus", "value": "on", "timestamp": 1693568048646, "interval": 11724}, {"eventtype": "focus", "value": "off", "timestamp": 1693568058113, "interval": 9467}, {"eventtype": "focus", "value": "on", "timestamp": 1693568067043, "interval": 8930}, {"eventtype": "focus", "value": "off", "timestamp": 1693568085812, "interval": 18769}, {"eventtype": "focus", "value": "on", "timestamp": 1693568102830, "interval": 17018}, {"eventtype": "focus", "value": "off", "timestamp": 1693568123441, "interval": 20611}, {"eventtype": "focus", "value": "on", "timestamp": 1693568130689, "interval": 7248}, {"eventtype": "focus", "value": "off", "timestamp": 1693568206837, "interval": 76148}, {"eventtype": "focus", "value": "on", "timestamp": 1693568207261, "interval": 424}, {"eventtype": "focus", "value": "off", "timestamp": 1693568263702, "interval": 56441}, {"eventtype": "focus", "value": "on", "timestamp": 1693568291418, "interval": 27716}, {"eventtype": "focus", "value": "off", "timestamp": 1693568349404, "interval": 57986}, {"eventtype": "focus", "value": "on", "timestamp": 1693568355578, "interval": 6174}], "useragent": "Mozilla/5.0 (Windows NT 10.0; Win64; x64) AppleWebKit/537.36 (KHTML, like Gecko) Chrome/116.0.0.0 Safari/537.36", "mode": "live", "id": "w90991578:a49515035", "status": "user data saved", "Beginhit": "2023-09-01 11:12:18.38234", "Beginexp": "2023-09-01 11:12:25.846677", "Endhit": "2023-09-01 11:39:18.248829", "psiturkStatus": 3, "browser": "<redacted>", "platform": "windows", "language": "en-GB"}