{"condition": 1, "counterbalance": 0, "assignmentId": "a92219577", "workerId": "w59442366", "hitId": "h18011545", "currenttrial": 56, "bonus": 0, "data": [{"uniqueid": "w59442366:a92219577", "current_trial": 0, "dateTime": 1693388946207, "trialdata": {"success": true, "trial_type": "fullscreen", "trial_index": 0, "time_elapsed": 8231, "internal_node_id": "0.0-0.0"}}, {"uniqueid": "w59442366:a92219577", "current_trial": 1, "dateTime": 1693388980068, "trialdata": {"view_history": [{"page_index": 0, "viewing_time": 33848}], "rt": 33848, "trial_id": "exp_instructions_misaligned", "trial_type": "instructions", "trial_index": 1, "time_elapsed": 42092, "internal_node_id": "0.0-1.0"}}, {"uniqueid": "w59442366:a92219577", "current_trial": 2, "dateTime": 1693389513793, "trialdata": {"view_history": [{"page_index": 0, "viewing_time": 165470}, {"page_index": 1, "viewing_time": 123431}, {"page_index": 0, "viewing_time": 21358}, {"page_index": 1, "viewing_time": 33091}, {"page_index": 0, "viewing_time": 23982}, {"page_index": 1, "viewing_time": 22777}, {"page_index": 0, "viewing_time": 5144}, {"page_index": 1, "viewing_time": 28139}, {"page_index": 2, "viewing_time": 46542}, {"page_index": 1, "viewing_time": 6393}, {"page_index": 2, "viewing_time": 2278}, {"page_index": 3, "viewing_time": 55118}], "rt": 533722, "trial_id": "mouselab_instructions_1_misaligned", "trial_type": "instructions", "trial_index": 2, "time_elapsed": 575817, "internal_node_id": "0.0-2.0-1.0"}}, {"uniqueid": "w59442366:a92219577", "current_trial": 3, "dateTime": 1693389544833, "trialdata": {"revealed_states": [], "clicked_states": [], "num_clicks_accrued": [0, 0, 0, 0, 0, 0, 0, 0, 0, 0, 0, 0, 0], "stateRewards": ["", -10, 10, -10, -10, -10, 10, -10, 10, -10, -10, -10, -10, 10, 10, 10, 10, -10, 10, -10, 10, -10, -10, -10, -10, 10, -10, 10, 10, -10, 10, -10, -10, 10], "withholdReward": false, "trial_id": "practice_1", "block": "test", "trialIndex": 0, "score": -6.5, "costs": 0, "simulationMode": [null, null, null, null, null], "rewards": [-10, -10, 10, -10, 10], "path": ["0", "0", "23", "24", "25", "26", "27"], "rt": [1912, 1517, 265, 1014, 715], "actions": ["left", "left", "left", "up", "up"], "actionTimes": [3622, 5655, 6434, 7966, 9198], "queries": {"click": {"state": {"target": [], "time": []}, "edge": {"target": [], "time": []}}, "mouseover": {"state": {"target": [], "time": []}, "edge": {"target": [], "time": []}}, "mouseout": {"state": {"target": ["0", "0", "1", "27", "27", "26"], "time": [1262, 20149, 20177, 20779, 21926, 22112]}, "edge": {"target": [], "time": []}}}, "displayed_time": "9.70", "trialTime": 29420, "trial_type": "mouselab-mdp", "trial_index": 3, "time_elapsed": 606857, "internal_node_id": "0.0-2.0-2.0-0.0"}}, {"uniqueid": "w59442366:a92219577", "current_trial": 4, "dateTime": 1693389574815, "trialdata": {"revealed_states": [], "clicked_states": [], "num_clicks_accrued": [0, 0, 0, 0, 0, 0, 0, 0, 0, 0, 0, 0, 0], "stateRewards": ["", -10, 10, -10, -10, -10, 10, 10, -10, -10, -10, -10, 10, 10, -10, 10, 10, -10, -10, 10, -10, 10, -10, 10, -10, -10, -10, -10, 10, 10, -10, 10, -10, -10], "withholdReward": false, "trial_id": "practice_2", "block": "test", "trialIndex": 1, "score": -26.5, "costs": 0, "simulationMode": [null, null, null, null, null], "rewards": [-10, 10, -10, -10, -10], "path": ["0", "0", "1", "2", "3", "4", "5"], "rt": [3539, 933, 4911, 889, 2609], "actions": ["up", "up", "up", "right", "up"], "actionTimes": [7234, 8691, 14118, 15517, 18647], "queries": {"click": {"state": {"target": [], "time": []}, "edge": {"target": [], "time": []}}, "mouseover": {"state": {"target": [], "time": []}, "edge": {"target": [], "time": []}}, "mouseout": {"state": {"target": ["27", "28", "0", "12", "19"], "time": [2086, 2150, 22717, 23104, 23918]}, "edge": {"target": [], "time": []}}}, "displayed_time": "19.15", "trialTime": 29841, "trial_type": "mouselab-mdp", "trial_index": 4, "time_elapsed": 636838, "internal_node_id": "0.0-2.0-2.0-1.0"}}, {"uniqueid": "w59442366:a92219577", "current_trial": 5, "dateTime": 1693389680354, "trialdata": {"view_history": [{"page_index": 0, "viewing_time": 79781}, {"page_index": 1, "viewing_time": 25753}], "rt": 105535, "trial_id": "mouselab_instructions_2_misaligned", "trial_type": "instructions", "trial_index": 5, "time_elapsed": 742378, "internal_node_id": "0.0-2.0-3.0"}}, {"uniqueid": "w59442366:a92219577", "current_trial": 6, "dateTime": 1693389758469, "trialdata": {"rt": 78111, "response": {"Q0": "The cost for clicking on nodes may vary between nodes.", "Q1": "The better I perform the higher my bonus will be.", "Q2": "No, the amount of cash at each node of the web may be different each time.", "Q3": "To get the highest total score.", "Q4": "Only before moving the spider.", "Q5": "3 seconds"}, "question_order": [0, 1, 2, 3, 4, 5], "correct": {"Q0": "The cost for clicking on nodes may vary between nodes.", "Q1": "The better I perform the higher my bonus will be.", "Q2": "No, the amount of cash at each node of the web may be different each time.", "Q3": "To get the highest total score.", "Q4": "Only before moving the spider.", "Q5": "3 seconds"}, "trial_id": "mouselab_quiz_misaligned", "trial_type": "survey-multi-choice", "trial_index": 6, "time_elapsed": 820493, "internal_node_id": "0.0-2.0-4.0"}}, {"uniqueid": "w59442366:a92219577", "current_trial": 7, "dateTime": 1693389768196, "trialdata": {"rt": 9714, "response": {"Q0": "No"}, "question_order": [0], "trial_id": "repeat_check", "trial_type": "survey-multi-choice", "trial_index": 7, "time_elapsed": 830219, "internal_node_id": "0.0-4.0-0.0"}}, {"uniqueid": "w59442366:a92219577", "current_trial": 8, "dateTime": 1693389808468, "trialdata": {"rt": 40264, "stimulus": "\n<h1> Get ready to start the game! </h1>\n\nThank you for reading the instructions. Get ready start with the 40 rounds of this game.\n<br><br>\nIf you need to take a break, feel free to take one after the end of a round, before continuing to the next one.\n<br><br>\nRemember, the more money the spider gets, the bigger your bonus will be!\n<br><br>\n<div style='text-align: center;'>Press <code>space</code> to begin.</div>\n\n<br><br>\n(If, at any point, the <code>space</code> key does not take you to the next page, click once on the text and try again.)", "response": " ", "trial_id": "mdp_ready", "trial_type": "html-keyboard-response", "trial_index": 8, "time_elapsed": 870492, "internal_node_id": "0.0-6.0-0.0"}}, {"uniqueid": "w59442366:a92219577", "current_trial": 9, "dateTime": 1693389841113, "trialdata": {"revealed_states": [], "clicked_states": ["2", "26"], "num_clicks_accrued": [0, 0, 0, 0, 0, 0, 0, 0, 0, 0, 0, 0, 0], "stateRewards": ["", 1, -2, 7, -14, 88, -56, -44, -14, 64, -51, -57, -2, 3, -4, -9, -11, 19, -77, -1, 68, 75, -67, -1, 1, -2, 5, -37, 70, -34, -10, -72, 63, -41], "withholdReward": false, "trial_id": "mdp_trial_1", "block": "test", "trialIndex": 2, "score": -35.9, "costs": -1.9, "simulationMode": [null, null, null, null, null], "rewards": [-1, 1, -2, 5, -37], "path": ["0", "0", "23", "24", "25", "26", "27"], "rt": [12136, 591, 514, 607, 2927], "actions": ["left", "left", "left", "up", "up"], "actionTimes": [15688, 16782, 17802, 18930, 22382], "queries": {"click": {"state": {"target": ["2", "26"], "time": [5808, 7570]}, "edge": {"target": [], "time": []}}, "mouseover": {"state": {"target": ["1", "2", "1", "26", "25", "24", "25", "28", "23", "24", "25", "24", "23", "0"], "time": [4876, 4994, 6714, 7177, 8523, 8741, 9190, 9705, 10585, 10704, 10905, 12254, 12290, 12410]}, "edge": {"target": [], "time": []}}, "mouseout": {"state": {"target": ["2", "1", "1", "2", "2", "1", "26", "25", "24", "25", "26", "28", "23", "24", "25", "24", "23", "0", "0", "18", "15", "17", "14", "15", "17"], "time": [2526, 2643, 4927, 6021, 6665, 6730, 8424, 8688, 8855, 9572, 9654, 9737, 10651, 10803, 12220, 12272, 12335, 13504, 27855, 27936, 28003, 28069, 28587, 28787, 28837]}, "edge": {"target": [], "time": []}}}, "displayed_time": "22.89", "trialTime": 32477, "trial_type": "mouselab-mdp", "trial_index": 9, "time_elapsed": 903136, "internal_node_id": "0.0-6.0-1.0-0.0"}}, {"uniqueid": "w59442366:a92219577", "current_trial": 10, "dateTime": 1693389922008, "trialdata": {"revealed_states": [], "clicked_states": ["14", "30", "25", "3", "8", "6"], "num_clicks_accrued": [0, 0, 0, 0, 0, 0, 0, 0, 0, 0, 0, 0, 0], "stateRewards": ["", 1, 3, -2, 15, 51, 15, -19, 11, 67, -45, -73, 2, 4, -2, -13, 36, 9, -28, 10, -30, 31, 16, 1, 2, -1, -16, 14, -22, 36, -1, 88, -5, 45], "withholdReward": false, "trial_id": "mdp_trial_2", "block": "test", "trialIndex": 3, "score": 23.9, "costs": -8.1, "simulationMode": [null, null, null, null, null], "rewards": [1, 3, -2, 15, 15], "path": ["0", "0", "1", "2", "3", "4", "6"], "rt": [16798, 1213, 3680, 1027, 951], "actions": ["up", "up", "up", "right", "right"], "actionTimes": [20565, 22294, 26492, 28042, 29499], "queries": {"click": {"state": {"target": ["14", "30", "25", "3", "8", "6"], "time": [5820, 7753, 9551, 12065, 13225, 15266]}, "edge": {"target": [], "time": []}}, "mouseover": {"state": {"target": ["0", "0", "13", "14", "30", "33", "30", "25", "26", "10", "2", "3", "8", "4", "6", "7", "1", "2", "1"], "time": [4457, 4706, 4938, 5240, 6710, 6778, 7140, 8527, 10691, 10921, 10958, 11472, 12826, 14377, 14673, 16124, 16391, 16707, 18027]}, "edge": {"target": [], "time": []}}, "mouseout": {"state": {"target": ["14", "13", "12", "0", "0", "13", "14", "30", "33", "30", "25", "25", "25", "26", "10", "2", "3", "3", "8", "3", "4", "6", "7", "1", "2", "1", "12", "22", "21", "21"], "time": [2522, 2572, 2622, 4491, 4726, 4988, 6562, 6746, 7078, 7982, 9774, 10427, 10641, 10709, 10957, 11005, 12282, 12694, 13861, 14338, 14488, 16090, 16190, 16657, 17991, 18307, 33287, 33440, 33554, 33937]}, "edge": {"target": [], "time": []}}}, "displayed_time": "30.01", "trialTime": 80725, "trial_type": "mouselab-mdp", "trial_index": 10, "time_elapsed": 984031, "internal_node_id": "0.0-6.0-1.0-1.0"}}, {"uniqueid": "w59442366:a92219577", "current_trial": 11, "dateTime": 1693389965903, "trialdata": {"revealed_states": [], "clicked_states": ["19", "15", "3", "26", "27", "32", "2", "10"], "num_clicks_accrued": [0, 0, 0, 0, 0, 0, 0, 0, 0, 0, 0, 0, 0], "stateRewards": ["", -2, 3, 3, -14, 62, 36, 49, 16, 11, 17, -84, 2, -1, 6, 2, -82, -73, 49, -6, -87, 48, 50, -1, -2, -1, -16, -11, 37, -44, 4, 55, 73, -10], "withholdReward": false, "trial_id": "mdp_trial_3", "block": "test", "trialIndex": 4, "score": 13.600000000000001, "costs": -12.4, "simulationMode": [null, null, null, null, null], "rewards": [-2, 3, 3, -14, 36], "path": ["0", "0", "1", "2", "3", "4", "6"], "rt": [21157, 340, 3206, 1079, 1575], "actions": ["up", "up", "up", "right", "right"], "actionTimes": [25372, 26237, 29950, 31543, 33639], "queries": {"click": {"state": {"target": ["19", "15", "3", "26", "27", "32", "2", "10"], "time": [7026, 8414, 10341, 11995, 13015, 15787, 18860, 20175]}, "edge": {"target": [], "time": []}}, "mouseover": {"state": {"target": ["18", "15", "15", "14", "19", "14", "15", "18", "7", "2", "3", "10", "28", "26", "27", "29", "30", "32", "1", "2", "10", "1", "0"], "time": [5564, 5659, 5793, 6375, 6608, 7679, 7866, 9062, 9212, 9345, 9743, 11198, 11394, 11493, 12557, 14097, 14651, 15398, 17130, 17281, 19696, 22079, 22263]}, "edge": {"target": [], "time": []}}, "mouseout": {"state": {"target": ["20", "21", "21", "19", "22", "12", "0", "18", "15", "15", "14", "19", "14", "15", "18", "7", "2", "3", "10", "28", "26", "27", "27", "29", "30", "32", "1", "2", "10", "2", "1", "0", "0", "12", "22", "20", "21"], "time": [2308, 2559, 2659, 2747, 2791, 3410, 3707, 5626, 5678, 6329, 6526, 7250, 7763, 9046, 9130, 9262, 9396, 11147, 11254, 11429, 12479, 13234, 13781, 14429, 14814, 15996, 17218, 19614, 21113, 21746, 22180, 22912, 35780, 35873, 36296, 36425, 39239]}, "edge": {"target": [], "time": []}}}, "displayed_time": "34.16", "trialTime": 43704, "trial_type": "mouselab-mdp", "trial_index": 11, "time_elapsed": 1027926, "internal_node_id": "0.0-6.0-1.0-2.0"}}, {"uniqueid": "w59442366:a92219577", "current_trial": 12, "dateTime": 1693390003286, "trialdata": {"revealed_states": [], "clicked_states": ["9", "33", "20", "17"], "num_clicks_accrued": [0, 0, 0, 0, 0, 0, 0, 0, 0, 0, 0, 0, 0], "stateRewards": ["", -2, 1, -3, -16, -39, -52, 30, -7, -41, -59, 11, 2, 1, 8, 2, -11, -26, -42, -13, 87, -59, -48, -1, -1, -1, 16, -79, 31, 50, -1, -84, 34, -82], "withholdReward": false, "trial_id": "mdp_trial_4", "block": "test", "trialIndex": 5, "score": -74.6, "costs": -8.6, "simulationMode": [null, null, null, null, null], "rewards": [-1, -1, -1, 16, -79], "path": ["0", "0", "23", "24", "25", "26", "27"], "rt": [19355, 658, 667, 1262, 4942], "actions": ["left", "left", "left", "up", "up"], "actionTimes": [21303, 22476, 23649, 25431, 30895], "queries": {"click": {"state": {"target": ["9", "33", "20", "17"], "time": [4181, 8879, 12657, 16125]}, "edge": {"target": [], "time": []}}, "mouseover": {"state": {"target": ["8", "9", "11", "27", "29", "33", "30", "31", "20", "17", "15", "18", "1"], "time": [3398, 3549, 4769, 4833, 5020, 8252, 10121, 10149, 10781, 13718, 17034, 17121, 17550]}, "edge": {"target": [], "time": []}}, "mouseout": {"state": {"target": ["0", "8", "9", "11", "27", "29", "33", "30", "31", "20", "17", "15", "18", "1", "18", "15"], "time": [3072, 3484, 4751, 4801, 4868, 7865, 10098, 10146, 10165, 13201, 17001, 17052, 17167, 18019, 33048, 33248]}, "edge": {"target": [], "time": []}}}, "displayed_time": "31.42", "trialTime": 37194, "trial_type": "mouselab-mdp", "trial_index": 12, "time_elapsed": 1065310, "internal_node_id": "0.0-6.0-1.0-3.0"}}, {"uniqueid": "w59442366:a92219577", "current_trial": 13, "dateTime": 1693390025346, "trialdata": {"revealed_states": [], "clicked_states": [], "num_clicks_accrued": [0, 0, 0, 0, 0, 0, 0, 0, 0, 0, 0, 0, 0], "stateRewards": ["", -2, -3, 7, -13, 60, 9, 37, -6, 37, 20, 1, 2, -2, -8, 6, -80, -31, -10, -7, 70, -65, -44, -1, 1, 7, 6, -11, 73, -85, 16, -21, 47, 34], "withholdReward": false, "trial_id": "mdp_trial_5", "block": "test", "trialIndex": 6, "score": -80, "costs": 0, "simulationMode": [null, null, null, null, null], "rewards": [2, -2, -8, -7, -65], "path": ["0", "0", "12", "13", "14", "19", "21"], "rt": [6696, 969, 1456, 1252, 2263], "actions": ["right", "right", "right", "down", "down"], "actionTimes": [8346, 9828, 11802, 13574, 16354], "queries": {"click": {"state": {"target": [], "time": []}, "edge": {"target": [], "time": []}}, "mouseover": {"state": {"target": [], "time": []}, "edge": {"target": [], "time": []}}, "mouseout": {"state": {"target": ["21", "0", "0", "18", "15"], "time": [769, 3088, 20836, 21220, 21252]}, "edge": {"target": [], "time": []}}}, "displayed_time": "16.87", "trialTime": 21861, "trial_type": "mouselab-mdp", "trial_index": 13, "time_elapsed": 1087369, "internal_node_id": "0.0-6.0-1.0-4.0"}}, {"uniqueid": "w59442366:a92219577", "current_trial": 14, "dateTime": 1693390050176, "trialdata": {"revealed_states": [], "clicked_states": [], "num_clicks_accrued": [0, 0, 0, 0, 0, 0, 0, 0, 0, 0, 0, 0, 0], "stateRewards": ["", 1, -3, -4, -11, -56, 61, -47, -16, -28, -9, 69, -2, -3, -4, -8, 40, -86, 59, -4, 80, 27, 54, -1, 3, -1, 8, 67, 23, 50, 6, 83, -43, -29], "withholdReward": false, "trial_id": "mdp_trial_6", "block": "test", "trialIndex": 7, "score": 47, "costs": 0, "simulationMode": [null, null, null, null, null], "rewards": [1, -3, -4, -16, 69], "path": ["0", "0", "1", "2", "3", "8", "11"], "rt": [9344, 924, 842, 1063, 1201], "actions": ["up", "up", "up", "left", "left"], "actionTimes": [12800, 14219, 15573, 17158, 18877], "queries": {"click": {"state": {"target": [], "time": []}, "edge": {"target": [], "time": []}}, "mouseover": {"state": {"target": ["1", "10", "8", "9", "9", "8", "10"], "time": [5979, 6090, 6158, 6657, 9645, 10661, 10710]}, "edge": {"target": [], "time": []}}, "mouseout": {"state": {"target": ["20", "13", "12", "1", "10", "8", "9", "9", "8", "10", "0", "12", "20"], "time": [2176, 2341, 2589, 6006, 6105, 6573, 9372, 10658, 10690, 10739, 21340, 21376, 21474]}, "edge": {"target": [], "time": []}}}, "displayed_time": "19.39", "trialTime": 24630, "trial_type": "mouselab-mdp", "trial_index": 14, "time_elapsed": 1112199, "internal_node_id": "0.0-6.0-1.0-5.0"}}, {"uniqueid": "w59442366:a92219577", "current_trial": 15, "dateTime": 1693390071803, "trialdata": {"revealed_states": [], "clicked_states": [], "num_clicks_accrued": [0, 0, 0, 0, 0, 0, 0, 0, 0, 0, 0, 0, 0], "stateRewards": ["", -2, 2, 3, -7, -31, -33, 29, -8, -57, 50, -83, -1, -1, 5, 13, -23, -62, 25, 5, -66, -85, 14, 1, -2, -1, 16, 71, 33, -19, -14, 5, -43, 79], "withholdReward": false, "trial_id": "mdp_trial_7", "block": "test", "trialIndex": 8, "score": -7, "costs": 0, "simulationMode": [null, null, null, null, null], "rewards": [-1, -1, 5, 13, -23], "path": ["0", "0", "12", "13", "14", "15", "16"], "rt": [3278, 700, 2717, 1090, 519], "actions": ["right", "right", "right", "up", "up"], "actionTimes": [5688, 6905, 10135, 11728, 12753], "queries": {"click": {"state": {"target": [], "time": []}, "edge": {"target": [], "time": []}}, "mouseover": {"state": {"target": [], "time": []}, "edge": {"target": [], "time": []}}, "mouseout": {"state": {"target": ["19", "12", "0", "22"], "time": [1336, 1603, 17932, 18065]}, "edge": {"target": [], "time": []}}}, "displayed_time": "16.41", "trialTime": 21422, "trial_type": "mouselab-mdp", "trial_index": 15, "time_elapsed": 1133827, "internal_node_id": "0.0-6.0-1.0-6.0"}}, {"uniqueid": "w59442366:a92219577", "current_trial": 16, "dateTime": 1693390094232, "trialdata": {"revealed_states": [], "clicked_states": [], "num_clicks_accrued": [0, 0, 0, 0, 0, 0, 0, 0, 0, 0, 0, 0, 0], "stateRewards": ["", 2, 3, -6, -5, -3, 55, 40, 11, 61, 11, 51, 2, -4, -6, 9, -25, 29, -15, -6, 7, -77, -2, -2, -4, 1, 14, -43, -1, 56, -12, -54, 41, -74], "withholdReward": false, "trial_id": "mdp_trial_8", "block": "test", "trialIndex": 9, "score": -91, "costs": 0, "simulationMode": [null, null, null, null, null], "rewards": [2, -4, -6, -6, -77], "path": ["0", "0", "12", "13", "14", "19", "21"], "rt": [4162, 653, 537, 672, 291], "actions": ["right", "right", "right", "down", "down"], "actionTimes": [6331, 7490, 8548, 9741, 10560], "queries": {"click": {"state": {"target": [], "time": []}, "edge": {"target": [], "time": []}}, "mouseover": {"state": {"target": ["12", "12"], "time": [4618, 5166]}, "edge": {"target": [], "time": []}}, "mouseout": {"state": {"target": ["20", "19", "23", "0", "12", "12", "12", "13", "14"], "time": [989, 1016, 1433, 4601, 4650, 5282, 17385, 17569, 17635]}, "edge": {"target": [], "time": []}}}, "displayed_time": "16.17", "trialTime": 22204, "trial_type": "mouselab-mdp", "trial_index": 16, "time_elapsed": 1156255, "internal_node_id": "0.0-6.0-1.0-7.0"}}, {"uniqueid": "w59442366:a92219577", "current_trial": 17, "dateTime": 1693390132597, "trialdata": {"revealed_states": [], "clicked_states": ["2", "27", "10", "11"], "num_clicks_accrued": [0, 0, 0, 0, 0, 0, 0, 0, 0, 0, 0, 0, 0], "stateRewards": ["", -2, 1, -7, 9, 8, 25, 61, -7, -17, 69, -81, 1, 4, -4, -11, 16, 67, 44, 3, 6, -45, -54, -2, 3, 6, -11, -15, 32, -47, 3, -39, -6, -88], "withholdReward": false, "trial_id": "mdp_trial_9", "block": "test", "trialIndex": 10, "score": 47.2, "costs": -6.800000000000001, "simulationMode": [null, null, null, null, null], "rewards": [-2, 1, -7, -7, 69], "path": ["0", "0", "1", "2", "3", "8", "10"], "rt": [14678, 497, 5126, 1193, 738], "actions": ["up", "up", "up", "left", "down"], "actionTimes": [17587, 18594, 24225, 25928, 27186], "queries": {"click": {"state": {"target": ["2", "27", "10", "11"], "time": [4536, 6531, 9886, 12859]}, "edge": {"target": [], "time": []}}, "mouseover": {"state": {"target": ["1", "2", "1", "26", "27", "26", "28", "1", "3", "10", "8", "11", "8", "1"], "time": [3925, 4110, 5364, 5959, 6076, 7399, 7447, 7662, 8063, 9313, 10530, 12429, 14065, 14413]}, "edge": {"target": [], "time": []}}, "mouseout": {"state": {"target": ["0", "1", "2", "1", "26", "27", "27", "26", "28", "1", "3", "10", "8", "11", "8", "1", "0", "12", "22"], "time": [3805, 4026, 5296, 5384, 5993, 6751, 7279, 7411, 7480, 7746, 9265, 10480, 12362, 13997, 14146, 14566, 31630, 31747, 32262]}, "edge": {"target": [], "time": []}}}, "displayed_time": "27.70", "trialTime": 38144, "trial_type": "mouselab-mdp", "trial_index": 17, "time_elapsed": 1194620, "internal_node_id": "0.0-6.0-1.0-8.0"}}, {"uniqueid": "w59442366:a92219577", "current_trial": 18, "dateTime": 1693390155647, "trialdata": {"revealed_states": [], "clicked_states": [], "num_clicks_accrued": [0, 0, 0, 0, 0, 0, 0, 0, 0, 0, 0, 0, 0], "stateRewards": ["", 2, -4, -4, 13, -80, 62, 13, -11, 57, -13, -44, 1, 4, 3, -4, -29, -88, 15, 16, -58, 68, -45, -1, -3, -1, -9, -44, -86, -19, -7, -36, 59, 66], "withholdReward": false, "trial_id": "mdp_trial_10", "block": "test", "trialIndex": 11, "score": -48, "costs": 0, "simulationMode": [null, null, null, null, null], "rewards": [-1, -3, -1, -7, -36], "path": ["0", "0", "23", "24", "25", "30", "31"], "rt": [10422, 517, 524, 780, 1473], "actions": ["left", "left", "left", "down", "right"], "actionTimes": [12468, 13506, 14549, 15849, 17842], "queries": {"click": {"state": {"target": [], "time": []}, "edge": {"target": [], "time": []}}, "mouseover": {"state": {"target": ["0", "23", "24", "30", "25", "24", "23", "0"], "time": [6572, 6602, 6649, 7035, 9933, 10451, 10551, 10652]}, "edge": {"target": [], "time": []}}, "mouseout": {"state": {"target": ["0", "0", "23", "24", "30", "25", "24", "23", "0", "0", "12", "13", "14"], "time": [1500, 6582, 6619, 6751, 9884, 10433, 10482, 10600, 10751, 20288, 20351, 20401, 20433]}, "edge": {"target": [], "time": []}}}, "displayed_time": "18.36", "trialTime": 22833, "trial_type": "mouselab-mdp", "trial_index": 18, "time_elapsed": 1217670, "internal_node_id": "0.0-6.0-1.0-9.0"}}, {"uniqueid": "w59442366:a92219577", "current_trial": 19, "dateTime": 1693390177997, "trialdata": {"revealed_states": [], "clicked_states": [], "num_clicks_accrued": [0, 0, 0, 0, 0, 0, 0, 0, 0, 0, 0, 0, 0], "stateRewards": ["", -2, -4, -8, 8, 63, -50, -19, -7, -17, -31, 31, 1, 3, -5, 12, -35, -63, -29, -4, -17, -75, -79, -2, -3, -2, 8, -3, -85, 10, -2, -82, -82, 56], "withholdReward": false, "trial_id": "mdp_trial_11", "block": "test", "trialIndex": 12, "score": -24, "costs": 0, "simulationMode": [null, null, null, null, null], "rewards": [1, 3, -5, 12, -35], "path": ["0", "0", "12", "13", "14", "15", "16"], "rt": [5087, 382, 694, 844, 540], "actions": ["right", "right", "right", "up", "up"], "actionTimes": [6858, 7747, 8950, 10312, 11373], "queries": {"click": {"state": {"target": [], "time": []}, "edge": {"target": [], "time": []}}, "mouseover": {"state": {"target": [], "time": []}, "edge": {"target": [], "time": []}}, "mouseout": {"state": {"target": ["19", "13", "12", "0", "12", "22"], "time": [945, 978, 1062, 17177, 17245, 17327]}, "edge": {"target": [], "time": []}}}, "displayed_time": "15.78", "trialTime": 22130, "trial_type": "mouselab-mdp", "trial_index": 19, "time_elapsed": 1240021, "internal_node_id": "0.0-6.0-1.0-10.0"}}, {"uniqueid": "w59442366:a92219577", "current_trial": 20, "dateTime": 1693390199442, "trialdata": {"revealed_states": [], "clicked_states": [], "num_clicks_accrued": [0, 0, 0, 0, 0, 0, 0, 0, 0, 0, 0, 0, 0], "stateRewards": ["", 1, -4, 6, -3, 40, 76, -51, 5, -24, -63, 44, -2, -2, 8, 1, 76, -85, -58, 10, 59, 20, 11, -2, 3, -3, 3, -82, -10, 54, -7, -57, -6, -32], "withholdReward": false, "trial_id": "mdp_trial_12", "block": "test", "trialIndex": 13, "score": 76, "costs": 0, "simulationMode": [null, null, null, null, null], "rewards": [1, -4, 6, -3, 76], "path": ["0", "0", "1", "2", "3", "4", "6"], "rt": [4784, 681, 1097, 923, 1087], "actions": ["up", "up", "up", "right", "right"], "actionTimes": [6873, 8069, 9686, 11109, 12708], "queries": {"click": {"state": {"target": [], "time": []}, "edge": {"target": [], "time": []}}, "mouseover": {"state": {"target": [], "time": []}, "edge": {"target": [], "time": []}}, "mouseout": {"state": {"target": ["0", "19"], "time": [17750, 18297]}, "edge": {"target": [], "time": []}}}, "displayed_time": "16.10", "trialTime": 21197, "trial_type": "mouselab-mdp", "trial_index": 20, "time_elapsed": 1261466, "internal_node_id": "0.0-6.0-1.0-11.0"}}, {"uniqueid": "w59442366:a92219577", "current_trial": 21, "dateTime": 1693390220472, "trialdata": {"revealed_states": [], "clicked_states": [], "num_clicks_accrued": [0, 0, 0, 0, 0, 0, 0, 0, 0, 0, 0, 0, 0], "stateRewards": ["", 2, 3, 8, 14, 69, -27, 17, 2, -71, -65, -10, 2, -3, 7, 8, 65, -10, 65, -12, 73, -12, 13, -2, -2, 6, 10, -79, -69, -18, 10, -85, 67, 74], "withholdReward": false, "trial_id": "mdp_trial_13", "block": "test", "trialIndex": 14, "score": 79, "costs": 0, "simulationMode": [null, null, null, null, null], "rewards": [2, -3, 7, 8, 65], "path": ["0", "0", "12", "13", "14", "15", "18"], "rt": [4973, 740, 1147, 891, 650], "actions": ["right", "right", "right", "up", "left"], "actionTimes": [6891, 8146, 9835, 11249, 12403], "queries": {"click": {"state": {"target": [], "time": []}, "edge": {"target": [], "time": []}}, "mouseover": {"state": {"target": [], "time": []}, "edge": {"target": [], "time": []}}, "mouseout": {"state": {"target": ["22", "0", "12", "13", "20"], "time": [1082, 17534, 17583, 17670, 17817]}, "edge": {"target": [], "time": []}}}, "displayed_time": "15.93", "trialTime": 20794, "trial_type": "mouselab-mdp", "trial_index": 21, "time_elapsed": 1282495, "internal_node_id": "0.0-6.0-1.0-12.0"}}, {"uniqueid": "w59442366:a92219577", "current_trial": 22, "dateTime": 1693390244132, "trialdata": {"revealed_states": [], "clicked_states": [], "num_clicks_accrued": [0, 0, 0, 0, 0, 0, 0, 0, 0, 0, 0, 0, 0], "stateRewards": ["", 2, -2, 7, -11, -76, -65, -23, 16, -58, 30, 81, 1, 2, 7, 14, 9, 55, -2, 6, 11, -15, 31, -1, -1, -3, 2, 15, 2, 46, 15, 18, 45, -34], "withholdReward": false, "trial_id": "mdp_trial_14", "block": "test", "trialIndex": 15, "score": -27, "costs": 0, "simulationMode": [null, null, null, null, null], "rewards": [2, -2, 7, -11, -23], "path": ["0", "0", "1", "2", "3", "4", "7"], "rt": [5295, 488, 710, 1044, 837], "actions": ["up", "up", "up", "right", "down"], "actionTimes": [8878, 9877, 11101, 12663, 14010], "queries": {"click": {"state": {"target": [], "time": []}, "edge": {"target": [], "time": []}}, "mouseover": {"state": {"target": [], "time": []}, "edge": {"target": [], "time": []}}, "mouseout": {"state": {"target": ["0", "0", "22", "19", "20"], "time": [3017, 20182, 20627, 20666, 20718]}, "edge": {"target": [], "time": []}}}, "displayed_time": "17.58", "trialTime": 23422, "trial_type": "mouselab-mdp", "trial_index": 22, "time_elapsed": 1306155, "internal_node_id": "0.0-6.0-1.0-13.0"}}, {"uniqueid": "w59442366:a92219577", "current_trial": 23, "dateTime": 1693390268630, "trialdata": {"revealed_states": [], "clicked_states": [], "num_clicks_accrued": [0, 0, 0, 0, 0, 0, 0, 0, 0, 0, 0, 0, 0], "stateRewards": ["", -2, 2, -5, -6, 10, -66, -58, -10, -11, -63, -70, -1, -4, -5, 7, 66, -64, -43, -3, 45, -37, 4, -2, -2, -6, -4, -30, 33, 43, 15, -32, -65, -59], "withholdReward": false, "trial_id": "mdp_trial_15", "block": "test", "trialIndex": 16, "score": -67, "costs": 0, "simulationMode": [null, null, null, null, null], "rewards": [-1, -4, -5, 7, -64], "path": ["0", "0", "12", "13", "14", "15", "17"], "rt": [10419, 346, 763, 778, 268], "actions": ["right", "right", "right", "up", "right"], "actionTimes": [14494, 15371, 16668, 17966, 18754], "queries": {"click": {"state": {"target": [], "time": []}, "edge": {"target": [], "time": []}}, "mouseover": {"state": {"target": ["18", "15"], "time": [11398, 12365]}, "edge": {"target": [], "time": []}}, "mouseout": {"state": {"target": ["30", "25", "24", "23", "18", "15", "20", "20"], "time": [1001, 1381, 1433, 1564, 11416, 20814, 21046, 21429]}, "edge": {"target": [], "time": []}}}, "displayed_time": "19.27", "trialTime": 24251, "trial_type": "mouselab-mdp", "trial_index": 23, "time_elapsed": 1330653, "internal_node_id": "0.0-6.0-1.0-14.0"}}, {"uniqueid": "w59442366:a92219577", "current_trial": 24, "dateTime": 1693390289768, "trialdata": {"revealed_states": [], "clicked_states": [], "num_clicks_accrued": [0, 0, 0, 0, 0, 0, 0, 0, 0, 0, 0, 0, 0], "stateRewards": ["", -2, 3, 8, -9, 59, 41, -50, -1, 82, 66, 33, 2, -2, 7, 8, 1, -38, 12, -16, 24, -37, 67, 1, 4, -2, 5, 35, -83, 28, 8, -27, 69, -64], "withholdReward": false, "trial_id": "mdp_trial_16", "block": "test", "trialIndex": 17, "score": 74, "costs": 0, "simulationMode": [null, null, null, null, null], "rewards": [-2, 3, 8, -1, 66], "path": ["0", "0", "1", "2", "3", "8", "10"], "rt": [1862, 50, 343, 1015, 293], "actions": ["up", "up", "up", "left", "down"], "actionTimes": [3499, 4066, 4942, 6473, 7281], "queries": {"click": {"state": {"target": [], "time": []}, "edge": {"target": [], "time": []}}, "mouseover": {"state": {"target": [], "time": []}, "edge": {"target": [], "time": []}}, "mouseout": {"state": {"target": ["21"], "time": [695]}, "edge": {"target": [], "time": []}}}, "displayed_time": "15.64", "trialTime": 20887, "trial_type": "mouselab-mdp", "trial_index": 24, "time_elapsed": 1351791, "internal_node_id": "0.0-6.0-1.0-15.0"}}, {"uniqueid": "w59442366:a92219577", "current_trial": 25, "dateTime": 1693390308461, "trialdata": {"revealed_states": [], "clicked_states": [], "num_clicks_accrued": [0, 0, 0, 0, 0, 0, 0, 0, 0, 0, 0, 0, 0], "stateRewards": ["", -1, -3, -5, -14, -13, -47, 79, 8, -60, -64, 41, -1, 2, 3, 13, -46, 61, -79, -11, -64, -65, 23, 1, -2, 6, -14, 46, 32, 21, 7, 75, -66, 15], "withholdReward": false, "trial_id": "mdp_trial_17", "block": "test", "trialIndex": 18, "score": 23, "costs": 0, "simulationMode": [null, null, null, null, null], "rewards": [1, -2, 6, -14, 32], "path": ["0", "0", "23", "24", "25", "26", "28"], "rt": [1644, 504, 248, 743, 312], "actions": ["left", "left", "left", "up", "right"], "actionTimes": [3287, 4296, 5064, 6323, 7133], "queries": {"click": {"state": {"target": [], "time": []}, "edge": {"target": [], "time": []}}, "mouseover": {"state": {"target": [], "time": []}, "edge": {"target": [], "time": []}}, "mouseout": {"state": {"target": ["0"], "time": [1462]}, "edge": {"target": [], "time": []}}}, "displayed_time": "15.64", "trialTime": 18427, "trial_type": "mouselab-mdp", "trial_index": 25, "time_elapsed": 1370484, "internal_node_id": "0.0-6.0-1.0-16.0"}}, {"uniqueid": "w59442366:a92219577", "current_trial": 26, "dateTime": 1693390328762, "trialdata": {"revealed_states": [], "clicked_states": [], "num_clicks_accrued": [0, 0, 0, 0, 0, 0, 0, 0, 0, 0, 0, 0, 0], "stateRewards": ["", -1, -3, -6, -2, -7, 80, -45, -3, -38, -72, 76, 2, 1, 7, 4, -62, 14, -74, 14, -87, -21, -88, -2, 1, -7, -10, 66, 56, -76, 10, -29, -72, -70], "withholdReward": false, "trial_id": "mdp_trial_18", "block": "test", "trialIndex": 19, "score": -63, "costs": 0, "simulationMode": [null, null, null, null, null], "rewards": [2, 1, 7, 14, -87], "path": ["0", "0", "12", "13", "14", "19", "20"], "rt": [1763, 114, 352, 365, 372], "actions": ["right", "right", "right", "down", "right"], "actionTimes": [4860, 5474, 6343, 7226, 8116], "queries": {"click": {"state": {"target": [], "time": []}, "edge": {"target": [], "time": []}}, "mouseover": {"state": {"target": [], "time": []}, "edge": {"target": [], "time": []}}, "mouseout": {"state": {"target": ["0"], "time": [2935]}, "edge": {"target": [], "time": []}}}, "displayed_time": "17.10", "trialTime": 20050, "trial_type": "mouselab-mdp", "trial_index": 26, "time_elapsed": 1390786, "internal_node_id": "0.0-6.0-1.0-17.0"}}, {"uniqueid": "w59442366:a92219577", "current_trial": 27, "dateTime": 1693390350750, "trialdata": {"revealed_states": [], "clicked_states": [], "num_clicks_accrued": [0, 0, 0, 0, 0, 0, 0, 0, 0, 0, 0, 0, 0], "stateRewards": ["", 1, -3, -1, 9, -34, -40, 22, -7, 45, 53, -11, 2, 4, 5, 15, 21, 37, -49, -3, 80, -28, -34, 1, -3, 1, 1, -40, -6, -5, -16, -85, -86, 59], "withholdReward": false, "trial_id": "mdp_trial_19", "block": "test", "trialIndex": 20, "score": 28, "costs": 0, "simulationMode": [null, null, null, null, null], "rewards": [1, -3, -1, 9, 22], "path": ["0", "0", "1", "2", "3", "4", "7"], "rt": [3320, 347, 1281, 1654, 158], "actions": ["up", "up", "up", "right", "down"], "actionTimes": [8444, 9289, 11088, 13264, 13916], "queries": {"click": {"state": {"target": [], "time": []}, "edge": {"target": [], "time": []}}, "mouseover": {"state": {"target": [], "time": []}, "edge": {"target": [], "time": []}}, "mouseout": {"state": {"target": ["0", "0", "0"], "time": [2161, 2303, 21352]}, "edge": {"target": [], "time": []}}}, "displayed_time": "19.13", "trialTime": 21736, "trial_type": "mouselab-mdp", "trial_index": 27, "time_elapsed": 1412773, "internal_node_id": "0.0-6.0-1.0-18.0"}}, {"uniqueid": "w59442366:a92219577", "current_trial": 28, "dateTime": 1693390373117, "trialdata": {"revealed_states": [], "clicked_states": [], "num_clicks_accrued": [0, 0, 0, 0, 0, 0, 0, 0, 0, 0, 0, 0, 0], "stateRewards": ["", -2, 1, -8, 12, -65, -79, 16, 7, -80, -17, -45, -2, 2, -5, -2, -85, 23, -4, -7, 48, 27, -76, 2, 3, 5, 2, 43, 71, -13, 7, -49, 59, -31], "withholdReward": false, "trial_id": "mdp_trial_20", "block": "test", "trialIndex": 21, "score": -32, "costs": 0, "simulationMode": [null, null, null, null, null], "rewards": [2, 3, 5, 7, -49], "path": ["0", "0", "23", "24", "25", "30", "31"], "rt": [1444, 106, 452, 2029, 257], "actions": ["left", "left", "left", "down", "right"], "actionTimes": [3437, 4048, 5007, 7570, 8332], "queries": {"click": {"state": {"target": [], "time": []}, "edge": {"target": [], "time": []}}, "mouseover": {"state": {"target": [], "time": []}, "edge": {"target": [], "time": []}}, "mouseout": {"state": {"target": [], "time": []}, "edge": {"target": [], "time": []}}}, "displayed_time": "16.00", "trialTime": 22020, "trial_type": "mouselab-mdp", "trial_index": 28, "time_elapsed": 1435141, "internal_node_id": "0.0-6.0-1.0-19.0"}}, {"uniqueid": "w59442366:a92219577", "current_trial": 29, "dateTime": 1693390394830, "trialdata": {"revealed_states": [], "clicked_states": [], "num_clicks_accrued": [0, 0, 0, 0, 0, 0, 0, 0, 0, 0, 0, 0, 0], "stateRewards": ["", 1, -1, 8, 4, 76, -33, -17, -3, -1, -54, -74, -2, 2, -5, 13, -51, 63, 83, 1, 84, 29, -36, 2, -1, 7, -12, -10, -44, -43, -14, 8, -69, 19], "withholdReward": false, "trial_id": "mdp_trial_21", "block": "test", "trialIndex": 22, "score": -48, "costs": 0, "simulationMode": [null, null, null, null, null], "rewards": [2, -1, 7, -12, -44], "path": ["0", "0", "23", "24", "25", "26", "28"], "rt": [1409, 911, 347, 1194, 633], "actions": ["left", "left", "left", "up", "right"], "actionTimes": [2720, 4145, 4998, 6709, 7852], "queries": {"click": {"state": {"target": [], "time": []}, "edge": {"target": [], "time": []}}, "mouseover": {"state": {"target": [], "time": []}, "edge": {"target": [], "time": []}}, "mouseout": {"state": {"target": ["0"], "time": [1136]}, "edge": {"target": [], "time": []}}}, "displayed_time": "15.33", "trialTime": 21440, "trial_type": "mouselab-mdp", "trial_index": 29, "time_elapsed": 1456852, "internal_node_id": "0.0-6.0-1.0-20.0"}}, {"uniqueid": "w59442366:a92219577", "current_trial": 30, "dateTime": 1693390417131, "trialdata": {"revealed_states": [], "clicked_states": [], "num_clicks_accrued": [0, 0, 0, 0, 0, 0, 0, 0, 0, 0, 0, 0, 0], "stateRewards": ["", 1, -1, -7, -7, -22, 15, -13, 13, 26, -32, 38, -1, 1, -7, -4, 16, -62, 86, 12, -54, 56, 64, -2, -1, 6, 14, -57, 37, 62, -6, -25, 50, -70], "withholdReward": false, "trial_id": "mdp_trial_22", "block": "test", "trialIndex": 23, "score": -27, "costs": 0, "simulationMode": [null, null, null, null, null], "rewards": [1, -1, -7, -7, -13], "path": ["0", "0", "1", "2", "3", "4", "7"], "rt": [1271, 366, 178, 702, 328], "actions": ["up", "up", "up", "right", "down"], "actionTimes": [3210, 4085, 4785, 6007, 6849], "queries": {"click": {"state": {"target": [], "time": []}, "edge": {"target": [], "time": []}}, "mouseover": {"state": {"target": [], "time": []}, "edge": {"target": [], "time": []}}, "mouseout": {"state": {"target": ["0", "0"], "time": [1213, 12949]}, "edge": {"target": [], "time": []}}}, "displayed_time": "15.95", "trialTime": 21962, "trial_type": "mouselab-mdp", "trial_index": 30, "time_elapsed": 1479154, "internal_node_id": "0.0-6.0-1.0-21.0"}}, {"uniqueid": "w59442366:a92219577", "current_trial": 31, "dateTime": 1693390435696, "trialdata": {"revealed_states": [], "clicked_states": [], "num_clicks_accrued": [0, 0, 0, 0, 0, 0, 0, 0, 0, 0, 0, 0, 0], "stateRewards": ["", 1, -2, -2, 10, -31, -77, 35, 9, -47, 8, 48, -2, 1, -4, -3, -26, -50, 43, -11, 76, -38, 17, 1, -1, 6, 10, 15, -9, 12, -8, 85, 11, -55], "withholdReward": false, "trial_id": "mdp_trial_23", "block": "test", "trialIndex": 24, "score": 35, "costs": 0, "simulationMode": [null, null, null, null, null], "rewards": [-2, 1, -4, -3, 43], "path": ["0", "0", "12", "13", "14", "15", "18"], "rt": [3006, 309, 365, 1358, 887], "actions": ["right", "right", "right", "up", "left"], "actionTimes": [4476, 5295, 6182, 8061, 9468], "queries": {"click": {"state": {"target": [], "time": []}, "edge": {"target": [], "time": []}}, "mouseover": {"state": {"target": [], "time": []}, "edge": {"target": [], "time": []}}, "mouseout": {"state": {"target": [], "time": []}, "edge": {"target": [], "time": []}}}, "displayed_time": "15.48", "trialTime": 18289, "trial_type": "mouselab-mdp", "trial_index": 31, "time_elapsed": 1497718, "internal_node_id": "0.0-6.0-1.0-22.0"}}, {"uniqueid": "w59442366:a92219577", "current_trial": 32, "dateTime": 1693390454591, "trialdata": {"revealed_states": [], "clicked_states": [], "num_clicks_accrued": [0, 0, 0, 0, 0, 0, 0, 0, 0, 0, 0, 0, 0], "stateRewards": ["", -1, 1, -2, 5, 73, 15, 61, 8, 7, 38, 76, 2, 2, -4, -6, -6, -26, 43, -5, -45, -85, -35, -2, 1, -4, 15, -10, 69, 72, -11, 84, -49, -38], "withholdReward": false, "trial_id": "mdp_trial_24", "block": "test", "trialIndex": 25, "score": 82, "costs": 0, "simulationMode": [null, null, null, null, null], "rewards": [-2, 1, -4, 15, 72], "path": ["0", "0", "23", "24", "25", "26", "29"], "rt": [1323, 274, 414, 661, 676], "actions": ["left", "left", "left", "up", "left"], "actionTimes": [3290, 4064, 4985, 6167, 7344], "queries": {"click": {"state": {"target": [], "time": []}, "edge": {"target": [], "time": []}}, "mouseover": {"state": {"target": [], "time": []}, "edge": {"target": [], "time": []}}, "mouseout": {"state": {"target": [], "time": []}, "edge": {"target": [], "time": []}}}, "displayed_time": "15.97", "trialTime": 18607, "trial_type": "mouselab-mdp", "trial_index": 32, "time_elapsed": 1516614, "internal_node_id": "0.0-6.0-1.0-23.0"}}, {"uniqueid": "w59442366:a92219577", "current_trial": 33, "dateTime": 1693390473024, "trialdata": {"revealed_states": [], "clicked_states": [], "num_clicks_accrued": [0, 0, 0, 0, 0, 0, 0, 0, 0, 0, 0, 0, 0], "stateRewards": ["", -1, 1, -6, -1, 80, 23, 2, -11, 73, -81, 59, 1, 3, 5, -1, -26, 28, -3, 16, -59, -13, -50, -2, -2, 2, 15, -50, 86, 17, -4, 37, 35, 44], "withholdReward": false, "trial_id": "mdp_trial_25", "block": "test", "trialIndex": 26, "score": -5, "costs": 0, "simulationMode": [null, null, null, null, null], "rewards": [-1, 1, -6, -1, 2], "path": ["0", "0", "1", "2", "3", "4", "7"], "rt": [2493, 101, 235, 1438, 552], "actions": ["up", "up", "up", "right", "down"], "actionTimes": [4559, 5185, 5912, 7868, 8931], "queries": {"click": {"state": {"target": [], "time": []}, "edge": {"target": [], "time": []}}, "mouseover": {"state": {"target": [], "time": []}, "edge": {"target": [], "time": []}}, "mouseout": {"state": {"target": [], "time": []}, "edge": {"target": [], "time": []}}}, "displayed_time": "16.07", "trialTime": 18081, "trial_type": "mouselab-mdp", "trial_index": 33, "time_elapsed": 1535046, "internal_node_id": "0.0-6.0-1.0-24.0"}}, {"uniqueid": "w59442366:a92219577", "current_trial": 34, "dateTime": 1693390491375, "trialdata": {"revealed_states": [], "clicked_states": [], "num_clicks_accrued": [0, 0, 0, 0, 0, 0, 0, 0, 0, 0, 0, 0, 0], "stateRewards": ["", -2, -3, 1, -14, 48, -49, 67, -1, -35, -48, 3, -2, 1, -4, -5, 86, -84, 39, 1, 48, 41, -42, -1, -4, 2, -7, 18, -86, 17, 7, -9, 57, -69], "withholdReward": false, "trial_id": "mdp_trial_26", "block": "test", "trialIndex": 27, "score": -53, "costs": 0, "simulationMode": [null, null, null, null, null], "rewards": [-2, -3, 1, -1, -48], "path": ["0", "0", "1", "2", "3", "8", "10"], "rt": [1467, 3, 34, 783, 5], "actions": ["up", "up", "up", "left", "down"], "actionTimes": [2696, 3225, 3787, 5064, 5587], "queries": {"click": {"state": {"target": [], "time": []}, "edge": {"target": [], "time": []}}, "mouseover": {"state": {"target": [], "time": []}, "edge": {"target": [], "time": []}}, "mouseout": {"state": {"target": [], "time": []}, "edge": {"target": [], "time": []}}}, "displayed_time": "15.23", "trialTime": 18043, "trial_type": "mouselab-mdp", "trial_index": 34, "time_elapsed": 1553399, "internal_node_id": "0.0-6.0-1.0-25.0"}}, {"uniqueid": "w59442366:a92219577", "current_trial": 35, "dateTime": 1693390513055, "trialdata": {"revealed_states": [], "clicked_states": [], "num_clicks_accrued": [0, 0, 0, 0, 0, 0, 0, 0, 0, 0, 0, 0, 0], "stateRewards": ["", -1, 3, -7, 16, -32, -74, -48, 2, 10, 15, -30, 1, 1, -2, 10, 12, -83, 67, 13, -66, 47, 65, -2, 4, 2, -14, -8, -57, 24, 9, 65, 12, 46], "withholdReward": false, "trial_id": "mdp_trial_27", "block": "test", "trialIndex": 28, "score": 7, "costs": 0, "simulationMode": [null, null, null, null, null], "rewards": [-1, 3, -7, 2, 10], "path": ["0", "0", "1", "2", "3", "8", "9"], "rt": [1087, 393, 462, 642, 904], "actions": ["up", "up", "up", "left", "up"], "actionTimes": [5881, 6793, 7790, 8954, 10370], "queries": {"click": {"state": {"target": [], "time": []}, "edge": {"target": [], "time": []}}, "mouseover": {"state": {"target": [], "time": []}, "edge": {"target": [], "time": []}}, "mouseout": {"state": {"target": [], "time": []}, "edge": {"target": [], "time": []}}}, "displayed_time": "18.80", "trialTime": 21373, "trial_type": "mouselab-mdp", "trial_index": 35, "time_elapsed": 1575079, "internal_node_id": "0.0-6.0-1.0-26.0"}}, {"uniqueid": "w59442366:a92219577", "current_trial": 36, "dateTime": 1693390532004, "trialdata": {"revealed_states": [], "clicked_states": ["3", "8", "10"], "num_clicks_accrued": [0, 0, 0, 0, 0, 0, 0, 0, 0, 0, 0, 0, 0], "stateRewards": ["", 1, -4, -6, -1, -21, 17, -72, 10, 77, 67, -46, -1, 4, -2, 14, -66, -49, -45, -15, -52, 23, -67, 2, -2, -2, 15, -3, 45, -64, 5, -44, 83, 61], "withholdReward": false, "trial_id": "mdp_trial_28", "block": "test", "trialIndex": 29, "score": 73.35, "costs": -4.65, "simulationMode": [null, null, null, null, null, null], "rewards": [1, -4, -6, 10, 77], "path": ["0", "0", "1", "2", "3", "8", "9"], "rt": [6364, 1834, 273, 468, 859, 1298], "actions": ["up", "up", "up", "up", "left", "up"], "actionTimes": [7400, 9239, 10023, 11003, 12376, 14201], "queries": {"click": {"state": {"target": ["3", "8", "10"], "time": [2870, 4023, 5457]}, "edge": {"target": [], "time": []}}, "mouseover": {"state": {"target": ["1", "2", "3", "8", "10", "2"], "time": [2262, 2312, 2496, 3689, 4985, 6432]}, "edge": {"target": [], "time": []}}, "mouseout": {"state": {"target": ["0", "1", "2", "3", "8", "10", "2"], "time": [2218, 2284, 2378, 3569, 4617, 5672, 6483]}, "edge": {"target": [], "time": []}}}, "displayed_time": "15.03", "trialTime": 18657, "trial_type": "mouselab-mdp", "trial_index": 36, "time_elapsed": 1594027, "internal_node_id": "0.0-6.0-1.0-27.0"}}, {"uniqueid": "w59442366:a92219577", "current_trial": 37, "dateTime": 1693390552019, "trialdata": {"revealed_states": [], "clicked_states": ["15", "28", "27"], "num_clicks_accrued": [0, 0, 0, 0, 0, 0, 0, 0, 0, 0, 0, 0, 0], "stateRewards": ["", -2, 4, -7, -3, -76, 39, -28, 10, 14, 12, 60, 2, -3, 6, -10, 88, -34, -41, -3, 72, -13, -56, 1, 3, 2, 8, -51, 23, -57, 1, 14, -46, -16], "withholdReward": false, "trial_id": "mdp_trial_29", "block": "test", "trialIndex": 30, "score": 31.15, "costs": -5.85, "simulationMode": [null, null, null, null, null, null], "rewards": [1, 3, 2, 8, 23], "path": ["0", "0", "23", "24", "25", "26", "28"], "rt": [8988, 713, 450, 538, 492, 72], "actions": ["left", "left", "left", "left", "up", "right"], "actionTimes": [10823, 11538, 12521, 13575, 14577, 15174], "queries": {"click": {"state": {"target": ["15", "28", "27"], "time": [3499, 5075, 8819]}, "edge": {"target": [], "time": []}}, "mouseover": {"state": {"target": ["18", "15", "13", "12", "0", "23", "28", "26", "27", "0"], "time": [2602, 2689, 4220, 4278, 4375, 4439, 4665, 5717, 8181, 9459]}, "edge": {"target": [], "time": []}}, "mouseout": {"state": {"target": ["18", "15", "13", "12", "0", "23", "28", "26", "27"], "time": [2652, 4155, 4262, 4327, 4389, 4507, 5685, 8102, 9352]}, "edge": {"target": [], "time": []}}}, "displayed_time": "15.84", "trialTime": 19713, "trial_type": "mouselab-mdp", "trial_index": 37, "time_elapsed": 1614043, "internal_node_id": "0.0-6.0-1.0-28.0"}}, {"uniqueid": "w59442366:a92219577", "current_trial": 38, "dateTime": 1693390571490, "trialdata": {"revealed_states": [], "clicked_states": ["3", "4", "7"], "num_clicks_accrued": [0, 0, 0, 0, 0, 0, 0, 0, 0, 0, 0, 0, 0], "stateRewards": ["", -2, 2, 3, -7, 76, 63, 21, 15, 35, -8, -44, 1, 1, -2, -12, 23, 24, 76, -9, 46, 66, -49, -2, -1, 7, 12, 40, -71, -45, -6, 38, -49, 46], "withholdReward": false, "trial_id": "mdp_trial_30", "block": "test", "trialIndex": 31, "score": 12.35, "costs": -4.65, "simulationMode": [null, null, null, null, null], "rewards": [-2, 2, 3, -7, 21], "path": ["0", "0", "1", "2", "3", "4", "7"], "rt": [9986, 321, 317, 690, 44], "actions": ["up", "up", "up", "right", "down"], "actionTimes": [11187, 12022, 12869, 14060, 14627], "queries": {"click": {"state": {"target": ["3", "4", "7"], "time": [2955, 4334, 5937]}, "edge": {"target": [], "time": []}}, "mouseover": {"state": {"target": ["1", "2", "3", "4", "7", "2", "8", "2", "1"], "time": [1797, 2160, 2345, 3732, 5512, 6484, 7116, 8499, 8895]}, "edge": {"target": [], "time": []}}, "mouseout": {"state": {"target": ["0", "1", "2", "3", "4", "7", "2", "8", "2"], "time": [1711, 2062, 2243, 3547, 4861, 6150, 6498, 8432, 8514]}, "edge": {"target": [], "time": []}}}, "displayed_time": "15.21", "trialTime": 19181, "trial_type": "mouselab-mdp", "trial_index": 38, "time_elapsed": 1633514, "internal_node_id": "0.0-6.0-1.0-29.0"}}, {"uniqueid": "w59442366:a92219577", "current_trial": 39, "dateTime": 1693390596522, "trialdata": {"revealed_states": [], "clicked_states": ["14", "13", "12", "19", "22"], "num_clicks_accrued": [0, 0, 0, 0, 0, 0, 0, 0, 0, 0, 0, 0, 0], "stateRewards": ["", -2, 1, -7, -8, -37, -76, -87, 11, 30, -63, 80, -1, 4, 2, -1, 42, 17, 52, -3, -75, -80, -68, 2, -3, -5, -15, -48, 82, 24, -7, 5, -22, -71], "withholdReward": false, "trial_id": "mdp_trial_31", "block": "test", "trialIndex": 32, "score": -77.75, "costs": -4.75, "simulationMode": [null, null, null, null, null], "rewards": [-1, 4, 2, -3, -75], "path": ["0", "0", "12", "13", "14", "19", "20"], "rt": [11483, 145, 212, 717, 644], "actions": ["right", "right", "right", "down", "right"], "actionTimes": [17120, 17780, 18491, 19747, 20908], "queries": {"click": {"state": {"target": ["14", "13", "12", "19", "22"], "time": [7601, 8595, 9734, 11659, 13024]}, "edge": {"target": [], "time": []}}, "mouseover": {"state": {"target": ["12", "14", "13", "12", "19", "22", "20", "21"], "time": [6826, 7075, 8128, 9334, 11093, 12548, 13696, 14662]}, "edge": {"target": [], "time": []}}, "mouseout": {"state": {"target": ["1", "12", "14", "14", "13", "12", "13", "19", "19", "22", "20", "21"], "time": [858, 6845, 7817, 8112, 9280, 10579, 10696, 11880, 12359, 13251, 14595, 15646]}, "edge": {"target": [], "time": []}}}, "displayed_time": "21.43", "trialTime": 24728, "trial_type": "mouselab-mdp", "trial_index": 39, "time_elapsed": 1658545, "internal_node_id": "0.0-6.0-1.0-30.0"}}, {"uniqueid": "w59442366:a92219577", "current_trial": 40, "dateTime": 1693390613638, "trialdata": {"revealed_states": [], "clicked_states": ["27"], "num_clicks_accrued": [0, 0, 0, 0, 0, 0, 0, 0, 0, 0, 0, 0, 0], "stateRewards": ["", -1, 3, -4, -14, 78, 67, 2, 13, -32, 28, 39, -2, 1, -4, -4, -4, -42, -86, 11, 64, -29, -32, -1, -4, 2, -7, 5, 68, -61, 2, -21, 85, 50], "withholdReward": false, "trial_id": "mdp_trial_32", "block": "test", "trialIndex": 33, "score": -7.15, "costs": -2.15, "simulationMode": [null, null, null, null, null], "rewards": [-1, -4, 2, -7, 5], "path": ["0", "0", "23", "24", "25", "26", "27"], "rt": [8129, 268, 271, 169, 38], "actions": ["left", "left", "left", "up", "up"], "actionTimes": [9894, 10675, 11460, 12140, 12693], "queries": {"click": {"state": {"target": ["27"], "time": [4638]}, "edge": {"target": [], "time": []}}, "mouseover": {"state": {"target": ["1", "2", "10", "28", "26", "27", "26"], "time": [3049, 3089, 3486, 3699, 3940, 4268, 5255]}, "edge": {"target": [], "time": []}}, "mouseout": {"state": {"target": ["0", "1", "2", "10", "28", "26", "27", "26"], "time": [3016, 3088, 3152, 3568, 3749, 4183, 5121, 7259]}, "edge": {"target": [], "time": []}}}, "displayed_time": "15.77", "trialTime": 16765, "trial_type": "mouselab-mdp", "trial_index": 40, "time_elapsed": 1675662, "internal_node_id": "0.0-6.0-1.0-31.0"}}, {"uniqueid": "w59442366:a92219577", "current_trial": 41, "dateTime": 1693390632134, "trialdata": {"revealed_states": [], "clicked_states": [], "num_clicks_accrued": [0, 0, 0, 0, 0, 0, 0, 0, 0, 0, 0, 0, 0], "stateRewards": ["", 2, 3, -3, 4, 72, -28, 34, -12, 57, -64, -15, 2, 1, -4, -15, 2, 49, 31, -1, -42, -58, 31, -2, 1, -2, -13, -75, -19, -22, -6, 61, 10, -56], "withholdReward": false, "trial_id": "mdp_trial_33", "block": "test", "trialIndex": 34, "score": 52, "costs": 0, "simulationMode": [null, null, null, null, null], "rewards": [-2, 1, -2, -6, 61], "path": ["0", "0", "23", "24", "25", "30", "31"], "rt": [1663, 897, 130, 371, 180], "actions": ["left", "left", "left", "down", "right"], "actionTimes": [3798, 5250, 5906, 6797, 7489], "queries": {"click": {"state": {"target": [], "time": []}, "edge": {"target": [], "time": []}}, "mouseover": {"state": {"target": [], "time": []}, "edge": {"target": [], "time": []}}, "mouseout": {"state": {"target": ["24", "23"], "time": [1133, 1488]}, "edge": {"target": [], "time": []}}}, "displayed_time": "16.14", "trialTime": 18197, "trial_type": "mouselab-mdp", "trial_index": 41, "time_elapsed": 1694157, "internal_node_id": "0.0-6.0-1.0-32.0"}}, {"uniqueid": "w59442366:a92219577", "current_trial": 42, "dateTime": 1693390653638, "trialdata": {"revealed_states": [], "clicked_states": ["9"], "num_clicks_accrued": [0, 0, 0, 0, 0, 0, 0, 0, 0, 0, 0, 0, 0], "stateRewards": ["", -2, 2, -4, -4, -59, 88, 62, -3, 69, -15, -34, 1, -2, -5, 7, -54, -20, 78, -16, -74, -53, -21, 2, -4, 2, 13, -8, -44, 26, 9, 72, 4, 17], "withholdReward": false, "trial_id": "mdp_trial_34", "block": "test", "trialIndex": 35, "score": 59.85, "costs": -2.15, "simulationMode": [null, null, null, null, null], "rewards": [-2, 2, -4, -3, 69], "path": ["0", "0", "1", "2", "3", "8", "9"], "rt": [6251, 360, 303, 2354, 149], "actions": ["up", "up", "up", "left", "up"], "actionTimes": [7501, 8373, 9207, 12100, 12762], "queries": {"click": {"state": {"target": ["9"], "time": [3002]}, "edge": {"target": [], "time": []}}, "mouseover": {"state": {"target": ["1", "2", "3", "9", "8", "11", "8", "3", "4", "6", "7", "1"], "time": [1957, 2089, 2226, 2543, 3660, 3844, 5193, 5266, 5392, 5530, 6223, 6592]}, "edge": {"target": [], "time": []}}, "mouseout": {"state": {"target": ["0", "1", "2", "3", "9", "8", "11", "8", "3", "4", "6", "7", "1"], "time": [1062, 2055, 2156, 2257, 3629, 3712, 5162, 5227, 5322, 5479, 6139, 6389, 6736]}, "edge": {"target": [], "time": []}}}, "displayed_time": "15.25", "trialTime": 21089, "trial_type": "mouselab-mdp", "trial_index": 42, "time_elapsed": 1715661, "internal_node_id": "0.0-6.0-1.0-33.0"}}, {"uniqueid": "w59442366:a92219577", "current_trial": 43, "dateTime": 1693390672250, "trialdata": {"revealed_states": [], "clicked_states": ["29"], "num_clicks_accrued": [0, 0, 0, 0, 0, 0, 0, 0, 0, 0, 0, 0, 0], "stateRewards": ["", 2, -1, -1, 7, 11, -40, -22, -2, 69, 37, 8, -2, 4, -8, -12, -2, -72, -3, -12, 17, 63, 12, 1, 3, -7, 6, 25, 61, 61, -9, 28, -17, 27], "withholdReward": false, "trial_id": "mdp_trial_35", "block": "test", "trialIndex": 36, "score": 61.85, "costs": -2.15, "simulationMode": [null, null, null, null, null], "rewards": [1, 3, -7, 6, 61], "path": ["0", "0", "23", "24", "25", "26", "29"], "rt": [6366, 141, 842, 856, 373], "actions": ["left", "left", "left", "up", "left"], "actionTimes": [7925, 8593, 9975, 11358, 12255], "queries": {"click": {"state": {"target": ["29"], "time": [2870]}, "edge": {"target": [], "time": []}}, "mouseover": {"state": {"target": ["23", "28", "26", "29", "27", "11", "9", "8"], "time": [2029, 2128, 2196, 2460, 3437, 3470, 3616, 6898]}, "edge": {"target": [], "time": []}}, "mouseout": {"state": {"target": ["0", "23", "28", "26", "29", "27", "11", "9", "8"], "time": [961, 2060, 2147, 2277, 3401, 3454, 3504, 6884, 6928]}, "edge": {"target": [], "time": []}}}, "displayed_time": "15.56", "trialTime": 18239, "trial_type": "mouselab-mdp", "trial_index": 43, "time_elapsed": 1734273, "internal_node_id": "0.0-6.0-1.0-34.0"}}, {"uniqueid": "w59442366:a92219577", "current_trial": 44, "dateTime": 1693390707201, "trialdata": {"revealed_states": [], "clicked_states": ["17", "29", "33"], "num_clicks_accrued": [0, 0, 0, 0, 0, 0, 0, 0, 0, 0, 0, 0, 0], "stateRewards": ["", 1, -4, -6, 11, -20, 8, -30, 1, -38, 88, 42, 2, 3, 5, -12, -8, -74, 30, -8, 67, -19, 42, 2, -1, 4, 13, 50, -68, 2, -8, -15, 87, -46], "withholdReward": false, "trial_id": "mdp_trial_36", "block": "test", "trialIndex": 37, "score": -24.45, "costs": -6.449999999999999, "simulationMode": [null, null, null, null, null], "rewards": [1, -4, -6, 11, -20], "path": ["0", "0", "1", "2", "3", "4", "5"], "rt": [21060, 385, 453, 947, 980], "actions": ["up", "up", "up", "right", "up"], "actionTimes": [24970, 25872, 26836, 28284, 29783], "queries": {"click": {"state": {"target": ["17", "29", "33"], "time": [5676, 10793, 15956]}, "edge": {"target": [], "time": []}}, "mouseover": {"state": {"target": ["12", "13", "17", "13", "12", "23", "24", "26", "29", "33", "31", "22", "20", "20", "19", "22"], "time": [4535, 4630, 5150, 7170, 7420, 9530, 9616, 10082, 10382, 15517, 19665, 19913, 20400, 21586, 23451, 23518]}, "edge": {"target": [], "time": []}}, "mouseout": {"state": {"target": ["0", "0", "12", "13", "17", "13", "12", "23", "24", "26", "29", "33", "31", "22", "20", "20", "19", "22"], "time": [2749, 4499, 4598, 4698, 6636, 7225, 7854, 9569, 9983, 10133, 11735, 19498, 19698, 19963, 20499, 23433, 23500, 23547]}, "edge": {"target": [], "time": []}}}, "displayed_time": "30.29", "trialTime": 34630, "trial_type": "mouselab-mdp", "trial_index": 44, "time_elapsed": 1769224, "internal_node_id": "0.0-6.0-1.0-35.0"}}, {"uniqueid": "w59442366:a92219577", "current_trial": 45, "dateTime": 1693390726967, "trialdata": {"revealed_states": [], "clicked_states": [], "num_clicks_accrued": [0, 0, 0, 0, 0, 0, 0, 0, 0, 0, 0, 0, 0], "stateRewards": ["", 2, -1, -3, 16, -3, -16, -62, -1, 13, -26, 43, -1, 4, 3, -9, -54, -37, -3, -12, -71, -68, -57, 1, -3, 2, -9, 2, -2, -9, -11, 84, -52, 55], "withholdReward": false, "trial_id": "mdp_trial_37", "block": "test", "trialIndex": 38, "score": -77, "costs": 0, "simulationMode": [null, null, null, null, null], "rewards": [-1, 4, 3, -12, -71], "path": ["0", "0", "12", "13", "14", "19", "20"], "rt": [9920, 307, 1842, 61, 1094], "actions": ["right", "right", "right", "down", "right"], "actionTimes": [11514, 12336, 14688, 15271, 16872], "queries": {"click": {"state": {"target": [], "time": []}, "edge": {"target": [], "time": []}}, "mouseover": {"state": {"target": ["1", "2", "8", "9", "9", "5", "6", "5", "4", "7"], "time": [2786, 2895, 3013, 3095, 3661, 4096, 4713, 7246, 9413, 9463]}, "edge": {"target": [], "time": []}}, "mouseout": {"state": {"target": ["0", "1", "2", "8", "9", "9", "5", "6", "5", "4", "7", "1"], "time": [2309, 2834, 2919, 3062, 3197, 4000, 4129, 6961, 9410, 9440, 9487, 19039]}, "edge": {"target": [], "time": []}}}, "displayed_time": "17.39", "trialTime": 19428, "trial_type": "mouselab-mdp", "trial_index": 45, "time_elapsed": 1788990, "internal_node_id": "0.0-6.0-1.0-36.0"}}, {"uniqueid": "w59442366:a92219577", "current_trial": 46, "dateTime": 1693390743426, "trialdata": {"revealed_states": [], "clicked_states": [], "num_clicks_accrued": [0, 0, 0, 0, 0, 0, 0, 0, 0, 0, 0, 0, 0], "stateRewards": ["", 1, -1, 1, -14, -10, 67, -28, -11, 72, 40, -65, -1, 1, 1, -2, 8, -55, 34, -10, 61, 33, -15, 2, -4, 7, 4, -75, 63, -21, -16, 61, 19, 21], "withholdReward": false, "trial_id": "mdp_trial_38", "block": "test", "trialIndex": 39, "score": 72, "costs": 0, "simulationMode": [null, null, null, null, null], "rewards": [2, -4, 7, 4, 63], "path": ["0", "0", "23", "24", "25", "26", "28"], "rt": [1457, 631, 241, 847, 179], "actions": ["left", "left", "left", "up", "right"], "actionTimes": [2806, 3947, 4707, 6062, 6762], "queries": {"click": {"state": {"target": [], "time": []}, "edge": {"target": [], "time": []}}, "mouseover": {"state": {"target": [], "time": []}, "edge": {"target": [], "time": []}}, "mouseout": {"state": {"target": ["1"], "time": [694]}, "edge": {"target": [], "time": []}}}, "displayed_time": "15.35", "trialTime": 16108, "trial_type": "mouselab-mdp", "trial_index": 46, "time_elapsed": 1805450, "internal_node_id": "0.0-6.0-1.0-37.0"}}, {"uniqueid": "w59442366:a92219577", "current_trial": 47, "dateTime": 1693390761001, "trialdata": {"revealed_states": [], "clicked_states": [], "num_clicks_accrued": [0, 0, 0, 0, 0, 0, 0, 0, 0, 0, 0, 0, 0], "stateRewards": ["", -1, 1, 8, -8, -49, 62, -78, 16, 28, -81, 78, -2, -3, -1, -4, 67, 49, -2, -13, -16, -39, 83, 1, -4, 4, -5, -20, 7, 84, 7, -32, -59, 19], "withholdReward": false, "trial_id": "mdp_trial_39", "block": "test", "trialIndex": 40, "score": -57, "costs": 0, "simulationMode": [null, null, null, null, null], "rewards": [-1, 1, 8, 16, -81], "path": ["0", "0", "1", "2", "3", "8", "10"], "rt": [1113, 41, 288, 847, 26], "actions": ["up", "up", "up", "left", "down"], "actionTimes": [2353, 2920, 3715, 5088, 5659], "queries": {"click": {"state": {"target": [], "time": []}, "edge": {"target": [], "time": []}}, "mouseover": {"state": {"target": [], "time": []}, "edge": {"target": [], "time": []}}, "mouseout": {"state": {"target": ["0"], "time": [1046]}, "edge": {"target": [], "time": []}}}, "displayed_time": "15.24", "trialTime": 17225, "trial_type": "mouselab-mdp", "trial_index": 47, "time_elapsed": 1823024, "internal_node_id": "0.0-6.0-1.0-38.0"}}, {"uniqueid": "w59442366:a92219577", "current_trial": 48, "dateTime": 1693390781972, "trialdata": {"revealed_states": [], "clicked_states": ["6", "5", "11"], "num_clicks_accrued": [0, 0, 0, 0, 0, 0, 0, 0, 0, 0, 0, 0, 0], "stateRewards": ["", -1, 1, 3, -8, -23, -15, -14, -11, -23, 58, 68, 1, 3, 5, 12, -17, -41, -7, -10, -4, 82, 10, 1, 4, -4, 11, 73, 55, -55, -1, -86, -86, 54], "withholdReward": false, "trial_id": "mdp_trial_40", "block": "test", "trialIndex": 41, "score": 53.55, "costs": -6.449999999999999, "simulationMode": [null, null, null, null, null], "rewards": [-1, 1, 3, -11, 68], "path": ["0", "0", "1", "2", "3", "8", "11"], "rt": [13430, 462, 226, 480, 80], "actions": ["up", "up", "up", "left", "left"], "actionTimes": [14700, 15661, 16387, 17379, 17977], "queries": {"click": {"state": {"target": ["6", "5", "11"], "time": [2797, 6660, 10288]}, "edge": {"target": [], "time": []}}, "mouseover": {"state": {"target": ["7", "6", "5", "5", "8", "11"], "time": [2005, 2091, 3409, 3959, 7731, 8193]}, "edge": {"target": [], "time": []}}, "mouseout": {"state": {"target": ["0", "7", "6", "5", "5", "5", "8"], "time": [1119, 2038, 3015, 3480, 6859, 7407, 7986]}, "edge": {"target": [], "time": []}}}, "displayed_time": "18.50", "trialTime": 20618, "trial_type": "mouselab-mdp", "trial_index": 48, "time_elapsed": 1843996, "internal_node_id": "0.0-6.0-1.0-39.0"}}, {"uniqueid": "w59442366:a92219577", "current_trial": 49, "dateTime": 1693390879027, "trialdata": {"rt": 97037, "response": {"Q0": "$-2 to $2", "Q1": "$-4 to $4", "Q2": "$-88 to $88", "Q3": "The cost for clicking on nodes varied between nodes.", "Q4": "Very motivated"}, "question_order": [0, 1, 2, 3, 4], "trial_id": "final_quiz_control", "trial_type": "survey-multi-choice", "trial_index": 49, "time_elapsed": 1941050, "internal_node_id": "0.0-6.0-2.0"}}, {"uniqueid": "w59442366:a92219577", "current_trial": 50, "dateTime": 1693391102809, "trialdata": {"rt": 223758, "response": {"Q0": "checked the furthest nodes to see how many points I stand to gain", "Q1": "Yes. I tried to avoid checking nodes a lot as they charge you.", "Q2": "A lot because each round was different.\n"}, "trial_id": "self_report_control", "trial_type": "survey-text", "trial_index": 50, "time_elapsed": 2164832, "internal_node_id": "0.0-6.0-3.0"}}, {"uniqueid": "w59442366:a92219577", "current_trial": 51, "dateTime": 1693391187730, "trialdata": {"rt": 84918, "response": {"Q0": "Agree", "Q1": "Disagree", "Q2": "Disagree", "Q3": "Strongly agree", "Q4": "Agree", "Q5": "Strongly agree", "Q6": "Strongly disagree"}, "question_order": [0, 1, 2, 3, 4, 5, 6], "trial_id": "self_report_2", "trial_type": "survey-multi-choice", "trial_index": 51, "time_elapsed": 2249754, "internal_node_id": "0.0-6.0-4.0"}}, {"uniqueid": "w59442366:a92219577", "current_trial": 52, "dateTime": 1693391236621, "trialdata": {"rt": 48871, "response": {"gender": "female", "age": "27", "colorblind": "0", "effort": "0"}, "trial_type": "survey-html-form", "trial_index": 52, "time_elapsed": 2298645, "internal_node_id": "0.0-6.0-5.0"}}, {"uniqueid": "w59442366:a92219577", "current_trial": 53, "dateTime": 1693391267822, "trialdata": {"rt": 31184, "response": {"Q0": "no", "Q1": "no", "Q2": "none"}, "trial_type": "survey-text", "trial_index": 53, "time_elapsed": 2329846, "internal_node_id": "0.0-6.0-6.0"}}, {"uniqueid": "w59442366:a92219577", "current_trial": 54, "dateTime": 1693391335152, "trialdata": {"rt": 67319, "stimulus": "<h1>Completion Code Instructions (1/2)</h1>\n<br><br><br><br>\nYou have reached the end of the experiment! The completion code consists of two parts: (1) a code with 2 characters (2) a code with 6 characters. On this page, you will receive the second part of the code. The first part of the completion code will be on the next page.\n<br><br>\nThe second part of your completion code is: <b>EWEK22</b>\n<br><br>\nPlease note this down. Then, press 'Finish HIT' in order to find the first part of your completion code. Once the data has been saved, you will receive this code either in this window or in the original browser window where you started the experiment.\n", "response": 0, "trial_type": "html-button-response", "trial_index": 54, "time_elapsed": 2397175, "internal_node_id": "0.0-6.0-7.0"}}, {"uniqueid": "w59442366:a92219577", "current_trial": 55, "dateTime": 1693391336164, "trialdata": {"success": true, "trial_type": "fullscreen", "trial_index": 55, "time_elapsed": 2398187, "internal_node_id": "0.0-7.0"}}], "questiondata": {"params": {"CODE": "C6DMOQA6", "MIN_TIME": 14, "inspectCost": 1, "startTime": "Wed Aug 30 2023 11:48:56 GMT+0200 (South Africa Standard Time)", "bonusRate": 0.002, "variance": "1_2_4_8_44", "branching": "31123"}, "final_score": 25.95}, "eventdata": [{"eventtype": "initialized", "value": null, "timestamp": 1693388935379, "interval": 0}, {"eventtype": "window_resize", "value": [1032, 600], "timestamp": 1693388935379, "interval": 0}, {"eventtype": "window_resize", "value": [1032, 600], "timestamp": 1693388935926, "interval": 547}, {"eventtype": "window_resize", "value": [1280, 720], "timestamp": 1693388945435, "interval": 9509}, {"eventtype": "window_resize", "value": [1032, 600], "timestamp": 1693391335475, "interval": 2390040}], "useragent": "Mozilla/5.0 (Windows NT 10.0; Win64; x64) AppleWebKit/537.36 (KHTML, like Gecko) Chrome/116.0.0.0 Safari/537.36", "mode": "live", "id": "w59442366:a92219577", "status": "user data saved", "Beginhit": "2023-08-30 09:48:54.683379", "Beginexp": "2023-08-30 09:49:10.04319", "Endhit": "2023-08-30 10:29:09.284886", "psiturkStatus": 3, "browser": "<redacted>", "platform": "windows", "language": "en-ZA"}