{"condition": 0, "counterbalance": 0, "assignmentId": "a44246244", "workerId": "w91959996", "hitId": "h20010753", "currenttrial": 15, "bonus": 0, "data": [{"uniqueid": "w91959996:a44246244", "current_trial": 0, "dateTime": 1691160136860, "trialdata": {"success": true, "trial_type": "fullscreen", "trial_index": 0, "time_elapsed": 11494, "internal_node_id": "0.0-0.0"}}, {"uniqueid": "w91959996:a44246244", "current_trial": 1, "dateTime": 1691160155380, "trialdata": {"view_history": [{"page_index": 0, "viewing_time": 18501}], "rt": 18501, "trial_id": "exp_instructions_control", "trial_type": "instructions", "trial_index": 1, "time_elapsed": 30014, "internal_node_id": "0.0-1.0"}}, {"uniqueid": "w91959996:a44246244", "current_trial": 2, "dateTime": 1691160164812, "trialdata": {"success": true, "trial_type": "fullscreen", "trial_index": 2, "time_elapsed": 39445, "internal_node_id": "0.0-2.0-0.0"}}, {"uniqueid": "w91959996:a44246244", "current_trial": 3, "dateTime": 1691160430961, "trialdata": {"view_history": [{"page_index": 0, "viewing_time": 163594}, {"page_index": 1, "viewing_time": 60222}, {"page_index": 2, "viewing_time": 17784}, {"page_index": 3, "viewing_time": 24543}], "rt": 266145, "trial_id": "mouselab_instructions_1_control", "trial_type": "instructions", "trial_index": 3, "time_elapsed": 305594, "internal_node_id": "0.0-2.0-1.0"}}, {"uniqueid": "w91959996:a44246244", "current_trial": 4, "dateTime": 1691160523919, "trialdata": {"revealed_states": [], "clicked_states": ["23", "24", "12", "13", "14"], "num_clicks_accrued": [0, 0, 0, 0, 0, 0, 0, 0, 0, 0, 0, 0, 0], "stateRewards": ["", -10, -10, 10, -10, -10, -10, 10, 10, 10, -10, -10, 10, -10, -10, 10, -10, -10, 10, -10, -10, 10, -10, 10, 10, 10, 10, 10, -10, 10, 10, 10, -10, 10], "withholdReward": false, "trial_id": "practice_1", "block": "test", "trialIndex": 0, "score": -29, "costs": -2.5, "simulationMode": [null, null, null, null, null], "rewards": [-10, -10, 10, -10, -10], "path": ["0", "0", "1", "2", "3", "4", "6"], "rt": [46913, 7617, 485, 3082, 19260], "actions": ["up", "up", "up", "right", "right"], "actionTimes": [54743, 62893, 63913, 67546, 87355], "queries": {"click": {"state": {"target": ["23", "24", "12", "13", "14"], "time": [12659, 15484, 19250, 21368, 23018]}, "edge": {"target": [], "time": []}}, "mouseover": {"state": {"target": ["23", "24", "28", "24", "28", "25", "12", "13", "13", "12", "13", "14", "13", "0", "0", "1", "0", "1", "2", "1", "0"], "time": [11697, 13377, 13788, 14656, 16045, 17443, 18333, 18366, 18635, 18884, 20856, 22018, 26646, 38038, 39852, 40038, 41190, 41842, 43044, 43348, 43597]}, "edge": {"target": [], "time": []}}, "mouseout": {"state": {"target": ["28", "22", "0", "23", "24", "28", "24", "28", "25", "12", "13", "13", "12", "13", "14", "13", "0", "0", "1", "0", "1", "2", "1", "0", "2", "3", "2", "2", "21", "0", "1", "7", "4", "3", "7", "18", "18"], "time": [894, 2456, 5560, 13136, 13738, 14421, 15992, 17166, 18249, 18359, 18387, 18733, 20721, 21615, 26240, 26693, 38064, 39965, 40722, 41220, 42683, 43313, 43463, 43632, 60243, 60357, 61616, 70608, 78937, 80356, 80441, 80557, 81061, 81705, 85246, 87651, 89760]}, "edge": {"target": [], "time": []}}}, "displayed_time": "87.90", "trialTime": 91044, "trial_type": "mouselab-mdp", "trial_index": 4, "time_elapsed": 398552, "internal_node_id": "0.0-2.0-2.0-0.0"}}, {"uniqueid": "w91959996:a44246244", "current_trial": 5, "dateTime": 1691160572464, "trialdata": {"revealed_states": [], "clicked_states": ["1", "2", "3", "4", "5"], "num_clicks_accrued": [0, 0, 0, 0, 0, 0, 0, 0, 0, 0, 0, 0, 0], "stateRewards": ["", -10, 10, 10, -10, -10, -10, 10, 10, -10, 10, -10, -10, 10, 10, 10, -10, -10, 10, -10, -10, -10, 10, 10, -10, -10, 10, -10, -10, -10, 10, -10, -10, 10], "withholdReward": false, "trial_id": "practice_2", "block": "test", "trialIndex": 1, "score": 11, "costs": -2.5, "simulationMode": [null, null, null, null, null], "rewards": [-10, 10, 10, 10, -10], "path": ["0", "0", "12", "13", "14", "15", "16"], "rt": [32765, 363, 357, 1358, 128], "actions": ["right", "right", "right", "up", "up"], "actionTimes": [39362, 40310, 41203, 43097, 43812], "queries": {"click": {"state": {"target": ["1", "2", "3", "4", "5"], "time": [10008, 12717, 15021, 19566, 21373]}, "edge": {"target": [], "time": []}}, "mouseover": {"state": {"target": ["1", "2", "3", "4", "5", "6", "7", "21"], "time": [8819, 11708, 13676, 17623, 20648, 29021, 30690, 31277]}, "edge": {"target": [], "time": []}}, "mouseout": {"state": {"target": ["0", "1", "1", "1", "2", "3", "4", "5", "6", "7", "21"], "time": [4370, 4473, 5140, 10624, 13348, 17407, 20208, 28652, 30655, 30733, 31305]}, "edge": {"target": [], "time": []}}}, "displayed_time": "44.34", "trialTime": 47816, "trial_type": "mouselab-mdp", "trial_index": 5, "time_elapsed": 447097, "internal_node_id": "0.0-2.0-2.0-1.0"}}, {"uniqueid": "w91959996:a44246244", "current_trial": 6, "dateTime": 1691160609497, "trialdata": {"view_history": [{"page_index": 0, "viewing_time": 27077}, {"page_index": 1, "viewing_time": 9944}], "rt": 37022, "trial_id": "mouselab_instructions_2_control", "trial_type": "instructions", "trial_index": 6, "time_elapsed": 484131, "internal_node_id": "0.0-2.0-3.0"}}, {"uniqueid": "w91959996:a44246244", "current_trial": 7, "dateTime": 1691160673602, "trialdata": {"rt": 64095, "response": {"Q0": "The cost for clicking on nodes may vary between nodes.", "Q1": "I will receive a $1 bonus if I perform well, otherwise I will receive no bonus.", "Q2": "No, the amount of cash at each node of the web may be different each time.", "Q3": "To get the highest total score.", "Q4": "Any time during the round.", "Q5": "3 seconds"}, "question_order": [0, 1, 2, 3, 4, 5], "correct": {"Q0": "The cost for clicking on nodes may vary between nodes.", "Q1": "The better I perform the higher my bonus will be.", "Q2": "No, the amount of cash at each node of the web may be different each time.", "Q3": "To get the highest total score.", "Q4": "Only before moving the spider.", "Q5": "3 seconds"}, "trial_id": "mouselab_quiz_control", "trial_type": "survey-multi-choice", "trial_index": 7, "time_elapsed": 548236, "internal_node_id": "0.0-2.0-4.0"}}, {"uniqueid": "w91959996:a44246244", "current_trial": 8, "dateTime": 1691160683136, "trialdata": {"success": true, "trial_type": "fullscreen", "trial_index": 8, "time_elapsed": 557770, "internal_node_id": "0.0-2.1-0.1"}}, {"uniqueid": "w91959996:a44246244", "current_trial": 9, "dateTime": 1691160720534, "trialdata": {"view_history": [{"page_index": 0, "viewing_time": 7930}, {"page_index": 1, "viewing_time": 4776}, {"page_index": 2, "viewing_time": 22780}, {"page_index": 3, "viewing_time": 1908}], "rt": 37394, "trial_id": "mouselab_instructions_1_control", "trial_type": "instructions", "trial_index": 9, "time_elapsed": 595168, "internal_node_id": "0.0-2.1-1.1"}}, {"uniqueid": "w91959996:a44246244", "current_trial": 10, "dateTime": 1691160763129, "trialdata": {"revealed_states": [], "clicked_states": ["1", "2", "3", "4", "5"], "num_clicks_accrued": [0, 0, 0, 0, 0, 0, 0, 0, 0, 0, 0, 0, 0], "stateRewards": ["", -10, -10, 10, -10, -10, -10, 10, 10, 10, -10, -10, 10, -10, -10, 10, -10, -10, 10, -10, -10, 10, -10, 10, 10, 10, 10, 10, -10, 10, 10, 10, -10, 10], "withholdReward": false, "trial_id": "practice_1", "block": "test", "trialIndex": 2, "score": -29, "costs": -2.5, "simulationMode": [null, null, null, null, null], "rewards": [-10, -10, 10, -10, -10], "path": ["0", "0", "1", "2", "3", "4", "5"], "rt": [30911, 203, 1550, 699, 1138], "actions": ["up", "up", "up", "right", "up"], "actionTimes": [33656, 34421, 36498, 37728, 39460], "queries": {"click": {"state": {"target": ["1", "2", "3", "4", "5"], "time": [7919, 10630, 12154, 17369, 19642]}, "edge": {"target": [], "time": []}}, "mouseover": {"state": {"target": ["1", "2", "3", "4", "5", "12"], "time": [6790, 9802, 11397, 15062, 19154, 23752]}, "edge": {"target": [], "time": []}}, "mouseout": {"state": {"target": ["0", "1", "1", "2", "3", "4", "5", "12"], "time": [1723, 8262, 9698, 11117, 14928, 18571, 23433, 23779]}, "edge": {"target": [], "time": []}}}, "displayed_time": "39.99", "trialTime": 41649, "trial_type": "mouselab-mdp", "trial_index": 10, "time_elapsed": 637762, "internal_node_id": "0.0-2.1-2.1-0.1"}}, {"uniqueid": "w91959996:a44246244", "current_trial": 11, "dateTime": 1691160791589, "trialdata": {"revealed_states": [], "clicked_states": ["1", "12"], "num_clicks_accrued": [0, 0, 0, 0, 0, 0, 0, 0, 0, 0, 0, 0, 0], "stateRewards": ["", -10, 10, 10, -10, -10, -10, 10, 10, -10, 10, -10, -10, 10, 10, 10, -10, -10, 10, -10, -10, -10, 10, 10, -10, -10, 10, -10, -10, -10, 10, -10, -10, 10], "withholdReward": false, "trial_id": "practice_2", "block": "test", "trialIndex": 3, "score": -7.5, "costs": -1, "simulationMode": [null, null, null, null, null], "rewards": [-10, 10, 10, -10, -10], "path": ["0", "0", "12", "13", "14", "19", "21"], "rt": [7557, 2710, 704, 8522, 572], "actions": ["right", "right", "right", "down", "down"], "actionTimes": [10203, 13462, 14694, 23812, 24907], "queries": {"click": {"state": {"target": ["1", "12"], "time": [4913, 7986]}, "edge": {"target": [], "time": []}}, "mouseover": {"state": {"target": ["1", "1", "0", "12", "13", "14"], "time": [3307, 4493, 7053, 7467, 9117, 9976]}, "edge": {"target": [], "time": []}}, "mouseout": {"state": {"target": ["0", "0", "1", "1", "1", "0", "12", "12", "13", "14", "14", "13", "22", "19", "14", "15", "16", "15", "19"], "time": [1181, 2676, 3492, 5598, 6984, 7129, 8170, 8925, 9940, 10040, 11329, 15314, 18929, 19164, 19232, 20300, 20785, 20819, 22852]}, "edge": {"target": [], "time": []}}}, "displayed_time": "25.43", "trialTime": 27693, "trial_type": "mouselab-mdp", "trial_index": 11, "time_elapsed": 666222, "internal_node_id": "0.0-2.1-2.1-1.1"}}, {"uniqueid": "w91959996:a44246244", "current_trial": 12, "dateTime": 1691160804982, "trialdata": {"view_history": [{"page_index": 0, "viewing_time": 10722}, {"page_index": 1, "viewing_time": 2663}], "rt": 13386, "trial_id": "mouselab_instructions_2_control", "trial_type": "instructions", "trial_index": 12, "time_elapsed": 679616, "internal_node_id": "0.0-2.1-3.1"}}, {"uniqueid": "w91959996:a44246244", "current_trial": 13, "dateTime": 1691160866409, "trialdata": {"rt": 61416, "response": {"Q0": "There is no cost for clicking on nodes.", "Q1": "I will receive a $1 bonus if I perform well, otherwise I will receive no bonus.", "Q2": "No, the structure of the web will be different each time.", "Q3": "To get the highest total score.", "Q4": "Only before moving the spider.", "Q5": "3 seconds"}, "question_order": [0, 1, 2, 3, 4, 5], "correct": {"Q0": "The cost for clicking on nodes may vary between nodes.", "Q1": "The better I perform the higher my bonus will be.", "Q2": "No, the amount of cash at each node of the web may be different each time.", "Q3": "To get the highest total score.", "Q4": "Only before moving the spider.", "Q5": "3 seconds"}, "trial_id": "mouselab_quiz_control", "trial_type": "survey-multi-choice", "trial_index": 13, "time_elapsed": 741043, "internal_node_id": "0.0-2.1-4.1"}}, {"uniqueid": "w91959996:a44246244", "current_trial": 14, "dateTime": 1691160872796, "trialdata": {"success": true, "trial_type": "fullscreen", "trial_index": 14, "time_elapsed": 747430, "internal_node_id": "0.0-2.2-0.2"}}], "questiondata": {"params": {"CODE": "C6DMOQA6", "MIN_TIME": 14, "inspectCost": 1, "startTime": "Fri Aug 04 2023 16:42:03 GMT+0200 (South Africa Standard Time)", "bonusRate": 0.002, "variance": "1_2_4_8_44", "branching": "31123"}}, "eventdata": [{"eventtype": "initialized", "interval": 0, "timestamp": 1691159928520, "value": null}, {"eventtype": "window_resize", "interval": 1, "timestamp": 1691159928521, "value": [1024, 494]}, {"eventtype": "window_resize", "interval": 529, "timestamp": 1691159929050, "value": [1024, 494]}, {"eventtype": "window_resize", "value": [1024, 654], "timestamp": 1691160123290, "interval": 194240}, {"eventtype": "window_resize", "value": [1366, 768], "timestamp": 1691160136376, "interval": 13086}, {"eventtype": "focus", "value": "off", "timestamp": 1691160679476, "interval": 543100}, {"eventtype": "focus", "value": "on", "timestamp": 1691160679477, "interval": 1}, {"eventtype": "window_resize", "value": [1024, 654], "timestamp": 1691160679694, "interval": 217}, {"eventtype": "window_resize", "value": [1366, 768], "timestamp": 1691160682421, "interval": 2727}, {"eventtype": "focus", "value": "off", "timestamp": 1691160868395, "interval": 185974}, {"eventtype": "focus", "value": "on", "timestamp": 1691160868398, "interval": 3}, {"eventtype": "window_resize", "value": [1024, 654], "timestamp": 1691160868627, "interval": 229}, {"eventtype": "window_resize", "value": [1366, 768], "timestamp": 1691160872093, "interval": 3466}, {"eventtype": "window_resize", "value": [1024, 654], "timestamp": 1691160881588, "interval": 9495}], "useragent": "Mozilla/5.0 (X11; CrOS x86_64 14541.0.0) AppleWebKit/537.36 (KHTML, like Gecko) Chrome/114.0.0.0 Safari/537.36", "mode": "live", "id": "w91959996:a44246244", "status": "user data saved", "Beginhit": "2023-08-04 14:38:47.246594", "Beginexp": "2023-08-04 14:42:17.600497", "Endhit": null, "psiturkStatus": 6, "browser": "<redacted>", "platform": "chromeos", "language": "en-US", "excludeReason": "quizfail"}