{"condition": 1, "counterbalance": 0, "assignmentId": "a28711576", "workerId": "w33481383", "hitId": "h91664041", "currenttrial": 74, "bonus": 0, "data": [{"uniqueid": "w33481383:a28711576", "current_trial": 0, "dateTime": 1691072865399, "trialdata": {"success": true, "trial_type": "fullscreen", "trial_index": 0, "time_elapsed": 32530, "internal_node_id": "0.0-0.0"}}, {"uniqueid": "w33481383:a28711576", "current_trial": 1, "dateTime": 1691072888501, "trialdata": {"view_history": [{"page_index": 0, "viewing_time": 23072}], "rt": 23075, "trial_id": "exp_instructions_misaligned", "trial_type": "instructions", "trial_index": 1, "time_elapsed": 55634, "internal_node_id": "0.0-1.0"}}, {"uniqueid": "w33481383:a28711576", "current_trial": 2, "dateTime": 1691072893211, "trialdata": {"success": true, "trial_type": "fullscreen", "trial_index": 2, "time_elapsed": 60344, "internal_node_id": "0.0-2.0-0.0"}}, {"uniqueid": "w33481383:a28711576", "current_trial": 3, "dateTime": 1691073178498, "trialdata": {"view_history": [{"page_index": 0, "viewing_time": 118849}, {"page_index": 1, "viewing_time": 67172}, {"page_index": 2, "viewing_time": 41084}, {"page_index": 3, "viewing_time": 58170}], "rt": 285277, "trial_id": "mouselab_instructions_1_misaligned", "trial_type": "instructions", "trial_index": 3, "time_elapsed": 345631, "internal_node_id": "0.0-2.0-1.0"}}, {"uniqueid": "w33481383:a28711576", "current_trial": 4, "dateTime": 1691073298748, "trialdata": {"revealed_states": [], "clicked_states": ["13", "15", "17", "14", "19", "22", "21", "1", "2", "10", "28", "26", "24", "31", "30", "12", "7", "6", "4", "3", "8", "9", "25", "33", "32", "29", "27", "23", "20", "16", "18", "5", "11"], "num_clicks_accrued": [0, 0, 0, 0, 0, 0, 0, 0, 0, 0, 0, 0, 0], "stateRewards": ["", 10, -10, -10, 10, -10, -10, -10, -10, 10, 10, -10, -10, 10, 10, -10, 10, -10, 10, 10, -10, 10, 10, 10, -10, 10, -10, -10, -10, 10, -10, 10, -10, 10], "withholdReward": false, "trial_id": "practice_1", "block": "test", "trialIndex": 0, "score": -3, "costs": -16.5, "simulationMode": [null, null, null, null, null], "rewards": [-10, 10, 10, -10, 10], "path": ["0", "0", "12", "13", "14", "15", "18"], "rt": [103091, 1376, 62, 689, 2050], "actions": ["right", "right", "right", "up", "left"], "actionTimes": [106642, 108533, 109114, 110325, 112886], "queries": {"click": {"state": {"target": ["13", "15", "17", "14", "19", "22", "21", "1", "2", "10", "28", "26", "24", "31", "30", "12", "7", "6", "4", "3", "8", "9", "25", "33", "32", "29", "27", "23", "20", "16", "18", "5", "11"], "time": [7176, 9206, 11216, 13665, 15297, 17529, 19116, 21379, 22734, 24111, 25558, 26846, 28462, 30044, 32434, 34610, 38436, 40370, 41603, 42763, 44658, 46458, 53494, 55641, 57767, 59708, 61192, 63086, 67932, 69719, 71236, 73927, 76110]}, "edge": {"target": [], "time": []}}, "mouseover": {"state": {"target": ["12", "13", "15", "17", "19", "14", "19", "22", "21", "1", "2", "10", "28", "26", "24", "31", "30", "12", "1", "7", "6", "4", "3", "8", "9", "10", "2", "28", "25", "33", "32", "25", "26", "29", "27", "23", "0", "12", "13", "20", "16", "18", "5", "5", "11", "2", "18", "0", "1", "12", "13", "18", "12", "0", "17"], "time": [5370, 5790, 8688, 10557, 12536, 13170, 14760, 16635, 18339, 20951, 22327, 23700, 24925, 26369, 27932, 29504, 31699, 33900, 36041, 37581, 39896, 41214, 42260, 44046, 45621, 47544, 49493, 52660, 52927, 55157, 57243, 58761, 58899, 59188, 60687, 62656, 64252, 65797, 66457, 67174, 69172, 70763, 73036, 73470, 75504, 79591, 80152, 82833, 84919, 92698, 96535, 96828, 98907, 99296, 101792]}, "edge": {"target": [], "time": []}}, "mouseout": {"state": {"target": ["0", "12", "13", "15", "17", "19", "14", "19", "22", "21", "1", "2", "10", "28", "28", "26", "24", "31", "30", "12", "1", "7", "6", "4", "3", "8", "9", "10", "2", "28", "25", "33", "32", "25", "26", "29", "27", "23", "0", "12", "13", "20", "16", "18", "5", "5", "11", "2", "18", "0", "1", "12", "13", "18", "12", "0", "17"], "time": [1619, 5753, 8177, 10464, 12272, 13052, 14747, 16487, 18185, 20106, 22269, 22865, 24825, 25706, 26311, 27564, 29441, 31615, 33539, 35738, 37448, 38565, 41109, 42205, 43693, 45489, 47224, 49161, 52567, 52727, 54759, 56976, 58703, 58819, 59061, 60409, 62188, 64182, 65655, 65958, 66558, 68863, 70580, 72923, 73079, 75222, 79485, 79631, 82254, 84162, 92316, 96433, 96642, 98732, 98948, 101752, 101839]}, "edge": {"target": [], "time": []}}}, "displayed_time": "113.42", "trialTime": 118584, "trial_type": "mouselab-mdp", "trial_index": 4, "time_elapsed": 465878, "internal_node_id": "0.0-2.0-2.0-0.0"}}, {"uniqueid": "w33481383:a28711576", "current_trial": 5, "dateTime": 1691073398424, "trialdata": {"revealed_states": [], "clicked_states": ["12", "13", "14", "23", "1", "24", "28", "25", "26", "30", "2", "10", "7", "4", "6", "3", "8", "11", "18", "16", "17", "15", "22", "19", "20", "21", "32", "31", "33", "29", "27", "9", "5"], "num_clicks_accrued": [0, 0, 0, 0, 0, 0, 0, 0, 0, 0, 0, 0, 0], "stateRewards": ["", 10, -10, 10, -10, 10, 10, 10, 10, 10, -10, -10, -10, 10, 10, -10, -10, 10, 10, 10, 10, -10, -10, 10, -10, -10, -10, -10, 10, 10, 10, -10, 10, -10], "withholdReward": false, "trial_id": "practice_2", "block": "test", "trialIndex": 1, "score": -3, "costs": -16.5, "simulationMode": [null, null, null, null, null], "rewards": [-10, 10, 10, 10, -10], "path": ["0", "0", "12", "13", "14", "19", "21"], "rt": [71250, 1809, 1545, 507, 578], "actions": ["right", "right", "right", "down", "down"], "actionTimes": [79528, 81874, 83925, 85015, 86106], "queries": {"click": {"state": {"target": ["12", "13", "14", "23", "1", "24", "28", "25", "26", "30", "2", "10", "7", "4", "6", "3", "8", "11", "18", "16", "17", "15", "22", "19", "20", "21", "32", "31", "33", "29", "27", "9", "5"], "time": [10465, 11696, 13284, 15444, 17516, 19201, 22180, 24120, 26099, 27809, 30276, 32248, 34009, 35447, 36734, 38312, 39529, 40856, 45440, 47911, 49426, 51496, 53164, 54430, 55722, 57326, 60318, 62365, 64990, 66837, 68938, 71794, 73406]}, "edge": {"target": [], "time": []}}, "mouseover": {"state": {"target": ["12", "13", "14", "23", "1", "24", "28", "25", "25", "26", "30", "30", "1", "2", "10", "7", "4", "6", "3", "8", "11", "1", "0", "18", "15", "16", "17", "14", "15", "13", "22", "19", "20", "21", "32", "31", "30", "33", "29", "27", "27", "9", "5"], "time": [9460, 11404, 12755, 14940, 16656, 18595, 21652, 23345, 23636, 25744, 26868, 27248, 28788, 29318, 31635, 33452, 34993, 36379, 37943, 39056, 40394, 42566, 43231, 44582, 46684, 46930, 48862, 50847, 50977, 52225, 52349, 53908, 55151, 56836, 59648, 61627, 64052, 64391, 66184, 68064, 68435, 70960, 72695]}, "edge": {"target": [], "time": []}}, "mouseout": {"state": {"target": ["0", "12", "13", "14", "12", "23", "1", "24", "28", "25", "25", "26", "30", "30", "1", "2", "10", "2", "7", "4", "6", "3", "3", "8", "11", "1", "0", "18", "15", "16", "17", "14", "15", "13", "22", "19", "20", "21", "32", "31", "30", "33", "29", "27", "27", "9", "5", "12"], "time": [6472, 11267, 12595, 14493, 14571, 16450, 18488, 21455, 23313, 23450, 25487, 26808, 26923, 28654, 28849, 31470, 33183, 33310, 34816, 36286, 37463, 38448, 39044, 40194, 42421, 42901, 44302, 46600, 46838, 48675, 50116, 50894, 52129, 52340, 53846, 55139, 56643, 58829, 60460, 63978, 64145, 66054, 68011, 68127, 70827, 72558, 75968, 94887]}, "edge": {"target": [], "time": []}}}, "displayed_time": "86.61", "trialTime": 98719, "trial_type": "mouselab-mdp", "trial_index": 5, "time_elapsed": 565554, "internal_node_id": "0.0-2.0-2.0-1.0"}}, {"uniqueid": "w33481383:a28711576", "current_trial": 6, "dateTime": 1691073446898, "trialdata": {"view_history": [{"page_index": 0, "viewing_time": 38738}, {"page_index": 1, "viewing_time": 9720}], "rt": 48459, "trial_id": "mouselab_instructions_2_misaligned", "trial_type": "instructions", "trial_index": 6, "time_elapsed": 614031, "internal_node_id": "0.0-2.0-3.0"}}, {"uniqueid": "w33481383:a28711576", "current_trial": 7, "dateTime": 1691073521543, "trialdata": {"rt": 74591, "response": {"Q0": "The cost for clicking on nodes may vary between nodes.", "Q1": "The better I perform the higher my bonus will be.", "Q2": "No, the amount of cash at each node of the web may be different each time.", "Q3": "To click on the least number of nodes.", "Q4": "Only before moving the spider.", "Q5": "3 seconds"}, "question_order": [0, 1, 2, 3, 4, 5], "correct": {"Q0": "The cost for clicking on nodes may vary between nodes.", "Q1": "The better I perform the higher my bonus will be.", "Q2": "No, the amount of cash at each node of the web may be different each time.", "Q3": "To get the highest total score.", "Q4": "Only before moving the spider.", "Q5": "3 seconds"}, "trial_id": "mouselab_quiz_misaligned", "trial_type": "survey-multi-choice", "trial_index": 7, "time_elapsed": 688675, "internal_node_id": "0.0-2.0-4.0"}}, {"uniqueid": "w33481383:a28711576", "current_trial": 8, "dateTime": 1691073540678, "trialdata": {"success": true, "trial_type": "fullscreen", "trial_index": 8, "time_elapsed": 707811, "internal_node_id": "0.0-2.1-0.1"}}, {"uniqueid": "w33481383:a28711576", "current_trial": 9, "dateTime": 1691073654427, "trialdata": {"view_history": [{"page_index": 0, "viewing_time": 60287}, {"page_index": 1, "viewing_time": 24739}, {"page_index": 2, "viewing_time": 20621}, {"page_index": 3, "viewing_time": 8087}], "rt": 113735, "trial_id": "mouselab_instructions_1_misaligned", "trial_type": "instructions", "trial_index": 9, "time_elapsed": 821560, "internal_node_id": "0.0-2.1-1.1"}}, {"uniqueid": "w33481383:a28711576", "current_trial": 10, "dateTime": 1691073733857, "trialdata": {"revealed_states": [], "clicked_states": ["12", "13", "15", "14", "19", "22", "21", "20", "17", "18", "16", "1", "2", "10", "7", "4", "3", "11", "9", "5", "6", "8", "27", "29", "28", "26", "25", "33", "30", "32", "31", "24", "23"], "num_clicks_accrued": [0, 0, 0, 0, 0, 0, 0, 0, 0, 0, 0, 0, 0], "stateRewards": ["", 10, -10, -10, 10, -10, -10, -10, -10, 10, 10, -10, -10, 10, 10, -10, 10, -10, 10, 10, -10, 10, 10, 10, -10, 10, -10, -10, -10, 10, -10, 10, -10, 10], "withholdReward": false, "trial_id": "practice_1", "block": "test", "trialIndex": 2, "score": 17, "costs": -16.5, "simulationMode": [null, null, null, null, null], "rewards": [-10, 10, 10, 10, 10], "path": ["0", "0", "12", "13", "14", "19", "21"], "rt": [64169, 173, 14, 1385, 384], "actions": ["right", "right", "right", "down", "down"], "actionTimes": [69899, 70597, 71153, 73058, 73971], "queries": {"click": {"state": {"target": ["12", "13", "15", "14", "19", "22", "21", "20", "17", "18", "16", "1", "2", "10", "7", "4", "3", "11", "9", "5", "6", "8", "27", "29", "28", "26", "25", "33", "30", "32", "31", "24", "23"], "time": [8049, 9571, 13420, 14888, 16046, 17428, 18975, 23480, 25093, 26395, 27765, 29983, 31222, 32383, 33793, 35022, 37503, 39719, 41935, 43382, 44738, 46093, 47538, 49023, 52219, 53435, 54796, 56453, 57591, 58686, 59977, 61393, 62528]}, "edge": {"target": [], "time": []}}, "mouseover": {"state": {"target": ["12", "13", "18", "18", "15", "14", "19", "22", "21", "20", "20", "17", "15", "18", "16", "2", "1", "2", "10", "7", "7", "4", "3", "3", "8", "11", "8", "9", "5", "6", "8", "27", "29", "26", "28", "28", "26", "25", "30", "33", "30", "32", "31", "24", "23", "15"], "time": [7634, 9361, 10082, 12431, 12516, 14471, 15638, 17100, 18345, 22459, 22910, 24361, 25743, 25820, 27192, 28961, 29408, 30683, 31961, 33065, 33384, 34602, 35641, 37012, 38051, 39091, 40237, 41289, 42891, 44178, 45324, 46998, 48543, 49633, 50783, 51754, 52882, 54098, 55576, 55915, 57101, 58304, 59310, 60766, 62087, 65984]}, "edge": {"target": [], "time": []}}, "mouseout": {"state": {"target": ["22", "16", "0", "0", "12", "13", "18", "18", "15", "14", "19", "22", "21", "20", "20", "17", "15", "18", "16", "2", "1", "2", "10", "7", "7", "4", "3", "3", "8", "11", "8", "9", "5", "6", "8", "27", "29", "26", "28", "28", "26", "25", "30", "33", "30", "32", "31", "24", "23", "15"], "time": [1463, 3580, 3648, 7591, 8795, 9934, 12282, 12475, 14414, 15532, 16925, 18142, 22375, 22526, 24260, 25729, 25806, 26906, 28636, 29032, 30584, 31826, 32954, 33149, 34496, 35626, 36660, 37977, 39007, 40159, 41222, 42775, 43961, 44872, 46818, 48234, 49572, 50738, 51021, 52820, 54085, 55475, 55747, 56595, 58157, 58802, 60652, 62074, 65938, 66047]}, "edge": {"target": [], "time": []}}}, "displayed_time": "74.50", "trialTime": 78356, "trial_type": "mouselab-mdp", "trial_index": 10, "time_elapsed": 900989, "internal_node_id": "0.0-2.1-2.1-0.1"}}, {"uniqueid": "w33481383:a28711576", "current_trial": 11, "dateTime": 1691073812404, "trialdata": {"revealed_states": [], "clicked_states": ["23", "24", "25", "30", "33", "32", "31", "28", "26", "29", "27", "1", "2", "3", "4", "5", "6", "7", "8", "9", "10", "11", "12", "13", "14", "19", "21", "22", "20", "15", "17", "18", "16"], "num_clicks_accrued": [0, 0, 0, 0, 0, 0, 0, 0, 0, 0, 0, 0, 0], "stateRewards": ["", 10, -10, 10, -10, 10, 10, 10, 10, 10, -10, -10, -10, 10, 10, -10, -10, 10, 10, 10, 10, -10, -10, 10, -10, -10, -10, -10, 10, 10, 10, -10, 10, -10], "withholdReward": false, "trial_id": "practice_2", "block": "test", "trialIndex": 3, "score": -3, "costs": -16.5, "simulationMode": [null, null, null, null, null], "rewards": [-10, 10, 10, 10, -10], "path": ["0", "0", "12", "13", "14", "19", "21"], "rt": [62073, 357, 468, 759, 481], "actions": ["right", "right", "right", "down", "down"], "actionTimes": [68676, 69568, 70565, 71836, 72829], "queries": {"click": {"state": {"target": ["23", "24", "25", "30", "33", "32", "31", "28", "26", "29", "27", "1", "2", "3", "4", "5", "6", "7", "8", "9", "10", "11", "12", "13", "14", "19", "21", "22", "20", "15", "17", "18", "16"], "time": [8549, 9800, 11016, 12303, 13533, 14811, 15934, 21095, 22415, 23709, 25678, 29304, 30751, 32115, 33398, 34715, 36039, 37255, 38816, 39979, 42136, 43680, 45696, 46897, 48991, 50589, 51848, 54397, 56740, 59473, 63196, 64482, 65890]}, "edge": {"target": [], "time": []}}, "mouseover": {"state": {"target": ["0", "23", "24", "25", "30", "33", "32", "31", "28", "23", "24", "25", "30", "30", "28", "26", "29", "27", "10", "10", "1", "2", "3", "4", "5", "6", "7", "8", "9", "11", "10", "11", "12", "13", "18", "14", "19", "21", "22", "19", "20", "20", "15", "17", "18", "16", "13"], "time": [8005, 8185, 9350, 10476, 11860, 13055, 14284, 15417, 16684, 18434, 19007, 19317, 19564, 20050, 20448, 21795, 23173, 25180, 27300, 27797, 28514, 30201, 31509, 32942, 34055, 35681, 36805, 38313, 39551, 40491, 41444, 42907, 45124, 46433, 47565, 48357, 50027, 51411, 53726, 55490, 55677, 56258, 58837, 62671, 63934, 65340, 66828]}, "edge": {"target": [], "time": []}}, "mouseout": {"state": {"target": ["14", "13", "12", "0", "0", "23", "24", "25", "30", "33", "32", "31", "28", "23", "24", "25", "30", "30", "28", "26", "29", "27", "10", "10", "1", "2", "3", "4", "5", "6", "7", "8", "9", "11", "10", "11", "12", "13", "18", "14", "19", "21", "22", "19", "20", "20", "15", "17", "18", "16", "13", "14"], "time": [4566, 4585, 4617, 5169, 8049, 9149, 10389, 11696, 13000, 14175, 15344, 16069, 17837, 18909, 19099, 19432, 19681, 20082, 21683, 23027, 24851, 27217, 27355, 28417, 29977, 31395, 32850, 33943, 35340, 36520, 37861, 39449, 40476, 41376, 42714, 44439, 45828, 47509, 48140, 49850, 51251, 52032, 55375, 55616, 55884, 57790, 62407, 63668, 65101, 66672, 66885, 76821]}, "edge": {"target": [], "time": []}}}, "displayed_time": "73.34", "trialTime": 77379, "trial_type": "mouselab-mdp", "trial_index": 11, "time_elapsed": 979536, "internal_node_id": "0.0-2.1-2.1-1.1"}}, {"uniqueid": "w33481383:a28711576", "current_trial": 12, "dateTime": 1691073837857, "trialdata": {"view_history": [{"page_index": 0, "viewing_time": 22267}, {"page_index": 1, "viewing_time": 3174}], "rt": 25442, "trial_id": "mouselab_instructions_2_misaligned", "trial_type": "instructions", "trial_index": 12, "time_elapsed": 1004990, "internal_node_id": "0.0-2.1-3.1"}}, {"uniqueid": "w33481383:a28711576", "current_trial": 13, "dateTime": 1691074207955, "trialdata": {"rt": 370088, "response": {"Q0": "The cost for clicking on nodes may vary between nodes.", "Q1": "The better I perform the higher my bonus will be.", "Q2": "Yes.", "Q3": "To get the highest total score.", "Q4": "Only before moving the spider.", "Q5": "3 seconds"}, "question_order": [0, 1, 2, 3, 4, 5], "correct": {"Q0": "The cost for clicking on nodes may vary between nodes.", "Q1": "The better I perform the higher my bonus will be.", "Q2": "No, the amount of cash at each node of the web may be different each time.", "Q3": "To get the highest total score.", "Q4": "Only before moving the spider.", "Q5": "3 seconds"}, "trial_id": "mouselab_quiz_misaligned", "trial_type": "survey-multi-choice", "trial_index": 13, "time_elapsed": 1375088, "internal_node_id": "0.0-2.1-4.1"}}, {"uniqueid": "w33481383:a28711576", "current_trial": 14, "dateTime": 1691074221299, "trialdata": {"success": true, "trial_type": "fullscreen", "trial_index": 14, "time_elapsed": 1388432, "internal_node_id": "0.0-2.2-0.2"}}, {"uniqueid": "w33481383:a28711576", "current_trial": 15, "dateTime": 1691074463326, "trialdata": {"view_history": [{"page_index": 0, "viewing_time": 44682}, {"page_index": 1, "viewing_time": 112669}, {"page_index": 2, "viewing_time": 27913}, {"page_index": 3, "viewing_time": 56754}], "rt": 242021, "trial_id": "mouselab_instructions_1_misaligned", "trial_type": "instructions", "trial_index": 15, "time_elapsed": 1630459, "internal_node_id": "0.0-2.2-1.2"}}, {"uniqueid": "w33481383:a28711576", "current_trial": 16, "dateTime": 1691074545554, "trialdata": {"revealed_states": [], "clicked_states": ["12", "14", "13", "22", "19", "21", "20", "17", "15", "18", "16", "1", "2", "4", "7", "6", "5", "3", "10", "8", "11", "9", "23", "24", "25", "26", "28", "27", "29", "30", "32", "31", "33"], "num_clicks_accrued": [0, 0, 0, 0, 0, 0, 0, 0, 0, 0, 0, 0, 0], "stateRewards": ["", 10, -10, -10, 10, -10, -10, -10, -10, 10, 10, -10, -10, 10, 10, -10, 10, -10, 10, 10, -10, 10, 10, 10, -10, 10, -10, -10, -10, 10, -10, 10, -10, 10], "withholdReward": false, "trial_id": "practice_1", "block": "test", "trialIndex": 4, "score": 17, "costs": -16.5, "simulationMode": [null, null, null, null, null], "rewards": [-10, 10, 10, 10, 10], "path": ["0", "0", "12", "13", "14", "19", "21"], "rt": [65893, 419, 432, 999, 612], "actions": ["right", "right", "right", "down", "down"], "actionTimes": [74412, 75379, 76325, 77854, 78990], "queries": {"click": {"state": {"target": ["12", "14", "13", "22", "19", "21", "20", "17", "15", "18", "16", "1", "2", "4", "7", "6", "5", "3", "10", "8", "11", "9", "23", "24", "25", "26", "28", "27", "29", "30", "32", "31", "33"], "time": [11145, 13115, 15068, 17340, 19935, 21712, 23628, 26160, 27323, 28461, 29672, 31343, 32595, 35364, 36543, 37860, 39063, 40454, 41719, 44618, 47066, 48642, 51331, 52529, 53908, 55185, 56309, 57641, 60102, 61480, 64668, 66105, 67761]}, "edge": {"target": [], "time": []}}, "mouseover": {"state": {"target": ["12", "12", "13", "14", "22", "13", "19", "22", "19", "19", "21", "20", "17", "15", "18", "16", "7", "1", "2", "7", "4", "7", "6", "5", "3", "10", "8", "8", "9", "11", "9", "9", "27", "28", "23", "24", "25", "26", "28", "27", "29", "29", "30", "33", "32", "31", "30", "33", "30", "20", "12", "12"], "time": [10248, 10704, 11828, 12728, 13655, 14517, 15681, 16874, 17956, 19442, 20865, 22968, 25650, 26828, 27966, 29134, 30506, 30849, 32020, 33209, 34798, 36107, 37146, 38496, 39824, 41260, 42380, 44091, 45228, 46508, 47646, 48082, 49637, 50009, 50444, 51992, 53266, 54705, 55952, 57209, 58167, 59644, 61016, 62148, 64056, 65263, 66879, 67080, 69319, 72505, 73020, 73322]}, "edge": {"target": [], "time": []}}, "mouseout": {"state": {"target": ["0", "12", "12", "13", "14", "22", "13", "13", "19", "22", "19", "19", "21", "20", "17", "17", "15", "18", "16", "7", "1", "2", "7", "4", "7", "6", "5", "3", "10", "8", "8", "9", "11", "9", "9", "27", "28", "23", "24", "25", "26", "28", "27", "29", "29", "29", "30", "33", "32", "31", "30", "33", "30", "20", "12"], "time": [10204, 10317, 11763, 12687, 13535, 14473, 15231, 15635, 16736, 17945, 19250, 20702, 22557, 25202, 26294, 26817, 27864, 29029, 29806, 30727, 31960, 33121, 34687, 35847, 36979, 38341, 39626, 41080, 42275, 43813, 44732, 46244, 47202, 47815, 49315, 49959, 50042, 51916, 53164, 54587, 55851, 56889, 58105, 59299, 60233, 60629, 62138, 63941, 65195, 66824, 66981, 69305, 69372, 72566, 73058]}, "edge": {"target": [], "time": []}}}, "displayed_time": "79.54", "trialTime": 81133, "trial_type": "mouselab-mdp", "trial_index": 16, "time_elapsed": 1712684, "internal_node_id": "0.0-2.2-2.2-0.2"}}, {"uniqueid": "w33481383:a28711576", "current_trial": 17, "dateTime": 1691074608401, "trialdata": {"revealed_states": [], "clicked_states": ["12", "14", "13", "22", "19", "21", "20", "15", "17", "16", "18", "1", "2", "7", "4", "6", "5", "3", "8", "9", "10", "11", "27", "29", "26", "28", "24", "25", "30", "33", "31", "32", "23"], "num_clicks_accrued": [0, 0, 0, 0, 0, 0, 0, 0, 0, 0, 0, 0, 0], "stateRewards": ["", 10, -10, 10, -10, 10, 10, 10, 10, 10, -10, -10, -10, 10, 10, -10, -10, 10, 10, 10, 10, -10, -10, 10, -10, -10, -10, -10, 10, 10, 10, -10, 10, -10], "withholdReward": false, "trial_id": "practice_2", "block": "test", "trialIndex": 5, "score": -3, "costs": -16.5, "simulationMode": [null, null, null, null, null], "rewards": [-10, 10, 10, 10, -10], "path": ["0", "0", "12", "13", "14", "19", "21"], "rt": [51697, 305, 367, 385, 363], "actions": ["right", "right", "right", "down", "down"], "actionTimes": [54276, 55126, 56012, 56945, 57825], "queries": {"click": {"state": {"target": ["12", "14", "13", "22", "19", "21", "20", "15", "17", "16", "18", "1", "2", "7", "4", "6", "5", "3", "8", "9", "10", "11", "27", "29", "26", "28", "24", "25", "30", "33", "31", "32", "23"], "time": [6596, 8759, 10176, 11568, 13052, 14199, 15550, 17349, 18530, 19766, 21077, 22639, 23970, 25136, 26448, 27826, 29175, 30469, 31744, 32857, 35024, 36449, 37896, 39126, 40256, 41416, 42866, 44316, 45585, 46839, 48225, 49949, 51935]}, "edge": {"target": [], "time": []}}, "mouseover": {"state": {"target": ["12", "13", "14", "13", "22", "19", "21", "20", "15", "17", "16", "18", "1", "2", "7", "4", "6", "5", "3", "8", "9", "11", "10", "11", "27", "29", "26", "28", "24", "25", "30", "33", "31", "32", "24", "23", "22", "12"], "time": [6202, 7269, 8373, 9401, 10704, 12306, 13728, 14929, 16598, 18133, 19299, 20638, 21749, 23595, 24720, 25827, 27415, 28444, 29929, 31333, 32458, 33490, 34510, 35636, 37141, 38538, 39799, 41029, 42309, 43865, 45104, 46337, 47665, 49368, 50814, 51205, 53307, 53753]}, "edge": {"target": [], "time": []}}, "mouseout": {"state": {"target": ["12", "12", "13", "14", "13", "22", "19", "21", "20", "15", "17", "16", "18", "1", "2", "7", "4", "6", "5", "3", "8", "9", "11", "10", "11", "27", "29", "26", "28", "24", "25", "30", "33", "30", "31", "32", "24", "23", "22", "12", "17"], "time": [1020, 7208, 8316, 9342, 10643, 12276, 13713, 14861, 16436, 18009, 19203, 20294, 21678, 23204, 24658, 25745, 27168, 28337, 29706, 31157, 32209, 33289, 34286, 35534, 37060, 38445, 39754, 40926, 42193, 43635, 44948, 45725, 46970, 47553, 49080, 50683, 51169, 53223, 53593, 59476, 59552]}, "edge": {"target": [], "time": []}}}, "displayed_time": "58.38", "trialTime": 61685, "trial_type": "mouselab-mdp", "trial_index": 17, "time_elapsed": 1775534, "internal_node_id": "0.0-2.2-2.2-1.2"}}, {"uniqueid": "w33481383:a28711576", "current_trial": 18, "dateTime": 1691074620212, "trialdata": {"view_history": [{"page_index": 0, "viewing_time": 9628}, {"page_index": 1, "viewing_time": 2172}], "rt": 11801, "trial_id": "mouselab_instructions_2_misaligned", "trial_type": "instructions", "trial_index": 18, "time_elapsed": 1787345, "internal_node_id": "0.0-2.2-3.2"}}, {"uniqueid": "w33481383:a28711576", "current_trial": 19, "dateTime": 1691074699785, "trialdata": {"rt": 79558, "response": {"Q0": "The cost for clicking on nodes may vary between nodes.", "Q1": "The better I perform the higher my bonus will be.", "Q2": "No, the amount of cash at each node of the web may be different each time.", "Q3": "To get the highest total score.", "Q4": "Only after moving the spider.", "Q5": "3 seconds"}, "question_order": [0, 1, 2, 3, 4, 5], "correct": {"Q0": "The cost for clicking on nodes may vary between nodes.", "Q1": "The better I perform the higher my bonus will be.", "Q2": "No, the amount of cash at each node of the web may be different each time.", "Q3": "To get the highest total score.", "Q4": "Only before moving the spider.", "Q5": "3 seconds"}, "trial_id": "mouselab_quiz_misaligned", "trial_type": "survey-multi-choice", "trial_index": 19, "time_elapsed": 1866918, "internal_node_id": "0.0-2.2-4.2"}}, {"uniqueid": "w33481383:a28711576", "current_trial": 20, "dateTime": 1691074709774, "trialdata": {"success": true, "trial_type": "fullscreen", "trial_index": 20, "time_elapsed": 1876906, "internal_node_id": "0.0-2.3-0.3"}}, {"uniqueid": "w33481383:a28711576", "current_trial": 21, "dateTime": 1691074784630, "trialdata": {"view_history": [{"page_index": 0, "viewing_time": 51355}, {"page_index": 1, "viewing_time": 20484}, {"page_index": 2, "viewing_time": 1525}, {"page_index": 3, "viewing_time": 1485}], "rt": 74851, "trial_id": "mouselab_instructions_1_misaligned", "trial_type": "instructions", "trial_index": 21, "time_elapsed": 1951762, "internal_node_id": "0.0-2.3-1.3"}}, {"uniqueid": "w33481383:a28711576", "current_trial": 22, "dateTime": 1691074854649, "trialdata": {"revealed_states": [], "clicked_states": ["12", "14", "22", "19", "20", "13", "15", "17", "18", "16", "21", "1", "2", "3", "5", "7", "6", "4", "9", "8", "10", "11", "27", "29", "26", "28", "25", "23", "24", "31", "33", "30", "32"], "num_clicks_accrued": [0, 0, 0, 0, 0, 0, 0, 0, 0, 0, 0, 0, 0], "stateRewards": ["", 10, -10, -10, 10, -10, -10, -10, -10, 10, 10, -10, -10, 10, 10, -10, 10, -10, 10, 10, -10, 10, 10, 10, -10, 10, -10, -10, -10, 10, -10, 10, -10, 10], "withholdReward": false, "trial_id": "practice_1", "block": "test", "trialIndex": 6, "score": -23, "costs": -16.5, "simulationMode": [null, null, null, null, null], "rewards": [10, -10, -10, -10, 10], "path": ["0", "0", "1", "2", "3", "8", "9"], "rt": [56839, 645, 201, 1701, 852], "actions": ["up", "up", "up", "left", "up"], "actionTimes": [59620, 60778, 61506, 63701, 65107], "queries": {"click": {"state": {"target": ["12", "14", "22", "19", "20", "13", "15", "17", "18", "16", "21", "1", "2", "3", "5", "7", "6", "4", "9", "8", "10", "11", "27", "29", "26", "28", "25", "23", "24", "31", "33", "30", "32"], "time": [3986, 5714, 7696, 8981, 11384, 13385, 15228, 16662, 18776, 21381, 22636, 24199, 25282, 26350, 28610, 30512, 31853, 32957, 34208, 36154, 38441, 39516, 40715, 41943, 43054, 44156, 45405, 47303, 49366, 50733, 52829, 54894, 57363]}, "edge": {"target": [], "time": []}}, "mouseover": {"state": {"target": ["12", "13", "14", "13", "22", "19", "19", "21", "20", "20", "21", "13", "18", "15", "17", "16", "18", "16", "16", "21", "1", "2", "3", "4", "5", "4", "7", "6", "4", "9", "11", "8", "11", "10", "11", "27", "29", "26", "28", "25", "25", "24", "23", "24", "24", "31", "30", "33", "30", "32", "12"], "time": [3473, 4344, 5369, 6273, 7235, 8070, 8553, 9485, 10354, 10872, 11900, 12919, 13871, 14924, 16151, 17268, 18253, 19304, 20715, 22293, 23343, 24747, 25959, 26979, 28083, 29196, 30057, 31124, 32492, 33831, 34794, 35780, 36648, 37797, 39017, 40195, 41359, 42597, 43713, 44699, 44983, 46037, 46890, 47832, 48945, 50165, 51392, 52273, 53326, 55441, 58530]}, "edge": {"target": [], "time": []}}, "mouseout": {"state": {"target": ["0", "12", "13", "14", "13", "22", "19", "19", "21", "20", "20", "21", "19", "13", "18", "15", "17", "16", "18", "16", "16", "21", "1", "2", "3", "4", "5", "4", "7", "6", "4", "9", "11", "8", "11", "10", "11", "27", "29", "26", "28", "25", "25", "24", "23", "24", "24", "31", "30", "33", "30", "32", "12"], "time": [1373, 4274, 5257, 6237, 7122, 7852, 8129, 9336, 10295, 10545, 11780, 12638, 12694, 13512, 14764, 15697, 17197, 18114, 18933, 20153, 21847, 22766, 24733, 25402, 26918, 28020, 29134, 29999, 31015, 32430, 33474, 34723, 35738, 36638, 37648, 38524, 40086, 41290, 42121, 43576, 44595, 44821, 45916, 46845, 47739, 48709, 50024, 51294, 52226, 53273, 55360, 58258, 66073]}, "edge": {"target": [], "time": []}}}, "displayed_time": "65.61", "trialTime": 68031, "trial_type": "mouselab-mdp", "trial_index": 22, "time_elapsed": 2021781, "internal_node_id": "0.0-2.3-2.3-0.3"}}, {"uniqueid": "w33481383:a28711576", "current_trial": 23, "dateTime": 1691074930478, "trialdata": {"revealed_states": [], "clicked_states": ["1", "3", "2", "8", "10", "9", "11", "4", "5", "6", "7", "12", "13", "14", "15", "18", "16", "17", "19", "21", "22", "20", "23", "24", "25", "30", "33", "32", "31", "28", "27", "26", "29"], "num_clicks_accrued": [0, 0, 0, 0, 0, 0, 0, 0, 0, 0, 0, 0, 0], "stateRewards": ["", 10, -10, 10, -10, 10, 10, 10, 10, 10, -10, -10, -10, 10, 10, -10, -10, 10, 10, 10, 10, -10, -10, 10, -10, -10, -10, -10, 10, 10, 10, -10, 10, -10], "withholdReward": false, "trial_id": "practice_2", "block": "test", "trialIndex": 7, "score": -3, "costs": -16.5, "simulationMode": [null, null, null, null, null], "rewards": [10, -10, 10, 10, -10], "path": ["0", "0", "1", "2", "3", "8", "11"], "rt": [61781, 645, 516, 599, 154], "actions": ["up", "up", "up", "left", "left"], "actionTimes": [65686, 66864, 67913, 69048, 69736], "queries": {"click": {"state": {"target": ["1", "3", "2", "8", "10", "9", "11", "4", "5", "6", "7", "12", "13", "14", "15", "18", "16", "17", "19", "21", "22", "20", "23", "24", "25", "30", "33", "32", "31", "28", "27", "26", "29"], "time": [7487, 9502, 11103, 14204, 15436, 17899, 19097, 20586, 22594, 24170, 25358, 26721, 28234, 29675, 30878, 33130, 34477, 35692, 36994, 39588, 41057, 42681, 44073, 46419, 48561, 49747, 51016, 52194, 53508, 54772, 56957, 58960, 61521]}, "edge": {"target": [], "time": []}}, "mouseover": {"state": {"target": ["1", "2", "3", "2", "8", "10", "11", "9", "9", "11", "4", "5", "6", "6", "7", "12", "13", "14", "15", "18", "16", "17", "19", "22", "21", "22", "19", "20", "24", "23", "24", "24", "25", "30", "33", "32", "31", "28", "26", "27", "29", "26", "29", "29"], "time": [6955, 8125, 9122, 10286, 13297, 14991, 16277, 16978, 17389, 18673, 20148, 21174, 23395, 23692, 24898, 26270, 27337, 28943, 30353, 31573, 33702, 35205, 36504, 37512, 38610, 40538, 41708, 42092, 43314, 43717, 44655, 45933, 46995, 49193, 50526, 51686, 52749, 54195, 55484, 56404, 57508, 58579, 59595, 61027]}, "edge": {"target": [], "time": []}}, "mouseout": {"state": {"target": ["0", "1", "2", "3", "2", "2", "8", "10", "11", "9", "9", "11", "4", "5", "6", "6", "7", "12", "13", "14", "15", "18", "16", "17", "19", "22", "21", "22", "19", "20", "24", "23", "23", "24", "24", "25", "30", "33", "32", "31", "28", "26", "27", "29", "26", "29", "29", "22"], "time": [2104, 7982, 9042, 10190, 11180, 13039, 14980, 15608, 16923, 17093, 18473, 19250, 21112, 23312, 23461, 24714, 25943, 27308, 28844, 30291, 31457, 33615, 35019, 36272, 37419, 38528, 40370, 41630, 41984, 43154, 43672, 44207, 44641, 45813, 46932, 49137, 50388, 51543, 52661, 54012, 55353, 56346, 57351, 58429, 59524, 60717, 62027, 71108]}, "edge": {"target": [], "time": []}}}, "displayed_time": "70.25", "trialTime": 74365, "trial_type": "mouselab-mdp", "trial_index": 23, "time_elapsed": 2097610, "internal_node_id": "0.0-2.3-2.3-1.3"}}, {"uniqueid": "w33481383:a28711576", "current_trial": 24, "dateTime": 1691074975890, "trialdata": {"view_history": [{"page_index": 0, "viewing_time": 43253}, {"page_index": 1, "viewing_time": 2146}], "rt": 45400, "trial_id": "mouselab_instructions_2_misaligned", "trial_type": "instructions", "trial_index": 24, "time_elapsed": 2143023, "internal_node_id": "0.0-2.3-3.3"}}, {"uniqueid": "w33481383:a28711576", "current_trial": 25, "dateTime": 1691075127267, "trialdata": {"rt": 151361, "response": {"Q0": "The cost for clicking on nodes may vary between nodes.", "Q1": "The better I perform the higher my bonus will be.", "Q2": "No, the amount of cash at each node of the web may be different each time.", "Q3": "To get the highest total score.", "Q4": "Only before moving the spider.", "Q5": "3 seconds"}, "question_order": [0, 1, 2, 3, 4, 5], "correct": {"Q0": "The cost for clicking on nodes may vary between nodes.", "Q1": "The better I perform the higher my bonus will be.", "Q2": "No, the amount of cash at each node of the web may be different each time.", "Q3": "To get the highest total score.", "Q4": "Only before moving the spider.", "Q5": "3 seconds"}, "trial_id": "mouselab_quiz_misaligned", "trial_type": "survey-multi-choice", "trial_index": 25, "time_elapsed": 2294400, "internal_node_id": "0.0-2.3-4.3"}}, {"uniqueid": "w33481383:a28711576", "current_trial": 26, "dateTime": 1691075165354, "trialdata": {"rt": 38023, "stimulus": "\n<h1> Get ready to start the game! </h1>\n\nThank you for reading the instructions. Get ready start with the 40 rounds of this game.\n<br><br>\nIf you need to take a break, feel free to take one after the end of a round, before continuing to the next one.\n<br><br>\nRemember, the more money the spider gets, the bigger your bonus will be!\n<br><br>\n<div style='text-align: center;'>Press <code>space</code> to begin.</div>\n\n<br><br>\n(If, at any point, the <code>space</code> key does not take you to the next page, click once on the text and try again.)", "response": " ", "trial_id": "mdp_ready", "trial_type": "html-keyboard-response", "trial_index": 26, "time_elapsed": 2332487, "internal_node_id": "0.0-4.0-0.0"}}, {"uniqueid": "w33481383:a28711576", "current_trial": 27, "dateTime": 1691075262837, "trialdata": {"revealed_states": [], "clicked_states": ["12", "13", "14", "22", "19", "20", "21", "18", "15", "17", "16", "1", "2", "7", "4", "3", "5", "6", "9", "11", "8", "10", "27", "26", "29", "25", "24", "28", "23", "31", "33", "32", "30"], "num_clicks_accrued": [0, 0, 0, 0, 0, 0, 0, 0, 0, 0, 0, 0, 0], "stateRewards": ["", -1, 3, 2, 9, 41, 4, -46, -12, -54, -87, -25, 2, 3, -1, 11, -77, 12, -33, -9, -32, 35, 72, 1, 3, -7, 4, 37, 65, -73, 6, 77, -43, 8], "withholdReward": false, "trial_id": "mdp_trial_1", "block": "test", "trialIndex": 8, "score": -113.14999999999998, "costs": -51.149999999999984, "simulationMode": [null, null, null, null, null], "rewards": [2, 3, -1, 11, -77], "path": ["0", "0", "12", "13", "14", "15", "16"], "rt": [84708, 42, 320, 945, 384], "actions": ["right", "right", "right", "up", "up"], "actionTimes": [88322, 88896, 89742, 91249, 92158], "queries": {"click": {"state": {"target": ["12", "13", "14", "22", "19", "20", "21", "18", "15", "17", "16", "1", "2", "7", "4", "3", "5", "6", "9", "11", "8", "10", "27", "26", "29", "25", "24", "28", "23", "31", "33", "32", "30"], "time": [5827, 7311, 9267, 10906, 13969, 15631, 18958, 22455, 25604, 26903, 30652, 33617, 35343, 36501, 40494, 41693, 43042, 46002, 49049, 52648, 55759, 57466, 60551, 63445, 64856, 68384, 70162, 71353, 74199, 75456, 79291, 82519, 86056]}, "edge": {"target": [], "time": []}}, "mouseover": {"state": {"target": ["12", "13", "14", "22", "19", "20", "21", "1", "1", "18", "15", "17", "16", "7", "1", "2", "7", "3", "4", "3", "5", "6", "4", "3", "8", "9", "8", "11", "8", "10", "27", "26", "29", "25", "24", "28", "23", "31", "30", "33", "30", "30", "32", "30"], "time": [5168, 6913, 8414, 10384, 11634, 15127, 16595, 19759, 20272, 21725, 23176, 26376, 28406, 31838, 33121, 34957, 36042, 37276, 40049, 41196, 42434, 43736, 46575, 46726, 46930, 48513, 49592, 50900, 53265, 56446, 58817, 61360, 64321, 65757, 69249, 70784, 72549, 74958, 76140, 78835, 79968, 80524, 82014, 83526]}, "edge": {"target": [], "time": []}}, "mouseout": {"state": {"target": ["0", "12", "13", "14", "22", "22", "19", "20", "21", "1", "1", "18", "15", "17", "16", "7", "1", "2", "7", "3", "4", "3", "5", "6", "4", "3", "8", "9", "8", "11", "8", "10", "27", "26", "26", "29", "25", "24", "28", "23", "31", "30", "33", "30", "30", "32", "30", "15"], "time": [5053, 6645, 8400, 10194, 11035, 11573, 14931, 16397, 19679, 19827, 21612, 23065, 26362, 28211, 31497, 32561, 34601, 35486, 37076, 39912, 41082, 42334, 43673, 46561, 46714, 46790, 48399, 49581, 50751, 53204, 56363, 58318, 61222, 63631, 64238, 65665, 69184, 70770, 72458, 74791, 76063, 78660, 79957, 80060, 81865, 83323, 86942, 94063]}, "edge": {"target": [], "time": []}}}, "displayed_time": "92.67", "trialTime": 96116, "trial_type": "mouselab-mdp", "trial_index": 27, "time_elapsed": 2429969, "internal_node_id": "0.0-4.0-1.0-0.0"}}, {"uniqueid": "w33481383:a28711576", "current_trial": 28, "dateTime": 1691075325663, "trialdata": {"revealed_states": [], "clicked_states": ["12", "13", "14", "15", "18", "16", "17", "22", "21", "19", "20", "23"], "num_clicks_accrued": [0, 0, 0, 0, 0, 0, 0, 0, 0, 0, 0, 0, 0], "stateRewards": ["", 2, 4, -5, 7, 81, 35, 6, 11, 14, -72, 42, -1, 2, 3, -7, -77, -44, -40, -15, -85, 51, -32, -2, -1, -5, 7, -74, 47, 52, 16, -49, 48, -46], "withholdReward": false, "trial_id": "mdp_trial_2", "block": "test", "trialIndex": 9, "score": 9.2, "costs": -16.8, "simulationMode": [null, null, null, null, null], "rewards": [2, 4, -5, 11, 14], "path": ["0", "0", "1", "2", "3", "8", "9"], "rt": [38668, 4954, 3120, 367, 376], "actions": ["up", "up", "up", "left", "up"], "actionTimes": [46936, 52416, 56046, 56927, 57835], "queries": {"click": {"state": {"target": ["12", "13", "14", "15", "18", "16", "17", "22", "21", "19", "20", "23"], "time": [10365, 11865, 13389, 14802, 15889, 20463, 25143, 28468, 31390, 34320, 35461, 38702]}, "edge": {"target": [], "time": []}}, "mouseover": {"state": {"target": ["0", "12", "13", "14", "15", "18", "16", "17", "19", "22", "19", "21", "20", "19", "20", "0", "23", "24", "25"], "time": [8319, 9733, 11373, 12922, 14412, 15497, 16514, 21212, 25800, 27933, 29278, 30810, 32112, 34056, 35103, 36173, 36798, 39398, 41412]}, "edge": {"target": [], "time": []}}, "mouseout": {"state": {"target": ["19", "0", "12", "13", "14", "15", "18", "16", "17", "19", "22", "19", "21", "20", "19", "20", "0", "23", "24", "25"], "time": [5796, 9461, 11203, 12804, 14197, 15411, 16421, 21150, 25737, 27692, 29109, 30797, 32048, 33934, 35036, 36109, 36240, 39383, 41329, 43690]}, "edge": {"target": [], "time": []}}}, "displayed_time": "58.38", "trialTime": 61481, "trial_type": "mouselab-mdp", "trial_index": 28, "time_elapsed": 2492795, "internal_node_id": "0.0-4.0-1.0-1.0"}}, {"uniqueid": "w33481383:a28711576", "current_trial": 29, "dateTime": 1691075399487, "trialdata": {"revealed_states": [], "clicked_states": ["12", "13", "14", "19", "22", "20", "18", "2", "1", "10", "8", "11", "9", "4", "3", "7", "6", "16", "15", "17"], "num_clicks_accrued": [0, 0, 0, 0, 0, 0, 0, 0, 0, 0, 0, 0, 0], "stateRewards": ["", 2, -1, -4, -13, 74, 77, 3, 2, -43, -2, -11, 2, 3, 7, 11, -26, -29, -33, -3, -3, -13, -3, 1, 3, -7, 14, -59, 33, 9, -5, 34, 79, 68], "withholdReward": false, "trial_id": "mdp_trial_3", "block": "test", "trialIndex": 10, "score": -77.8, "costs": -29.799999999999997, "simulationMode": [null, null, null, null, null], "rewards": [1, 3, -7, 14, -59], "path": ["0", "0", "23", "24", "25", "26", "27"], "rt": [58436, 593, 1756, 712, 358], "actions": ["left", "left", "left", "up", "up"], "actionTimes": [64276, 65403, 67680, 68903, 69814], "queries": {"click": {"state": {"target": ["12", "13", "14", "19", "22", "20", "18", "2", "1", "10", "8", "11", "9", "4", "3", "7", "6", "16", "15", "17"], "time": [7545, 8608, 9805, 10999, 13598, 18293, 22156, 25736, 26751, 28257, 31105, 32367, 36252, 40355, 41561, 42856, 45700, 49303, 52387, 54419]}, "edge": {"target": [], "time": []}}, "mouseover": {"state": {"target": ["12", "13", "14", "19", "22", "21", "20", "14", "15", "18", "15", "16", "2", "1", "10", "8", "11", "9", "5", "4", "3", "7", "6", "18", "16", "15", "17", "14", "21", "24", "23"], "time": [6834, 8284, 9356, 10558, 11671, 14309, 17213, 19213, 20111, 21710, 23187, 23639, 25246, 26368, 27639, 29127, 31944, 35507, 37350, 39941, 41197, 42271, 43698, 46805, 48703, 49996, 53716, 55417, 56214, 59818, 60308]}, "edge": {"target": [], "time": []}}, "mouseout": {"state": {"target": ["0", "12", "13", "14", "19", "22", "21", "20", "14", "15", "18", "15", "16", "2", "1", "10", "8", "11", "9", "5", "4", "3", "7", "6", "18", "16", "15", "17", "14", "21", "24", "23"], "time": [6718, 8154, 9226, 10517, 11587, 14242, 17034, 19036, 19291, 21529, 23120, 23278, 24819, 26306, 26896, 28400, 31792, 35441, 37287, 39841, 41086, 42203, 43517, 46391, 48589, 49915, 53655, 55345, 56099, 59634, 60200, 62017]}, "edge": {"target": [], "time": []}}}, "displayed_time": "70.38", "trialTime": 72472, "trial_type": "mouselab-mdp", "trial_index": 29, "time_elapsed": 2566619, "internal_node_id": "0.0-4.0-1.0-2.0"}}, {"uniqueid": "w33481383:a28711576", "current_trial": 30, "dateTime": 1691075463210, "trialdata": {"revealed_states": [], "clicked_states": ["23", "24", "25", "26", "28", "27", "29", "30", "33", "32", "31", "12", "13", "14", "19", "22", "20", "21", "15"], "num_clicks_accrued": [0, 0, 0, 0, 0, 0, 0, 0, 0, 0, 0, 0, 0], "stateRewards": ["", 1, -4, -6, 11, -20, 8, -30, 1, -38, 88, 42, 2, 3, 5, -12, -8, -74, 30, -8, 67, -19, 42, 2, -1, 4, 13, 50, -68, 2, -8, -15, 87, -46], "withholdReward": false, "trial_id": "mdp_trial_4", "block": "test", "trialIndex": 11, "score": -55.65, "costs": -27.65, "simulationMode": [null, null, null, null, null], "rewards": [1, -4, -6, 11, -30], "path": ["0", "0", "1", "2", "3", "4", "7"], "rt": [50084, 650, 268, 1290, 738], "actions": ["up", "up", "up", "right", "down"], "actionTimes": [55269, 56475, 57255, 59080, 60344], "queries": {"click": {"state": {"target": ["23", "24", "25", "26", "28", "27", "29", "30", "33", "32", "31", "12", "13", "14", "19", "22", "20", "21", "15"], "time": [6663, 7954, 9123, 10448, 11557, 14519, 19339, 22896, 24688, 27606, 31023, 34780, 36415, 37945, 39309, 40388, 43577, 47349, 50213]}, "edge": {"target": [], "time": []}}, "mouseover": {"state": {"target": ["23", "24", "25", "26", "28", "27", "27", "29", "33", "30", "33", "32", "31", "12", "13", "14", "19", "22", "21", "20", "21", "19", "14", "14", "19", "21", "21", "19", "15", "16"], "time": [6244, 7595, 8763, 9725, 11114, 12305, 13926, 15433, 20495, 22328, 23886, 25535, 28559, 34150, 35792, 37502, 38703, 39940, 41134, 42816, 44261, 46003, 46097, 46429, 46475, 46591, 46926, 47994, 48616, 53022]}, "edge": {"target": [], "time": []}}, "mouseout": {"state": {"target": ["21", "0", "23", "24", "25", "26", "28", "27", "27", "29", "33", "30", "33", "32", "31", "12", "13", "14", "19", "22", "21", "20", "21", "19", "14", "14", "19", "21", "21", "19", "15", "16"], "time": [2709, 6194, 7482, 8687, 9655, 10960, 12148, 13382, 15122, 20321, 22224, 23668, 25470, 28386, 33640, 35715, 37173, 38634, 39842, 40965, 42676, 44189, 45934, 46084, 46239, 46464, 46502, 46664, 47954, 48033, 51331, 54231]}, "edge": {"target": [], "time": []}}}, "displayed_time": "60.90", "trialTime": 62187, "trial_type": "mouselab-mdp", "trial_index": 30, "time_elapsed": 2630341, "internal_node_id": "0.0-4.0-1.0-3.0"}}, {"uniqueid": "w33481383:a28711576", "current_trial": 31, "dateTime": 1691075496216, "trialdata": {"revealed_states": [], "clicked_states": ["12", "13", "14", "19", "22"], "num_clicks_accrued": [0, 0, 0, 0, 0, 0, 0, 0, 0, 0, 0, 0, 0], "stateRewards": ["", 2, -4, 1, -12, -59, -53, -74, 16, -88, -66, 66, 1, -2, 8, -9, -14, 22, 25, -1, -39, 47, -14, -1, -1, -2, 1, -4, 52, -26, 15, -7, 46, 43], "withholdReward": false, "trial_id": "mdp_trial_5", "block": "test", "trialIndex": 12, "score": 52.25, "costs": -4.75, "simulationMode": [null, null, null, null, null], "rewards": [-1, -1, -2, 15, 46], "path": ["0", "0", "23", "24", "25", "30", "32"], "rt": [15686, 359, 816, 1195, 325], "actions": ["left", "left", "left", "down", "down"], "actionTimes": [23235, 24142, 25502, 27243, 28142], "queries": {"click": {"state": {"target": ["12", "13", "14", "19", "22"], "time": [9273, 10470, 11806, 13105, 15291]}, "edge": {"target": [], "time": []}}, "mouseover": {"state": {"target": ["12", "12", "13", "14", "19", "22", "19"], "time": [8415, 8795, 10018, 11263, 12956, 13754, 19594]}, "edge": {"target": [], "time": []}}, "mouseout": {"state": {"target": ["17", "15", "12", "0", "12", "12", "13", "14", "19", "22", "19", "20", "19"], "time": [5045, 5078, 5361, 8231, 8478, 9895, 11102, 12346, 13632, 18879, 22048, 31059, 31125]}, "edge": {"target": [], "time": []}}}, "displayed_time": "28.66", "trialTime": 31601, "trial_type": "mouselab-mdp", "trial_index": 31, "time_elapsed": 2663348, "internal_node_id": "0.0-4.0-1.0-4.0"}}, {"uniqueid": "w33481383:a28711576", "current_trial": 32, "dateTime": 1691075533524, "trialdata": {"revealed_states": [], "clicked_states": ["1", "2", "3", "4", "6", "7", "8", "9"], "num_clicks_accrued": [0, 0, 0, 0, 0, 0, 0, 0, 0, 0, 0, 0, 0], "stateRewards": ["", -2, -4, 4, -11, -63, -60, -7, 2, -14, 81, -43, -1, -1, -5, 7, 10, 69, 40, 8, -83, 52, 60, 1, 2, 5, -5, 16, 64, 14, -3, 29, 7, -51], "withholdReward": false, "trial_id": "mdp_trial_6", "block": "test", "trialIndex": 13, "score": 56.4, "costs": -10.600000000000001, "simulationMode": [null, null, null, null, null], "rewards": [1, 2, 5, -5, 64], "path": ["0", "0", "23", "24", "25", "26", "28"], "rt": [25848, 401, 441, 1447, 349], "actions": ["left", "left", "left", "up", "right"], "actionTimes": [28700, 29619, 30567, 32543, 33420], "queries": {"click": {"state": {"target": ["1", "2", "3", "4", "6", "7", "8", "9"], "time": [4615, 5828, 7398, 8914, 10251, 13322, 17618, 20485]}, "edge": {"target": [], "time": []}}, "mouseover": {"state": {"target": ["1", "2", "3", "4", "6", "7", "3", "8", "9", "16", "6", "5"], "time": [3647, 5446, 6776, 8426, 9555, 11240, 14370, 14695, 19488, 24704, 25169, 25484]}, "edge": {"target": [], "time": []}}, "mouseout": {"state": {"target": ["19", "0", "1", "2", "3", "4", "6", "7", "3", "8", "9", "16", "6"], "time": [1006, 3593, 5377, 6625, 8063, 9480, 11134, 14346, 14516, 19181, 22523, 24758, 25202]}, "edge": {"target": [], "time": []}}}, "displayed_time": "33.95", "trialTime": 35529, "trial_type": "mouselab-mdp", "trial_index": 32, "time_elapsed": 2700656, "internal_node_id": "0.0-4.0-1.0-5.0"}}, {"uniqueid": "w33481383:a28711576", "current_trial": 33, "dateTime": 1691075580445, "trialdata": {"revealed_states": [], "clicked_states": ["23", "24", "25", "26", "28", "27", "29", "33", "30", "31", "32"], "num_clicks_accrued": [0, 0, 0, 0, 0, 0, 0, 0, 0, 0, 0, 0, 0], "stateRewards": ["", 1, -3, -1, 9, -34, -40, 22, -7, 45, 53, -11, 2, 4, 5, 15, 21, 37, -49, -3, 80, -28, -34, 1, -3, 1, 1, -40, -6, -5, -16, -85, -86, 59], "withholdReward": false, "trial_id": "mdp_trial_7", "block": "test", "trialIndex": 14, "score": 24.950000000000003, "costs": -17.05, "simulationMode": [null, null, null, null, null], "rewards": [1, -3, 1, -16, 59], "path": ["0", "0", "23", "24", "25", "30", "33"], "rt": [34967, 312, 309, 370, 408], "actions": ["left", "left", "left", "down", "left"], "actionTimes": [38615, 39460, 40312, 41211, 42139], "queries": {"click": {"state": {"target": ["23", "24", "25", "26", "28", "27", "29", "33", "30", "31", "32"], "time": [6633, 8148, 9571, 10653, 11735, 14604, 18952, 22004, 24895, 26519, 29774]}, "edge": {"target": [], "time": []}}, "mouseover": {"state": {"target": ["0", "12", "1", "23", "24", "25", "26", "28", "27", "29", "33", "30", "31", "32", "22", "0"], "time": [4418, 4531, 5366, 5698, 7644, 9041, 10192, 11358, 12451, 15551, 20447, 22698, 25898, 27461, 34139, 37668]}, "edge": {"target": [], "time": []}}, "mouseout": {"state": {"target": ["5", "0", "12", "1", "23", "24", "25", "26", "28", "27", "29", "33", "30", "31", "32", "22", "0", "15"], "time": [1717, 4467, 5282, 5614, 7577, 8903, 10126, 11344, 12212, 15428, 19734, 22623, 25778, 27288, 32522, 37557, 37720, 43677]}, "edge": {"target": [], "time": []}}}, "displayed_time": "42.67", "trialTime": 45565, "trial_type": "mouselab-mdp", "trial_index": 33, "time_elapsed": 2747577, "internal_node_id": "0.0-4.0-1.0-6.0"}}, {"uniqueid": "w33481383:a28711576", "current_trial": 34, "dateTime": 1691075608409, "trialdata": {"revealed_states": [], "clicked_states": ["12", "13", "14", "19", "21", "22"], "num_clicks_accrued": [0, 0, 0, 0, 0, 0, 0, 0, 0, 0, 0, 0, 0], "stateRewards": ["", 1, -2, -2, 10, -31, -77, 35, 9, -47, 8, 48, -2, 1, -4, -3, -26, -50, 43, -11, 76, -38, 17, 1, -1, 6, 10, 15, -9, 12, -8, 85, 11, -55], "withholdReward": false, "trial_id": "mdp_trial_8", "block": "test", "trialIndex": 15, "score": 24.1, "costs": -6.9, "simulationMode": [null, null, null, null, null], "rewards": [1, -1, 6, 10, 15], "path": ["0", "0", "23", "24", "25", "26", "27"], "rt": [16784, 738, 394, 468, 339], "actions": ["left", "left", "left", "up", "up"], "actionTimes": [19793, 21061, 21978, 22965, 23827], "queries": {"click": {"state": {"target": ["12", "13", "14", "19", "21", "22"], "time": [4417, 5471, 6754, 7743, 8843, 11798]}, "edge": {"target": [], "time": []}}, "mouseover": {"state": {"target": ["12", "13", "14", "19", "21", "22", "1", "1"], "time": [4053, 5136, 6311, 7274, 8430, 10350, 13897, 17124]}, "edge": {"target": [], "time": []}}, "mouseout": {"state": {"target": ["0", "12", "13", "14", "19", "21", "22", "1", "1"], "time": [3944, 5044, 6226, 7203, 8309, 8965, 13718, 14175, 17172]}, "edge": {"target": [], "time": []}}}, "displayed_time": "24.36", "trialTime": 26219, "trial_type": "mouselab-mdp", "trial_index": 34, "time_elapsed": 2775541, "internal_node_id": "0.0-4.0-1.0-7.0"}}, {"uniqueid": "w33481383:a28711576", "current_trial": 35, "dateTime": 1691075640093, "trialdata": {"revealed_states": [], "clicked_states": ["1", "2", "7", "3", "8", "10"], "num_clicks_accrued": [0, 0, 0, 0, 0, 0, 0, 0, 0, 0, 0, 0, 0], "stateRewards": ["", 2, -1, 8, -2, -16, 69, -39, -7, -13, -27, -86, 2, -2, 2, 13, -34, -16, -20, -5, 19, 81, 32, -2, -1, 2, -14, 20, 80, 58, 4, 70, 12, 73], "withholdReward": false, "trial_id": "mdp_trial_9", "block": "test", "trialIndex": 16, "score": -7.9, "costs": -6.9, "simulationMode": [null, null, null, null, null], "rewards": [2, -2, 2, 13, -16], "path": ["0", "0", "12", "13", "14", "15", "17"], "rt": [18874, 713, 344, 988, 433], "actions": ["right", "right", "right", "up", "right"], "actionTimes": [22177, 23464, 24320, 25846, 26791], "queries": {"click": {"state": {"target": ["1", "2", "7", "3", "8", "10"], "time": [4629, 5763, 6813, 10567, 11911, 13185]}, "edge": {"target": [], "time": []}}, "mouseover": {"state": {"target": ["1", "2", "7", "3", "8", "10", "11", "12"], "time": [4366, 5318, 6414, 8649, 11446, 12792, 14019, 21150]}, "edge": {"target": [], "time": []}}, "mouseout": {"state": {"target": ["13", "12", "0", "1", "2", "7", "3", "8", "10", "11", "12", "14"], "time": [1551, 1584, 2084, 5199, 6395, 8637, 11326, 12616, 13314, 20585, 28515, 28600]}, "edge": {"target": [], "time": []}}}, "displayed_time": "27.33", "trialTime": 30122, "trial_type": "mouselab-mdp", "trial_index": 35, "time_elapsed": 2807225, "internal_node_id": "0.0-4.0-1.0-8.0"}}, {"uniqueid": "w33481383:a28711576", "current_trial": 36, "dateTime": 1691075691507, "trialdata": {"revealed_states": [], "clicked_states": ["23", "24", "25", "30", "31", "32", "33", "26", "28", "29", "27", "1", "2"], "num_clicks_accrued": [0, 0, 0, 0, 0, 0, 0, 0, 0, 0, 0, 0, 0], "stateRewards": ["", 1, 2, -6, -13, -51, 22, -4, -12, -44, -12, 6, -2, -2, -2, -14, -46, -4, -77, -2, 36, -79, 41, 2, -4, 2, -6, -55, 59, 70, -5, 39, -19, 24], "withholdReward": false, "trial_id": "mdp_trial_10", "block": "test", "trialIndex": 17, "score": 46.849999999999994, "costs": -17.150000000000002, "simulationMode": [null, null, null, null, null], "rewards": [2, -4, 2, -6, 70], "path": ["0", "0", "23", "24", "25", "26", "29"], "rt": [40171, 22, 131, 1369, 407], "actions": ["left", "left", "left", "up", "left"], "actionTimes": [43032, 43572, 44284, 46184, 47115], "queries": {"click": {"state": {"target": ["23", "24", "25", "30", "31", "32", "33", "26", "28", "29", "27", "1", "2"], "time": [5605, 6712, 7821, 9120, 10226, 14253, 17559, 21088, 22465, 28046, 31527, 34400, 36097]}, "edge": {"target": [], "time": []}}, "mouseover": {"state": {"target": ["1", "1", "23", "24", "25", "30", "31", "33", "32", "33", "25", "26", "28", "27", "1", "29", "27", "1", "2", "2"], "time": [4336, 4647, 5014, 6248, 7397, 8507, 10001, 10971, 13763, 15107, 18730, 18924, 22220, 23397, 26529, 27443, 28884, 32583, 35210, 35661]}, "edge": {"target": [], "time": []}}, "mouseout": {"state": {"target": ["14", "13", "12", "0", "1", "1", "23", "23", "24", "25", "30", "31", "30", "33", "32", "33", "25", "26", "28", "27", "1", "28", "29", "27", "1", "2", "2"], "time": [883, 927, 970, 4166, 4439, 4947, 5730, 6131, 7325, 8436, 9806, 10778, 10867, 13516, 14985, 18633, 18794, 21977, 23170, 26032, 26843, 26976, 28167, 32573, 35164, 35267, 42126]}, "edge": {"target": [], "time": []}}}, "displayed_time": "47.66", "trialTime": 49153, "trial_type": "mouselab-mdp", "trial_index": 36, "time_elapsed": 2858636, "internal_node_id": "0.0-4.0-1.0-9.0"}}, {"uniqueid": "w33481383:a28711576", "current_trial": 37, "dateTime": 1691075735733, "trialdata": {"revealed_states": [], "clicked_states": ["12", "13", "14", "15", "18", "16", "22", "19", "20", "21"], "num_clicks_accrued": [0, 0, 0, 0, 0, 0, 0, 0, 0, 0, 0, 0, 0], "stateRewards": ["", -1, -2, -8, 8, -27, -82, 19, -14, -62, 4, 1, -2, 2, 6, 10, 73, -51, -2, 2, 73, -48, 54, -1, 2, -4, 11, -25, 47, 86, 15, 33, 43, -42], "withholdReward": false, "trial_id": "mdp_trial_11", "block": "test", "trialIndex": 18, "score": 74.1, "costs": -14.900000000000002, "simulationMode": [null, null, null, null, null], "rewards": [-2, 2, 6, 10, 73], "path": ["0", "0", "12", "13", "14", "15", "16"], "rt": [31310, 165, 314, 719, 339], "actions": ["right", "right", "right", "up", "up"], "actionTimes": [34023, 34724, 35557, 36809, 37685], "queries": {"click": {"state": {"target": ["12", "13", "14", "15", "18", "16", "22", "19", "20", "21"], "time": [4427, 5732, 7149, 8702, 9809, 12973, 17083, 21004, 22482, 25772]}, "edge": {"target": [], "time": []}}, "mouseover": {"state": {"target": ["12", "13", "14", "15", "18", "16", "17", "19", "22", "19", "20", "19", "20", "21", "17"], "time": [3943, 5343, 6373, 8121, 9413, 10758, 14335, 16390, 16644, 17978, 19174, 20537, 21772, 23658, 26819]}, "edge": {"target": [], "time": []}}, "mouseout": {"state": {"target": ["1", "0", "12", "13", "14", "15", "18", "16", "17", "19", "22", "19", "20", "19", "20", "21", "17"], "time": [1021, 3889, 5254, 6353, 7853, 9337, 10465, 13949, 16164, 16514, 17820, 18996, 20435, 21675, 23289, 26676, 39380]}, "edge": {"target": [], "time": []}}}, "displayed_time": "38.21", "trialTime": 42350, "trial_type": "mouselab-mdp", "trial_index": 37, "time_elapsed": 2902865, "internal_node_id": "0.0-4.0-1.0-10.0"}}, {"uniqueid": "w33481383:a28711576", "current_trial": 38, "dateTime": 1691075783147, "trialdata": {"revealed_states": [], "clicked_states": ["1", "2", "3", "4", "7", "8", "10", "9", "11"], "num_clicks_accrued": [0, 0, 0, 0, 0, 0, 0, 0, 0, 0, 0, 0, 0], "stateRewards": ["", 1, 4, 7, -16, -84, -6, -46, -12, -7, -49, -26, -1, 2, -4, 2, 22, 37, -64, 1, 88, -13, -10, 1, -4, -2, 5, 2, -10, -34, 9, 66, 55, 38], "withholdReward": false, "trial_id": "mdp_trial_12", "block": "test", "trialIndex": 19, "score": 8.25, "costs": -12.75, "simulationMode": [null, null, null, null, null], "rewards": [-1, 2, -4, 2, 22], "path": ["0", "0", "12", "13", "14", "15", "16"], "rt": [29310, 467, 252, 930, 1006], "actions": ["right", "right", "right", "up", "up"], "actionTimes": [32998, 34006, 34804, 36267, 37849], "queries": {"click": {"state": {"target": ["1", "2", "3", "4", "7", "8", "10", "9", "11"], "time": [5713, 6953, 8067, 9355, 10685, 14599, 15784, 19836, 22798]}, "edge": {"target": [], "time": []}}, "mouseover": {"state": {"target": ["12", "1", "2", "3", "4", "7", "5", "8", "8", "10", "11", "9", "11", "13", "12", "12"], "time": [4848, 5164, 6504, 7677, 8911, 10321, 11878, 13235, 14165, 15250, 16776, 19177, 20703, 23523, 31276, 31985]}, "edge": {"target": [], "time": []}}, "mouseout": {"state": {"target": ["22", "0", "12", "1", "2", "3", "4", "7", "4", "5", "8", "8", "10", "11", "9", "11", "13", "12", "12"], "time": [1585, 2035, 5033, 6378, 7109, 8887, 10081, 10840, 11468, 13027, 13546, 15239, 16552, 19044, 20400, 23376, 31126, 31440, 43506]}, "edge": {"target": [], "time": []}}}, "displayed_time": "38.38", "trialTime": 45770, "trial_type": "mouselab-mdp", "trial_index": 38, "time_elapsed": 2950279, "internal_node_id": "0.0-4.0-1.0-11.0"}}, {"uniqueid": "w33481383:a28711576", "current_trial": 39, "dateTime": 1691075821241, "trialdata": {"revealed_states": [], "clicked_states": [], "num_clicks_accrued": [0, 0, 0, 0, 0, 0, 0, 0, 0, 0, 0, 0, 0], "stateRewards": ["", 2, -1, -1, -9, -81, -30, 55, -6, 78, 25, 62, 2, 4, -1, 9, -85, 1, -19, 1, -60, 12, -34, 1, 4, -1, -13, -24, -16, -83, -8, 16, 43, 9], "withholdReward": false, "trial_id": "mdp_trial_13", "block": "test", "trialIndex": 20, "score": -71, "costs": 0, "simulationMode": [null, null, null, null, null], "rewards": [2, 4, -1, 9, -85], "path": ["0", "0", "12", "13", "14", "15", "16"], "rt": [19149, 57, 494, 1019, 1288], "actions": ["right", "right", "right", "up", "up"], "actionTimes": [24323, 24930, 25964, 27527, 29345], "queries": {"click": {"state": {"target": [], "time": []}, "edge": {"target": [], "time": []}}, "mouseover": {"state": {"target": ["12"], "time": [22487]}, "edge": {"target": [], "time": []}}, "mouseout": {"state": {"target": ["12", "0", "12", "13", "21"], "time": [3002, 22248, 34181, 34243, 35781]}, "edge": {"target": [], "time": []}}}, "displayed_time": "29.90", "trialTime": 36466, "trial_type": "mouselab-mdp", "trial_index": 39, "time_elapsed": 2988373, "internal_node_id": "0.0-4.0-1.0-12.0"}}, {"uniqueid": "w33481383:a28711576", "current_trial": 40, "dateTime": 1691075842669, "trialdata": {"revealed_states": [], "clicked_states": [], "num_clicks_accrued": [0, 0, 0, 0, 0, 0, 0, 0, 0, 0, 0, 0, 0], "stateRewards": ["", 1, 2, 8, -2, 23, -69, -18, -16, 54, -21, 71, -1, -4, 7, 11, 43, -6, 88, 6, -55, 72, 43, 1, -3, -2, -1, 68, -31, -54, 4, -8, 25, -2], "withholdReward": false, "trial_id": "mdp_trial_14", "block": "test", "trialIndex": 21, "score": 56, "costs": 0, "simulationMode": [null, null, null, null, null], "rewards": [-1, -4, 7, 11, 43], "path": ["0", "0", "12", "13", "14", "15", "16"], "rt": [6070, 273, 320, 527, 136], "actions": ["right", "right", "right", "up", "up"], "actionTimes": [9365, 10182, 11052, 12188, 12857], "queries": {"click": {"state": {"target": [], "time": []}, "edge": {"target": [], "time": []}}, "mouseover": {"state": {"target": ["12"], "time": [7686]}, "edge": {"target": [], "time": []}}, "mouseout": {"state": {"target": ["0", "12", "13"], "time": [6198, 14488, 14546]}, "edge": {"target": [], "time": []}}}, "displayed_time": "17.30", "trialTime": 19550, "trial_type": "mouselab-mdp", "trial_index": 40, "time_elapsed": 3009800, "internal_node_id": "0.0-4.0-1.0-13.0"}}, {"uniqueid": "w33481383:a28711576", "current_trial": 41, "dateTime": 1691075867861, "trialdata": {"revealed_states": [], "clicked_states": [], "num_clicks_accrued": [0, 0, 0, 0, 0, 0, 0, 0, 0, 0, 0, 0, 0], "stateRewards": ["", -1, 1, -5, -6, -78, 47, -13, 12, 48, -88, 20, 2, -3, -2, 13, -20, 37, -57, 14, -38, 30, 31, -2, -2, 8, 2, -23, 78, 28, 12, -74, -88, 8], "withholdReward": false, "trial_id": "mdp_trial_15", "block": "test", "trialIndex": 22, "score": -10, "costs": 0, "simulationMode": [null, null, null, null, null], "rewards": [2, -3, -2, 13, -20], "path": ["0", "0", "12", "13", "14", "15", "16"], "rt": [7128, 122, 281, 5889, 370], "actions": ["right", "right", "right", "up", "up"], "actionTimes": [10603, 11264, 12174, 18615, 19521], "queries": {"click": {"state": {"target": [], "time": []}, "edge": {"target": [], "time": []}}, "mouseover": {"state": {"target": ["1", "12"], "time": [7731, 9446]}, "edge": {"target": [], "time": []}}, "mouseout": {"state": {"target": ["0", "1", "12"], "time": [7597, 9426, 21162]}, "edge": {"target": [], "time": []}}}, "displayed_time": "20.04", "trialTime": 23310, "trial_type": "mouselab-mdp", "trial_index": 41, "time_elapsed": 3034993, "internal_node_id": "0.0-4.0-1.0-14.0"}}, {"uniqueid": "w33481383:a28711576", "current_trial": 42, "dateTime": 1691075908526, "trialdata": {"revealed_states": [], "clicked_states": ["1", "2", "23", "24", "25", "30", "32", "31", "33"], "num_clicks_accrued": [0, 0, 0, 0, 0, 0, 0, 0, 0, 0, 0, 0, 0], "stateRewards": ["", -2, 3, -1, -9, 44, 48, -37, -3, 71, -39, 87, -1, 3, -4, 4, -21, 59, -15, -8, -1, 28, -38, 2, 4, 4, 8, -85, -72, -63, 14, 58, 63, -46], "withholdReward": false, "trial_id": "mdp_trial_16", "block": "test", "trialIndex": 23, "score": 77.85, "costs": -9.15, "simulationMode": [null, null, null, null, null], "rewards": [2, 4, 4, 14, 63], "path": ["0", "0", "23", "24", "25", "30", "32"], "rt": [26283, 341, 201, 662, 374], "actions": ["left", "left", "left", "down", "down"], "actionTimes": [30282, 31164, 31947, 33140, 34044], "queries": {"click": {"state": {"target": ["1", "2", "23", "24", "25", "30", "32", "31", "33"], "time": [6309, 8209, 9601, 11884, 13123, 14384, 15955, 19016, 23107]}, "edge": {"target": [], "time": []}}, "mouseover": {"state": {"target": ["1", "2", "23", "24", "25", "30", "32", "31", "30", "33", "30"], "time": [5200, 7659, 9210, 10329, 12702, 13884, 15526, 17258, 20003, 20143, 27686]}, "edge": {"target": [], "time": []}}, "mouseout": {"state": {"target": ["22", "12", "0", "0", "1", "2", "23", "24", "25", "30", "32", "31", "30", "33", "30", "21"], "time": [1120, 1184, 1535, 5084, 7299, 8764, 10261, 12543, 13872, 15265, 16602, 19984, 20073, 24703, 28228, 37494]}, "edge": {"target": [], "time": []}}}, "displayed_time": "34.60", "trialTime": 38784, "trial_type": "mouselab-mdp", "trial_index": 42, "time_elapsed": 3075656, "internal_node_id": "0.0-4.0-1.0-15.0"}}, {"uniqueid": "w33481383:a28711576", "current_trial": 43, "dateTime": 1691075988142, "trialdata": {"revealed_states": [], "clicked_states": ["12", "13", "14", "15", "16", "2", "1", "3", "10", "8", "11", "9", "4", "7", "6", "5", "28", "26", "27", "29", "25", "24", "23", "31", "30", "33"], "num_clicks_accrued": [0, 0, 0, 0, 0, 0, 0, 0, 0, 0, 0, 0, 0], "stateRewards": ["", 2, -4, 4, 9, 69, 9, -75, 12, -86, 66, 25, -1, 3, 2, -13, -88, -3, 1, 4, -69, 49, -84, 2, -1, 4, 2, -18, -81, -52, -15, -69, -54, 25], "withholdReward": false, "trial_id": "mdp_trial_17", "block": "test", "trialIndex": 24, "score": 43.30000000000001, "costs": -36.69999999999999, "simulationMode": [null, null, null, null, null], "rewards": [2, -4, 4, 9, 69], "path": ["0", "0", "1", "2", "3", "4", "5"], "rt": [65659, 184, 138, 291, 1270], "actions": ["up", "up", "up", "right", "up"], "actionTimes": [71282, 72005, 72728, 73556, 75356], "queries": {"click": {"state": {"target": ["12", "13", "14", "15", "16", "2", "1", "3", "10", "8", "11", "9", "4", "7", "6", "5", "28", "26", "27", "29", "25", "24", "23", "31", "30", "33"], "time": [7177, 8646, 9765, 11006, 12159, 16607, 17549, 19125, 20452, 23949, 25327, 29788, 33037, 34687, 38371, 41640, 45040, 48180, 49281, 52337, 55482, 56893, 58314, 60299, 63200, 64499]}, "edge": {"target": [], "time": []}}, "mouseover": {"state": {"target": ["0", "12", "13", "14", "15", "16", "18", "1", "2", "1", "3", "10", "8", "11", "9", "4", "4", "7", "6", "5", "28", "28", "26", "27", "29", "25", "24", "23", "31", "30", "33", "32", "0"], "time": [6477, 6562, 8069, 9257, 10501, 11678, 12865, 14264, 16100, 17129, 18567, 19948, 21090, 25012, 26729, 30889, 31327, 34003, 35547, 39615, 42941, 43383, 46118, 48905, 50089, 53088, 56201, 57596, 59807, 60940, 63954, 65664, 68345]}, "edge": {"target": [], "time": []}}, "mouseout": {"state": {"target": ["0", "0", "12", "13", "14", "15", "16", "18", "1", "2", "1", "3", "10", "8", "11", "9", "4", "4", "7", "6", "5", "28", "28", "26", "27", "29", "25", "24", "23", "31", "30", "33", "32", "0"], "time": [3938, 6554, 7866, 9187, 10401, 11126, 12578, 14130, 15882, 17061, 18161, 19771, 21015, 24855, 26531, 30816, 30957, 33877, 34837, 39427, 42381, 43098, 45932, 48809, 49836, 53020, 56132, 57517, 59509, 60863, 63883, 65341, 67570, 69218]}, "edge": {"target": [], "time": []}}}, "displayed_time": "75.89", "trialTime": 77945, "trial_type": "mouselab-mdp", "trial_index": 43, "time_elapsed": 3155273, "internal_node_id": "0.0-4.0-1.0-16.0"}}, {"uniqueid": "w33481383:a28711576", "current_trial": 44, "dateTime": 1691076020870, "trialdata": {"revealed_states": [], "clicked_states": ["1", "2", "3", "8", "9", "10", "11"], "num_clicks_accrued": [0, 0, 0, 0, 0, 0, 0, 0, 0, 0, 0, 0, 0], "stateRewards": ["", -2, 4, -3, -13, 63, -36, 62, 11, 78, 34, -51, 2, -2, 8, -6, -40, -18, 31, 9, 64, 39, 79, 1, 4, -4, 15, -12, 76, 73, -10, -77, 86, -4], "withholdReward": false, "trial_id": "mdp_trial_18", "block": "test", "trialIndex": 25, "score": 78.95, "costs": -9.05, "simulationMode": [null, null, null, null, null], "rewards": [-2, 4, -3, 11, 78], "path": ["0", "0", "1", "2", "3", "8", "9"], "rt": [21516, 126, 151, 201, 202], "actions": ["up", "up", "up", "left", "up"], "actionTimes": [24016, 24684, 25377, 26131, 26939], "queries": {"click": {"state": {"target": ["1", "2", "3", "8", "9", "10", "11"], "time": [4035, 5131, 6425, 7270, 9406, 13790, 16871]}, "edge": {"target": [], "time": []}}, "mouseover": {"state": {"target": ["1", "2", "3", "8", "9", "11", "10", "11"], "time": [3661, 4815, 5768, 6978, 7807, 10574, 13268, 14921]}, "edge": {"target": [], "time": []}}, "mouseout": {"state": {"target": ["1", "2", "3", "8", "9", "11", "10", "11", "10"], "time": [4698, 5753, 6873, 7793, 10126, 13064, 14782, 20211, 28548]}, "edge": {"target": [], "time": []}}}, "displayed_time": "27.57", "trialTime": 30341, "trial_type": "mouselab-mdp", "trial_index": 44, "time_elapsed": 3188000, "internal_node_id": "0.0-4.0-1.0-17.0"}}, {"uniqueid": "w33481383:a28711576", "current_trial": 45, "dateTime": 1691076046892, "trialdata": {"revealed_states": [], "clicked_states": [], "num_clicks_accrued": [0, 0, 0, 0, 0, 0, 0, 0, 0, 0, 0, 0, 0], "stateRewards": ["", 1, -3, -6, -5, 47, 80, -29, 11, -71, 10, -29, -2, 3, -6, 12, 2, -78, -6, 8, 34, -16, -5, -1, 3, 3, -13, 84, -36, -62, -3, -27, 66, 15], "withholdReward": false, "trial_id": "mdp_trial_19", "block": "test", "trialIndex": 26, "score": 67, "costs": 0, "simulationMode": [null, null, null, null, null], "rewards": [1, -3, -6, -5, 80], "path": ["0", "0", "1", "2", "3", "4", "6"], "rt": [10685, 289, 145, 300, 563], "actions": ["up", "up", "up", "right", "right"], "actionTimes": [15878, 16705, 17478, 18329, 19431], "queries": {"click": {"state": {"target": [], "time": []}, "edge": {"target": [], "time": []}}, "mouseover": {"state": {"target": ["12", "12", "12"], "time": [8952, 9505, 13858]}, "edge": {"target": [], "time": []}}, "mouseout": {"state": {"target": ["12", "0", "12", "12", "12"], "time": [3098, 3319, 9072, 13504, 21285]}, "edge": {"target": [], "time": []}}}, "displayed_time": "19.97", "trialTime": 23626, "trial_type": "mouselab-mdp", "trial_index": 45, "time_elapsed": 3214023, "internal_node_id": "0.0-4.0-1.0-18.0"}}, {"uniqueid": "w33481383:a28711576", "current_trial": 46, "dateTime": 1691076076682, "trialdata": {"revealed_states": [], "clicked_states": [], "num_clicks_accrued": [0, 0, 0, 0, 0, 0, 0, 0, 0, 0, 0, 0, 0], "stateRewards": ["", -2, 1, -5, 2, -68, 80, 33, 10, 67, -59, 20, -1, -3, 3, 14, 74, -2, 24, -16, 63, 80, 46, -1, 4, 6, 12, 83, -38, -43, -4, 43, 14, -79], "withholdReward": false, "trial_id": "mdp_trial_20", "block": "test", "trialIndex": 27, "score": 63, "costs": 0, "simulationMode": [null, null, null, null, null], "rewards": [-1, -3, 3, -16, 80], "path": ["0", "0", "12", "13", "14", "19", "21"], "rt": [4272, 361, 292, 296, 241], "actions": ["right", "right", "right", "down", "down"], "actionTimes": [14735, 15642, 16469, 17308, 18076], "queries": {"click": {"state": {"target": [], "time": []}, "edge": {"target": [], "time": []}}, "mouseover": {"state": {"target": ["0"], "time": [10909]}, "edge": {"target": [], "time": []}}, "mouseout": {"state": {"target": ["20", "13", "12", "0", "0"], "time": [7928, 8345, 8384, 8839, 11583]}, "edge": {"target": [], "time": []}}}, "displayed_time": "24.46", "trialTime": 26435, "trial_type": "mouselab-mdp", "trial_index": 46, "time_elapsed": 3243814, "internal_node_id": "0.0-4.0-1.0-19.0"}}, {"uniqueid": "w33481383:a28711576", "current_trial": 47, "dateTime": 1691076099119, "trialdata": {"revealed_states": [], "clicked_states": [], "num_clicks_accrued": [0, 0, 0, 0, 0, 0, 0, 0, 0, 0, 0, 0, 0], "stateRewards": ["", -2, -3, -3, 9, 79, 67, 22, -15, -56, 27, -85, -2, 4, -4, -15, -20, -32, 60, 15, 71, 57, 17, 1, 2, -8, 15, -37, -81, 82, 15, 21, -3, 2], "withholdReward": false, "trial_id": "mdp_trial_21", "block": "test", "trialIndex": 28, "score": -37, "costs": 0, "simulationMode": [null, null, null, null, null], "rewards": [-2, 4, -4, -15, -20], "path": ["0", "0", "12", "13", "14", "15", "16"], "rt": [2086, 668, 324, 579, 210], "actions": ["right", "right", "right", "up", "up"], "actionTimes": [5280, 6495, 7355, 8468, 9221], "queries": {"click": {"state": {"target": [], "time": []}, "edge": {"target": [], "time": []}}, "mouseover": {"state": {"target": [], "time": []}, "edge": {"target": [], "time": []}}, "mouseout": {"state": {"target": ["0", "21"], "time": [11587, 13807]}, "edge": {"target": [], "time": []}}}, "displayed_time": "17.20", "trialTime": 20303, "trial_type": "mouselab-mdp", "trial_index": 47, "time_elapsed": 3266251, "internal_node_id": "0.0-4.0-1.0-20.0"}}, {"uniqueid": "w33481383:a28711576", "current_trial": 48, "dateTime": 1691076121423, "trialdata": {"revealed_states": [], "clicked_states": [], "num_clicks_accrued": [0, 0, 0, 0, 0, 0, 0, 0, 0, 0, 0, 0, 0], "stateRewards": ["", 1, -3, -2, 14, 49, -40, -39, 2, 26, -61, 73, 1, -4, -8, 12, 79, 29, -65, -13, 55, -26, 27, -1, 3, 3, 9, -17, -60, -18, -8, 35, -88, 69], "withholdReward": false, "trial_id": "mdp_trial_22", "block": "test", "trialIndex": 29, "score": -3, "costs": 0, "simulationMode": [null, null, null, null, null], "rewards": [-1, 3, 3, 9, -17], "path": ["0", "0", "23", "24", "25", "26", "27"], "rt": [5266, 504, 420, 1136, 282], "actions": ["left", "left", "left", "up", "up"], "actionTimes": [8277, 9314, 10282, 11956, 12766], "queries": {"click": {"state": {"target": [], "time": []}, "edge": {"target": [], "time": []}}, "mouseover": {"state": {"target": [], "time": []}, "edge": {"target": [], "time": []}}, "mouseout": {"state": {"target": ["0", "0", "14"], "time": [893, 17958, 18032]}, "edge": {"target": [], "time": []}}}, "displayed_time": "17.01", "trialTime": 20132, "trial_type": "mouselab-mdp", "trial_index": 48, "time_elapsed": 3288554, "internal_node_id": "0.0-4.0-1.0-21.0"}}, {"uniqueid": "w33481383:a28711576", "current_trial": 49, "dateTime": 1691076147255, "trialdata": {"revealed_states": [], "clicked_states": ["23", "24", "25", "26"], "num_clicks_accrued": [0, 0, 0, 0, 0, 0, 0, 0, 0, 0, 0, 0, 0], "stateRewards": ["", 2, 3, 6, -12, -29, 12, 87, 4, 35, -30, 67, 2, 3, -5, -9, 44, 69, -8, 1, 45, -8, 28, -2, -1, -8, 11, -12, -5, 81, 9, 87, 82, 88], "withholdReward": false, "trial_id": "mdp_trial_23", "block": "test", "trialIndex": 30, "score": 47.4, "costs": -2.5999999999999996, "simulationMode": [null, null, null, null, null], "rewards": [2, 3, 6, 4, 35], "path": ["0", "0", "1", "2", "3", "8", "9"], "rt": [12308, 144, 139, 828, 323], "actions": ["up", "up", "up", "left", "up"], "actionTimes": [16608, 17282, 17960, 19314, 20191], "queries": {"click": {"state": {"target": ["23", "24", "25", "26"], "time": [6231, 7385, 8539, 9976]}, "edge": {"target": [], "time": []}}, "mouseover": {"state": {"target": ["23", "24", "25", "26"], "time": [5775, 6931, 8086, 9616]}, "edge": {"target": [], "time": []}}, "mouseout": {"state": {"target": ["19", "0", "23", "24", "25", "26"], "time": [2243, 5662, 6891, 7992, 9291, 21747]}, "edge": {"target": [], "time": []}}}, "displayed_time": "20.72", "trialTime": 23640, "trial_type": "mouselab-mdp", "trial_index": 49, "time_elapsed": 3314385, "internal_node_id": "0.0-4.0-1.0-22.0"}}, {"uniqueid": "w33481383:a28711576", "current_trial": 50, "dateTime": 1691076169867, "trialdata": {"revealed_states": [], "clicked_states": [], "num_clicks_accrued": [0, 0, 0, 0, 0, 0, 0, 0, 0, 0, 0, 0, 0], "stateRewards": ["", -1, -3, -7, -4, -85, -70, 79, 8, 84, -66, 42, 2, -2, -3, -16, -54, -66, 68, -3, 21, -14, 7, -2, -1, -3, -8, 75, 80, 86, -7, -84, 73, -16], "withholdReward": false, "trial_id": "mdp_trial_24", "block": "test", "trialIndex": 31, "score": 64, "costs": 0, "simulationMode": [null, null, null, null, null], "rewards": [-1, -3, -7, -4, 79], "path": ["0", "0", "1", "2", "3", "4", "7"], "rt": [6039, 837, 36, 963, 463], "actions": ["up", "up", "up", "right", "down"], "actionTimes": [9879, 11781, 12349, 13882, 14906], "queries": {"click": {"state": {"target": [], "time": []}, "edge": {"target": [], "time": []}}, "mouseover": {"state": {"target": ["12"], "time": [7739]}, "edge": {"target": [], "time": []}}, "mouseout": {"state": {"target": ["19", "22", "12", "0"], "time": [1205, 1618, 1718, 5420]}, "edge": {"target": [], "time": []}}}, "displayed_time": "17.84", "trialTime": 20118, "trial_type": "mouselab-mdp", "trial_index": 50, "time_elapsed": 3336998, "internal_node_id": "0.0-4.0-1.0-23.0"}}, {"uniqueid": "w33481383:a28711576", "current_trial": 51, "dateTime": 1691076190021, "trialdata": {"revealed_states": [], "clicked_states": [], "num_clicks_accrued": [0, 0, 0, 0, 0, 0, 0, 0, 0, 0, 0, 0, 0], "stateRewards": ["", -2, 2, -5, 1, 42, -63, -58, -6, 2, 16, 81, -2, 4, 7, -10, 33, 3, -33, -2, -52, -84, -27, 2, -3, -3, 15, -74, -14, -5, -5, -84, 79, -31], "withholdReward": false, "trial_id": "mdp_trial_25", "block": "test", "trialIndex": 32, "score": -63, "costs": 0, "simulationMode": [null, null, null, null, null], "rewards": [2, -3, -3, 15, -74], "path": ["0", "0", "23", "24", "25", "26", "27"], "rt": [4309, 233, 354, 844, 252], "actions": ["left", "left", "left", "up", "up"], "actionTimes": [7321, 8086, 9001, 10378, 11230], "queries": {"click": {"state": {"target": [], "time": []}, "edge": {"target": [], "time": []}}, "mouseover": {"state": {"target": [], "time": []}, "edge": {"target": [], "time": []}}, "mouseout": {"state": {"target": ["12", "0"], "time": [1004, 12857]}, "edge": {"target": [], "time": []}}}, "displayed_time": "17.01", "trialTime": 18167, "trial_type": "mouselab-mdp", "trial_index": 51, "time_elapsed": 3357153, "internal_node_id": "0.0-4.0-1.0-24.0"}}, {"uniqueid": "w33481383:a28711576", "current_trial": 52, "dateTime": 1691076220820, "trialdata": {"revealed_states": [], "clicked_states": ["12", "13", "14", "15", "16"], "num_clicks_accrued": [0, 0, 0, 0, 0, 0, 0, 0, 0, 0, 0, 0, 0], "stateRewards": ["", -2, -3, 1, -7, 39, -67, 16, 5, -20, 73, 66, -1, 4, 5, -3, 23, -68, -87, -8, 3, -3, 17, 1, -4, -2, -13, -32, 34, 61, -5, -11, -18, 12], "withholdReward": false, "trial_id": "mdp_trial_26", "block": "test", "trialIndex": 33, "score": -54.75, "costs": -4.75, "simulationMode": [null, null, null, null, null], "rewards": [1, -4, -2, -13, -32], "path": ["0", "0", "23", "24", "25", "26", "27"], "rt": [15946, 310, 94, 585, 279], "actions": ["left", "left", "left", "up", "up"], "actionTimes": [20397, 21247, 22157, 23312, 24133], "queries": {"click": {"state": {"target": ["12", "13", "14", "15", "16"], "time": [5809, 7073, 8724, 9939, 11145]}, "edge": {"target": [], "time": []}}, "mouseover": {"state": {"target": ["12", "13", "14", "15", "16", "18", "12"], "time": [5330, 6574, 7897, 9448, 10838, 12647, 13341]}, "edge": {"target": [], "time": []}}, "mouseout": {"state": {"target": ["21", "0", "12", "13", "14", "15", "16", "18", "12"], "time": [1629, 5257, 5946, 7885, 9371, 10617, 12565, 12723, 13526]}, "edge": {"target": [], "time": []}}}, "displayed_time": "24.70", "trialTime": 27931, "trial_type": "mouselab-mdp", "trial_index": 52, "time_elapsed": 3387952, "internal_node_id": "0.0-4.0-1.0-25.0"}}, {"uniqueid": "w33481383:a28711576", "current_trial": 53, "dateTime": 1691076243532, "trialdata": {"revealed_states": [], "clicked_states": [], "num_clicks_accrued": [0, 0, 0, 0, 0, 0, 0, 0, 0, 0, 0, 0, 0], "stateRewards": ["", -1, 1, -6, -1, 80, 23, 2, -11, 73, -81, 59, 1, 3, 5, -1, -26, 28, -3, 16, -59, -13, -50, -2, -2, 2, 15, -50, 86, 17, -4, 37, 35, 44], "withholdReward": false, "trial_id": "mdp_trial_27", "block": "test", "trialIndex": 34, "score": 16, "costs": 0, "simulationMode": [null, null, null, null, null], "rewards": [-1, 1, -6, -1, 23], "path": ["0", "0", "1", "2", "3", "4", "6"], "rt": [4759, 625, 842, 1839, 204], "actions": ["up", "up", "up", "right", "right"], "actionTimes": [8696, 9866, 11254, 13631, 14369], "queries": {"click": {"state": {"target": [], "time": []}, "edge": {"target": [], "time": []}}, "mouseover": {"state": {"target": ["12"], "time": [4921]}, "edge": {"target": [], "time": []}}, "mouseout": {"state": {"target": ["13", "12", "0", "12"], "time": [1732, 2049, 4844, 17285]}, "edge": {"target": [], "time": []}}}, "displayed_time": "17.94", "trialTime": 19987, "trial_type": "mouselab-mdp", "trial_index": 53, "time_elapsed": 3410664, "internal_node_id": "0.0-4.0-1.0-26.0"}}, {"uniqueid": "w33481383:a28711576", "current_trial": 54, "dateTime": 1691076270784, "trialdata": {"revealed_states": [], "clicked_states": ["12", "13"], "num_clicks_accrued": [0, 0, 0, 0, 0, 0, 0, 0, 0, 0, 0, 0, 0], "stateRewards": ["", 2, 4, 4, 9, -88, -10, 44, 16, -54, 64, 78, 1, 2, 5, 16, 80, 36, 7, -4, 9, -47, -70, -1, -3, 6, -16, 11, 80, 28, 8, -1, 34, -17], "withholdReward": false, "trial_id": "mdp_trial_28", "block": "test", "trialIndex": 35, "score": 103.9, "costs": -0.09999999999999998, "simulationMode": [null, null, null, null, null], "rewards": [2, 4, 4, 16, 78], "path": ["0", "0", "1", "2", "3", "8", "11"], "rt": [10509, 304, 484, 1649, 146], "actions": ["up", "up", "up", "left", "left"], "actionTimes": [16032, 16865, 17970, 20157, 20833], "queries": {"click": {"state": {"target": ["12", "13"], "time": [8373, 9916]}, "edge": {"target": [], "time": []}}, "mouseover": {"state": {"target": ["12", "12", "13", "12"], "time": [7414, 7883, 9476, 15217]}, "edge": {"target": [], "time": []}}, "mouseout": {"state": {"target": ["14", "13", "12", "0", "12", "12", "13", "12"], "time": [2632, 2742, 3068, 7353, 7634, 9398, 14604, 23063]}, "edge": {"target": [], "time": []}}}, "displayed_time": "21.37", "trialTime": 24723, "trial_type": "mouselab-mdp", "trial_index": 54, "time_elapsed": 3437915, "internal_node_id": "0.0-4.0-1.0-27.0"}}, {"uniqueid": "w33481383:a28711576", "current_trial": 55, "dateTime": 1691076305984, "trialdata": {"revealed_states": [], "clicked_states": [], "num_clicks_accrued": [0, 0, 0, 0, 0, 0, 0, 0, 0, 0, 0, 0, 0], "stateRewards": ["", -2, -1, -2, -15, 87, 57, 29, -10, 77, -80, -7, 1, -3, 6, 14, -11, 87, -59, 4, -71, 16, -11, 2, 2, -7, 2, -47, 61, 50, 14, -20, 17, 81], "withholdReward": false, "trial_id": "mdp_trial_29", "block": "test", "trialIndex": 36, "score": -48, "costs": 0, "simulationMode": [null, null, null, null, null], "rewards": [2, 2, -7, 2, -47], "path": ["0", "0", "23", "24", "25", "26", "27"], "rt": [9239, 156, 135, 7719, 7], "actions": ["left", "left", "left", "up", "up"], "actionTimes": [14363, 15046, 15714, 23967, 24565], "queries": {"click": {"state": {"target": [], "time": []}, "edge": {"target": [], "time": []}}, "mouseover": {"state": {"target": [], "time": []}, "edge": {"target": [], "time": []}}, "mouseout": {"state": {"target": ["19", "22"], "time": [2946, 2973]}, "edge": {"target": [], "time": []}}}, "displayed_time": "25.11", "trialTime": 33032, "trial_type": "mouselab-mdp", "trial_index": 55, "time_elapsed": 3473116, "internal_node_id": "0.0-4.0-1.0-28.0"}}, {"uniqueid": "w33481383:a28711576", "current_trial": 56, "dateTime": 1691076361985, "trialdata": {"revealed_states": [], "clicked_states": [], "num_clicks_accrued": [0, 0, 0, 0, 0, 0, 0, 0, 0, 0, 0, 0, 0], "stateRewards": ["", 2, 3, 8, 14, 69, -27, 17, 2, -71, -65, -10, 2, -3, 7, 8, 65, -10, 65, -12, 73, -12, 13, -2, -2, 6, 10, -79, -69, -18, 10, -85, 67, 74], "withholdReward": false, "trial_id": "mdp_trial_30", "block": "test", "trialIndex": 37, "score": 5, "costs": 0, "simulationMode": [null, null, null, null, null], "rewards": [2, 3, 8, 2, -10], "path": ["0", "0", "1", "2", "3", "8", "11"], "rt": [16953, 319, 41, 712, 36], "actions": ["up", "up", "up", "left", "left"], "actionTimes": [21137, 22008, 22579, 23839, 24415], "queries": {"click": {"state": {"target": [], "time": []}, "edge": {"target": [], "time": []}}, "mouseover": {"state": {"target": ["0"], "time": [19745]}, "edge": {"target": [], "time": []}}, "mouseout": {"state": {"target": ["20", "0", "0"], "time": [1559, 19545, 19807]}, "edge": {"target": [], "time": []}}}, "displayed_time": "24.95", "trialTime": 52039, "trial_type": "mouselab-mdp", "trial_index": 56, "time_elapsed": 3529116, "internal_node_id": "0.0-4.0-1.0-29.0"}}, {"uniqueid": "w33481383:a28711576", "current_trial": 57, "dateTime": 1691076390150, "trialdata": {"revealed_states": [], "clicked_states": [], "num_clicks_accrued": [0, 0, 0, 0, 0, 0, 0, 0, 0, 0, 0, 0, 0], "stateRewards": ["", -2, -4, -8, 8, 63, -50, -19, -7, -17, -31, 31, 1, 3, -5, 12, -35, -63, -29, -4, -17, -75, -79, -2, -3, -2, 8, -3, -85, 10, -2, -82, -82, 56], "withholdReward": false, "trial_id": "mdp_trial_31", "block": "test", "trialIndex": 38, "score": -56, "costs": 0, "simulationMode": [null, null, null, null, null], "rewards": [-2, -4, -8, 8, -50], "path": ["0", "0", "1", "2", "3", "4", "6"], "rt": [6212, 315, 78, 779, 166], "actions": ["up", "up", "up", "right", "right"], "actionTimes": [11492, 12344, 12983, 14298, 14998], "queries": {"click": {"state": {"target": [], "time": []}, "edge": {"target": [], "time": []}}, "mouseover": {"state": {"target": [], "time": []}, "edge": {"target": [], "time": []}}, "mouseout": {"state": {"target": [], "time": []}, "edge": {"target": [], "time": []}}}, "displayed_time": "19.32", "trialTime": 25696, "trial_type": "mouselab-mdp", "trial_index": 57, "time_elapsed": 3557282, "internal_node_id": "0.0-4.0-1.0-30.0"}}, {"uniqueid": "w33481383:a28711576", "current_trial": 58, "dateTime": 1691076427697, "trialdata": {"revealed_states": [], "clicked_states": [], "num_clicks_accrued": [0, 0, 0, 0, 0, 0, 0, 0, 0, 0, 0, 0, 0], "stateRewards": ["", 2, -1, -1, 7, 11, -40, -22, -2, 69, 37, 8, -2, 4, -8, -12, -2, -72, -3, -12, 17, 63, 12, 1, 3, -7, 6, 25, 61, 61, -9, 28, -17, 27], "withholdReward": false, "trial_id": "mdp_trial_32", "block": "test", "trialIndex": 39, "score": -20, "costs": 0, "simulationMode": [null, null, null, null, null], "rewards": [-2, 4, -8, -12, -2], "path": ["0", "0", "12", "13", "14", "15", "16"], "rt": [6358, 117, 162, 648, 34], "actions": ["right", "right", "right", "up", "up"], "actionTimes": [13193, 13944, 14641, 15862, 16461], "queries": {"click": {"state": {"target": [], "time": []}, "edge": {"target": [], "time": []}}, "mouseover": {"state": {"target": [], "time": []}, "edge": {"target": [], "time": []}}, "mouseout": {"state": {"target": [], "time": []}, "edge": {"target": [], "time": []}}}, "displayed_time": "20.84", "trialTime": 35575, "trial_type": "mouselab-mdp", "trial_index": 58, "time_elapsed": 3594828, "internal_node_id": "0.0-4.0-1.0-31.0"}}, {"uniqueid": "w33481383:a28711576", "current_trial": 59, "dateTime": 1691076449297, "trialdata": {"revealed_states": [], "clicked_states": [], "num_clicks_accrued": [0, 0, 0, 0, 0, 0, 0, 0, 0, 0, 0, 0, 0], "stateRewards": ["", -1, -4, -1, -5, -28, -23, -15, -15, -38, 59, -87, 2, 2, -5, 9, -55, -39, -71, -6, 85, -85, -11, -1, -2, 5, -10, 1, 25, 41, -4, 69, -35, 86], "withholdReward": false, "trial_id": "mdp_trial_33", "block": "test", "trialIndex": 40, "score": -47, "costs": 0, "simulationMode": [null, null, null, null, null], "rewards": [2, 2, -5, 9, -55], "path": ["0", "0", "12", "13", "14", "15", "16"], "rt": [2140, 321, 171, 695, 49], "actions": ["right", "right", "right", "up", "up"], "actionTimes": [6232, 7096, 7825, 9124, 9740], "queries": {"click": {"state": {"target": [], "time": []}, "edge": {"target": [], "time": []}}, "mouseover": {"state": {"target": ["12"], "time": [5104]}, "edge": {"target": [], "time": []}}, "mouseout": {"state": {"target": ["0"], "time": [5044]}, "edge": {"target": [], "time": []}}}, "displayed_time": "18.09", "trialTime": 19638, "trial_type": "mouselab-mdp", "trial_index": 59, "time_elapsed": 3616429, "internal_node_id": "0.0-4.0-1.0-32.0"}}, {"uniqueid": "w33481383:a28711576", "current_trial": 60, "dateTime": 1691076480283, "trialdata": {"revealed_states": [], "clicked_states": [], "num_clicks_accrued": [0, 0, 0, 0, 0, 0, 0, 0, 0, 0, 0, 0, 0], "stateRewards": ["", -1, 3, 8, 10, -86, 61, -36, 10, 17, -60, 24, -1, -3, 3, 11, 50, 60, 33, -3, -20, 58, -6, 1, -4, -4, 13, -70, -71, 43, 14, 52, 82, -11], "withholdReward": false, "trial_id": "mdp_trial_34", "block": "test", "trialIndex": 41, "score": 81, "costs": 0, "simulationMode": [null, null, null, null, null], "rewards": [-1, 3, 8, 10, 61], "path": ["0", "0", "1", "2", "3", "4", "6"], "rt": [5329, 1167, 1229, 905, 193], "actions": ["up", "up", "up", "right", "right"], "actionTimes": [9004, 10700, 12469, 13909, 14646], "queries": {"click": {"state": {"target": [], "time": []}, "edge": {"target": [], "time": []}}, "mouseover": {"state": {"target": [], "time": []}, "edge": {"target": [], "time": []}}, "mouseout": {"state": {"target": ["12"], "time": [1304]}, "edge": {"target": [], "time": []}}}, "displayed_time": "17.67", "trialTime": 28930, "trial_type": "mouselab-mdp", "trial_index": 60, "time_elapsed": 3647414, "internal_node_id": "0.0-4.0-1.0-33.0"}}, {"uniqueid": "w33481383:a28711576", "current_trial": 61, "dateTime": 1691076520796, "trialdata": {"revealed_states": [], "clicked_states": [], "num_clicks_accrued": [0, 0, 0, 0, 0, 0, 0, 0, 0, 0, 0, 0, 0], "stateRewards": ["", -1, 1, 3, -8, -23, -15, -14, -11, -23, 58, 68, 1, 3, 5, 12, -17, -41, -7, -10, -4, 82, 10, 1, 4, -4, 11, 73, 55, -55, -1, -86, -86, 54], "withholdReward": false, "trial_id": "mdp_trial_35", "block": "test", "trialIndex": 42, "score": 85, "costs": 0, "simulationMode": [null, null, null, null, null], "rewards": [1, 4, -4, 11, 73], "path": ["0", "0", "23", "24", "25", "26", "27"], "rt": [8948, 11, 9, 889, 96], "actions": ["left", "left", "left", "up", "up"], "actionTimes": [29119, 29670, 30227, 31652, 32301], "queries": {"click": {"state": {"target": [], "time": []}, "edge": {"target": [], "time": []}}, "mouseover": {"state": {"target": [], "time": []}, "edge": {"target": [], "time": []}}, "mouseout": {"state": {"target": [], "time": []}, "edge": {"target": [], "time": []}}}, "displayed_time": "34.17", "trialTime": 36890, "trial_type": "mouselab-mdp", "trial_index": 61, "time_elapsed": 3687926, "internal_node_id": "0.0-4.0-1.0-34.0"}}, {"uniqueid": "w33481383:a28711576", "current_trial": 62, "dateTime": 1691076541259, "trialdata": {"revealed_states": [], "clicked_states": [], "num_clicks_accrued": [0, 0, 0, 0, 0, 0, 0, 0, 0, 0, 0, 0, 0], "stateRewards": ["", -1, 1, 8, -3, -24, 11, -65, -6, -77, 48, 44, -2, 1, -2, -7, -55, -35, 33, 8, -28, 19, -53, -1, -1, -5, -5, -70, 10, 44, 8, -58, -70, 51], "withholdReward": false, "trial_id": "mdp_trial_36", "block": "test", "trialIndex": 43, "score": -65, "costs": 0, "simulationMode": [null, null, null, null, null], "rewards": [-2, 1, -2, -7, -55], "path": ["0", "0", "12", "13", "14", "15", "16"], "rt": [4134, 265, 192, 295, 107], "actions": ["right", "right", "right", "up", "up"], "actionTimes": [6829, 7620, 8363, 9272, 9917], "queries": {"click": {"state": {"target": [], "time": []}, "edge": {"target": [], "time": []}}, "mouseover": {"state": {"target": ["0", "12"], "time": [4968, 5113]}, "edge": {"target": [], "time": []}}, "mouseout": {"state": {"target": ["0", "0", "12", "14"], "time": [4799, 5029, 17017, 17089]}, "edge": {"target": [], "time": []}}}, "displayed_time": "16.70", "trialTime": 18382, "trial_type": "mouselab-mdp", "trial_index": 62, "time_elapsed": 3708390, "internal_node_id": "0.0-4.0-1.0-35.0"}}, {"uniqueid": "w33481383:a28711576", "current_trial": 63, "dateTime": 1691076576998, "trialdata": {"revealed_states": [], "clicked_states": [], "num_clicks_accrued": [0, 0, 0, 0, 0, 0, 0, 0, 0, 0, 0, 0, 0], "stateRewards": ["", -1, -3, -7, -7, -76, 30, -49, 11, -70, 56, 2, 1, 4, -3, -14, -59, -83, -25, -9, -21, -67, -73, -2, 4, 4, -9, -11, -32, 60, 9, -87, 22, -64], "withholdReward": false, "trial_id": "mdp_trial_37", "block": "test", "trialIndex": 44, "score": -71, "costs": 0, "simulationMode": [null, null, null, null, null], "rewards": [1, 4, -3, -14, -59], "path": ["0", "0", "12", "13", "14", "15", "16"], "rt": [13819, 108, 9, 768, 63], "actions": ["right", "right", "right", "up", "up"], "actionTimes": [25949, 26588, 27134, 28453, 29095], "queries": {"click": {"state": {"target": [], "time": []}, "edge": {"target": [], "time": []}}, "mouseover": {"state": {"target": ["12"], "time": [21291]}, "edge": {"target": [], "time": []}}, "mouseout": {"state": {"target": ["0"], "time": [20970]}, "edge": {"target": [], "time": []}}}, "displayed_time": "29.66", "trialTime": 33600, "trial_type": "mouselab-mdp", "trial_index": 63, "time_elapsed": 3744129, "internal_node_id": "0.0-4.0-1.0-36.0"}}, {"uniqueid": "w33481383:a28711576", "current_trial": 64, "dateTime": 1691076611533, "trialdata": {"revealed_states": [], "clicked_states": [], "num_clicks_accrued": [0, 0, 0, 0, 0, 0, 0, 0, 0, 0, 0, 0, 0], "stateRewards": ["", 1, 4, -8, -13, -13, -87, -77, -10, -44, 54, 42, 2, -3, -4, 12, -9, -80, 52, 9, 84, -2, -65, 1, -4, -5, -6, 8, 80, 32, 13, -59, -5, -13], "withholdReward": false, "trial_id": "mdp_trial_38", "block": "test", "trialIndex": 45, "score": 29, "costs": 0, "simulationMode": [null, null, null, null, null], "rewards": [1, 4, -8, -10, 42], "path": ["0", "0", "1", "2", "3", "8", "11"], "rt": [2482, 499, 255, 611, 144], "actions": ["up", "up", "up", "left", "left"], "actionTimes": [6112, 7145, 7938, 9072, 9826], "queries": {"click": {"state": {"target": [], "time": []}, "edge": {"target": [], "time": []}}, "mouseover": {"state": {"target": ["1"], "time": [5119]}, "edge": {"target": [], "time": []}}, "mouseout": {"state": {"target": ["12", "0"], "time": [1908, 5027]}, "edge": {"target": [], "time": []}}}, "displayed_time": "17.63", "trialTime": 32249, "trial_type": "mouselab-mdp", "trial_index": 64, "time_elapsed": 3778665, "internal_node_id": "0.0-4.0-1.0-37.0"}}, {"uniqueid": "w33481383:a28711576", "current_trial": 65, "dateTime": 1691076646504, "trialdata": {"revealed_states": [], "clicked_states": [], "num_clicks_accrued": [0, 0, 0, 0, 0, 0, 0, 0, 0, 0, 0, 0, 0], "stateRewards": ["", 2, -1, 5, 6, 10, 86, 55, 10, -45, 63, -71, 1, -2, 5, -8, -50, -72, 36, 15, 61, 12, 33, -1, -4, 6, 5, 79, -56, -21, -16, -87, 60, -81], "withholdReward": false, "trial_id": "mdp_trial_39", "block": "test", "trialIndex": 46, "score": 31, "costs": 0, "simulationMode": [null, null, null, null, null], "rewards": [1, -2, 5, 15, 12], "path": ["0", "0", "12", "13", "14", "19", "21"], "rt": [18236, 316, 144, 544, 11], "actions": ["right", "right", "right", "down", "down"], "actionTimes": [27410, 28265, 28937, 30019, 30742], "queries": {"click": {"state": {"target": [], "time": []}, "edge": {"target": [], "time": []}}, "mouseover": {"state": {"target": [], "time": []}, "edge": {"target": [], "time": []}}, "mouseout": {"state": {"target": ["1"], "time": [6867]}, "edge": {"target": [], "time": []}}}, "displayed_time": "31.30", "trialTime": 32743, "trial_type": "mouselab-mdp", "trial_index": 65, "time_elapsed": 3813636, "internal_node_id": "0.0-4.0-1.0-38.0"}}, {"uniqueid": "w33481383:a28711576", "current_trial": 66, "dateTime": 1691076671640, "trialdata": {"revealed_states": [], "clicked_states": [], "num_clicks_accrued": [0, 0, 0, 0, 0, 0, 0, 0, 0, 0, 0, 0, 0], "stateRewards": ["", 2, -1, 3, -12, -83, 6, -33, 9, 28, 24, -50, -2, -1, -2, -5, -87, 37, 82, 12, 80, -5, 10, -2, -3, -6, 9, 22, -1, 16, 9, 77, -62, 58], "withholdReward": false, "trial_id": "mdp_trial_40", "block": "test", "trialIndex": 47, "score": -2, "costs": 0, "simulationMode": [null, null, null, null, null], "rewards": [2, -1, 3, -12, 6], "path": ["0", "0", "1", "2", "3", "4", "6"], "rt": [9943, 91, 124, 227, 16], "actions": ["up", "up", "up", "right", "right"], "actionTimes": [17051, 17674, 18346, 19114, 19690], "queries": {"click": {"state": {"target": [], "time": []}, "edge": {"target": [], "time": []}}, "mouseover": {"state": {"target": ["1"], "time": [8272]}, "edge": {"target": [], "time": []}}, "mouseout": {"state": {"target": ["0"], "time": [7161]}, "edge": {"target": [], "time": []}}}, "displayed_time": "21.11", "trialTime": 22937, "trial_type": "mouselab-mdp", "trial_index": 66, "time_elapsed": 3838771, "internal_node_id": "0.0-4.0-1.0-39.0"}}, {"uniqueid": "w33481383:a28711576", "current_trial": 67, "dateTime": 1691076732789, "trialdata": {"rt": 60642, "response": {"Q0": "$-2 to $2", "Q1": "$-4 to $4", "Q2": "$-32 to $32", "Q3": "The cost for clicking on nodes varied between nodes.", "Q4": "Very motivated"}, "question_order": [0, 1, 2, 3, 4], "trial_id": "final_quiz_control", "trial_type": "survey-multi-choice", "trial_index": 67, "time_elapsed": 3899921, "internal_node_id": "0.0-4.0-2.0"}}, {"uniqueid": "w33481383:a28711576", "current_trial": 68, "dateTime": 1691076784785, "trialdata": {"rt": 51091, "response": {"Q0": "no", "Q1": "no", "Q2": "not difficult"}, "trial_id": "self_report_control", "trial_type": "survey-text", "trial_index": 68, "time_elapsed": 3951918, "internal_node_id": "0.0-4.0-3.0"}}, {"uniqueid": "w33481383:a28711576", "current_trial": 69, "dateTime": 1691076847080, "trialdata": {"rt": 62279, "response": {"Q0": "Agree", "Q1": "Neither disagree nor agree", "Q2": "Neither disagree nor agree", "Q3": "Neither disagree nor agree", "Q4": "Neither disagree nor agree", "Q5": "Agree", "Q6": "Disagree"}, "question_order": [0, 1, 2, 3, 4, 5, 6], "trial_id": "self_report_2", "trial_type": "survey-multi-choice", "trial_index": 69, "time_elapsed": 4014212, "internal_node_id": "0.0-4.0-4.0"}}, {"uniqueid": "w33481383:a28711576", "current_trial": 70, "dateTime": 1691076876291, "trialdata": {"rt": 29115, "response": {"gender": "female", "age": "26", "colorblind": "0", "effort": "0"}, "trial_type": "survey-html-form", "trial_index": 70, "time_elapsed": 4043421, "internal_node_id": "0.0-4.0-5.0"}}, {"uniqueid": "w33481383:a28711576", "current_trial": 71, "dateTime": 1691076899503, "trialdata": {"rt": 23127, "response": {"Q0": "no", "Q1": "no", "Q2": "nothing"}, "trial_type": "survey-text", "trial_index": 71, "time_elapsed": 4066636, "internal_node_id": "0.0-4.0-6.0"}}, {"uniqueid": "w33481383:a28711576", "current_trial": 72, "dateTime": 1691076905527, "trialdata": {"rt": 5889, "stimulus": "Press 'Finish HIT' in order to reach the completion code. Once the data has been saved, you will receive the code either in this window or in the original browser window where you started the experiment.\n", "response": 0, "trial_type": "html-button-response", "trial_index": 72, "time_elapsed": 4072659, "internal_node_id": "0.0-5.0"}}, {"uniqueid": "w33481383:a28711576", "current_trial": 73, "dateTime": 1691076906561, "trialdata": {"success": true, "trial_type": "fullscreen", "trial_index": 73, "time_elapsed": 4073694, "internal_node_id": "0.0-6.0"}}], "questiondata": {"params": {"CODE": "C6DMOQA6", "MIN_TIME": 14, "inspectCost": 1, "startTime": "Thu Aug 03 2023 16:27:10 GMT+0200 (South Africa Standard Time)", "bonusRate": 0.002, "variance": "1_2_4_8_44", "branching": "31123"}}, "eventdata": [{"eventtype": "initialized", "value": null, "timestamp": 1691072829559, "interval": 0}, {"eventtype": "window_resize", "value": [1024, 654], "timestamp": 1691072829559, "interval": 0}, {"eventtype": "window_resize", "value": [1024, 654], "timestamp": 1691072830079, "interval": 520}, {"eventtype": "window_resize", "value": [1366, 768], "timestamp": 1691072865218, "interval": 35139}, {"eventtype": "focus", "value": "off", "timestamp": 1691073535289, "interval": 670071}, {"eventtype": "focus", "value": "on", "timestamp": 1691073535289, "interval": 0}, {"eventtype": "window_resize", "value": [1024, 654], "timestamp": 1691073535673, "interval": 384}, {"eventtype": "window_resize", "value": [1366, 768], "timestamp": 1691073539994, "interval": 4321}, {"eventtype": "focus", "value": "off", "timestamp": 1691074216837, "interval": 676843}, {"eventtype": "focus", "value": "on", "timestamp": 1691074216891, "interval": 54}, {"eventtype": "window_resize", "value": [1024, 654], "timestamp": 1691074217307, "interval": 416}, {"eventtype": "window_resize", "value": [1366, 768], "timestamp": 1691074220574, "interval": 3267}, {"eventtype": "focus", "value": "off", "timestamp": 1691074706640, "interval": 486066}, {"eventtype": "focus", "value": "on", "timestamp": 1691074706649, "interval": 9}, {"eventtype": "window_resize", "value": [1024, 654], "timestamp": 1691074707020, "interval": 371}, {"eventtype": "window_resize", "value": [1366, 768], "timestamp": 1691074709269, "interval": 2249}], "useragent": "Mozilla/5.0 (Windows NT 10.0; Win64; x64) AppleWebKit/537.36 (KHTML, like Gecko) Chrome/115.0.0.0 Safari/537.36", "mode": "live", "id": "w33481383:a28711576", "status": "user data saved", "Beginhit": "2023-08-03 14:27:06.530397", "Beginexp": "2023-08-03 14:27:46.138284", "Endhit": "2023-08-03 15:35:10.162465", "psiturkStatus": 3, "browser": "<redacted>", "platform": "windows", "language": "en-ZA"}