{"condition": 1, "counterbalance": 0, "assignmentId": "a49702746", "workerId": "w78662901", "hitId": "h76832956", "currenttrial": 56, "bonus": 0, "data": [{"uniqueid": "w78662901:a49702746", "current_trial": 0, "dateTime": 1693660299487, "trialdata": {"success": true, "trial_type": "fullscreen", "trial_index": 0, "time_elapsed": 8618, "internal_node_id": "0.0-0.0"}}, {"uniqueid": "w78662901:a49702746", "current_trial": 1, "dateTime": 1693660310813, "trialdata": {"view_history": [{"page_index": 0, "viewing_time": 11316}], "rt": 11316, "trial_id": "exp_instructions_misaligned", "trial_type": "instructions", "trial_index": 1, "time_elapsed": 19944, "internal_node_id": "0.0-1.0"}}, {"uniqueid": "w78662901:a49702746", "current_trial": 2, "dateTime": 1693660468348, "trialdata": {"view_history": [{"page_index": 0, "viewing_time": 66316}, {"page_index": 1, "viewing_time": 48499}, {"page_index": 2, "viewing_time": 13282}, {"page_index": 3, "viewing_time": 29431}], "rt": 157529, "trial_id": "mouselab_instructions_1_misaligned", "trial_type": "instructions", "trial_index": 2, "time_elapsed": 177479, "internal_node_id": "0.0-2.0-1.0"}}, {"uniqueid": "w78662901:a49702746", "current_trial": 3, "dateTime": 1693660557237, "trialdata": {"revealed_states": [], "clicked_states": ["12", "13", "14", "15", "17", "1", "2", "3", "4", "5", "23", "24", "25", "26", "29", "30", "19", "22", "8", "9", "11", "10", "28", "27", "33", "31", "32", "21", "20", "16", "18", "6", "7"], "num_clicks_accrued": [0, 0, 0, 0, 0, 0, 0, 0, 0, 0, 0, 0, 0], "stateRewards": ["", 10, 10, 10, -10, 10, -10, 10, -10, -10, 10, -10, 10, 10, -10, 10, -10, -10, -10, -10, -10, 10, -10, 10, 10, -10, 10, -10, 10, -10, 10, -10, -10, -10], "withholdReward": false, "trial_id": "practice_1", "block": "test", "trialIndex": 0, "score": -3, "costs": -16.5, "simulationMode": [null, null, null, null, null], "rewards": [10, 10, -10, -10, 10], "path": ["0", "0", "12", "13", "14", "19", "21"], "rt": [77284, 586, 617, 1430, 280], "actions": ["right", "right", "right", "down", "down"], "actionTimes": [80413, 81518, 82648, 84594, 85397], "queries": {"click": {"state": {"target": ["12", "13", "14", "15", "17", "1", "2", "3", "4", "5", "23", "24", "25", "26", "29", "30", "19", "22", "8", "9", "11", "10", "28", "27", "33", "31", "32", "21", "20", "16", "18", "6", "7"], "time": [4042, 6111, 7665, 9059, 10133, 14255, 16067, 17496, 18918, 20054, 22042, 23069, 24598, 25669, 27306, 33597, 37932, 39191, 43124, 44943, 47473, 48515, 50314, 51384, 52834, 54248, 55474, 57659, 59332, 61109, 62707, 65359, 66802]}, "edge": {"target": [], "time": []}}, "mouseover": {"state": {"target": ["12", "13", "14", "15", "17", "13", "12", "12", "0", "1", "2", "3", "4", "5", "2", "23", "24", "25", "26", "29", "12", "23", "31", "25", "30", "31", "12", "13", "14", "19", "22", "13", "1", "3", "8", "9", "11", "10", "28", "28", "27", "26", "25", "33", "30", "31", "32", "22", "21", "20", "14", "15", "16", "15", "18", "6", "7", "0", "12", "1", "0", "12", "13", "14", "14", "19", "20", "21", "22", "22"], "time": [3660, 5147, 7081, 8496, 9730, 11265, 12392, 12871, 12954, 13363, 14764, 17166, 17963, 19497, 21341, 21684, 22597, 23613, 25130, 26297, 28796, 31622, 31984, 33044, 33391, 34279, 35611, 36425, 37522, 37837, 38404, 41428, 41794, 42256, 42883, 43714, 47065, 48264, 49760, 50056, 51114, 51997, 52064, 52730, 53264, 53299, 55130, 56733, 57414, 58263, 59947, 59997, 60700, 61814, 62460, 65112, 65864, 68837, 70557, 71564, 72052, 72531, 73425, 74060, 74676, 74794, 75436, 77111, 78200, 78580]}, "edge": {"target": [], "time": []}}, "mouseout": {"state": {"target": ["0", "12", "13", "14", "15", "17", "13", "12", "12", "0", "1", "2", "3", "4", "5", "3", "2", "23", "24", "25", "26", "26", "29", "12", "23", "31", "25", "30", "31", "12", "13", "14", "19", "22", "19", "13", "1", "3", "8", "9", "9", "8", "11", "10", "28", "28", "27", "26", "25", "33", "30", "31", "32", "22", "21", "20", "14", "15", "16", "15", "18", "6", "7", "0", "12", "1", "0", "12", "13", "14", "14", "19", "20", "21", "22", "22"], "time": [1641, 5080, 6863, 7842, 9630, 11214, 11281, 12419, 12889, 13239, 14682, 16847, 17931, 19308, 20880, 21294, 21361, 22546, 23580, 25047, 25687, 26230, 27981, 30184, 31695, 32623, 33344, 34263, 34313, 36384, 37001, 37591, 37962, 40599, 41400, 41451, 41818, 42816, 43680, 45078, 45563, 46642, 47980, 49283, 49936, 50813, 51930, 52013, 52347, 53231, 53285, 54797, 56280, 57186, 58164, 59897, 59963, 60563, 61663, 61864, 64688, 65780, 67513, 68876, 70581, 71931, 72507, 73379, 74045, 74100, 74730, 75406, 76333, 77782, 78340, 78701]}, "edge": {"target": [], "time": []}}}, "displayed_time": "85.92", "trialTime": 88603, "trial_type": "mouselab-mdp", "trial_index": 3, "time_elapsed": 266369, "internal_node_id": "0.0-2.0-2.0-0.0"}}, {"uniqueid": "w78662901:a49702746", "current_trial": 4, "dateTime": 1693660574708, "trialdata": {"revealed_states": [], "clicked_states": [], "num_clicks_accrued": [0, 0, 0, 0, 0, 0, 0, 0, 0, 0, 0, 0, 0], "stateRewards": ["", -10, 10, 10, -10, -10, -10, 10, -10, 10, -10, -10, -10, -10, 10, -10, 10, -10, -10, 10, 10, 10, 10, 10, 10, -10, 10, 10, 10, 10, -10, 10, 10, 10], "withholdReward": false, "trial_id": "practice_2", "block": "test", "trialIndex": 1, "score": 13.5, "costs": 0, "simulationMode": [null, null, null, null, null], "rewards": [-10, -10, 10, 10, 10], "path": ["0", "0", "12", "13", "14", "19", "21"], "rt": [1575, 1038, 666, 1410, 401], "actions": ["right", "right", "right", "down", "down"], "actionTimes": [6882, 8500, 9750, 11748, 12735], "queries": {"click": {"state": {"target": [], "time": []}, "edge": {"target": [], "time": []}}, "mouseover": {"state": {"target": [], "time": []}, "edge": {"target": [], "time": []}}, "mouseout": {"state": {"target": ["22", "0"], "time": [3261, 5433]}, "edge": {"target": [], "time": []}}}, "displayed_time": "13.31", "trialTime": 15901, "trial_type": "mouselab-mdp", "trial_index": 4, "time_elapsed": 283839, "internal_node_id": "0.0-2.0-2.0-1.0"}}, {"uniqueid": "w78662901:a49702746", "current_trial": 5, "dateTime": 1693660601488, "trialdata": {"view_history": [{"page_index": 0, "viewing_time": 19542}, {"page_index": 1, "viewing_time": 7234}], "rt": 26777, "trial_id": "mouselab_instructions_2_misaligned", "trial_type": "instructions", "trial_index": 5, "time_elapsed": 310620, "internal_node_id": "0.0-2.0-3.0"}}, {"uniqueid": "w78662901:a49702746", "current_trial": 6, "dateTime": 1693660640954, "trialdata": {"rt": 39458, "response": {"Q0": "The cost for clicking on nodes may vary between nodes.", "Q1": "The better I perform the higher my bonus will be.", "Q2": "No, the amount of cash at each node of the web may be different each time.", "Q3": "To get the highest total score.", "Q4": "Only before moving the spider.", "Q5": "3 seconds"}, "question_order": [0, 1, 2, 3, 4, 5], "correct": {"Q0": "The cost for clicking on nodes may vary between nodes.", "Q1": "The better I perform the higher my bonus will be.", "Q2": "No, the amount of cash at each node of the web may be different each time.", "Q3": "To get the highest total score.", "Q4": "Only before moving the spider.", "Q5": "3 seconds"}, "trial_id": "mouselab_quiz_misaligned", "trial_type": "survey-multi-choice", "trial_index": 6, "time_elapsed": 350085, "internal_node_id": "0.0-2.0-4.0"}}, {"uniqueid": "w78662901:a49702746", "current_trial": 7, "dateTime": 1693660651170, "trialdata": {"rt": 10206, "response": {"Q0": "No"}, "question_order": [0], "trial_id": "repeat_check", "trial_type": "survey-multi-choice", "trial_index": 7, "time_elapsed": 360301, "internal_node_id": "0.0-4.0-0.0"}}, {"uniqueid": "w78662901:a49702746", "current_trial": 8, "dateTime": 1693660662327, "trialdata": {"rt": 11150, "stimulus": "\n<h1> Get ready to start the game! </h1>\n\nThank you for reading the instructions. Get ready start with the 40 rounds of this game.\n<br><br>\nIf you need to take a break, feel free to take one after the end of a round, before continuing to the next one.\n<br><br>\nRemember, the more money the spider gets, the bigger your bonus will be!\n<br><br>\n<div style='text-align: center;'>Press <code>space</code> to begin.</div>\n\n<br><br>\n(If, at any point, the <code>space</code> key does not take you to the next page, click once on the text and try again.)", "response": " ", "trial_id": "mdp_ready", "trial_type": "html-keyboard-response", "trial_index": 8, "time_elapsed": 371459, "internal_node_id": "0.0-6.0-0.0"}}, {"uniqueid": "w78662901:a49702746", "current_trial": 9, "dateTime": 1693660686395, "trialdata": {"revealed_states": [], "clicked_states": [], "num_clicks_accrued": [0, 0, 0, 0, 0, 0, 0, 0, 0, 0, 0, 0, 0], "stateRewards": ["", -1, 2, 6, 11, 21, -21, -21, -6, 48, -71, 88, -1, -3, 3, 7, 64, 2, 9, -4, 37, -67, 72, 2, 2, -8, -8, -10, 71, -40, -3, 73, 80, 47], "withholdReward": false, "trial_id": "mdp_trial_1", "block": "test", "trialIndex": 2, "score": 8, "costs": 0, "simulationMode": [null, null, null, null, null], "rewards": [-1, -3, 3, 7, 2], "path": ["0", "0", "12", "13", "14", "15", "17"], "rt": [2383, 5721, 472, 995, 547], "actions": ["right", "right", "right", "up", "right"], "actionTimes": [5601, 11886, 12929, 14489, 15599], "queries": {"click": {"state": {"target": [], "time": []}, "edge": {"target": [], "time": []}}, "mouseover": {"state": {"target": ["12"], "time": [4047]}, "edge": {"target": [], "time": []}}, "mouseout": {"state": {"target": ["1", "1", "12", "13", "12"], "time": [169, 1367, 8163, 17612, 18429]}, "edge": {"target": [], "time": []}}}, "displayed_time": "17.75", "trialTime": 22484, "trial_type": "mouselab-mdp", "trial_index": 9, "time_elapsed": 395527, "internal_node_id": "0.0-6.0-1.0-0.0"}}, {"uniqueid": "w78662901:a49702746", "current_trial": 10, "dateTime": 1693660713285, "trialdata": {"revealed_states": [], "clicked_states": ["12"], "num_clicks_accrued": [0, 0, 0, 0, 0, 0, 0, 0, 0, 0, 0, 0, 0], "stateRewards": ["", 1, -3, -4, -11, -56, 61, -47, -16, -28, -9, 69, -2, -3, -4, -8, 40, -86, 59, -4, 80, 27, 54, -1, 3, -1, 8, 67, 23, 50, 6, 83, -43, -29], "withholdReward": false, "trial_id": "mdp_trial_2", "block": "test", "trialIndex": 3, "score": 67.25, "costs": 0.25, "simulationMode": [null, null, null, null, null], "rewards": [-2, -3, -4, -4, 80], "path": ["0", "0", "12", "13", "14", "19", "20"], "rt": [8945, 369, 344, 1778, 1780], "actions": ["right", "right", "right", "down", "right"], "actionTimes": [13143, 14072, 14992, 17345, 19683], "queries": {"click": {"state": {"target": ["12"], "time": [5986]}, "edge": {"target": [], "time": []}}, "mouseover": {"state": {"target": ["12", "0", "23", "13", "0", "12", "13"], "time": [5288, 7616, 7893, 8577, 8896, 9146, 9466]}, "edge": {"target": [], "time": []}}, "mouseout": {"state": {"target": ["0", "12", "12", "0", "23", "12", "13", "12", "0", "12", "13", "12", "0"], "time": [5202, 6950, 7585, 7658, 8468, 8549, 8755, 8868, 9114, 9264, 23287, 23330, 24801]}, "edge": {"target": [], "time": []}}}, "displayed_time": "20.27", "trialTime": 25313, "trial_type": "mouselab-mdp", "trial_index": 10, "time_elapsed": 422417, "internal_node_id": "0.0-6.0-1.0-1.0"}}, {"uniqueid": "w78662901:a49702746", "current_trial": 11, "dateTime": 1693660735710, "trialdata": {"revealed_states": [], "clicked_states": ["23"], "num_clicks_accrued": [0, 0, 0, 0, 0, 0, 0, 0, 0, 0, 0, 0, 0], "stateRewards": ["", 1, 1, -3, 7, 49, 78, 26, -5, 26, 48, -43, -1, -3, 2, -5, 4, -1, -60, 10, -35, 51, 81, -2, 1, -7, -5, -39, -86, -54, 4, -3, 74, 77], "withholdReward": false, "trial_id": "mdp_trial_3", "block": "test", "trialIndex": 4, "score": -66.75, "costs": 0.25, "simulationMode": [null, null, null, null, null], "rewards": [-2, 1, -7, -5, -54], "path": ["0", "0", "23", "24", "25", "26", "29"], "rt": [4331, 666, 2735, 1181, 2740], "actions": ["left", "left", "left", "up", "left"], "actionTimes": [7086, 8333, 11627, 13370, 16675], "queries": {"click": {"state": {"target": ["23"], "time": [4462]}, "edge": {"target": [], "time": []}}, "mouseover": {"state": {"target": ["0", "23", "24"], "time": [2826, 3982, 5628]}, "edge": {"target": [], "time": []}}, "mouseout": {"state": {"target": ["0", "0", "23"], "time": [1366, 3724, 5471]}, "edge": {"target": [], "time": []}}}, "displayed_time": "17.23", "trialTime": 20841, "trial_type": "mouselab-mdp", "trial_index": 11, "time_elapsed": 444842, "internal_node_id": "0.0-6.0-1.0-2.0"}}, {"uniqueid": "w78662901:a49702746", "current_trial": 12, "dateTime": 1693660757015, "trialdata": {"revealed_states": [], "clicked_states": [], "num_clicks_accrued": [0, 0, 0, 0, 0, 0, 0, 0, 0, 0, 0, 0, 0], "stateRewards": ["", -1, 3, -7, 16, -32, -74, -48, 2, 10, 15, -30, 1, 1, -2, 10, 12, -83, 67, 13, -66, 47, 65, -2, 4, 2, -14, -8, -57, 24, 9, 65, 12, 46], "withholdReward": false, "trial_id": "mdp_trial_4", "block": "test", "trialIndex": 5, "score": 7, "costs": 0, "simulationMode": [null, null, null, null, null], "rewards": [-1, 3, -7, 2, 10], "path": ["0", "0", "1", "2", "3", "8", "9"], "rt": [2850, 1351, 1348, 992, 1149], "actions": ["up", "up", "up", "left", "up"], "actionTimes": [6415, 8328, 10244, 11807, 13543], "queries": {"click": {"state": {"target": [], "time": []}, "edge": {"target": [], "time": []}}, "mouseover": {"state": {"target": [], "time": []}, "edge": {"target": [], "time": []}}, "mouseout": {"state": {"target": ["24", "23", "0"], "time": [680, 1815, 18678]}, "edge": {"target": [], "time": []}}}, "displayed_time": "18.00", "trialTime": 19732, "trial_type": "mouselab-mdp", "trial_index": 12, "time_elapsed": 466145, "internal_node_id": "0.0-6.0-1.0-3.0"}}, {"uniqueid": "w78662901:a49702746", "current_trial": 13, "dateTime": 1693660780046, "trialdata": {"revealed_states": [], "clicked_states": ["23"], "num_clicks_accrued": [0, 0, 0, 0, 0, 0, 0, 0, 0, 0, 0, 0, 0], "stateRewards": ["", -1, 2, -7, -12, -62, 12, -13, 5, 77, -71, 83, 1, -4, 7, 15, -42, -87, -4, 5, -25, 44, 88, -1, 4, -5, -8, 14, 51, 8, -5, 83, -24, -19], "withholdReward": false, "trial_id": "mdp_trial_5", "block": "test", "trialIndex": 6, "score": 76.25, "costs": 0.25, "simulationMode": [null, null, null, null, null], "rewards": [-1, 4, -5, -5, 83], "path": ["0", "0", "23", "24", "25", "30", "31"], "rt": [4404, 665, 848, 1926, 2221], "actions": ["left", "left", "left", "down", "right"], "actionTimes": [8207, 9456, 10883, 13397, 16175], "queries": {"click": {"state": {"target": ["23"], "time": [6116]}, "edge": {"target": [], "time": []}}, "mouseover": {"state": {"target": ["23"], "time": [5652]}, "edge": {"target": [], "time": []}}, "mouseout": {"state": {"target": ["0", "23"], "time": [5302, 20390]}, "edge": {"target": [], "time": []}}}, "displayed_time": "18.19", "trialTime": 21424, "trial_type": "mouselab-mdp", "trial_index": 13, "time_elapsed": 489177, "internal_node_id": "0.0-6.0-1.0-4.0"}}, {"uniqueid": "w78662901:a49702746", "current_trial": 14, "dateTime": 1693660804361, "trialdata": {"revealed_states": [], "clicked_states": [], "num_clicks_accrued": [0, 0, 0, 0, 0, 0, 0, 0, 0, 0, 0, 0, 0], "stateRewards": ["", -1, -3, -6, -2, -7, 80, -45, -3, -38, -72, 76, 2, 1, 7, 4, -62, 14, -74, 14, -87, -21, -88, -2, 1, -7, -10, 66, 56, -76, 10, -29, -72, -70], "withholdReward": false, "trial_id": "mdp_trial_6", "block": "test", "trialIndex": 7, "score": -51, "costs": 0, "simulationMode": [null, null, null, null, null], "rewards": [-1, -3, -6, -3, -38], "path": ["0", "0", "1", "2", "3", "8", "9"], "rt": [4137, 692, 735, 1517, 3245], "actions": ["up", "up", "up", "left", "up"], "actionTimes": [10251, 11531, 12822, 14901, 18707], "queries": {"click": {"state": {"target": [], "time": []}, "edge": {"target": [], "time": []}}, "mouseover": {"state": {"target": [], "time": []}, "edge": {"target": [], "time": []}}, "mouseout": {"state": {"target": ["2", "2", "0", "0"], "time": [1915, 2359, 4146, 6958]}, "edge": {"target": [], "time": []}}}, "displayed_time": "20.49", "trialTime": 22757, "trial_type": "mouselab-mdp", "trial_index": 14, "time_elapsed": 513493, "internal_node_id": "0.0-6.0-1.0-5.0"}}, {"uniqueid": "w78662901:a49702746", "current_trial": 15, "dateTime": 1693660824997, "trialdata": {"revealed_states": [], "clicked_states": ["23"], "num_clicks_accrued": [0, 0, 0, 0, 0, 0, 0, 0, 0, 0, 0, 0, 0], "stateRewards": ["", -1, -3, -5, -14, -13, -47, 79, 8, -60, -64, 41, -1, 2, 3, 13, -46, 61, -79, -11, -64, -65, 23, 1, -2, 6, -14, 46, 32, 21, 7, 75, -66, 15], "withholdReward": false, "trial_id": "mdp_trial_7", "block": "test", "trialIndex": 8, "score": 12.25, "costs": 0.25, "simulationMode": [null, null, null, null, null], "rewards": [1, -2, 6, -14, 21], "path": ["0", "0", "23", "24", "25", "26", "29"], "rt": [3965, 753, 536, 1636, 1218], "actions": ["left", "left", "left", "up", "left"], "actionTimes": [6743, 8074, 9174, 11378, 13156], "queries": {"click": {"state": {"target": ["23"], "time": [5168]}, "edge": {"target": [], "time": []}}, "mouseover": {"state": {"target": ["0", "23"], "time": [4618, 4937]}, "edge": {"target": [], "time": []}}, "mouseout": {"state": {"target": ["0", "0"], "time": [1244, 4809]}, "edge": {"target": [], "time": []}}}, "displayed_time": "17.12", "trialTime": 19044, "trial_type": "mouselab-mdp", "trial_index": 15, "time_elapsed": 534129, "internal_node_id": "0.0-6.0-1.0-6.0"}}, {"uniqueid": "w78662901:a49702746", "current_trial": 16, "dateTime": 1693660846029, "trialdata": {"revealed_states": [], "clicked_states": ["1"], "num_clicks_accrued": [0, 0, 0, 0, 0, 0, 0, 0, 0, 0, 0, 0, 0], "stateRewards": ["", 2, -4, 1, -12, -59, -53, -74, 16, -88, -66, 66, 1, -2, 8, -9, -14, 22, 25, -1, -39, 47, -14, -1, -1, -2, 1, -4, 52, -26, 15, -7, 46, 43], "withholdReward": false, "trial_id": "mdp_trial_8", "block": "test", "trialIndex": 9, "score": -72.75, "costs": 0.25, "simulationMode": [null, null, null, null, null], "rewards": [2, -4, 1, 16, -88], "path": ["0", "0", "1", "2", "3", "8", "9"], "rt": [3209, 687, 1013, 1056, 1256], "actions": ["up", "up", "up", "left", "up"], "actionTimes": [6405, 7648, 9244, 10869, 12686], "queries": {"click": {"state": {"target": ["1"], "time": [4565]}, "edge": {"target": [], "time": []}}, "mouseover": {"state": {"target": ["1"], "time": [4016]}, "edge": {"target": [], "time": []}}, "mouseout": {"state": {"target": ["23", "0", "1", "0"], "time": [657, 3414, 15128, 15658]}, "edge": {"target": [], "time": []}}}, "displayed_time": "17.46", "trialTime": 19453, "trial_type": "mouselab-mdp", "trial_index": 16, "time_elapsed": 555161, "internal_node_id": "0.0-6.0-1.0-7.0"}}, {"uniqueid": "w78662901:a49702746", "current_trial": 17, "dateTime": 1693660866308, "trialdata": {"revealed_states": [], "clicked_states": ["1"], "num_clicks_accrued": [0, 0, 0, 0, 0, 0, 0, 0, 0, 0, 0, 0, 0], "stateRewards": ["", -1, 2, -6, 6, 43, 78, 78, -2, 55, -29, -17, -2, -4, 1, -15, 13, 7, -79, 8, -28, -68, 36, -1, -3, 3, -16, 84, -18, 87, 10, 32, 13, -81], "withholdReward": false, "trial_id": "mdp_trial_9", "block": "test", "trialIndex": 10, "score": -98.75, "costs": 0.25, "simulationMode": [null, null, null, null, null], "rewards": [-2, -4, 1, -15, -79], "path": ["0", "0", "12", "13", "14", "15", "18"], "rt": [5951, 1041, 1043, 1870, 1378], "actions": ["right", "right", "right", "up", "left"], "actionTimes": [8683, 10279, 11880, 14323, 16267], "queries": {"click": {"state": {"target": ["1"], "time": [4283]}, "edge": {"target": [], "time": []}}, "mouseover": {"state": {"target": ["1"], "time": [3340]}, "edge": {"target": [], "time": []}}, "mouseout": {"state": {"target": ["0"], "time": [3261]}, "edge": {"target": [], "time": []}}}, "displayed_time": "17.10", "trialTime": 18709, "trial_type": "mouselab-mdp", "trial_index": 17, "time_elapsed": 575440, "internal_node_id": "0.0-6.0-1.0-8.0"}}, {"uniqueid": "w78662901:a49702746", "current_trial": 18, "dateTime": 1693660890745, "trialdata": {"revealed_states": [], "clicked_states": ["23"], "num_clicks_accrued": [0, 0, 0, 0, 0, 0, 0, 0, 0, 0, 0, 0, 0], "stateRewards": ["", 2, 3, 8, 11, 25, -80, 6, -4, -56, 84, -23, -2, -4, -3, 4, -51, -9, -61, -15, -64, 67, -35, 1, -1, -7, -6, 83, 59, -15, 12, -79, 56, 41], "withholdReward": false, "trial_id": "mdp_trial_10", "block": "test", "trialIndex": 11, "score": 70.25, "costs": 0.25, "simulationMode": [null, null, null, null, null], "rewards": [1, -1, -7, -6, 83], "path": ["0", "0", "23", "24", "25", "26", "27"], "rt": [3887, 775, 841, 2050, 1304], "actions": ["left", "left", "left", "up", "up"], "actionTimes": [6628, 7987, 9406, 12015, 13882], "queries": {"click": {"state": {"target": ["23"], "time": [5278]}, "edge": {"target": [], "time": []}}, "mouseover": {"state": {"target": ["23"], "time": [4881]}, "edge": {"target": [], "time": []}}, "mouseout": {"state": {"target": ["1", "0"], "time": [541, 3548]}, "edge": {"target": [], "time": []}}}, "displayed_time": "17.08", "trialTime": 22851, "trial_type": "mouselab-mdp", "trial_index": 18, "time_elapsed": 599877, "internal_node_id": "0.0-6.0-1.0-9.0"}}, {"uniqueid": "w78662901:a49702746", "current_trial": 19, "dateTime": 1693660920492, "trialdata": {"revealed_states": [], "clicked_states": [], "num_clicks_accrued": [0, 0, 0, 0, 0, 0, 0, 0, 0, 0, 0, 0, 0], "stateRewards": ["", 2, -2, -3, 10, -4, -1, -11, -8, -9, -36, -78, 2, 1, 7, -7, 44, -1, -31, -1, 26, 47, 83, 2, -4, -4, -6, -52, -76, -81, -1, -59, 45, 67], "withholdReward": false, "trial_id": "mdp_trial_11", "block": "test", "trialIndex": 12, "score": 6, "costs": 0, "simulationMode": [null, null, null, null, null], "rewards": [2, -2, -3, 10, -1], "path": ["0", "0", "1", "2", "3", "4", "6"], "rt": [2806, 1014, 1123, 1166, 629], "actions": ["up", "up", "up", "right", "right"], "actionTimes": [6887, 8474, 10157, 11891, 13097], "queries": {"click": {"state": {"target": [], "time": []}, "edge": {"target": [], "time": []}}, "mouseover": {"state": {"target": [], "time": []}, "edge": {"target": [], "time": []}}, "mouseout": {"state": {"target": ["23", "0"], "time": [489, 22418]}, "edge": {"target": [], "time": []}}}, "displayed_time": "18.45", "trialTime": 28168, "trial_type": "mouselab-mdp", "trial_index": 19, "time_elapsed": 629623, "internal_node_id": "0.0-6.0-1.0-10.0"}}, {"uniqueid": "w78662901:a49702746", "current_trial": 20, "dateTime": 1693660940912, "trialdata": {"revealed_states": [], "clicked_states": [], "num_clicks_accrued": [0, 0, 0, 0, 0, 0, 0, 0, 0, 0, 0, 0, 0], "stateRewards": ["", 2, 3, -2, -8, -8, -41, 74, 15, -23, -80, 1, 1, 3, 3, -15, -63, -78, 67, 13, 75, -41, 86, 2, -2, 6, -3, -8, -49, 50, -6, 83, 74, 80], "withholdReward": false, "trial_id": "mdp_trial_12", "block": "test", "trialIndex": 13, "score": -5, "costs": 0, "simulationMode": [null, null, null, null, null], "rewards": [2, 3, -2, 15, -23], "path": ["0", "0", "1", "2", "3", "8", "9"], "rt": [2499, 1458, 516, 869, 1268], "actions": ["up", "up", "up", "left", "up"], "actionTimes": [5382, 7420, 8496, 9927, 11783], "queries": {"click": {"state": {"target": [], "time": []}, "edge": {"target": [], "time": []}}, "mouseover": {"state": {"target": [], "time": []}, "edge": {"target": [], "time": []}}, "mouseout": {"state": {"target": ["23", "0"], "time": [503, 16027]}, "edge": {"target": [], "time": []}}}, "displayed_time": "17.26", "trialTime": 18847, "trial_type": "mouselab-mdp", "trial_index": 20, "time_elapsed": 650043, "internal_node_id": "0.0-6.0-1.0-11.0"}}, {"uniqueid": "w78662901:a49702746", "current_trial": 21, "dateTime": 1693660963026, "trialdata": {"revealed_states": [], "clicked_states": ["1"], "num_clicks_accrued": [0, 0, 0, 0, 0, 0, 0, 0, 0, 0, 0, 0, 0], "stateRewards": ["", 2, -1, -4, -13, 74, 77, 3, 2, -43, -2, -11, 2, 3, 7, 11, -26, -29, -33, -3, -3, -13, -3, 1, 3, -7, 14, -59, 33, 9, -5, 34, 79, 68], "withholdReward": false, "trial_id": "mdp_trial_13", "block": "test", "trialIndex": 14, "score": 58.25, "costs": 0.25, "simulationMode": [null, null, null, null, null], "rewards": [2, -1, -4, -13, 74], "path": ["0", "0", "1", "2", "3", "4", "5"], "rt": [3990, 530, 533, 596, 860], "actions": ["up", "up", "up", "right", "up"], "actionTimes": [7559, 8648, 9764, 10943, 12358], "queries": {"click": {"state": {"target": ["1"], "time": [4923]}, "edge": {"target": [], "time": []}}, "mouseover": {"state": {"target": ["1", "2"], "time": [4544, 6431]}, "edge": {"target": [], "time": []}}, "mouseout": {"state": {"target": ["0", "1", "2"], "time": [4102, 5684, 15201]}, "edge": {"target": [], "time": []}}}, "displayed_time": "17.88", "trialTime": 20550, "trial_type": "mouselab-mdp", "trial_index": 21, "time_elapsed": 672156, "internal_node_id": "0.0-6.0-1.0-12.0"}}, {"uniqueid": "w78662901:a49702746", "current_trial": 22, "dateTime": 1693660988779, "trialdata": {"revealed_states": [], "clicked_states": ["23"], "num_clicks_accrued": [0, 0, 0, 0, 0, 0, 0, 0, 0, 0, 0, 0, 0], "stateRewards": ["", -1, 2, 5, -6, 13, -64, -47, 8, -79, -80, -33, 1, 2, -2, -16, 56, -71, -10, 3, 29, 44, 85, -1, 4, 5, 4, -36, -56, 19, 8, 52, -13, -2], "withholdReward": false, "trial_id": "mdp_trial_14", "block": "test", "trialIndex": 15, "score": -43.75, "costs": 0.25, "simulationMode": [null, null, null, null, null], "rewards": [-1, 4, 5, 4, -56], "path": ["0", "0", "23", "24", "25", "26", "28"], "rt": [2823, 3589, 664, 908, 2733], "actions": ["left", "left", "left", "up", "right"], "actionTimes": [5704, 9878, 11108, 12578, 15871], "queries": {"click": {"state": {"target": ["23"], "time": [4361]}, "edge": {"target": [], "time": []}}, "mouseover": {"state": {"target": ["23"], "time": [3570]}, "edge": {"target": [], "time": []}}, "mouseout": {"state": {"target": ["1", "0", "23", "0"], "time": [1135, 3527, 19328, 21264]}, "edge": {"target": [], "time": []}}}, "displayed_time": "17.43", "trialTime": 24179, "trial_type": "mouselab-mdp", "trial_index": 22, "time_elapsed": 697910, "internal_node_id": "0.0-6.0-1.0-13.0"}}, {"uniqueid": "w78662901:a49702746", "current_trial": 23, "dateTime": 1693661010141, "trialdata": {"revealed_states": [], "clicked_states": [], "num_clicks_accrued": [0, 0, 0, 0, 0, 0, 0, 0, 0, 0, 0, 0, 0], "stateRewards": ["", 2, -2, 7, -11, -76, -65, -23, 16, -58, 30, 81, 1, 2, 7, 14, 9, 55, -2, 6, 11, -15, 31, -1, -1, -3, 2, 15, 2, 46, 15, 18, 45, -34], "withholdReward": false, "trial_id": "mdp_trial_15", "block": "test", "trialIndex": 16, "score": -35, "costs": 0, "simulationMode": [null, null, null, null, null], "rewards": [2, -2, 7, 16, -58], "path": ["0", "0", "1", "2", "3", "8", "9"], "rt": [2084, 1288, 409, 665, 1009], "actions": ["up", "up", "up", "left", "up"], "actionTimes": [5976, 7824, 8814, 10044, 11620], "queries": {"click": {"state": {"target": [], "time": []}, "edge": {"target": [], "time": []}}, "mouseover": {"state": {"target": [], "time": []}, "edge": {"target": [], "time": []}}, "mouseout": {"state": {"target": ["0", "1"], "time": [4641, 14440]}, "edge": {"target": [], "time": []}}}, "displayed_time": "18.41", "trialTime": 19788, "trial_type": "mouselab-mdp", "trial_index": 23, "time_elapsed": 719272, "internal_node_id": "0.0-6.0-1.0-14.0"}}, {"uniqueid": "w78662901:a49702746", "current_trial": 24, "dateTime": 1693661031468, "trialdata": {"revealed_states": [], "clicked_states": ["1"], "num_clicks_accrued": [0, 0, 0, 0, 0, 0, 0, 0, 0, 0, 0, 0, 0], "stateRewards": ["", 1, 1, 1, -3, -7, -1, -41, -10, 20, -72, -63, 1, -4, -2, 2, -66, 30, -84, -2, 49, 23, 71, -1, -4, 4, -12, 67, 5, 18, -16, 88, 56, -5], "withholdReward": false, "trial_id": "mdp_trial_16", "block": "test", "trialIndex": 17, "score": -6.75, "costs": 0.25, "simulationMode": [null, null, null, null, null], "rewards": [1, 1, 1, -3, -7], "path": ["0", "0", "1", "2", "3", "4", "5"], "rt": [2664, 233, 193, 523, 689], "actions": ["up", "up", "up", "right", "up"], "actionTimes": [5023, 5813, 6592, 7672, 8919], "queries": {"click": {"state": {"target": ["1"], "time": [3491]}, "edge": {"target": [], "time": []}}, "mouseover": {"state": {"target": ["1"], "time": [3075]}, "edge": {"target": [], "time": []}}, "mouseout": {"state": {"target": ["0", "1"], "time": [413, 10599]}, "edge": {"target": [], "time": []}}}, "displayed_time": "16.97", "trialTime": 19306, "trial_type": "mouselab-mdp", "trial_index": 24, "time_elapsed": 740599, "internal_node_id": "0.0-6.0-1.0-15.0"}}, {"uniqueid": "w78662901:a49702746", "current_trial": 25, "dateTime": 1693661057494, "trialdata": {"revealed_states": [], "clicked_states": ["1", "2"], "num_clicks_accrued": [0, 0, 0, 0, 0, 0, 0, 0, 0, 0, 0, 0, 0], "stateRewards": ["", -1, 1, -2, 5, 73, 15, 61, 8, 7, 38, 76, 2, 2, -4, -6, -6, -26, 43, -5, -45, -85, -35, -2, 1, -4, 15, -10, 69, 72, -11, 84, -49, -38], "withholdReward": false, "trial_id": "mdp_trial_17", "block": "test", "trialIndex": 18, "score": -12.1, "costs": -0.09999999999999998, "simulationMode": [null, null, null, null, null], "rewards": [2, 2, -4, -6, -6], "path": ["0", "0", "12", "13", "14", "15", "16"], "rt": [3794, 606, 341, 652, 79], "actions": ["right", "right", "right", "up", "up"], "actionTimes": [6380, 7565, 8469, 9646, 10305], "queries": {"click": {"state": {"target": ["1", "2"], "time": [3676, 5408]}, "edge": {"target": [], "time": []}}, "mouseover": {"state": {"target": ["1", "2"], "time": [3173, 4636]}, "edge": {"target": [], "time": []}}, "mouseout": {"state": {"target": ["0", "1", "2", "1", "0", "0", "1", "0"], "time": [3110, 4330, 11927, 19632, 20230, 21541, 22140, 24058]}, "edge": {"target": [], "time": []}}}, "displayed_time": "17.24", "trialTime": 24448, "trial_type": "mouselab-mdp", "trial_index": 25, "time_elapsed": 766625, "internal_node_id": "0.0-6.0-1.0-16.0"}}, {"uniqueid": "w78662901:a49702746", "current_trial": 26, "dateTime": 1693661097514, "trialdata": {"revealed_states": [], "clicked_states": ["23", "24", "12", "13", "14", "1", "2", "3", "8", "9", "15", "17", "22"], "num_clicks_accrued": [0, 0, 0, 0, 0, 0, 0, 0, 0, 0, 0, 0, 0], "stateRewards": ["", 2, 4, -3, 16, -58, 30, -35, 11, -60, 47, 27, -2, -1, -7, -16, 23, -70, 68, -10, -65, -43, -34, -2, 1, 7, 9, -63, 34, -31, -8, -12, -86, 59], "withholdReward": false, "trial_id": "mdp_trial_18", "block": "test", "trialIndex": 19, "score": 30.25, "costs": -11.75, "simulationMode": [null, null, null, null, null, null], "rewards": [-2, -1, -7, -16, 68], "path": ["0", "0", "12", "13", "14", "15", "18"], "rt": [25308, 246, 275, 28, 805, 745], "actions": ["right", "right", "right", "right", "up", "left"], "actionTimes": [27737, 28006, 28837, 29426, 30801, 32100], "queries": {"click": {"state": {"target": ["23", "24", "12", "13", "14", "1", "2", "3", "8", "9", "15", "17", "22"], "time": [3705, 6140, 7980, 10062, 11077, 12601, 13704, 15764, 16629, 17561, 21219, 22005, 24938]}, "edge": {"target": [], "time": []}}, "mouseover": {"state": {"target": ["23", "24", "12", "13", "14", "12", "1", "2", "24", "3", "8", "9", "10", "2", "13", "14", "15", "17", "14", "14", "19", "22", "21"], "time": [3383, 5858, 7776, 9795, 10755, 11861, 12253, 13216, 14851, 15390, 16316, 17238, 18650, 19043, 20228, 20467, 21053, 21742, 22588, 22705, 23040, 24683, 25878]}, "edge": {"target": [], "time": []}}, "mouseout": {"state": {"target": ["0", "23", "24", "12", "13", "14", "13", "12", "1", "2", "1", "24", "2", "3", "8", "9", "10", "2", "13", "14", "15", "17", "14", "14", "19", "22", "21", "22", "13", "13", "18"], "time": [3229, 5779, 7115, 8188, 10656, 11663, 11787, 11909, 12649, 14557, 14679, 15213, 15309, 16269, 17187, 18505, 18997, 19090, 20276, 20742, 21696, 22517, 22634, 22945, 24563, 25662, 26563, 35242, 35400, 35630, 37177]}, "edge": {"target": [], "time": []}}}, "displayed_time": "32.67", "trialTime": 38418, "trial_type": "mouselab-mdp", "trial_index": 26, "time_elapsed": 806645, "internal_node_id": "0.0-6.0-1.0-17.0"}}, {"uniqueid": "w78662901:a49702746", "current_trial": 27, "dateTime": 1693661116959, "trialdata": {"revealed_states": [], "clicked_states": [], "num_clicks_accrued": [0, 0, 0, 0, 0, 0, 0, 0, 0, 0, 0, 0, 0], "stateRewards": ["", -2, 1, -5, 2, -68, 80, 33, 10, 67, -59, 20, -1, -3, 3, 14, 74, -2, 24, -16, 63, 80, 46, -1, 4, 6, 12, 83, -38, -43, -4, 43, 14, -79], "withholdReward": false, "trial_id": "mdp_trial_19", "block": "test", "trialIndex": 20, "score": 126, "costs": 0, "simulationMode": [null, null, null, null, null, null, null, null, null, null, null, null, null], "rewards": [-1, -1, -3, -3, 3, 3, -16, -16, 80, 80], "path": ["0", "0", "12", "12", "13", "13", "14", "14", "19", "19", "21", "21"], "rt": [9075, 8943, 438, 667, 193, 409, 225, 175, 723, 311, 405, 251, 200], "actions": ["right", "right", "right", "right", "right", "right", "right", "right", "down", "down", "down", "down", "down"], "actionTimes": [8969, 8972, 9459, 10224, 10225, 10680, 11003, 11424, 12293, 12294, 12731, 13129, 13525], "queries": {"click": {"state": {"target": [], "time": []}, "edge": {"target": [], "time": []}}, "mouseover": {"state": {"target": ["0", "0", "12"], "time": [3546, 4948, 6149]}, "edge": {"target": [], "time": []}}, "mouseout": {"state": {"target": ["0", "0", "0"], "time": [58, 4549, 6118]}, "edge": {"target": [], "time": []}}}, "displayed_time": "14.38", "trialTime": 16365, "trial_type": "mouselab-mdp", "trial_index": 27, "time_elapsed": 826091, "internal_node_id": "0.0-6.0-1.0-18.0"}}, {"uniqueid": "w78662901:a49702746", "current_trial": 28, "dateTime": 1693661140590, "trialdata": {"revealed_states": [], "clicked_states": ["23", "24", "25", "30", "12", "13", "14", "19", "22", "1"], "num_clicks_accrued": [0, 0, 0, 0, 0, 0, 0, 0, 0, 0, 0, 0, 0], "stateRewards": ["", -1, -1, 7, -15, -43, -21, -84, -9, -45, -66, 2, 1, -2, 2, 8, -27, 44, -52, -5, -84, 11, 53, 1, 4, -4, 16, 83, -82, -15, -16, 68, -43, 81], "withholdReward": false, "trial_id": "mdp_trial_20", "block": "test", "trialIndex": 21, "score": -38.1, "costs": -7.1, "simulationMode": [null, null, null, null, null], "rewards": [-1, -1, 7, -15, -21], "path": ["0", "0", "1", "2", "3", "4", "6"], "rt": [13558, 356, 173, 643, 0], "actions": ["up", "up", "up", "right", "right"], "actionTimes": [16220, 17155, 17900, 19119, 19712], "queries": {"click": {"state": {"target": ["23", "24", "25", "30", "12", "13", "14", "19", "22", "1"], "time": [3988, 4957, 5841, 6826, 8007, 8823, 9653, 10449, 11168, 14280]}, "edge": {"target": [], "time": []}}, "mouseover": {"state": {"target": ["23", "24", "25", "30", "12", "12", "13", "14", "19", "22", "15", "18", "1", "1", "2", "1"], "time": [3532, 4523, 5581, 6600, 7422, 7744, 8650, 9409, 10252, 10947, 11890, 12088, 12312, 12602, 13190, 14079]}, "edge": {"target": [], "time": []}}, "mouseout": {"state": {"target": ["12", "23", "24", "25", "30", "12", "12", "13", "14", "19", "22", "13", "15", "18", "1", "1", "2", "1"], "time": [617, 4447, 5532, 6547, 7348, 7470, 8576, 9361, 10204, 10900, 11736, 11841, 12038, 12214, 12359, 13093, 14055, 21117]}, "edge": {"target": [], "time": []}}}, "displayed_time": "20.28", "trialTime": 22049, "trial_type": "mouselab-mdp", "trial_index": 28, "time_elapsed": 849721, "internal_node_id": "0.0-6.0-1.0-19.0"}}, {"uniqueid": "w78662901:a49702746", "current_trial": 29, "dateTime": 1693661161213, "trialdata": {"revealed_states": [], "clicked_states": ["1"], "num_clicks_accrued": [0, 0, 0, 0, 0, 0, 0, 0, 0, 0, 0, 0, 0], "stateRewards": ["", 2, 3, -1, 6, 44, -4, -59, -14, -3, 64, 16, 1, -3, 3, 6, 3, 49, 19, 3, -49, -14, -86, 1, 2, -3, -8, -33, 14, 32, -13, -77, -47, -67], "withholdReward": false, "trial_id": "mdp_trial_21", "block": "test", "trialIndex": 22, "score": -12.75, "costs": 0.25, "simulationMode": [null, null, null, null, null], "rewards": [2, 3, -1, -14, -3], "path": ["0", "0", "1", "2", "3", "8", "9"], "rt": [4265, 458, 336, 649, 1292], "actions": ["up", "up", "up", "left", "up"], "actionTimes": [7120, 8160, 9055, 10264, 12127], "queries": {"click": {"state": {"target": ["1"], "time": [5754]}, "edge": {"target": [], "time": []}}, "mouseover": {"state": {"target": ["1", "1"], "time": [3997, 5153]}, "edge": {"target": [], "time": []}}, "mouseout": {"state": {"target": ["23", "0", "1", "1", "23"], "time": [36, 3685, 4218, 13464, 15210]}, "edge": {"target": [], "time": []}}}, "displayed_time": "17.14", "trialTime": 19056, "trial_type": "mouselab-mdp", "trial_index": 29, "time_elapsed": 870345, "internal_node_id": "0.0-6.0-1.0-20.0"}}, {"uniqueid": "w78662901:a49702746", "current_trial": 30, "dateTime": 1693661181711, "trialdata": {"revealed_states": [], "clicked_states": [], "num_clicks_accrued": [0, 0, 0, 0, 0, 0, 0, 0, 0, 0, 0, 0, 0], "stateRewards": ["", -1, 3, 2, 9, 41, 4, -46, -12, -54, -87, -25, 2, 3, -1, 11, -77, 12, -33, -9, -32, 35, 72, 1, 3, -7, 4, 37, 65, -73, 6, 77, -43, 8], "withholdReward": false, "trial_id": "mdp_trial_22", "block": "test", "trialIndex": 23, "score": 27, "costs": 0, "simulationMode": [null, null, null, null, null], "rewards": [2, 3, -1, 11, 12], "path": ["0", "0", "12", "13", "14", "15", "17"], "rt": [1511, 244, 174, 1096, 1132], "actions": ["right", "right", "right", "up", "right"], "actionTimes": [4093, 4896, 5632, 7308, 9004], "queries": {"click": {"state": {"target": [], "time": []}, "edge": {"target": [], "time": []}}, "mouseover": {"state": {"target": [], "time": []}, "edge": {"target": [], "time": []}}, "mouseout": {"state": {"target": ["0", "23"], "time": [10247, 11329]}, "edge": {"target": [], "time": []}}}, "displayed_time": "16.90", "trialTime": 18920, "trial_type": "mouselab-mdp", "trial_index": 30, "time_elapsed": 890842, "internal_node_id": "0.0-6.0-1.0-21.0"}}, {"uniqueid": "w78662901:a49702746", "current_trial": 31, "dateTime": 1693661201339, "trialdata": {"revealed_states": [], "clicked_states": ["23"], "num_clicks_accrued": [0, 0, 0, 0, 0, 0, 0, 0, 0, 0, 0, 0, 0], "stateRewards": ["", -1, -2, -8, 8, -27, -82, 19, -14, -62, 4, 1, -2, 2, 6, 10, 73, -51, -2, 2, 73, -48, 54, -1, 2, -4, 11, -25, 47, 86, 15, 33, 43, -42], "withholdReward": false, "trial_id": "mdp_trial_23", "block": "test", "trialIndex": 24, "score": 94.25, "costs": 0.25, "simulationMode": [null, null, null, null, null], "rewards": [-1, 2, -4, 11, 86], "path": ["0", "0", "23", "24", "25", "26", "29"], "rt": [2934, 147, 274, 902, 840], "actions": ["left", "left", "left", "up", "left"], "actionTimes": [4940, 5671, 6495, 7980, 9380], "queries": {"click": {"state": {"target": ["23"], "time": [2890]}, "edge": {"target": [], "time": []}}, "mouseover": {"state": {"target": ["23", "0"], "time": [2612, 3419]}, "edge": {"target": [], "time": []}}, "mouseout": {"state": {"target": ["0", "23", "23", "0"], "time": [201, 2940, 3368, 12102]}, "edge": {"target": [], "time": []}}}, "displayed_time": "16.28", "trialTime": 18039, "trial_type": "mouselab-mdp", "trial_index": 31, "time_elapsed": 910470, "internal_node_id": "0.0-6.0-1.0-22.0"}}, {"uniqueid": "w78662901:a49702746", "current_trial": 32, "dateTime": 1693661222098, "trialdata": {"revealed_states": [], "clicked_states": ["1"], "num_clicks_accrued": [0, 0, 0, 0, 0, 0, 0, 0, 0, 0, 0, 0, 0], "stateRewards": ["", 2, -1, -1, 7, 11, -40, -22, -2, 69, 37, 8, -2, 4, -8, -12, -2, -72, -3, -12, 17, 63, 12, 1, 3, -7, 6, 25, 61, 61, -9, 28, -17, 27], "withholdReward": false, "trial_id": "mdp_trial_24", "block": "test", "trialIndex": 25, "score": -14.75, "costs": 0.25, "simulationMode": [null, null, null, null, null], "rewards": [2, -1, -1, 7, -22], "path": ["0", "0", "1", "2", "3", "4", "7"], "rt": [3835, 398, 428, 697, 1056], "actions": ["up", "up", "up", "right", "down"], "actionTimes": [6903, 7864, 8847, 10102, 11741], "queries": {"click": {"state": {"target": ["1"], "time": [3974]}, "edge": {"target": [], "time": []}}, "mouseover": {"state": {"target": ["1"], "time": [3707]}, "edge": {"target": [], "time": []}}, "mouseout": {"state": {"target": ["12", "13", "12", "1", "23"], "time": [932, 1145, 1250, 13208, 13581]}, "edge": {"target": [], "time": []}}}, "displayed_time": "17.34", "trialTime": 19161, "trial_type": "mouselab-mdp", "trial_index": 32, "time_elapsed": 931229, "internal_node_id": "0.0-6.0-1.0-23.0"}}, {"uniqueid": "w78662901:a49702746", "current_trial": 33, "dateTime": 1693661242191, "trialdata": {"revealed_states": [], "clicked_states": ["1"], "num_clicks_accrued": [0, 0, 0, 0, 0, 0, 0, 0, 0, 0, 0, 0, 0], "stateRewards": ["", -2, 1, -3, -16, -39, -52, 30, -7, -41, -59, 11, 2, 1, 8, 2, -11, -26, -42, -13, 87, -59, -48, -1, -1, -1, 16, -79, 31, 50, -1, -84, 34, -82], "withholdReward": false, "trial_id": "mdp_trial_25", "block": "test", "trialIndex": 26, "score": -69.75, "costs": 0.25, "simulationMode": [null, null, null, null, null], "rewards": [-2, 1, -3, -7, -59], "path": ["0", "0", "1", "2", "3", "8", "10"], "rt": [3347, 481, 398, 893, 1299], "actions": ["up", "up", "up", "left", "down"], "actionTimes": [5746, 6787, 7738, 9219, 11078], "queries": {"click": {"state": {"target": ["1"], "time": [3554]}, "edge": {"target": [], "time": []}}, "mouseover": {"state": {"target": ["1"], "time": [3121]}, "edge": {"target": [], "time": []}}, "mouseout": {"state": {"target": ["0", "1"], "time": [2719, 4367]}, "edge": {"target": [], "time": []}}}, "displayed_time": "16.67", "trialTime": 18508, "trial_type": "mouselab-mdp", "trial_index": 33, "time_elapsed": 951322, "internal_node_id": "0.0-6.0-1.0-24.0"}}, {"uniqueid": "w78662901:a49702746", "current_trial": 34, "dateTime": 1693661286053, "trialdata": {"revealed_states": [], "clicked_states": ["1", "2", "12", "13", "14", "19", "22", "23", "24", "25", "30", "32", "3", "4", "6", "8", "9"], "num_clicks_accrued": [0, 0, 0, 0, 0, 0, 0, 0, 0, 0, 0, 0, 0], "stateRewards": ["", 2, 3, 6, -12, -29, 12, 87, 4, 35, -30, 67, 2, 3, -5, -9, 44, 69, -8, 1, 45, -8, 28, -2, -1, -8, 11, -12, -5, 81, 9, 87, 82, 88], "withholdReward": false, "trial_id": "mdp_trial_26", "block": "test", "trialIndex": 27, "score": -34.95, "costs": -17.95, "simulationMode": [null, null, null, null, null], "rewards": [2, 3, -5, -9, -8], "path": ["0", "0", "12", "13", "14", "15", "18"], "rt": [29885, 247, 60, 771, 689], "actions": ["right", "right", "right", "up", "left"], "actionTimes": [33268, 34092, 34701, 36046, 37291], "queries": {"click": {"state": {"target": ["1", "2", "12", "13", "14", "19", "22", "23", "24", "25", "30", "32", "3", "4", "6", "8", "9"], "time": [5943, 7391, 8405, 9297, 10108, 10853, 11627, 14530, 15475, 16266, 17021, 17924, 21384, 22227, 23080, 26042, 26958]}, "edge": {"target": [], "time": []}}, "mouseover": {"state": {"target": ["1", "2", "12", "13", "14", "19", "22", "23", "23", "24", "25", "30", "32", "26", "28", "8", "3", "4", "6", "8", "8", "11", "8", "9", "10", "2", "7", "12", "12", "13", "12"], "time": [5701, 6953, 8255, 9057, 9860, 10653, 11381, 12528, 13567, 15182, 16025, 16828, 17733, 18795, 19309, 20402, 21180, 21993, 22824, 23625, 23891, 24697, 25386, 26704, 27635, 28551, 29215, 29329, 29766, 30826, 32158]}, "edge": {"target": [], "time": []}}, "mouseout": {"state": {"target": ["0", "0", "1", "2", "12", "13", "14", "19", "22", "23", "23", "24", "25", "25", "30", "30", "32", "30", "25", "26", "28", "8", "3", "4", "4", "6", "8", "8", "11", "8", "9", "9", "8", "10", "2", "7", "12", "12", "13", "12"], "time": [522, 4036, 6741, 7871, 8933, 9811, 10605, 11331, 12103, 13296, 14576, 15977, 16312, 16756, 17206, 17661, 18411, 18482, 18574, 19237, 19795, 21150, 21429, 22407, 22779, 23532, 23671, 24651, 25336, 26658, 27002, 27522, 27590, 28506, 28829, 29261, 29628, 30215, 30854, 40226]}, "edge": {"target": [], "time": []}}}, "displayed_time": "37.86", "trialTime": 42295, "trial_type": "mouselab-mdp", "trial_index": 34, "time_elapsed": 995184, "internal_node_id": "0.0-6.0-1.0-25.0"}}, {"uniqueid": "w78662901:a49702746", "current_trial": 35, "dateTime": 1693661311248, "trialdata": {"revealed_states": [], "clicked_states": ["1"], "num_clicks_accrued": [0, 0, 0, 0, 0, 0, 0, 0, 0, 0, 0, 0, 0], "stateRewards": ["", -1, -3, 1, 13, -64, -29, 12, -4, -33, 50, 56, 2, -3, 4, 11, -64, -58, -55, 12, 47, 38, -25, -2, 2, 5, -15, 85, 7, 84, 10, 8, 57, 26], "withholdReward": false, "trial_id": "mdp_trial_27", "block": "test", "trialIndex": 28, "score": 22.25, "costs": 0.25, "simulationMode": [null, null, null, null, null], "rewards": [-1, -3, 1, 13, 12], "path": ["0", "0", "1", "2", "3", "4", "7"], "rt": [3442, 395, 171, 901, 1241], "actions": ["up", "up", "up", "right", "down"], "actionTimes": [6115, 7075, 7814, 9270, 11097], "queries": {"click": {"state": {"target": ["1"], "time": [4313]}, "edge": {"target": [], "time": []}}, "mouseover": {"state": {"target": ["1", "2"], "time": [3362, 5274]}, "edge": {"target": [], "time": []}}, "mouseout": {"state": {"target": ["0", "1", "2", "2", "1", "0", "1", "1", "0"], "time": [3329, 5094, 5324, 16640, 18322, 18906, 19671, 19957, 22868]}, "edge": {"target": [], "time": []}}}, "displayed_time": "16.94", "trialTime": 23577, "trial_type": "mouselab-mdp", "trial_index": 35, "time_elapsed": 1020380, "internal_node_id": "0.0-6.0-1.0-26.0"}}, {"uniqueid": "w78662901:a49702746", "current_trial": 36, "dateTime": 1693661335075, "trialdata": {"revealed_states": [], "clicked_states": [], "num_clicks_accrued": [0, 0, 0, 0, 0, 0, 0, 0, 0, 0, 0, 0, 0], "stateRewards": ["", -2, -1, -1, 5, -54, -87, 35, 2, -8, 20, -22, 1, 3, 6, 13, -75, -32, -55, -3, 56, 62, -22, -1, -4, -1, -7, -51, 84, 70, 7, -15, 5, 55], "withholdReward": false, "trial_id": "mdp_trial_28", "block": "test", "trialIndex": 29, "score": 69, "costs": 0, "simulationMode": [null, null, null, null, null], "rewards": [1, 3, 6, -3, 62], "path": ["0", "0", "12", "13", "14", "19", "21"], "rt": [6346, 13, 0, 791, 152], "actions": ["right", "right", "right", "down", "down"], "actionTimes": [8623, 9221, 9788, 11140, 11859], "queries": {"click": {"state": {"target": [], "time": []}, "edge": {"target": [], "time": []}}, "mouseover": {"state": {"target": ["1", "1", "23", "0", "23"], "time": [2942, 3066, 4862, 5285, 6035]}, "edge": {"target": [], "time": []}}, "mouseout": {"state": {"target": ["23", "1", "1", "23", "0", "23", "0", "23", "24"], "time": [449, 2974, 3223, 5224, 6005, 7138, 17623, 17683, 17989]}, "edge": {"target": [], "time": []}}}, "displayed_time": "16.58", "trialTime": 22255, "trial_type": "mouselab-mdp", "trial_index": 36, "time_elapsed": 1044206, "internal_node_id": "0.0-6.0-1.0-27.0"}}, {"uniqueid": "w78662901:a49702746", "current_trial": 37, "dateTime": 1693661358379, "trialdata": {"revealed_states": [], "clicked_states": [], "num_clicks_accrued": [0, 0, 0, 0, 0, 0, 0, 0, 0, 0, 0, 0, 0], "stateRewards": ["", 1, 2, -3, -5, 66, -50, -47, -5, 1, 28, -27, 1, 1, -1, -6, 37, -25, 56, 1, -82, -66, -40, -1, -4, -7, 15, -61, -23, 26, 10, 14, -56, 29], "withholdReward": false, "trial_id": "mdp_trial_29", "block": "test", "trialIndex": 30, "score": -58, "costs": 0, "simulationMode": [null, null, null, null, null], "rewards": [-1, -4, -7, 15, -61], "path": ["0", "0", "23", "24", "25", "26", "27"], "rt": [2171, 190, 269, 852, 178], "actions": ["left", "left", "left", "up", "up"], "actionTimes": [5814, 6568, 7393, 8811, 9557], "queries": {"click": {"state": {"target": [], "time": []}, "edge": {"target": [], "time": []}}, "mouseover": {"state": {"target": [], "time": []}, "edge": {"target": [], "time": []}}, "mouseout": {"state": {"target": ["0", "0", "31", "31"], "time": [4508, 11696, 13163, 19613]}, "edge": {"target": [], "time": []}}}, "displayed_time": "18.15", "trialTime": 21730, "trial_type": "mouselab-mdp", "trial_index": 37, "time_elapsed": 1067510, "internal_node_id": "0.0-6.0-1.0-28.0"}}, {"uniqueid": "w78662901:a49702746", "current_trial": 38, "dateTime": 1693661378910, "trialdata": {"revealed_states": [], "clicked_states": ["1"], "num_clicks_accrued": [0, 0, 0, 0, 0, 0, 0, 0, 0, 0, 0, 0, 0], "stateRewards": ["", -2, 2, -1, -6, 22, 6, 6, -5, 70, -42, 65, 1, 3, 5, -6, -67, -9, 3, 14, 7, -62, -13, -2, 4, 1, 16, 42, -21, -52, -8, 32, 53, 81], "withholdReward": false, "trial_id": "mdp_trial_30", "block": "test", "trialIndex": 31, "score": -0.75, "costs": 0.25, "simulationMode": [null, null, null, null, null], "rewards": [-2, 2, -1, -6, 6], "path": ["0", "0", "1", "2", "3", "4", "6"], "rt": [2715, 0, 0, 730, 286], "actions": ["up", "up", "up", "right", "right"], "actionTimes": [5535, 6098, 6674, 7959, 8806], "queries": {"click": {"state": {"target": ["1"], "time": [3818]}, "edge": {"target": [], "time": []}}, "mouseover": {"state": {"target": ["1"], "time": [3517]}, "edge": {"target": [], "time": []}}, "mouseout": {"state": {"target": ["0", "1"], "time": [3486, 12038]}, "edge": {"target": [], "time": []}}}, "displayed_time": "17.18", "trialTime": 18937, "trial_type": "mouselab-mdp", "trial_index": 38, "time_elapsed": 1088042, "internal_node_id": "0.0-6.0-1.0-29.0"}}, {"uniqueid": "w78662901:a49702746", "current_trial": 39, "dateTime": 1693661407619, "trialdata": {"revealed_states": [], "clicked_states": ["23", "24", "12", "13", "14", "19", "22", "2"], "num_clicks_accrued": [0, 0, 0, 0, 0, 0, 0, 0, 0, 0, 0, 0, 0], "stateRewards": ["", 1, -3, -6, -5, 47, 80, -29, 11, -71, 10, -29, -2, 3, -6, 12, 2, -78, -6, 8, 34, -16, -5, -1, 3, 3, -13, 84, -36, -62, -3, -27, 66, 15], "withholdReward": false, "trial_id": "mdp_trial_31", "block": "test", "trialIndex": 32, "score": 3.8000000000000007, "costs": -5.199999999999999, "simulationMode": [null, null, null, null, null], "rewards": [-2, 3, -6, 12, 2], "path": ["0", "0", "12", "13", "14", "15", "16"], "rt": [16563, 14, 151, 678, 0], "actions": ["right", "right", "right", "up", "up"], "actionTimes": [21206, 21789, 22515, 23767, 24330], "queries": {"click": {"state": {"target": ["23", "24", "12", "13", "14", "19", "22", "2"], "time": [5684, 6441, 8978, 9733, 10490, 11243, 12017, 15704]}, "edge": {"target": [], "time": []}}, "mouseover": {"state": {"target": ["23", "24", "25", "28", "12", "13", "14", "19", "22", "15", "7", "2", "3", "2", "0", "0", "0"], "time": [5394, 6213, 6982, 7574, 8759, 9476, 10241, 10971, 11723, 13323, 15084, 15132, 15430, 15632, 16331, 17963, 18829]}, "edge": {"target": [], "time": []}}, "mouseout": {"state": {"target": ["23", "23", "24", "25", "24", "28", "12", "13", "14", "19", "22", "15", "7", "2", "3", "2", "0", "0", "0"], "time": [629, 6164, 6933, 7289, 7466, 7791, 9426, 10193, 10922, 11290, 12595, 15055, 15109, 15361, 15512, 16283, 16379, 18703, 25622]}, "edge": {"target": [], "time": []}}}, "displayed_time": "24.88", "trialTime": 27146, "trial_type": "mouselab-mdp", "trial_index": 39, "time_elapsed": 1116751, "internal_node_id": "0.0-6.0-1.0-30.0"}}, {"uniqueid": "w78662901:a49702746", "current_trial": 40, "dateTime": 1693661427429, "trialdata": {"revealed_states": [], "clicked_states": ["23"], "num_clicks_accrued": [0, 0, 0, 0, 0, 0, 0, 0, 0, 0, 0, 0, 0], "stateRewards": ["", 2, 4, -6, -13, -75, -81, 30, 7, 5, 59, -65, -1, -1, 7, 14, -38, 36, -41, 1, -54, -5, 64, 2, -1, 5, 6, -19, 79, 11, 16, -33, -50, 58], "withholdReward": false, "trial_id": "mdp_trial_32", "block": "test", "trialIndex": 33, "score": -27.75, "costs": 0.25, "simulationMode": [null, null, null, null, null], "rewards": [2, -1, 5, 16, -50], "path": ["0", "0", "23", "24", "25", "30", "32"], "rt": [2741, 84, 32, 808, 1], "actions": ["left", "left", "left", "down", "down"], "actionTimes": [5213, 5878, 6498, 7869, 8432], "queries": {"click": {"state": {"target": ["23"], "time": [3851]}, "edge": {"target": [], "time": []}}, "mouseover": {"state": {"target": ["0", "23"], "time": [2553, 3453]}, "edge": {"target": [], "time": []}}, "mouseout": {"state": {"target": ["0", "0", "23"], "time": [825, 3313, 10609]}, "edge": {"target": [], "time": []}}}, "displayed_time": "16.81", "trialTime": 18235, "trial_type": "mouselab-mdp", "trial_index": 40, "time_elapsed": 1136561, "internal_node_id": "0.0-6.0-1.0-31.0"}}, {"uniqueid": "w78662901:a49702746", "current_trial": 41, "dateTime": 1693661449682, "trialdata": {"revealed_states": [], "clicked_states": ["12"], "num_clicks_accrued": [0, 0, 0, 0, 0, 0, 0, 0, 0, 0, 0, 0, 0], "stateRewards": ["", 1, 2, 8, -2, 23, -69, -18, -16, 54, -21, 71, -1, -4, 7, 11, 43, -6, 88, 6, -55, 72, 43, 1, -3, -2, -1, 68, -31, -54, 4, -8, 25, -2], "withholdReward": false, "trial_id": "mdp_trial_33", "block": "test", "trialIndex": 34, "score": 101.25, "costs": 0.25, "simulationMode": [null, null, null, null, null], "rewards": [-1, -4, 7, 11, 88], "path": ["0", "0", "12", "13", "14", "15", "18"], "rt": [2209, 7, 105, 869, 1276], "actions": ["right", "right", "right", "up", "left"], "actionTimes": [4601, 5167, 5827, 7256, 9115], "queries": {"click": {"state": {"target": ["12"], "time": [3286]}, "edge": {"target": [], "time": []}}, "mouseover": {"state": {"target": ["12"], "time": [2992]}, "edge": {"target": [], "time": []}}, "mouseout": {"state": {"target": ["0", "12"], "time": [881, 20367]}, "edge": {"target": [], "time": []}}}, "displayed_time": "16.74", "trialTime": 20681, "trial_type": "mouselab-mdp", "trial_index": 41, "time_elapsed": 1158813, "internal_node_id": "0.0-6.0-1.0-32.0"}}, {"uniqueid": "w78662901:a49702746", "current_trial": 42, "dateTime": 1693661474054, "trialdata": {"revealed_states": [], "clicked_states": ["23", "24"], "num_clicks_accrued": [0, 0, 0, 0, 0, 0, 0, 0, 0, 0, 0, 0, 0], "stateRewards": ["", 1, 1, -5, 8, -6, 45, 16, -6, -7, -22, -38, -1, -4, 8, -11, -16, 21, -45, -15, -59, -32, 42, -1, 3, 6, 11, -7, 34, -27, -8, 85, 43, -9], "withholdReward": false, "trial_id": "mdp_trial_34", "block": "test", "trialIndex": 35, "score": 42.9, "costs": -0.09999999999999998, "simulationMode": [null, null, null, null, null], "rewards": [-1, 3, 6, -8, 43], "path": ["0", "0", "23", "24", "25", "30", "32"], "rt": [4411, 94, 160, 720, 21], "actions": ["left", "left", "left", "down", "down"], "actionTimes": [6541, 7190, 7906, 9197, 9798], "queries": {"click": {"state": {"target": ["23", "24"], "time": [2875, 4124]}, "edge": {"target": [], "time": []}}, "mouseover": {"state": {"target": ["23", "24"], "time": [2206, 3683]}, "edge": {"target": [], "time": []}}, "mouseout": {"state": {"target": ["0", "23"], "time": [37, 3578]}, "edge": {"target": [], "time": []}}}, "displayed_time": "16.69", "trialTime": 22795, "trial_type": "mouselab-mdp", "trial_index": 42, "time_elapsed": 1183185, "internal_node_id": "0.0-6.0-1.0-33.0"}}, {"uniqueid": "w78662901:a49702746", "current_trial": 43, "dateTime": 1693661493727, "trialdata": {"revealed_states": [], "clicked_states": ["12", "13", "14", "19"], "num_clicks_accrued": [0, 0, 0, 0, 0, 0, 0, 0, 0, 0, 0, 0, 0], "stateRewards": ["", -2, -4, 2, 10, -17, 18, 73, 11, -32, 23, -13, -2, -4, 7, 12, -25, 66, -23, 15, 40, -76, -9, 1, 2, -7, -5, -20, 24, 3, -5, 16, -73, 70], "withholdReward": false, "trial_id": "mdp_trial_35", "block": "test", "trialIndex": 36, "score": -62.6, "costs": -2.5999999999999996, "simulationMode": [null, null, null, null, null], "rewards": [-2, -4, 7, 15, -76], "path": ["0", "0", "12", "13", "14", "19", "21"], "rt": [9222, 138, 113, 651, 156], "actions": ["right", "right", "right", "down", "down"], "actionTimes": [11460, 12168, 12841, 14050, 14776], "queries": {"click": {"state": {"target": ["12", "13", "14", "19"], "time": [3297, 4674, 5326, 6824]}, "edge": {"target": [], "time": []}}, "mouseover": {"state": {"target": ["12", "13", "14", "19"], "time": [3015, 4407, 5099, 6556]}, "edge": {"target": [], "time": []}}, "mouseout": {"state": {"target": ["23", "0", "12", "13", "14", "14", "19"], "time": [565, 671, 4357, 4824, 5519, 6522, 16184]}, "edge": {"target": [], "time": []}}}, "displayed_time": "16.76", "trialTime": 18097, "trial_type": "mouselab-mdp", "trial_index": 43, "time_elapsed": 1202859, "internal_node_id": "0.0-6.0-1.0-34.0"}}, {"uniqueid": "w78662901:a49702746", "current_trial": 44, "dateTime": 1693661514021, "trialdata": {"revealed_states": [], "clicked_states": ["12", "23"], "num_clicks_accrued": [0, 0, 0, 0, 0, 0, 0, 0, 0, 0, 0, 0, 0], "stateRewards": ["", 1, 4, -8, -5, -15, -7, 21, 13, -30, 40, -65, 1, 1, 5, -14, 35, 27, -38, -11, 36, -58, -47, -2, 4, -3, 13, -16, -49, 22, 15, -56, -44, -10], "withholdReward": false, "trial_id": "mdp_trial_36", "block": "test", "trialIndex": 37, "score": -61.5, "costs": 0.5, "simulationMode": [null, null, null, null, null], "rewards": [1, 1, 5, -11, -58], "path": ["0", "0", "12", "13", "14", "19", "21"], "rt": [5655, 217, 128, 802, 125], "actions": ["right", "right", "right", "down", "down"], "actionTimes": [8624, 9401, 10089, 11455, 12141], "queries": {"click": {"state": {"target": ["12", "23"], "time": [5198, 6324]}, "edge": {"target": [], "time": []}}, "mouseover": {"state": {"target": ["12", "0", "23", "0"], "time": [4693, 5932, 6160, 7000]}, "edge": {"target": [], "time": []}}, "mouseout": {"state": {"target": ["0", "12", "0", "23", "0", "12"], "time": [4614, 5882, 6034, 6976, 7050, 7100]}, "edge": {"target": [], "time": []}}}, "displayed_time": "17.34", "trialTime": 18712, "trial_type": "mouselab-mdp", "trial_index": 44, "time_elapsed": 1223153, "internal_node_id": "0.0-6.0-1.0-35.0"}}, {"uniqueid": "w78662901:a49702746", "current_trial": 45, "dateTime": 1693661533688, "trialdata": {"revealed_states": [], "clicked_states": ["1"], "num_clicks_accrued": [0, 0, 0, 0, 0, 0, 0, 0, 0, 0, 0, 0, 0], "stateRewards": ["", -2, -4, -6, 12, -58, -70, -80, 2, 16, -88, -62, 1, 2, -5, 11, 77, -35, -44, -5, 18, -83, 87, 1, -3, -5, 13, -44, -21, -86, 10, -52, 8, 29], "withholdReward": false, "trial_id": "mdp_trial_37", "block": "test", "trialIndex": 38, "score": -57.75, "costs": 0.25, "simulationMode": [null, null, null, null, null], "rewards": [-2, -4, -6, 12, -58], "path": ["0", "0", "1", "2", "3", "4", "5"], "rt": [3308, 124, 87, 950, 735], "actions": ["up", "up", "up", "right", "up"], "actionTimes": [5823, 6512, 7181, 8702, 10010], "queries": {"click": {"state": {"target": ["1"], "time": [3803]}, "edge": {"target": [], "time": []}}, "mouseover": {"state": {"target": ["1", "2"], "time": [3300, 4569]}, "edge": {"target": [], "time": []}}, "mouseout": {"state": {"target": ["12", "1", "2"], "time": [472, 4491, 11220]}, "edge": {"target": [], "time": []}}}, "displayed_time": "16.86", "trialTime": 18067, "trial_type": "mouselab-mdp", "trial_index": 45, "time_elapsed": 1242819, "internal_node_id": "0.0-6.0-1.0-36.0"}}, {"uniqueid": "w78662901:a49702746", "current_trial": 46, "dateTime": 1693661554127, "trialdata": {"revealed_states": [], "clicked_states": ["23", "24"], "num_clicks_accrued": [0, 0, 0, 0, 0, 0, 0, 0, 0, 0, 0, 0, 0], "stateRewards": ["", -2, 2, 3, -7, -31, -33, 29, -8, -57, 50, -83, -1, -1, 5, 13, -23, -62, 25, 5, -66, -85, 14, 1, -2, -1, 16, 71, 33, -19, -14, 5, -43, 79], "withholdReward": false, "trial_id": "mdp_trial_38", "block": "test", "trialIndex": 39, "score": 84.9, "costs": -0.09999999999999998, "simulationMode": [null, null, null, null, null], "rewards": [1, -2, -1, 16, 71], "path": ["0", "0", "23", "24", "25", "26", "27"], "rt": [2867, 53, 51, 678, 128], "actions": ["left", "left", "left", "up", "up"], "actionTimes": [5884, 6514, 7144, 8398, 9086], "queries": {"click": {"state": {"target": ["23", "24"], "time": [4043, 4883]}, "edge": {"target": [], "time": []}}, "mouseover": {"state": {"target": ["0", "23", "24"], "time": [3093, 3787, 4524]}, "edge": {"target": [], "time": []}}, "mouseout": {"state": {"target": ["24", "23", "0", "23", "24", "31"], "time": [75, 1257, 3732, 4474, 10745, 11644]}, "edge": {"target": [], "time": []}}}, "displayed_time": "17.49", "trialTime": 18861, "trial_type": "mouselab-mdp", "trial_index": 46, "time_elapsed": 1263258, "internal_node_id": "0.0-6.0-1.0-37.0"}}, {"uniqueid": "w78662901:a49702746", "current_trial": 47, "dateTime": 1693661578259, "trialdata": {"revealed_states": [], "clicked_states": ["1", "2", "3", "8", "9"], "num_clicks_accrued": [0, 0, 0, 0, 0, 0, 0, 0, 0, 0, 0, 0, 0], "stateRewards": ["", -2, 3, 3, -14, 62, 36, 49, 16, 11, 17, -84, 2, -1, 6, 2, -82, -73, 49, -6, -87, 48, 50, -1, -2, -1, -16, -11, 37, -44, 4, 55, 73, -10], "withholdReward": false, "trial_id": "mdp_trial_39", "block": "test", "trialIndex": 40, "score": -68.75, "costs": -4.75, "simulationMode": [null, null, null, null, null], "rewards": [2, -1, 6, 2, -73], "path": ["0", "0", "12", "13", "14", "15", "17"], "rt": [8894, 25, 1, 844, 533], "actions": ["right", "right", "right", "up", "right"], "actionTimes": [11876, 12477, 13035, 14431, 15514], "queries": {"click": {"state": {"target": ["1", "2", "3", "8", "9"], "time": [3951, 4851, 5605, 6258, 6951]}, "edge": {"target": [], "time": []}}, "mouseover": {"state": {"target": ["1", "2", "3", "8", "9", "4", "5", "4", "5", "1", "0"], "time": [3621, 4621, 5299, 6054, 6693, 7449, 8233, 8661, 9358, 10197, 10567]}, "edge": {"target": [], "time": []}}, "mouseout": {"state": {"target": ["31", "31", "0", "1", "2", "3", "8", "9", "4", "5", "4", "5", "1", "0", "0"], "time": [87, 577, 1058, 4542, 5249, 6002, 6620, 7072, 8183, 8586, 9260, 10116, 10487, 10594, 16700]}, "edge": {"target": [], "time": []}}}, "displayed_time": "17.71", "trialTime": 22552, "trial_type": "mouselab-mdp", "trial_index": 47, "time_elapsed": 1287390, "internal_node_id": "0.0-6.0-1.0-38.0"}}, {"uniqueid": "w78662901:a49702746", "current_trial": 48, "dateTime": 1693661599568, "trialdata": {"revealed_states": [], "clicked_states": ["23"], "num_clicks_accrued": [0, 0, 0, 0, 0, 0, 0, 0, 0, 0, 0, 0, 0], "stateRewards": ["", 1, 3, -2, 15, 51, 15, -19, 11, 67, -45, -73, 2, 4, -2, -13, 36, 9, -28, 10, -30, 31, 16, 1, 2, -1, -16, 14, -22, 36, -1, 88, -5, 45], "withholdReward": false, "trial_id": "mdp_trial_40", "block": "test", "trialIndex": 41, "score": -3.75, "costs": 0.25, "simulationMode": [null, null, null, null, null], "rewards": [1, 2, -1, -1, -5], "path": ["0", "0", "23", "24", "25", "30", "32"], "rt": [2694, 111, 88, 584, 157], "actions": ["left", "left", "left", "down", "down"], "actionTimes": [5631, 6308, 6953, 8117, 8852], "queries": {"click": {"state": {"target": ["23"], "time": [3983]}, "edge": {"target": [], "time": []}}, "mouseover": {"state": {"target": ["23"], "time": [3650]}, "edge": {"target": [], "time": []}}, "mouseout": {"state": {"target": ["0", "23"], "time": [3021, 13494]}, "edge": {"target": [], "time": []}}}, "displayed_time": "17.33", "trialTime": 19725, "trial_type": "mouselab-mdp", "trial_index": 48, "time_elapsed": 1308699, "internal_node_id": "0.0-6.0-1.0-39.0"}}, {"uniqueid": "w78662901:a49702746", "current_trial": 49, "dateTime": 1693661651583, "trialdata": {"rt": 52010, "response": {"Q0": "$-2 to $2", "Q1": "$-16 to $16", "Q2": "$-88 to $88", "Q3": "The cost for clicking on nodes varied between nodes.", "Q4": "Neither motivated nor unmotivated"}, "question_order": [0, 1, 2, 3, 4], "trial_id": "final_quiz_control", "trial_type": "survey-multi-choice", "trial_index": 49, "time_elapsed": 1360714, "internal_node_id": "0.0-6.0-2.0"}}, {"uniqueid": "w78662901:a49702746", "current_trial": 50, "dateTime": 1693661700638, "trialdata": {"rt": 49040, "response": {"Q0": "I had no strategy", "Q1": "Not really", "Q2": "I found it difficult"}, "trial_id": "self_report_control", "trial_type": "survey-text", "trial_index": 50, "time_elapsed": 1409769, "internal_node_id": "0.0-6.0-3.0"}}, {"uniqueid": "w78662901:a49702746", "current_trial": 51, "dateTime": 1693661738484, "trialdata": {"rt": 37838, "response": {"Q0": "Agree", "Q1": "Disagree", "Q2": "Agree", "Q3": "Agree", "Q4": "Disagree", "Q5": "Neither disagree nor agree", "Q6": "Neither disagree nor agree"}, "question_order": [0, 1, 2, 3, 4, 5, 6], "trial_id": "self_report_2", "trial_type": "survey-multi-choice", "trial_index": 51, "time_elapsed": 1447616, "internal_node_id": "0.0-6.0-4.0"}}, {"uniqueid": "w78662901:a49702746", "current_trial": 52, "dateTime": 1693661774561, "trialdata": {"rt": 36068, "response": {"gender": "female", "age": "61", "colorblind": "0", "effort": "0"}, "trial_type": "survey-html-form", "trial_index": 52, "time_elapsed": 1483693, "internal_node_id": "0.0-6.0-5.0"}}, {"uniqueid": "w78662901:a49702746", "current_trial": 53, "dateTime": 1693661807822, "trialdata": {"rt": 33251, "response": {"Q0": "i was confused", "Q1": "no I didn't realise", "Q2": ""}, "trial_type": "survey-text", "trial_index": 53, "time_elapsed": 1516954, "internal_node_id": "0.0-6.0-6.0"}}, {"uniqueid": "w78662901:a49702746", "current_trial": 54, "dateTime": 1693661840409, "trialdata": {"rt": 32581, "stimulus": "<h1>Completion Code Instructions (1/2)</h1>\n<br><br><br><br>\nYou have reached the end of the experiment! The completion code consists of two parts: (1) a code with 2 characters (2) a code with 6 characters. On this page, you will receive the second part of the code. The first part of the completion code will be on the next page.\n<br><br>\nThe second part of your completion code is: <b>EWEK22</b>\n<br><br>\nPlease note this down. Then, press 'Next' in order to find the first part of your completion code. Once the data has been saved, you will receive this code either in this window or in the original browser window where you started the experiment.\n <br><br>\n<h2 style='color: red;'>Note: this is <strong>NOT</strong> the full completion code. Copy this down and click 'Next' to get the full completion code on the next page.</h2>", "response": 0, "trial_type": "html-button-response", "trial_index": 54, "time_elapsed": 1549541, "internal_node_id": "0.0-6.0-7.0"}}, {"uniqueid": "w78662901:a49702746", "current_trial": 55, "dateTime": 1693661841413, "trialdata": {"success": true, "trial_type": "fullscreen", "trial_index": 55, "time_elapsed": 1550544, "internal_node_id": "0.0-7.0"}}], "questiondata": {"params": {"CODE": "C6DMOQA6", "MIN_TIME": 14, "inspectCost": 1, "startTime": "Sat Sep 02 2023 14:11:30 GMT+0100 (British Summer Time)", "bonusRate": 0.002, "variance": "1_2_4_8_44", "branching": "31123"}, "final_score": 3.85}, "eventdata": [{"eventtype": "initialized", "value": null, "timestamp": 1693660289738, "interval": 0}, {"eventtype": "window_resize", "value": [1024, 740], "timestamp": 1693660289738, "interval": 0}, {"eventtype": "focus", "value": "on", "timestamp": 1693660289880, "interval": 142}, {"eventtype": "window_resize", "value": [1024, 740], "timestamp": 1693660290077, "interval": 197}, {"eventtype": "focus", "value": "off", "timestamp": 1693660298688, "interval": 8611}, {"eventtype": "focus", "value": "on", "timestamp": 1693660298704, "interval": 16}, {"eventtype": "window_resize", "value": [1440, 900], "timestamp": 1693660298940, "interval": 236}, {"eventtype": "focus", "value": "off", "timestamp": 1693661840628, "interval": 1541688}, {"eventtype": "focus", "value": "on", "timestamp": 1693661840648, "interval": 20}, {"eventtype": "window_resize", "value": [1024, 740], "timestamp": 1693661840876, "interval": 228}], "useragent": "Mozilla/5.0 (Macintosh; Intel Mac OS X 10.15; rv:109.0) Gecko/20100101 Firefox/117.0", "mode": "live", "id": "w78662901:a49702746", "status": "user data saved", "Beginhit": "2023-09-02 13:11:28.396909", "Beginexp": "2023-09-02 13:11:39.566871", "Endhit": "2023-09-03 07:50:19.639649", "psiturkStatus": 3, "browser": "<redacted>", "platform": "macos", "language": "en-GB"}