{"condition": 0, "counterbalance": 0, "assignmentId": "a82061944", "workerId": "w63029402", "hitId": "h57911319", "currenttrial": 61, "bonus": 0, "data": [{"uniqueid": "w63029402:a82061944", "current_trial": 0, "dateTime": 1693564655171, "trialdata": {"success": true, "trial_type": "fullscreen", "trial_index": 0, "time_elapsed": 6038, "internal_node_id": "0.0-0.0"}}, {"uniqueid": "w63029402:a82061944", "current_trial": 1, "dateTime": 1693564705886, "trialdata": {"view_history": [{"page_index": 0, "viewing_time": 50701}], "rt": 50701, "trial_id": "exp_instructions_control", "trial_type": "instructions", "trial_index": 1, "time_elapsed": 56754, "internal_node_id": "0.0-1.0"}}, {"uniqueid": "w63029402:a82061944", "current_trial": 2, "dateTime": 1693565161370, "trialdata": {"view_history": [{"page_index": 0, "viewing_time": 137975}, {"page_index": 1, "viewing_time": 154494}, {"page_index": 2, "viewing_time": 41872}, {"page_index": 3, "viewing_time": 121140}], "rt": 455482, "trial_id": "mouselab_instructions_1_control", "trial_type": "instructions", "trial_index": 2, "time_elapsed": 512238, "internal_node_id": "0.0-2.0-1.0"}}, {"uniqueid": "w63029402:a82061944", "current_trial": 3, "dateTime": 1693565201987, "trialdata": {"revealed_states": [], "clicked_states": ["22"], "num_clicks_accrued": [0, 0, 0, 0, 0, 0, 0, 0, 0, 0, 0, 0, 0], "stateRewards": ["", -10, -10, 10, -10, -10, 10, -10, -10, -10, 10, 10, 10, 10, -10, -10, -10, 10, -10, 10, 10, 10, -10, 10, 10, 10, -10, 10, -10, 10, -10, -10, 10, -10], "withholdReward": false, "trial_id": "practice_1", "block": "test", "trialIndex": 0, "score": -27, "costs": -0.5, "simulationMode": [null, null, null, null, null], "rewards": [-10, -10, 10, -10, -10], "path": ["0", "0", "1", "2", "3", "4", "5"], "rt": [7508, 3008, 306, 516, 336], "actions": ["up", "up", "up", "right", "up"], "actionTimes": [19363, 22893, 23733, 24750, 25600], "queries": {"click": {"state": {"target": ["22"], "time": [17487]}, "edge": {"target": [], "time": []}}, "mouseover": {"state": {"target": ["22", "22"], "time": [12180, 12418]}, "edge": {"target": [], "time": []}}, "mouseout": {"state": {"target": ["23", "1", "0", "22", "22"], "time": [10174, 10444, 11880, 12199, 25678]}, "edge": {"target": [], "time": []}}}, "displayed_time": "26.11", "trialTime": 39137, "trial_type": "mouselab-mdp", "trial_index": 3, "time_elapsed": 552853, "internal_node_id": "0.0-2.0-2.0-0.0"}}, {"uniqueid": "w63029402:a82061944", "current_trial": 4, "dateTime": 1693565224935, "trialdata": {"revealed_states": [], "clicked_states": [], "num_clicks_accrued": [0, 0, 0, 0, 0, 0, 0, 0, 0, 0, 0, 0, 0], "stateRewards": ["", -10, 10, -10, 10, 10, 10, -10, -10, 10, 10, -10, -10, 10, 10, -10, -10, 10, -10, -10, -10, 10, -10, 10, -10, -10, 10, -10, 10, 10, -10, 10, -10, -10], "withholdReward": false, "trial_id": "practice_2", "block": "test", "trialIndex": 1, "score": -6.5, "costs": 0, "simulationMode": [null, null, null, null, null], "rewards": [-10, 10, -10, -10, 10], "path": ["0", "0", "1", "2", "3", "8", "9"], "rt": [4507, 1101, 954, 260, 327], "actions": ["up", "up", "up", "left", "up"], "actionTimes": [11900, 13525, 14994, 15757, 16608], "queries": {"click": {"state": {"target": [], "time": []}, "edge": {"target": [], "time": []}}, "mouseover": {"state": {"target": ["21"], "time": [7823]}, "edge": {"target": [], "time": []}}, "mouseout": {"state": {"target": ["20", "0", "21"], "time": [6511, 7743, 7847]}, "edge": {"target": [], "time": []}}}, "displayed_time": "17.12", "trialTime": 22319, "trial_type": "mouselab-mdp", "trial_index": 4, "time_elapsed": 575801, "internal_node_id": "0.0-2.0-2.0-1.0"}}, {"uniqueid": "w63029402:a82061944", "current_trial": 5, "dateTime": 1693565322668, "trialdata": {"view_history": [{"page_index": 0, "viewing_time": 73286}, {"page_index": 1, "viewing_time": 24435}], "rt": 97722, "trial_id": "mouselab_instructions_2_control", "trial_type": "instructions", "trial_index": 5, "time_elapsed": 673536, "internal_node_id": "0.0-2.0-3.0"}}, {"uniqueid": "w63029402:a82061944", "current_trial": 6, "dateTime": 1693565425504, "trialdata": {"rt": 102802, "response": {"Q0": "The cost for clicking on nodes may vary between nodes.", "Q1": "The better I perform the higher my bonus will be.", "Q2": "No, the amount of cash at each node of the web may be different each time.", "Q3": "To click on the least number of nodes.", "Q4": "Only before moving the spider.", "Q5": "3 seconds"}, "question_order": [0, 1, 2, 3, 4, 5], "correct": {"Q0": "The cost for clicking on nodes may vary between nodes.", "Q1": "The better I perform the higher my bonus will be.", "Q2": "No, the amount of cash at each node of the web may be different each time.", "Q3": "To get the highest total score.", "Q4": "Only before moving the spider.", "Q5": "3 seconds"}, "trial_id": "mouselab_quiz_control", "trial_type": "survey-multi-choice", "trial_index": 6, "time_elapsed": 776372, "internal_node_id": "0.0-2.0-4.0"}}, {"uniqueid": "w63029402:a82061944", "current_trial": 7, "dateTime": 1693565435282, "trialdata": {"success": true, "trial_type": "fullscreen", "trial_index": 7, "time_elapsed": 786149, "internal_node_id": "0.0-2.1-0.1-0.1"}}, {"uniqueid": "w63029402:a82061944", "current_trial": 8, "dateTime": 1693565460072, "trialdata": {"view_history": [{"page_index": 0, "viewing_time": 17566}, {"page_index": 1, "viewing_time": 3794}, {"page_index": 2, "viewing_time": 1806}, {"page_index": 3, "viewing_time": 1618}], "rt": 24785, "trial_id": "mouselab_instructions_1_control", "trial_type": "instructions", "trial_index": 8, "time_elapsed": 810940, "internal_node_id": "0.0-2.1-1.1"}}, {"uniqueid": "w63029402:a82061944", "current_trial": 9, "dateTime": 1693565472328, "trialdata": {"revealed_states": [], "clicked_states": [], "num_clicks_accrued": [0, 0, 0, 0, 0, 0, 0, 0, 0, 0, 0, 0, 0], "stateRewards": ["", -10, -10, 10, -10, -10, 10, -10, -10, -10, 10, 10, 10, 10, -10, -10, -10, 10, -10, 10, 10, 10, -10, 10, 10, 10, -10, 10, -10, 10, -10, -10, 10, -10], "withholdReward": false, "trial_id": "practice_1", "block": "test", "trialIndex": 2, "score": -26.5, "costs": 0, "simulationMode": [null, null, null, null, null], "rewards": [-10, -10, 10, -10, -10], "path": ["0", "0", "1", "2", "3", "4", "5"], "rt": [2069, 52, 645, 85, 92], "actions": ["up", "up", "up", "right", "up"], "actionTimes": [4863, 5444, 6662, 7251, 7858], "queries": {"click": {"state": {"target": [], "time": []}, "edge": {"target": [], "time": []}}, "mouseover": {"state": {"target": [], "time": []}, "edge": {"target": [], "time": []}}, "mouseout": {"state": {"target": ["0"], "time": [9783]}, "edge": {"target": [], "time": []}}}, "displayed_time": "8.40", "trialTime": 11834, "trial_type": "mouselab-mdp", "trial_index": 9, "time_elapsed": 823195, "internal_node_id": "0.0-2.1-2.1-0.1"}}, {"uniqueid": "w63029402:a82061944", "current_trial": 10, "dateTime": 1693565489299, "trialdata": {"revealed_states": [], "clicked_states": [], "num_clicks_accrued": [0, 0, 0, 0, 0, 0, 0, 0, 0, 0, 0, 0, 0], "stateRewards": ["", -10, 10, -10, 10, 10, 10, -10, -10, 10, 10, -10, -10, 10, 10, -10, -10, 10, -10, -10, -10, 10, -10, 10, -10, -10, 10, -10, 10, 10, -10, 10, -10, -10], "withholdReward": false, "trial_id": "practice_2", "block": "test", "trialIndex": 3, "score": 13.5, "costs": 0, "simulationMode": [null, null, null, null, null], "rewards": [10, -10, -10, 10, 10], "path": ["0", "0", "23", "24", "25", "26", "29"], "rt": [5303, 160, 228, 410, 354], "actions": ["left", "left", "left", "up", "left"], "actionTimes": [9637, 10331, 11084, 12008, 12892], "queries": {"click": {"state": {"target": [], "time": []}, "edge": {"target": [], "time": []}}, "mouseover": {"state": {"target": ["0"], "time": [4492]}, "edge": {"target": [], "time": []}}, "mouseout": {"state": {"target": ["0"], "time": [3739]}, "edge": {"target": [], "time": []}}}, "displayed_time": "13.39", "trialTime": 16409, "trial_type": "mouselab-mdp", "trial_index": 10, "time_elapsed": 840166, "internal_node_id": "0.0-2.1-2.1-1.1"}}, {"uniqueid": "w63029402:a82061944", "current_trial": 11, "dateTime": 1693565494806, "trialdata": {"view_history": [{"page_index": 0, "viewing_time": 4068}, {"page_index": 1, "viewing_time": 1431}], "rt": 5499, "trial_id": "mouselab_instructions_2_control", "trial_type": "instructions", "trial_index": 11, "time_elapsed": 845674, "internal_node_id": "0.0-2.1-3.1"}}, {"uniqueid": "w63029402:a82061944", "current_trial": 12, "dateTime": 1693565537537, "trialdata": {"rt": 42727, "response": {"Q0": "The cost for clicking on nodes may vary between nodes.", "Q1": "The better I perform the higher my bonus will be.", "Q2": "No, the amount of cash at each node of the web may be different each time.", "Q3": "To get the highest total score.", "Q4": "Only before moving the spider.", "Q5": "3 seconds"}, "question_order": [0, 1, 2, 3, 4, 5], "correct": {"Q0": "The cost for clicking on nodes may vary between nodes.", "Q1": "The better I perform the higher my bonus will be.", "Q2": "No, the amount of cash at each node of the web may be different each time.", "Q3": "To get the highest total score.", "Q4": "Only before moving the spider.", "Q5": "3 seconds"}, "trial_id": "mouselab_quiz_control", "trial_type": "survey-multi-choice", "trial_index": 12, "time_elapsed": 888405, "internal_node_id": "0.0-2.1-4.1"}}, {"uniqueid": "w63029402:a82061944", "current_trial": 13, "dateTime": 1693565549569, "trialdata": {"rt": 12022, "response": {"Q0": "No"}, "question_order": [0], "trial_id": "repeat_check", "trial_type": "survey-multi-choice", "trial_index": 13, "time_elapsed": 900436, "internal_node_id": "0.0-4.0-0.0"}}, {"uniqueid": "w63029402:a82061944", "current_trial": 14, "dateTime": 1693565583280, "trialdata": {"rt": 33702, "stimulus": "\n<h1> Get ready to start the game! </h1>\n\nThank you for reading the instructions. Get ready start with the 40 rounds of this game.\n<br><br>\nIf you need to take a break, feel free to take one after the end of a round, before continuing to the next one.\n<br><br>\nRemember, the more money the spider gets, the bigger your bonus will be!\n<br><br>\n<div style='text-align: center;'>Press <code>space</code> to begin.</div>\n\n<br><br>\n(If, at any point, the <code>space</code> key does not take you to the next page, click once on the text and try again.)", "response": " ", "trial_id": "mdp_ready", "trial_type": "html-keyboard-response", "trial_index": 14, "time_elapsed": 934147, "internal_node_id": "0.0-6.0-0.0"}}, {"uniqueid": "w63029402:a82061944", "current_trial": 15, "dateTime": 1693565606351, "trialdata": {"revealed_states": [], "clicked_states": [], "num_clicks_accrued": [0, 0, 0, 0, 0, 0, 0, 0, 0, 0, 0, 0, 0], "stateRewards": ["", 1, 4, -8, -5, -15, -7, 21, 13, -30, 40, -65, 1, 1, 5, -14, 35, 27, -38, -11, 36, -58, -47, -2, 4, -3, 13, -16, -49, 22, 15, -56, -44, -10], "withholdReward": false, "trial_id": "mdp_trial_1", "block": "test", "trialIndex": 4, "score": 34, "costs": 0, "simulationMode": [null, null, null, null, null], "rewards": [-2, 4, -3, 13, 22], "path": ["0", "0", "23", "24", "25", "26", "29"], "rt": [2447, 319, 793, 262, 214], "actions": ["left", "left", "left", "up", "left"], "actionTimes": [7556, 8405, 9723, 10511, 11257], "queries": {"click": {"state": {"target": [], "time": []}, "edge": {"target": [], "time": []}}, "mouseover": {"state": {"target": [], "time": []}, "edge": {"target": [], "time": []}}, "mouseout": {"state": {"target": ["17", "13", "12"], "time": [1099, 1494, 1640]}, "edge": {"target": [], "time": []}}}, "displayed_time": "19.11", "trialTime": 22569, "trial_type": "mouselab-mdp", "trial_index": 15, "time_elapsed": 957217, "internal_node_id": "0.0-6.0-1.0-0.0"}}, {"uniqueid": "w63029402:a82061944", "current_trial": 16, "dateTime": 1693565631661, "trialdata": {"revealed_states": [], "clicked_states": [], "num_clicks_accrued": [0, 0, 0, 0, 0, 0, 0, 0, 0, 0, 0, 0, 0], "stateRewards": ["", 2, -3, 5, -14, -63, -9, -24, -11, -54, -43, 68, 2, -2, -4, 7, -64, 30, 47, 12, -74, 11, 86, 1, -3, 3, 10, -71, -42, -52, -1, -29, -16, 69], "withholdReward": false, "trial_id": "mdp_trial_2", "block": "test", "trialIndex": 5, "score": 33, "costs": 0, "simulationMode": [null, null, null, null, null], "rewards": [2, -2, -4, 7, 30], "path": ["0", "0", "12", "13", "14", "15", "17"], "rt": [1535, 272, 256, 222, 168], "actions": ["right", "right", "right", "up", "right"], "actionTimes": [7410, 8215, 8990, 9740, 10419], "queries": {"click": {"state": {"target": [], "time": []}, "edge": {"target": [], "time": []}}, "mouseover": {"state": {"target": [], "time": []}, "edge": {"target": [], "time": []}}, "mouseout": {"state": {"target": ["15", "22", "0"], "time": [4101, 4330, 14832]}, "edge": {"target": [], "time": []}}}, "displayed_time": "19.88", "trialTime": 24735, "trial_type": "mouselab-mdp", "trial_index": 16, "time_elapsed": 982527, "internal_node_id": "0.0-6.0-1.0-1.0"}}, {"uniqueid": "w63029402:a82061944", "current_trial": 17, "dateTime": 1693565655605, "trialdata": {"revealed_states": [], "clicked_states": [], "num_clicks_accrued": [0, 0, 0, 0, 0, 0, 0, 0, 0, 0, 0, 0, 0], "stateRewards": ["", 1, 4, 5, -5, 58, -80, 75, 6, 25, -39, 46, 2, -2, 4, 2, 59, 31, -22, -12, -61, 15, 72, 1, -2, -7, 8, 77, 76, -23, -7, 71, -15, -3], "withholdReward": false, "trial_id": "mdp_trial_3", "block": "test", "trialIndex": 6, "score": 56, "costs": 0, "simulationMode": [null, null, null, null, null], "rewards": [1, -2, -7, -7, 71], "path": ["0", "0", "23", "24", "25", "30", "31"], "rt": [1978, 232, 456, 393, 1152], "actions": ["left", "left", "left", "down", "right"], "actionTimes": [5424, 6205, 7163, 8084, 9751], "queries": {"click": {"state": {"target": [], "time": []}, "edge": {"target": [], "time": []}}, "mouseover": {"state": {"target": [], "time": []}, "edge": {"target": [], "time": []}}, "mouseout": {"state": {"target": ["0"], "time": [13141]}, "edge": {"target": [], "time": []}}}, "displayed_time": "17.45", "trialTime": 23360, "trial_type": "mouselab-mdp", "trial_index": 17, "time_elapsed": 1006471, "internal_node_id": "0.0-6.0-1.0-2.0"}}, {"uniqueid": "w63029402:a82061944", "current_trial": 18, "dateTime": 1693565675970, "trialdata": {"revealed_states": [], "clicked_states": [], "num_clicks_accrued": [0, 0, 0, 0, 0, 0, 0, 0, 0, 0, 0, 0, 0], "stateRewards": ["", -1, -3, -7, -7, -76, 30, -49, 11, -70, 56, 2, 1, 4, -3, -14, -59, -83, -25, -9, -21, -67, -73, -2, 4, 4, -9, -11, -32, 60, 9, -87, 22, -64], "withholdReward": false, "trial_id": "mdp_trial_4", "block": "test", "trialIndex": 7, "score": 56, "costs": 0, "simulationMode": [null, null, null, null, null], "rewards": [-1, -3, -7, 11, 56], "path": ["0", "0", "1", "2", "3", "8", "10"], "rt": [2162, 164, 568, 246, 1060], "actions": ["up", "up", "up", "left", "down"], "actionTimes": [5091, 5778, 6863, 7603, 9209], "queries": {"click": {"state": {"target": [], "time": []}, "edge": {"target": [], "time": []}}, "mouseover": {"state": {"target": [], "time": []}, "edge": {"target": [], "time": []}}, "mouseout": {"state": {"target": ["23", "23", "0", "0"], "time": [1167, 1418, 1461, 2954]}, "edge": {"target": [], "time": []}}}, "displayed_time": "16.93", "trialTime": 19735, "trial_type": "mouselab-mdp", "trial_index": 18, "time_elapsed": 1026836, "internal_node_id": "0.0-6.0-1.0-3.0"}}, {"uniqueid": "w63029402:a82061944", "current_trial": 19, "dateTime": 1693565697906, "trialdata": {"revealed_states": [], "clicked_states": [], "num_clicks_accrued": [0, 0, 0, 0, 0, 0, 0, 0, 0, 0, 0, 0, 0], "stateRewards": ["", 2, -4, -4, 13, -80, 62, 13, -11, 57, -13, -44, 1, 4, 3, -4, -29, -88, 15, 16, -58, 68, -45, -1, -3, -1, -9, -44, -86, -19, -7, -36, 59, 66], "withholdReward": false, "trial_id": "mdp_trial_5", "block": "test", "trialIndex": 8, "score": -84, "costs": 0, "simulationMode": [null, null, null, null, null], "rewards": [1, 4, 3, -4, -88], "path": ["0", "0", "12", "13", "14", "15", "17"], "rt": [1825, 671, 267, 243, 511], "actions": ["right", "right", "right", "up", "right"], "actionTimes": [5086, 6296, 7054, 7793, 8830], "queries": {"click": {"state": {"target": [], "time": []}, "edge": {"target": [], "time": []}}, "mouseover": {"state": {"target": ["18"], "time": [3278]}, "edge": {"target": [], "time": []}}, "mouseout": {"state": {"target": ["19", "22", "0", "18"], "time": [2061, 2125, 2213, 11321]}, "edge": {"target": [], "time": []}}}, "displayed_time": "17.26", "trialTime": 21383, "trial_type": "mouselab-mdp", "trial_index": 19, "time_elapsed": 1048772, "internal_node_id": "0.0-6.0-1.0-4.0"}}, {"uniqueid": "w63029402:a82061944", "current_trial": 20, "dateTime": 1693565717765, "trialdata": {"revealed_states": [], "clicked_states": [], "num_clicks_accrued": [0, 0, 0, 0, 0, 0, 0, 0, 0, 0, 0, 0, 0], "stateRewards": ["", 2, 4, 7, 7, -79, -2, -21, -5, -53, 47, -21, 1, -3, -1, 7, 83, 7, 84, -7, 80, -37, 69, 2, -4, 5, 2, 4, -20, -30, 7, 71, 44, -81], "withholdReward": false, "trial_id": "mdp_trial_6", "block": "test", "trialIndex": 9, "score": -47, "costs": 0, "simulationMode": [null, null, null, null, null], "rewards": [1, -3, -1, -7, -37], "path": ["0", "0", "12", "13", "14", "19", "21"], "rt": [2151, 237, 313, 235, 699], "actions": ["right", "right", "right", "down", "down"], "actionTimes": [5271, 6043, 6866, 7621, 8834], "queries": {"click": {"state": {"target": [], "time": []}, "edge": {"target": [], "time": []}}, "mouseover": {"state": {"target": [], "time": []}, "edge": {"target": [], "time": []}}, "mouseout": {"state": {"target": ["15", "7", "12"], "time": [1734, 2070, 2338]}, "edge": {"target": [], "time": []}}}, "displayed_time": "17.13", "trialTime": 19222, "trial_type": "mouselab-mdp", "trial_index": 20, "time_elapsed": 1068632, "internal_node_id": "0.0-6.0-1.0-5.0"}}, {"uniqueid": "w63029402:a82061944", "current_trial": 21, "dateTime": 1693565736642, "trialdata": {"revealed_states": [], "clicked_states": [], "num_clicks_accrued": [0, 0, 0, 0, 0, 0, 0, 0, 0, 0, 0, 0, 0], "stateRewards": ["", 1, 3, -2, 15, 51, 15, -19, 11, 67, -45, -73, 2, 4, -2, -13, 36, 9, -28, 10, -30, 31, 16, 1, 2, -1, -16, 14, -22, 36, -1, 88, -5, 45], "withholdReward": false, "trial_id": "mdp_trial_7", "block": "test", "trialIndex": 10, "score": -36, "costs": 0, "simulationMode": [null, null, null, null, null], "rewards": [1, 2, -1, -16, -22], "path": ["0", "0", "23", "24", "25", "26", "28"], "rt": [2474, 292, 291, 241, 244], "actions": ["left", "left", "left", "up", "right"], "actionTimes": [4608, 5434, 6235, 6994, 7747], "queries": {"click": {"state": {"target": [], "time": []}, "edge": {"target": [], "time": []}}, "mouseover": {"state": {"target": ["16"], "time": [2167]}, "edge": {"target": [], "time": []}}, "mouseout": {"state": {"target": ["18", "16", "12", "0"], "time": [1113, 2209, 13792, 16999]}, "edge": {"target": [], "time": []}}}, "displayed_time": "16.14", "trialTime": 18346, "trial_type": "mouselab-mdp", "trial_index": 21, "time_elapsed": 1087508, "internal_node_id": "0.0-6.0-1.0-6.0"}}, {"uniqueid": "w63029402:a82061944", "current_trial": 22, "dateTime": 1693565760995, "trialdata": {"revealed_states": [], "clicked_states": [], "num_clicks_accrued": [0, 0, 0, 0, 0, 0, 0, 0, 0, 0, 0, 0, 0], "stateRewards": ["", -1, 3, -7, 16, -32, -74, -48, 2, 10, 15, -30, 1, 1, -2, 10, 12, -83, 67, 13, -66, 47, 65, -2, 4, 2, -14, -8, -57, 24, 9, 65, 12, 46], "withholdReward": false, "trial_id": "mdp_trial_8", "block": "test", "trialIndex": 11, "score": 78, "costs": 0, "simulationMode": [null, null, null, null, null], "rewards": [-2, 4, 2, 9, 65], "path": ["0", "0", "23", "24", "25", "30", "31"], "rt": [1824, 95, 104, 255, 168], "actions": ["left", "left", "left", "down", "right"], "actionTimes": [4417, 5051, 5681, 6456, 7137], "queries": {"click": {"state": {"target": [], "time": []}, "edge": {"target": [], "time": []}}, "mouseover": {"state": {"target": ["12", "13", "14"], "time": [2609, 2765, 2908]}, "edge": {"target": [], "time": []}}, "mouseout": {"state": {"target": ["23", "24", "24", "23", "12", "0", "12", "13", "14", "16", "22"], "time": [777, 804, 1152, 1402, 1777, 2047, 2758, 2805, 2947, 19843, 22489]}, "edge": {"target": [], "time": []}}}, "displayed_time": "16.60", "trialTime": 23749, "trial_type": "mouselab-mdp", "trial_index": 22, "time_elapsed": 1111861, "internal_node_id": "0.0-6.0-1.0-7.0"}}, {"uniqueid": "w63029402:a82061944", "current_trial": 23, "dateTime": 1693565780205, "trialdata": {"revealed_states": [], "clicked_states": [], "num_clicks_accrued": [0, 0, 0, 0, 0, 0, 0, 0, 0, 0, 0, 0, 0], "stateRewards": ["", 2, -1, -4, -13, 74, 77, 3, 2, -43, -2, -11, 2, 3, 7, 11, -26, -29, -33, -3, -3, -13, -3, 1, 3, -7, 14, -59, 33, 9, -5, 34, 79, 68], "withholdReward": false, "trial_id": "mdp_trial_9", "block": "test", "trialIndex": 12, "score": 26, "costs": 0, "simulationMode": [null, null, null, null, null], "rewards": [1, 3, -7, -5, 34], "path": ["0", "0", "23", "24", "25", "30", "31"], "rt": [1766, 126, 181, 153, 560], "actions": ["left", "left", "left", "down", "right"], "actionTimes": [3278, 3927, 4619, 5299, 6383], "queries": {"click": {"state": {"target": [], "time": []}, "edge": {"target": [], "time": []}}, "mouseover": {"state": {"target": [], "time": []}, "edge": {"target": [], "time": []}}, "mouseout": {"state": {"target": ["0"], "time": [1529]}, "edge": {"target": [], "time": []}}}, "displayed_time": "15.52", "trialTime": 18581, "trial_type": "mouselab-mdp", "trial_index": 23, "time_elapsed": 1131072, "internal_node_id": "0.0-6.0-1.0-8.0"}}, {"uniqueid": "w63029402:a82061944", "current_trial": 24, "dateTime": 1693565800837, "trialdata": {"revealed_states": [], "clicked_states": [], "num_clicks_accrued": [0, 0, 0, 0, 0, 0, 0, 0, 0, 0, 0, 0, 0], "stateRewards": ["", -2, 3, 8, -9, 59, 41, -50, -1, 82, 66, 33, 2, -2, 7, 8, 1, -38, 12, -16, 24, -37, 67, 1, 4, -2, 5, 35, -83, 28, 8, -27, 69, -64], "withholdReward": false, "trial_id": "mdp_trial_10", "block": "test", "trialIndex": 13, "score": 80, "costs": 0, "simulationMode": [null, null, null, null, null], "rewards": [1, 4, -2, 8, 69], "path": ["0", "0", "23", "24", "25", "30", "32"], "rt": [1688, 713, 196, 97, 1081], "actions": ["left", "left", "left", "down", "down"], "actionTimes": [4431, 5687, 6393, 7017, 8608], "queries": {"click": {"state": {"target": [], "time": []}, "edge": {"target": [], "time": []}}, "mouseover": {"state": {"target": [], "time": []}, "edge": {"target": [], "time": []}}, "mouseout": {"state": {"target": ["17", "22"], "time": [1520, 17294]}, "edge": {"target": [], "time": []}}}, "displayed_time": "16.75", "trialTime": 20065, "trial_type": "mouselab-mdp", "trial_index": 24, "time_elapsed": 1151703, "internal_node_id": "0.0-6.0-1.0-9.0"}}, {"uniqueid": "w63029402:a82061944", "current_trial": 25, "dateTime": 1693565820246, "trialdata": {"revealed_states": [], "clicked_states": [], "num_clicks_accrued": [0, 0, 0, 0, 0, 0, 0, 0, 0, 0, 0, 0, 0], "stateRewards": ["", 2, -1, 3, -12, -83, 6, -33, 9, 28, 24, -50, -2, -1, -2, -5, -87, 37, 82, 12, 80, -5, 10, -2, -3, -6, 9, 22, -1, 16, 9, 77, -62, 58], "withholdReward": false, "trial_id": "mdp_trial_11", "block": "test", "trialIndex": 14, "score": 2, "costs": 0, "simulationMode": [null, null, null, null, null], "rewards": [-2, -1, -2, 12, -5], "path": ["0", "0", "12", "13", "14", "19", "21"], "rt": [1499, 232, 128, 502, 480], "actions": ["right", "right", "right", "down", "down"], "actionTimes": [3062, 3823, 4467, 5488, 6506], "queries": {"click": {"state": {"target": [], "time": []}, "edge": {"target": [], "time": []}}, "mouseover": {"state": {"target": [], "time": []}, "edge": {"target": [], "time": []}}, "mouseout": {"state": {"target": ["0", "0"], "time": [373, 1581]}, "edge": {"target": [], "time": []}}}, "displayed_time": "15.57", "trialTime": 18765, "trial_type": "mouselab-mdp", "trial_index": 25, "time_elapsed": 1171113, "internal_node_id": "0.0-6.0-1.0-10.0"}}, {"uniqueid": "w63029402:a82061944", "current_trial": 26, "dateTime": 1693565841595, "trialdata": {"revealed_states": [], "clicked_states": [], "num_clicks_accrued": [0, 0, 0, 0, 0, 0, 0, 0, 0, 0, 0, 0, 0], "stateRewards": ["", -1, 2, 5, -6, 13, -64, -47, 8, -79, -80, -33, 1, 2, -2, -16, 56, -71, -10, 3, 29, 44, 85, -1, 4, 5, 4, -36, -56, 19, 8, 52, -13, -2], "withholdReward": false, "trial_id": "mdp_trial_12", "block": "test", "trialIndex": 15, "score": 13, "costs": 0, "simulationMode": [null, null, null, null, null], "rewards": [-1, 2, 5, -6, 13], "path": ["0", "0", "1", "2", "3", "4", "5"], "rt": [1534, 104, 143, 136, 681], "actions": ["up", "up", "up", "right", "up"], "actionTimes": [3543, 4181, 4821, 5482, 6696], "queries": {"click": {"state": {"target": [], "time": []}, "edge": {"target": [], "time": []}}, "mouseover": {"state": {"target": [], "time": []}, "edge": {"target": [], "time": []}}, "mouseout": {"state": {"target": ["0"], "time": [2029]}, "edge": {"target": [], "time": []}}}, "displayed_time": "16.02", "trialTime": 20704, "trial_type": "mouselab-mdp", "trial_index": 26, "time_elapsed": 1192461, "internal_node_id": "0.0-6.0-1.0-11.0"}}, {"uniqueid": "w63029402:a82061944", "current_trial": 27, "dateTime": 1693565862192, "trialdata": {"revealed_states": [], "clicked_states": [], "num_clicks_accrued": [0, 0, 0, 0, 0, 0, 0, 0, 0, 0, 0, 0, 0], "stateRewards": ["", -2, -3, 8, -4, -30, 31, 69, 9, 66, 87, 64, -2, 2, 8, 5, 47, 16, -39, -8, -54, 51, -19, 1, -2, -2, -11, -25, -26, 43, -9, 19, -84, 86], "withholdReward": false, "trial_id": "mdp_trial_13", "block": "test", "trialIndex": 16, "score": 68, "costs": 0, "simulationMode": [null, null, null, null, null], "rewards": [-2, -3, 8, -4, 69], "path": ["0", "0", "1", "2", "3", "4", "7"], "rt": [1711, 190, 187, 30, 86], "actions": ["up", "up", "up", "right", "down"], "actionTimes": [4095, 4822, 5520, 6070, 6688], "queries": {"click": {"state": {"target": [], "time": []}, "edge": {"target": [], "time": []}}, "mouseover": {"state": {"target": [], "time": []}, "edge": {"target": [], "time": []}}, "mouseout": {"state": {"target": ["0"], "time": [1761]}, "edge": {"target": [], "time": []}}}, "displayed_time": "16.39", "trialTime": 19972, "trial_type": "mouselab-mdp", "trial_index": 27, "time_elapsed": 1213058, "internal_node_id": "0.0-6.0-1.0-12.0"}}, {"uniqueid": "w63029402:a82061944", "current_trial": 28, "dateTime": 1693565880289, "trialdata": {"revealed_states": [], "clicked_states": [], "num_clicks_accrued": [0, 0, 0, 0, 0, 0, 0, 0, 0, 0, 0, 0, 0], "stateRewards": ["", -1, -2, 4, 9, 10, -75, 39, 16, -43, 88, -19, -1, 1, 2, 4, -31, 10, 73, 12, 41, -64, -81, -2, 2, -6, 1, -81, -1, -26, 3, -59, -3, -20], "withholdReward": false, "trial_id": "mdp_trial_14", "block": "test", "trialIndex": 17, "score": 79, "costs": 0, "simulationMode": [null, null, null, null, null], "rewards": [-1, 1, 2, 4, 73], "path": ["0", "0", "12", "13", "14", "15", "18"], "rt": [1793, 176, 195, 136, 107], "actions": ["right", "right", "right", "up", "left"], "actionTimes": [3691, 4420, 5141, 5786, 6422], "queries": {"click": {"state": {"target": [], "time": []}, "edge": {"target": [], "time": []}}, "mouseover": {"state": {"target": [], "time": []}, "edge": {"target": [], "time": []}}, "mouseout": {"state": {"target": ["0"], "time": [1916]}, "edge": {"target": [], "time": []}}}, "displayed_time": "15.91", "trialTime": 17394, "trial_type": "mouselab-mdp", "trial_index": 28, "time_elapsed": 1231156, "internal_node_id": "0.0-6.0-1.0-13.0"}}, {"uniqueid": "w63029402:a82061944", "current_trial": 29, "dateTime": 1693565898064, "trialdata": {"revealed_states": [], "clicked_states": [], "num_clicks_accrued": [0, 0, 0, 0, 0, 0, 0, 0, 0, 0, 0, 0, 0], "stateRewards": ["", 1, -4, -6, 11, -20, 8, -30, 1, -38, 88, 42, 2, 3, 5, -12, -8, -74, 30, -8, 67, -19, 42, 2, -1, 4, 13, 50, -68, 2, -8, -15, 87, -46], "withholdReward": false, "trial_id": "mdp_trial_15", "block": "test", "trialIndex": 18, "score": -49, "costs": 0, "simulationMode": [null, null, null, null, null], "rewards": [2, -1, 4, -8, -46], "path": ["0", "0", "23", "24", "25", "30", "33"], "rt": [1667, 214, 183, 48, 988], "actions": ["left", "left", "left", "down", "left"], "actionTimes": [3738, 4483, 5203, 5747, 7232], "queries": {"click": {"state": {"target": [], "time": []}, "edge": {"target": [], "time": []}}, "mouseover": {"state": {"target": [], "time": []}, "edge": {"target": [], "time": []}}, "mouseout": {"state": {"target": ["15", "18"], "time": [1152, 1180]}, "edge": {"target": [], "time": []}}}, "displayed_time": "16.07", "trialTime": 17151, "trial_type": "mouselab-mdp", "trial_index": 29, "time_elapsed": 1248930, "internal_node_id": "0.0-6.0-1.0-14.0"}}, {"uniqueid": "w63029402:a82061944", "current_trial": 30, "dateTime": 1693565918617, "trialdata": {"revealed_states": [], "clicked_states": [], "num_clicks_accrued": [0, 0, 0, 0, 0, 0, 0, 0, 0, 0, 0, 0, 0], "stateRewards": ["", 1, 1, -5, 8, -6, 45, 16, -6, -7, -22, -38, -1, -4, 8, -11, -16, 21, -45, -15, -59, -32, 42, -1, 3, 6, 11, -7, 34, -27, -8, 85, 43, -9], "withholdReward": false, "trial_id": "mdp_trial_16", "block": "test", "trialIndex": 19, "score": -47, "costs": 0, "simulationMode": [null, null, null, null, null], "rewards": [1, 1, -5, -6, -38], "path": ["0", "0", "1", "2", "3", "8", "11"], "rt": [1613, 351, 215, 164, 162], "actions": ["up", "up", "up", "left", "left"], "actionTimes": [4317, 5209, 5955, 6633, 7323], "queries": {"click": {"state": {"target": [], "time": []}, "edge": {"target": [], "time": []}}, "mouseover": {"state": {"target": [], "time": []}, "edge": {"target": [], "time": []}}, "mouseout": {"state": {"target": ["19", "22", "0"], "time": [1690, 1714, 2721]}, "edge": {"target": [], "time": []}}}, "displayed_time": "16.71", "trialTime": 19865, "trial_type": "mouselab-mdp", "trial_index": 30, "time_elapsed": 1269484, "internal_node_id": "0.0-6.0-1.0-15.0"}}, {"uniqueid": "w63029402:a82061944", "current_trial": 31, "dateTime": 1693565941292, "trialdata": {"revealed_states": [], "clicked_states": [], "num_clicks_accrued": [0, 0, 0, 0, 0, 0, 0, 0, 0, 0, 0, 0, 0], "stateRewards": ["", -1, 1, 3, -8, -23, -15, -14, -11, -23, 58, 68, 1, 3, 5, 12, -17, -41, -7, -10, -4, 82, 10, 1, 4, -4, 11, 73, 55, -55, -1, -86, -86, 54], "withholdReward": false, "trial_id": "mdp_trial_17", "block": "test", "trialIndex": 20, "score": 67, "costs": 0, "simulationMode": [null, null, null, null, null], "rewards": [1, 4, -4, 11, 55], "path": ["0", "0", "23", "24", "25", "26", "28"], "rt": [1253, 205, 556, 201, 238], "actions": ["left", "left", "left", "up", "right"], "actionTimes": [4083, 4817, 5902, 6621, 7394], "queries": {"click": {"state": {"target": [], "time": []}, "edge": {"target": [], "time": []}}, "mouseover": {"state": {"target": [], "time": []}, "edge": {"target": [], "time": []}}, "mouseout": {"state": {"target": ["0"], "time": [2874]}, "edge": {"target": [], "time": []}}}, "displayed_time": "16.84", "trialTime": 22017, "trial_type": "mouselab-mdp", "trial_index": 31, "time_elapsed": 1292158, "internal_node_id": "0.0-6.0-1.0-16.0"}}, {"uniqueid": "w63029402:a82061944", "current_trial": 32, "dateTime": 1693565960664, "trialdata": {"revealed_states": [], "clicked_states": [], "num_clicks_accrued": [0, 0, 0, 0, 0, 0, 0, 0, 0, 0, 0, 0, 0], "stateRewards": ["", 2, -4, 1, -12, -59, -53, -74, 16, -88, -66, 66, 1, -2, 8, -9, -14, 22, 25, -1, -39, 47, -14, -1, -1, -2, 1, -4, 52, -26, 15, -7, 46, 43], "withholdReward": false, "trial_id": "mdp_trial_18", "block": "test", "trialIndex": 21, "score": -51, "costs": 0, "simulationMode": [null, null, null, null, null], "rewards": [2, -4, 1, 16, -66], "path": ["0", "0", "1", "2", "3", "8", "10"], "rt": [1501, 22, 195, 110, 208], "actions": ["up", "up", "up", "left", "down"], "actionTimes": [3655, 4175, 4908, 5538, 6273], "queries": {"click": {"state": {"target": [], "time": []}, "edge": {"target": [], "time": []}}, "mouseover": {"state": {"target": [], "time": []}, "edge": {"target": [], "time": []}}, "mouseout": {"state": {"target": ["15", "1", "23", "0"], "time": [873, 935, 1164, 1289]}, "edge": {"target": [], "time": []}}}, "displayed_time": "16.16", "trialTime": 18719, "trial_type": "mouselab-mdp", "trial_index": 32, "time_elapsed": 1311531, "internal_node_id": "0.0-6.0-1.0-17.0"}}, {"uniqueid": "w63029402:a82061944", "current_trial": 33, "dateTime": 1693565980171, "trialdata": {"revealed_states": [], "clicked_states": [], "num_clicks_accrued": [0, 0, 0, 0, 0, 0, 0, 0, 0, 0, 0, 0, 0], "stateRewards": ["", 1, 1, -7, -9, -44, 24, -83, -15, 44, -24, 72, -2, -3, 4, -5, 57, 55, 29, -11, 22, 12, -25, -1, 2, 7, 12, 33, -8, 47, -4, 8, 50, -4], "withholdReward": false, "trial_id": "mdp_trial_19", "block": "test", "trialIndex": 22, "score": 24, "costs": 0, "simulationMode": [null, null, null, null, null], "rewards": [1, 1, -7, -15, 44], "path": ["0", "0", "1", "2", "3", "8", "9"], "rt": [1525, 297, 199, 193, 88], "actions": ["up", "up", "up", "left", "up"], "actionTimes": [4566, 5399, 6102, 6823, 7432], "queries": {"click": {"state": {"target": [], "time": []}, "edge": {"target": [], "time": []}}, "mouseover": {"state": {"target": [], "time": []}, "edge": {"target": [], "time": []}}, "mouseout": {"state": {"target": [], "time": []}, "edge": {"target": [], "time": []}}}, "displayed_time": "17.05", "trialTime": 18813, "trial_type": "mouselab-mdp", "trial_index": 33, "time_elapsed": 1331037, "internal_node_id": "0.0-6.0-1.0-18.0"}}, {"uniqueid": "w63029402:a82061944", "current_trial": 34, "dateTime": 1693565997661, "trialdata": {"revealed_states": [], "clicked_states": [], "num_clicks_accrued": [0, 0, 0, 0, 0, 0, 0, 0, 0, 0, 0, 0, 0], "stateRewards": ["", -1, 2, -6, 6, -82, -19, -39, -16, -83, 11, -33, -2, -2, 4, -6, -82, -1, -19, -6, -10, -67, -41, -2, 1, -7, 16, -23, -78, -52, 14, 31, -71, 74], "withholdReward": false, "trial_id": "mdp_trial_20", "block": "test", "trialIndex": 23, "score": -25, "costs": 0, "simulationMode": [null, null, null, null, null], "rewards": [-2, -2, 4, -6, -19], "path": ["0", "0", "12", "13", "14", "15", "18"], "rt": [1411, 791, 256, 109, 339], "actions": ["right", "right", "right", "up", "left"], "actionTimes": [3214, 4531, 5318, 5956, 6807], "queries": {"click": {"state": {"target": [], "time": []}, "edge": {"target": [], "time": []}}, "mouseover": {"state": {"target": [], "time": []}, "edge": {"target": [], "time": []}}, "mouseout": {"state": {"target": [], "time": []}, "edge": {"target": [], "time": []}}}, "displayed_time": "15.81", "trialTime": 16829, "trial_type": "mouselab-mdp", "trial_index": 34, "time_elapsed": 1348528, "internal_node_id": "0.0-6.0-1.0-19.0"}}, {"uniqueid": "w63029402:a82061944", "current_trial": 35, "dateTime": 1693566017105, "trialdata": {"revealed_states": [], "clicked_states": [], "num_clicks_accrued": [0, 0, 0, 0, 0, 0, 0, 0, 0, 0, 0, 0, 0], "stateRewards": ["", 1, 2, -3, -6, 50, -7, 7, -7, -80, 21, -1, 2, 2, 4, -1, 33, 84, 1, 14, -53, 81, 6, -2, -2, -3, -9, -87, -38, -59, -5, -74, -3, -71], "withholdReward": false, "trial_id": "mdp_trial_21", "block": "test", "trialIndex": 24, "score": -15, "costs": 0, "simulationMode": [null, null, null, null, null], "rewards": [-2, -2, -3, -5, -3], "path": ["0", "0", "23", "24", "25", "30", "32"], "rt": [1959, 282, 130, 7, 219], "actions": ["left", "left", "left", "down", "down"], "actionTimes": [3986, 4804, 5471, 6031, 6777], "queries": {"click": {"state": {"target": [], "time": []}, "edge": {"target": [], "time": []}}, "mouseover": {"state": {"target": [], "time": []}, "edge": {"target": [], "time": []}}, "mouseout": {"state": {"target": [], "time": []}, "edge": {"target": [], "time": []}}}, "displayed_time": "16.04", "trialTime": 18805, "trial_type": "mouselab-mdp", "trial_index": 35, "time_elapsed": 1367972, "internal_node_id": "0.0-6.0-1.0-20.0"}}, {"uniqueid": "w63029402:a82061944", "current_trial": 36, "dateTime": 1693566035784, "trialdata": {"revealed_states": [], "clicked_states": [], "num_clicks_accrued": [0, 0, 0, 0, 0, 0, 0, 0, 0, 0, 0, 0, 0], "stateRewards": ["", 2, 3, 6, -5, -74, -53, 17, -12, 46, 44, 18, -2, 4, 1, -8, 22, -23, -49, 9, -45, 55, 81, 1, -1, -7, -16, -83, -71, -45, 2, 51, 82, 61], "withholdReward": false, "trial_id": "mdp_trial_22", "block": "test", "trialIndex": 25, "score": -68, "costs": 0, "simulationMode": [null, null, null, null, null], "rewards": [1, -1, -7, -16, -45], "path": ["0", "0", "23", "24", "25", "26", "29"], "rt": [1412, 322, 80, 103, 572], "actions": ["left", "left", "left", "up", "left"], "actionTimes": [2692, 3548, 4158, 4791, 5899], "queries": {"click": {"state": {"target": [], "time": []}, "edge": {"target": [], "time": []}}, "mouseover": {"state": {"target": [], "time": []}, "edge": {"target": [], "time": []}}, "mouseout": {"state": {"target": [], "time": []}, "edge": {"target": [], "time": []}}}, "displayed_time": "15.29", "trialTime": 17999, "trial_type": "mouselab-mdp", "trial_index": 36, "time_elapsed": 1386651, "internal_node_id": "0.0-6.0-1.0-21.0"}}, {"uniqueid": "w63029402:a82061944", "current_trial": 37, "dateTime": 1693566053202, "trialdata": {"revealed_states": [], "clicked_states": [], "num_clicks_accrued": [0, 0, 0, 0, 0, 0, 0, 0, 0, 0, 0, 0, 0], "stateRewards": ["", 2, -1, -1, 7, 11, -40, -22, -2, 69, 37, 8, -2, 4, -8, -12, -2, -72, -3, -12, 17, 63, 12, 1, 3, -7, 6, 25, 61, 61, -9, 28, -17, 27], "withholdReward": false, "trial_id": "mdp_trial_23", "block": "test", "trialIndex": 26, "score": 45, "costs": 0, "simulationMode": [null, null, null, null, null], "rewards": [-2, 4, -8, -12, 63], "path": ["0", "0", "12", "13", "14", "19", "21"], "rt": [594, 52, 8, 159, 445], "actions": ["right", "right", "right", "down", "down"], "actionTimes": [2168, 2715, 3275, 3947, 4924], "queries": {"click": {"state": {"target": [], "time": []}, "edge": {"target": [], "time": []}}, "mouseover": {"state": {"target": [], "time": []}, "edge": {"target": [], "time": []}}, "mouseout": {"state": {"target": [], "time": []}, "edge": {"target": [], "time": []}}}, "displayed_time": "15.58", "trialTime": 16707, "trial_type": "mouselab-mdp", "trial_index": 37, "time_elapsed": 1404068, "internal_node_id": "0.0-6.0-1.0-22.0"}}, {"uniqueid": "w63029402:a82061944", "current_trial": 38, "dateTime": 1693566069824, "trialdata": {"revealed_states": [], "clicked_states": [], "num_clicks_accrued": [0, 0, 0, 0, 0, 0, 0, 0, 0, 0, 0, 0, 0], "stateRewards": ["", 1, -2, 7, -14, 88, -56, -44, -14, 64, -51, -57, -2, 3, -4, -9, -11, 19, -77, -1, 68, 75, -67, -1, 1, -2, 5, -37, 70, -34, -10, -72, 63, -41], "withholdReward": false, "trial_id": "mdp_trial_24", "block": "test", "trialIndex": 27, "score": -52, "costs": 0, "simulationMode": [null, null, null, null, null], "rewards": [1, -2, 7, -14, -44], "path": ["0", "0", "1", "2", "3", "4", "7"], "rt": [692, 48, 71, 24, 59], "actions": ["up", "up", "up", "right", "down"], "actionTimes": [1710, 2281, 2868, 3424, 4002], "queries": {"click": {"state": {"target": [], "time": []}, "edge": {"target": [], "time": []}}, "mouseover": {"state": {"target": [], "time": []}, "edge": {"target": [], "time": []}}, "mouseout": {"state": {"target": [], "time": []}, "edge": {"target": [], "time": []}}}, "displayed_time": "15.02", "trialTime": 15879, "trial_type": "mouselab-mdp", "trial_index": 38, "time_elapsed": 1420691, "internal_node_id": "0.0-6.0-1.0-23.0"}}, {"uniqueid": "w63029402:a82061944", "current_trial": 39, "dateTime": 1693566094051, "trialdata": {"revealed_states": [], "clicked_states": [], "num_clicks_accrued": [0, 0, 0, 0, 0, 0, 0, 0, 0, 0, 0, 0, 0], "stateRewards": ["", 1, -1, -7, -7, -22, 15, -13, 13, 26, -32, 38, -1, 1, -7, -4, 16, -62, 86, 12, -54, 56, 64, -2, -1, 6, 14, -57, 37, 62, -6, -25, 50, -70], "withholdReward": false, "trial_id": "mdp_trial_25", "block": "test", "trialIndex": 28, "score": 32, "costs": 0, "simulationMode": [null, null, null, null, null], "rewards": [1, -1, -7, 13, 26], "path": ["0", "0", "1", "2", "3", "8", "9"], "rt": [1049, 254, 110, 147, 101], "actions": ["up", "up", "up", "left", "up"], "actionTimes": [4306, 5115, 5732, 6378, 7017], "queries": {"click": {"state": {"target": [], "time": []}, "edge": {"target": [], "time": []}}, "mouseover": {"state": {"target": [], "time": []}, "edge": {"target": [], "time": []}}, "mouseout": {"state": {"target": ["0"], "time": [113]}, "edge": {"target": [], "time": []}}}, "displayed_time": "17.26", "trialTime": 23516, "trial_type": "mouselab-mdp", "trial_index": 39, "time_elapsed": 1444918, "internal_node_id": "0.0-6.0-1.0-24.0"}}, {"uniqueid": "w63029402:a82061944", "current_trial": 40, "dateTime": 1693566112107, "trialdata": {"revealed_states": [], "clicked_states": [], "num_clicks_accrued": [0, 0, 0, 0, 0, 0, 0, 0, 0, 0, 0, 0, 0], "stateRewards": ["", -1, -3, 1, -4, -48, -63, -49, -2, -84, -19, 65, 2, -2, -2, -12, -4, 59, 9, 6, 75, 69, -13, -1, -3, -3, -2, -37, -68, -36, 13, 32, 18, -14], "withholdReward": false, "trial_id": "mdp_trial_26", "block": "test", "trialIndex": 29, "score": -18, "costs": 0, "simulationMode": [null, null, null, null, null], "rewards": [2, -2, -2, -12, -4], "path": ["0", "0", "12", "13", "14", "15", "16"], "rt": [2177, 686, 224, 89, 269], "actions": ["right", "right", "right", "up", "up"], "actionTimes": [3794, 5038, 5773, 6396, 7210], "queries": {"click": {"state": {"target": [], "time": []}, "edge": {"target": [], "time": []}}, "mouseover": {"state": {"target": [], "time": []}, "edge": {"target": [], "time": []}}, "mouseout": {"state": {"target": [], "time": []}, "edge": {"target": [], "time": []}}}, "displayed_time": "15.62", "trialTime": 17330, "trial_type": "mouselab-mdp", "trial_index": 40, "time_elapsed": 1462974, "internal_node_id": "0.0-6.0-1.0-25.0"}}, {"uniqueid": "w63029402:a82061944", "current_trial": 41, "dateTime": 1693566132926, "trialdata": {"revealed_states": [], "clicked_states": [], "num_clicks_accrued": [0, 0, 0, 0, 0, 0, 0, 0, 0, 0, 0, 0, 0], "stateRewards": ["", -1, 4, -8, 12, 14, 69, -8, 5, -72, -14, 56, -1, -1, -1, 9, 67, 19, 11, -9, -88, -58, 3, 2, -4, -8, 4, 62, 77, -74, 5, -31, 65, 88], "withholdReward": false, "trial_id": "mdp_trial_27", "block": "test", "trialIndex": 30, "score": 56, "costs": 0, "simulationMode": [null, null, null, null, null], "rewards": [-1, 4, -8, 5, 56], "path": ["0", "0", "1", "2", "3", "8", "11"], "rt": [1730, 435, 154, 5, 59], "actions": ["up", "up", "up", "left", "left"], "actionTimes": [5051, 6041, 6691, 7218, 7825], "queries": {"click": {"state": {"target": [], "time": []}, "edge": {"target": [], "time": []}}, "mouseover": {"state": {"target": [], "time": []}, "edge": {"target": [], "time": []}}, "mouseout": {"state": {"target": [], "time": []}, "edge": {"target": [], "time": []}}}, "displayed_time": "17.32", "trialTime": 20097, "trial_type": "mouselab-mdp", "trial_index": 41, "time_elapsed": 1483793, "internal_node_id": "0.0-6.0-1.0-26.0"}}, {"uniqueid": "w63029402:a82061944", "current_trial": 42, "dateTime": 1693566150226, "trialdata": {"revealed_states": [], "clicked_states": [], "num_clicks_accrued": [0, 0, 0, 0, 0, 0, 0, 0, 0, 0, 0, 0, 0], "stateRewards": ["", -1, 3, 1, -7, 56, 76, 57, 3, 11, -9, 14, 1, -2, 2, 8, -77, -3, 79, -5, 88, 24, -66, -2, -1, 7, -7, -30, 14, -76, 11, -36, 28, -6], "withholdReward": false, "trial_id": "mdp_trial_28", "block": "test", "trialIndex": 31, "score": 9, "costs": 0, "simulationMode": [null, null, null, null, null], "rewards": [-2, -1, 7, 11, -6], "path": ["0", "0", "23", "24", "25", "30", "33"], "rt": [3714, 97, 83, 143, 164], "actions": ["left", "left", "left", "down", "left"], "actionTimes": [5262, 5881, 6493, 7175, 7871], "queries": {"click": {"state": {"target": [], "time": []}, "edge": {"target": [], "time": []}}, "mouseover": {"state": {"target": [], "time": []}, "edge": {"target": [], "time": []}}, "mouseout": {"state": {"target": [], "time": []}, "edge": {"target": [], "time": []}}}, "displayed_time": "15.56", "trialTime": 16556, "trial_type": "mouselab-mdp", "trial_index": 42, "time_elapsed": 1501093, "internal_node_id": "0.0-6.0-1.0-27.0"}}, {"uniqueid": "w63029402:a82061944", "current_trial": 43, "dateTime": 1693566168753, "trialdata": {"revealed_states": [], "clicked_states": [], "num_clicks_accrued": [0, 0, 0, 0, 0, 0, 0, 0, 0, 0, 0, 0, 0], "stateRewards": ["", 1, -1, 8, 4, 76, -33, -17, -3, -1, -54, -74, -2, 2, -5, 13, -51, 63, 83, 1, 84, 29, -36, 2, -1, 7, -12, -10, -44, -43, -14, 8, -69, 19], "withholdReward": false, "trial_id": "mdp_trial_29", "block": "test", "trialIndex": 32, "score": 25, "costs": 0, "simulationMode": [null, null, null, null, null], "rewards": [-2, 2, -5, 1, 29], "path": ["0", "0", "12", "13", "14", "19", "21"], "rt": [2461, 101, 449, 311, 337], "actions": ["right", "right", "right", "down", "down"], "actionTimes": [4163, 4782, 5753, 6601, 7480], "queries": {"click": {"state": {"target": [], "time": []}, "edge": {"target": [], "time": []}}, "mouseover": {"state": {"target": [], "time": []}, "edge": {"target": [], "time": []}}, "mouseout": {"state": {"target": [], "time": []}, "edge": {"target": [], "time": []}}}, "displayed_time": "15.70", "trialTime": 17794, "trial_type": "mouselab-mdp", "trial_index": 43, "time_elapsed": 1519619, "internal_node_id": "0.0-6.0-1.0-28.0"}}, {"uniqueid": "w63029402:a82061944", "current_trial": 44, "dateTime": 1693566186176, "trialdata": {"revealed_states": [], "clicked_states": [], "num_clicks_accrued": [0, 0, 0, 0, 0, 0, 0, 0, 0, 0, 0, 0, 0], "stateRewards": ["", 1, 1, 7, -11, 80, -20, -53, -14, 3, 31, 27, 2, -1, -8, -10, 33, 41, 86, 9, 78, -37, -13, -1, -2, -6, -8, -80, 75, 4, -16, -49, -74, 24], "withholdReward": false, "trial_id": "mdp_trial_30", "block": "test", "trialIndex": 33, "score": -55, "costs": 0, "simulationMode": [null, null, null, null, null], "rewards": [1, 1, 7, -11, -53], "path": ["0", "0", "1", "2", "3", "4", "7"], "rt": [1151, 289, 462, 53, 62], "actions": ["up", "up", "up", "right", "down"], "actionTimes": [2558, 3378, 4365, 4933, 5544], "queries": {"click": {"state": {"target": [], "time": []}, "edge": {"target": [], "time": []}}, "mouseover": {"state": {"target": [], "time": []}, "edge": {"target": [], "time": []}}, "mouseout": {"state": {"target": [], "time": []}, "edge": {"target": [], "time": []}}}, "displayed_time": "15.41", "trialTime": 16644, "trial_type": "mouselab-mdp", "trial_index": 44, "time_elapsed": 1537043, "internal_node_id": "0.0-6.0-1.0-29.0"}}, {"uniqueid": "w63029402:a82061944", "current_trial": 45, "dateTime": 1693566203764, "trialdata": {"revealed_states": [], "clicked_states": [], "num_clicks_accrued": [0, 0, 0, 0, 0, 0, 0, 0, 0, 0, 0, 0, 0], "stateRewards": ["", -1, -3, 1, 13, -64, -29, 12, -4, -33, 50, 56, 2, -3, 4, 11, -64, -58, -55, 12, 47, 38, -25, -2, 2, 5, -15, 85, 7, 84, 10, 8, 57, 26], "withholdReward": false, "trial_id": "mdp_trial_31", "block": "test", "trialIndex": 34, "score": 43, "costs": 0, "simulationMode": [null, null, null, null, null], "rewards": [-1, -3, 1, -4, 50], "path": ["0", "0", "1", "2", "3", "8", "10"], "rt": [400, 897, 221, 743, 256], "actions": ["up", "up", "up", "left", "down"], "actionTimes": [2078, 3500, 4252, 5516, 6302], "queries": {"click": {"state": {"target": [], "time": []}, "edge": {"target": [], "time": []}}, "mouseover": {"state": {"target": [], "time": []}, "edge": {"target": [], "time": []}}, "mouseout": {"state": {"target": [], "time": []}, "edge": {"target": [], "time": []}}}, "displayed_time": "15.68", "trialTime": 16807, "trial_type": "mouselab-mdp", "trial_index": 45, "time_elapsed": 1554630, "internal_node_id": "0.0-6.0-1.0-30.0"}}, {"uniqueid": "w63029402:a82061944", "current_trial": 46, "dateTime": 1693566222091, "trialdata": {"revealed_states": [], "clicked_states": [], "num_clicks_accrued": [0, 0, 0, 0, 0, 0, 0, 0, 0, 0, 0, 0, 0], "stateRewards": ["", 1, 1, 1, -3, -7, -1, -41, -10, 20, -72, -63, 1, -4, -2, 2, -66, 30, -84, -2, 49, 23, 71, -1, -4, 4, -12, 67, 5, 18, -16, 88, 56, -5], "withholdReward": false, "trial_id": "mdp_trial_32", "block": "test", "trialIndex": 35, "score": 71, "costs": 0, "simulationMode": [null, null, null, null, null], "rewards": [-1, -4, 4, -16, 88], "path": ["0", "0", "23", "24", "25", "30", "31"], "rt": [650, 99, 308, 62, 211], "actions": ["left", "left", "left", "down", "right"], "actionTimes": [2528, 3161, 3997, 4587, 5378], "queries": {"click": {"state": {"target": [], "time": []}, "edge": {"target": [], "time": []}}, "mouseover": {"state": {"target": [], "time": []}, "edge": {"target": [], "time": []}}, "mouseout": {"state": {"target": [], "time": []}, "edge": {"target": [], "time": []}}}, "displayed_time": "15.88", "trialTime": 17573, "trial_type": "mouselab-mdp", "trial_index": 46, "time_elapsed": 1572958, "internal_node_id": "0.0-6.0-1.0-31.0"}}, {"uniqueid": "w63029402:a82061944", "current_trial": 47, "dateTime": 1693566240910, "trialdata": {"revealed_states": [], "clicked_states": [], "num_clicks_accrued": [0, 0, 0, 0, 0, 0, 0, 0, 0, 0, 0, 0, 0], "stateRewards": ["", 2, 3, -1, 6, 44, -4, -59, -14, -3, 64, 16, 1, -3, 3, 6, 3, 49, 19, 3, -49, -14, -86, 1, 2, -3, -8, -33, 14, 32, -13, -77, -47, -67], "withholdReward": false, "trial_id": "mdp_trial_33", "block": "test", "trialIndex": 36, "score": 6, "costs": 0, "simulationMode": [null, null, null, null, null], "rewards": [2, 3, -1, -14, 16], "path": ["0", "0", "1", "2", "3", "8", "11"], "rt": [1466, 755, 342, 1011, 78], "actions": ["up", "up", "up", "left", "left"], "actionTimes": [3593, 4886, 5778, 7313, 7895], "queries": {"click": {"state": {"target": [], "time": []}, "edge": {"target": [], "time": []}}, "mouseover": {"state": {"target": [], "time": []}, "edge": {"target": [], "time": []}}, "mouseout": {"state": {"target": [], "time": []}, "edge": {"target": [], "time": []}}}, "displayed_time": "16.13", "trialTime": 17999, "trial_type": "mouselab-mdp", "trial_index": 47, "time_elapsed": 1591776, "internal_node_id": "0.0-6.0-1.0-32.0"}}, {"uniqueid": "w63029402:a82061944", "current_trial": 48, "dateTime": 1693566260961, "trialdata": {"revealed_states": [], "clicked_states": [], "num_clicks_accrued": [0, 0, 0, 0, 0, 0, 0, 0, 0, 0, 0, 0, 0], "stateRewards": ["", 1, -4, 6, -3, 40, 76, -51, 5, -24, -63, 44, -2, -2, 8, 1, 76, -85, -58, 10, 59, 20, 11, -2, 3, -3, 3, -82, -10, 54, -7, -57, -6, -32], "withholdReward": false, "trial_id": "mdp_trial_34", "block": "test", "trialIndex": 37, "score": -9, "costs": 0, "simulationMode": [null, null, null, null, null], "rewards": [-2, 3, -3, 3, -10], "path": ["0", "0", "23", "24", "25", "26", "28"], "rt": [435, 311, 262, 76, 1169], "actions": ["left", "left", "left", "up", "right"], "actionTimes": [2036, 2862, 3641, 4253, 5948], "queries": {"click": {"state": {"target": [], "time": []}, "edge": {"target": [], "time": []}}, "mouseover": {"state": {"target": [], "time": []}, "edge": {"target": [], "time": []}}, "mouseout": {"state": {"target": [], "time": []}, "edge": {"target": [], "time": []}}}, "displayed_time": "15.61", "trialTime": 19261, "trial_type": "mouselab-mdp", "trial_index": 48, "time_elapsed": 1611828, "internal_node_id": "0.0-6.0-1.0-33.0"}}, {"uniqueid": "w63029402:a82061944", "current_trial": 49, "dateTime": 1693566278825, "trialdata": {"revealed_states": [], "clicked_states": [], "num_clicks_accrued": [0, 0, 0, 0, 0, 0, 0, 0, 0, 0, 0, 0, 0], "stateRewards": ["", 2, 3, -3, 4, 72, -28, 34, -12, 57, -64, -15, 2, 1, -4, -15, 2, 49, 31, -1, -42, -58, 31, -2, 1, -2, -13, -75, -19, -22, -6, 61, 10, -56], "withholdReward": false, "trial_id": "mdp_trial_35", "block": "test", "trialIndex": 38, "score": 29, "costs": 0, "simulationMode": [null, null, null, null, null], "rewards": [2, 1, -4, -1, 31], "path": ["0", "0", "12", "13", "14", "19", "22"], "rt": [1946, 21, 37, 35, 214], "actions": ["right", "right", "right", "down", "left"], "actionTimes": [3385, 3921, 4517, 5103, 5846], "queries": {"click": {"state": {"target": [], "time": []}, "edge": {"target": [], "time": []}}, "mouseover": {"state": {"target": [], "time": []}, "edge": {"target": [], "time": []}}, "mouseout": {"state": {"target": [], "time": []}, "edge": {"target": [], "time": []}}}, "displayed_time": "15.45", "trialTime": 17106, "trial_type": "mouselab-mdp", "trial_index": 49, "time_elapsed": 1629691, "internal_node_id": "0.0-6.0-1.0-34.0"}}, {"uniqueid": "w63029402:a82061944", "current_trial": 50, "dateTime": 1693566296610, "trialdata": {"revealed_states": [], "clicked_states": [], "num_clicks_accrued": [0, 0, 0, 0, 0, 0, 0, 0, 0, 0, 0, 0, 0], "stateRewards": ["", 2, -2, 7, -11, -76, -65, -23, 16, -58, 30, 81, 1, 2, 7, 14, 9, 55, -2, 6, 11, -15, 31, -1, -1, -3, 2, 15, 2, 46, 15, 18, 45, -34], "withholdReward": false, "trial_id": "mdp_trial_36", "block": "test", "trialIndex": 39, "score": 53, "costs": 0, "simulationMode": [null, null, null, null, null], "rewards": [2, -2, 7, 16, 30], "path": ["0", "0", "1", "2", "3", "8", "10"], "rt": [1858, 227, 570, 982, 646], "actions": ["up", "up", "up", "left", "down"], "actionTimes": [3297, 4054, 5161, 6649, 7843], "queries": {"click": {"state": {"target": [], "time": []}, "edge": {"target": [], "time": []}}, "mouseover": {"state": {"target": [], "time": []}, "edge": {"target": [], "time": []}}, "mouseout": {"state": {"target": [], "time": []}, "edge": {"target": [], "time": []}}}, "displayed_time": "15.45", "trialTime": 16942, "trial_type": "mouselab-mdp", "trial_index": 50, "time_elapsed": 1647477, "internal_node_id": "0.0-6.0-1.0-35.0"}}, {"uniqueid": "w63029402:a82061944", "current_trial": 51, "dateTime": 1693566314816, "trialdata": {"revealed_states": [], "clicked_states": [], "num_clicks_accrued": [0, 0, 0, 0, 0, 0, 0, 0, 0, 0, 0, 0, 0], "stateRewards": ["", -1, 2, -7, -12, -62, 12, -13, 5, 77, -71, 83, 1, -4, 7, 15, -42, -87, -4, 5, -25, 44, 88, -1, 4, -5, -8, 14, 51, 8, -5, 83, -24, -19], "withholdReward": false, "trial_id": "mdp_trial_37", "block": "test", "trialIndex": 40, "score": -16, "costs": 0, "simulationMode": [null, null, null, null, null], "rewards": [1, -4, 7, 5, -25], "path": ["0", "0", "12", "13", "14", "19", "20"], "rt": [2755, 105, 68, 83, 449], "actions": ["right", "right", "right", "down", "right"], "actionTimes": [4437, 5078, 5682, 6287, 7279], "queries": {"click": {"state": {"target": [], "time": []}, "edge": {"target": [], "time": []}}, "mouseover": {"state": {"target": [], "time": []}, "edge": {"target": [], "time": []}}, "mouseout": {"state": {"target": [], "time": []}, "edge": {"target": [], "time": []}}}, "displayed_time": "15.70", "trialTime": 17428, "trial_type": "mouselab-mdp", "trial_index": 51, "time_elapsed": 1665683, "internal_node_id": "0.0-6.0-1.0-36.0"}}, {"uniqueid": "w63029402:a82061944", "current_trial": 52, "dateTime": 1693566333947, "trialdata": {"revealed_states": [], "clicked_states": [], "num_clicks_accrued": [0, 0, 0, 0, 0, 0, 0, 0, 0, 0, 0, 0, 0], "stateRewards": ["", -1, 2, -2, 5, 80, -61, -27, 12, 44, -26, -75, -2, -4, 1, -16, 42, -49, -50, 4, -44, 2, 80, -2, -2, 5, -2, 59, 10, 24, 7, -48, -86, -44], "withholdReward": false, "trial_id": "mdp_trial_38", "block": "test", "trialIndex": 41, "score": -23, "costs": 0, "simulationMode": [null, null, null, null, null], "rewards": [-1, 2, -2, 5, -27], "path": ["0", "0", "1", "2", "3", "4", "7"], "rt": [751, 220, 173, 259, 973], "actions": ["up", "up", "up", "right", "down"], "actionTimes": [2472, 3228, 3898, 4693, 6199], "queries": {"click": {"state": {"target": [], "time": []}, "edge": {"target": [], "time": []}}, "mouseover": {"state": {"target": [], "time": []}, "edge": {"target": [], "time": []}}, "mouseout": {"state": {"target": [], "time": []}, "edge": {"target": [], "time": []}}}, "displayed_time": "15.74", "trialTime": 18365, "trial_type": "mouselab-mdp", "trial_index": 52, "time_elapsed": 1684813, "internal_node_id": "0.0-6.0-1.0-37.0"}}, {"uniqueid": "w63029402:a82061944", "current_trial": 53, "dateTime": 1693566355596, "trialdata": {"revealed_states": [], "clicked_states": [], "num_clicks_accrued": [0, 0, 0, 0, 0, 0, 0, 0, 0, 0, 0, 0, 0], "stateRewards": ["", 1, 1, 1, 15, -76, 52, -32, 14, -57, 37, 49, 1, -4, -3, 6, 83, -76, 25, 9, 36, -1, -17, -1, 4, 4, -2, -22, -21, 58, -15, -57, 49, -24], "withholdReward": false, "trial_id": "mdp_trial_39", "block": "test", "trialIndex": 42, "score": -65, "costs": 0, "simulationMode": [null, null, null, null, null], "rewards": [-1, 4, 4, -15, -57], "path": ["0", "0", "23", "24", "25", "30", "31"], "rt": [1254, 26, 20, 39, 164], "actions": ["left", "left", "left", "down", "right"], "actionTimes": [4323, 4868, 5419, 5989, 6676], "queries": {"click": {"state": {"target": [], "time": []}, "edge": {"target": [], "time": []}}, "mouseover": {"state": {"target": [], "time": []}, "edge": {"target": [], "time": []}}, "mouseout": {"state": {"target": [], "time": []}, "edge": {"target": [], "time": []}}}, "displayed_time": "17.08", "trialTime": 20838, "trial_type": "mouselab-mdp", "trial_index": 53, "time_elapsed": 1706463, "internal_node_id": "0.0-6.0-1.0-38.0"}}, {"uniqueid": "w63029402:a82061944", "current_trial": 54, "dateTime": 1693566376847, "trialdata": {"revealed_states": [], "clicked_states": [], "num_clicks_accrued": [0, 0, 0, 0, 0, 0, 0, 0, 0, 0, 0, 0, 0], "stateRewards": ["", 1, 3, 1, -13, 52, -28, 67, -14, 3, 63, -70, -1, -4, 7, -11, -10, 47, -18, 6, 69, -9, -61, 2, 3, -6, 10, 63, -34, 40, -6, -79, -35, -32], "withholdReward": false, "trial_id": "mdp_trial_40", "block": "test", "trialIndex": 43, "score": 49, "costs": 0, "simulationMode": [null, null, null, null, null], "rewards": [2, 3, -6, 10, 40], "path": ["0", "0", "23", "24", "25", "26", "29"], "rt": [1155, 196, 253, 49, 416], "actions": ["left", "left", "left", "up", "left"], "actionTimes": [2788, 3491, 4280, 4844, 5778], "queries": {"click": {"state": {"target": [], "time": []}, "edge": {"target": [], "time": []}}, "mouseover": {"state": {"target": [], "time": []}, "edge": {"target": [], "time": []}}, "mouseout": {"state": {"target": [], "time": []}, "edge": {"target": [], "time": []}}}, "displayed_time": "15.64", "trialTime": 20291, "trial_type": "mouselab-mdp", "trial_index": 54, "time_elapsed": 1727713, "internal_node_id": "0.0-6.0-1.0-39.0"}}, {"uniqueid": "w63029402:a82061944", "current_trial": 55, "dateTime": 1693566464175, "trialdata": {"rt": 86945, "response": {"Q0": "$-88 to $88", "Q1": "$-16 to $16", "Q2": "$-32 to $32", "Q3": "It was less costly to inspect further nodes.", "Q4": "Very motivated"}, "question_order": [0, 1, 2, 3, 4], "trial_id": "final_quiz_control", "trial_type": "survey-multi-choice", "trial_index": 55, "time_elapsed": 1815042, "internal_node_id": "0.0-6.0-2.0"}}, {"uniqueid": "w63029402:a82061944", "current_trial": 56, "dateTime": 1693566702402, "trialdata": {"rt": 237158, "response": {"Q0": "I went back to the end points that gave me alot of money before.\nI tried to remember which ones did not give me money ", "Q1": "Not really because I did not use the node inspector because I wanted to save money", "Q2": "What made it difficult is because the amounts kept on changing"}, "trial_id": "self_report_control", "trial_type": "survey-text", "trial_index": 56, "time_elapsed": 2053270, "internal_node_id": "0.0-6.0-3.0"}}, {"uniqueid": "w63029402:a82061944", "current_trial": 57, "dateTime": 1693566767339, "trialdata": {"rt": 64850, "response": {"gender": "male", "age": "40", "colorblind": "0", "effort": "0"}, "trial_type": "survey-html-form", "trial_index": 57, "time_elapsed": 2118207, "internal_node_id": "0.0-6.0-4.0"}}, {"uniqueid": "w63029402:a82061944", "current_trial": 58, "dateTime": 1693566877788, "trialdata": {"rt": 110405, "response": {"Q0": "no everything was fine", "Q1": "no I don't remember doing one before", "Q2": "had fun"}, "trial_type": "survey-text", "trial_index": 58, "time_elapsed": 2228656, "internal_node_id": "0.0-6.0-5.0"}}, {"uniqueid": "w63029402:a82061944", "current_trial": 59, "dateTime": 1693566936095, "trialdata": {"rt": 58242, "stimulus": "<h1>Completion Code Instructions (1/2)</h1>\n<br><br><br><br>\nYou have reached the end of the experiment! The completion code consists of two parts: (1) a code with 2 characters (2) a code with 6 characters. On this page, you will receive the second part of the code. The first part of the completion code will be on the next page.\n<br><br>\nThe second part of your completion code is: <b>EWEK22</b>\n<br><br>\nPlease note this down. Then, press 'Finish HIT' in order to find the first part of your completion code. Once the data has been saved, you will receive this code either in this window or in the original browser window where you started the experiment.\n", "response": 0, "trial_type": "html-button-response", "trial_index": 59, "time_elapsed": 2286963, "internal_node_id": "0.0-6.0-6.0"}}, {"uniqueid": "w63029402:a82061944", "current_trial": 60, "dateTime": 1693566937150, "trialdata": {"success": true, "trial_type": "fullscreen", "trial_index": 60, "time_elapsed": 2288018, "internal_node_id": "0.0-7.0"}}], "questiondata": {"params": {"CODE": "C6DMOQA6", "MIN_TIME": 14, "inspectCost": 1, "startTime": "Fri Sep 01 2023 12:37:27 GMT+0200 (South Africa Standard Time)", "bonusRate": 0.002, "variance": "1_2_4_8_44", "branching": "31123"}, "final_score": 374}, "eventdata": [{"eventtype": "initialized", "value": null, "timestamp": 1693564646699, "interval": 0}, {"eventtype": "window_resize", "value": [1026, 654], "timestamp": 1693564646699, "interval": 0}, {"eventtype": "window_resize", "value": [1026, 654], "timestamp": 1693564647249, "interval": 550}, {"eventtype": "window_resize", "value": [1360, 670], "timestamp": 1693564649971, "interval": 2722}, {"eventtype": "window_resize", "value": [1360, 768], "timestamp": 1693564654422, "interval": 4451}, {"eventtype": "focus", "value": "off", "timestamp": 1693565432564, "interval": 778142}, {"eventtype": "focus", "value": "on", "timestamp": 1693565432565, "interval": 1}, {"eventtype": "window_resize", "value": [1360, 670], "timestamp": 1693565432775, "interval": 210}, {"eventtype": "window_resize", "value": [1360, 768], "timestamp": 1693565434500, "interval": 1725}, {"eventtype": "window_resize", "value": [1360, 670], "timestamp": 1693566936881, "interval": 1502381}], "useragent": "Mozilla/5.0 (Windows NT 10.0; Win64; x64) AppleWebKit/537.36 (KHTML, like Gecko) Chrome/116.0.0.0 Safari/537.36", "mode": "live", "id": "w63029402:a82061944", "status": "user data saved", "Beginhit": "2023-09-01 10:37:23.125728", "Beginexp": "2023-09-01 10:37:35.536665", "Endhit": "2023-09-01 11:15:38.797574", "psiturkStatus": 3, "browser": "<redacted>", "platform": "windows", "language": "en-ZA"}