{"condition": 1, "counterbalance": 0, "assignmentId": "a69140306", "workerId": "w74977008", "hitId": "h45509397", "currenttrial": 56, "bonus": 0, "data": [{"uniqueid": "w74977008:a69140306", "current_trial": 0, "dateTime": 1691142142586, "trialdata": {"success": true, "trial_type": "fullscreen", "trial_index": 0, "time_elapsed": 8257, "internal_node_id": "0.0-0.0"}}, {"uniqueid": "w74977008:a69140306", "current_trial": 1, "dateTime": 1691142166929, "trialdata": {"view_history": [{"page_index": 0, "viewing_time": 24327}], "rt": 24327, "trial_id": "exp_instructions_misaligned", "trial_type": "instructions", "trial_index": 1, "time_elapsed": 32601, "internal_node_id": "0.0-1.0"}}, {"uniqueid": "w74977008:a69140306", "current_trial": 2, "dateTime": 1691142175939, "trialdata": {"success": true, "trial_type": "fullscreen", "trial_index": 2, "time_elapsed": 41611, "internal_node_id": "0.0-2.0-0.0"}}, {"uniqueid": "w74977008:a69140306", "current_trial": 3, "dateTime": 1691142463094, "trialdata": {"view_history": [{"page_index": 0, "viewing_time": 90517}, {"page_index": 1, "viewing_time": 98872}, {"page_index": 2, "viewing_time": 38464}, {"page_index": 3, "viewing_time": 59292}], "rt": 287147, "trial_id": "mouselab_instructions_1_misaligned", "trial_type": "instructions", "trial_index": 3, "time_elapsed": 328765, "internal_node_id": "0.0-2.0-1.0"}}, {"uniqueid": "w74977008:a69140306", "current_trial": 4, "dateTime": 1691142502784, "trialdata": {"revealed_states": [], "clicked_states": ["25", "14", "2"], "num_clicks_accrued": [0, 0, 0, 0, 0, 0, 0, 0, 0, 0, 0, 0, 0], "stateRewards": ["", 10, -10, 10, 10, 10, -10, 10, 10, -10, -10, -10, 10, -10, -10, -10, 10, 10, 10, -10, -10, -10, 10, -10, 10, -10, -10, 10, 10, 10, 10, -10, 10, -10], "withholdReward": false, "trial_id": "practice_1", "block": "test", "trialIndex": 0, "score": -28, "costs": -1.5, "simulationMode": [null, null, null, null, null], "rewards": [10, -10, -10, -10, -10], "path": ["0", "0", "12", "13", "14", "19", "21"], "rt": [11659, 589, 63, 395, 858], "actions": ["right", "right", "right", "down", "down"], "actionTimes": [17559, 18658, 19279, 20218, 21611], "queries": {"click": {"state": {"target": ["25", "14", "2"], "time": [10206, 13166, 16241]}, "edge": {"target": [], "time": []}}, "mouseover": {"state": {"target": ["23", "25", "25", "24", "23", "18", "14", "13", "12", "0", "1", "2", "2", "10", "27", "10", "2", "1", "0"], "time": [8254, 9062, 9290, 12186, 12210, 12490, 12724, 13945, 14004, 14129, 14344, 14428, 14642, 14829, 15323, 15711, 15776, 17178, 17296]}, "edge": {"target": [], "time": []}}, "mouseout": {"state": {"target": ["0", "23", "25", "25", "24", "23", "18", "14", "13", "12", "0", "1", "2", "2", "10", "27", "10", "2", "2", "1", "0", "0", "28", "1", "13", "22", "19", "14", "15", "12", "13", "1", "1", "2", "3", "7", "18", "14", "19", "20", "16", "15", "14", "19", "21", "21", "20", "19"], "time": [6361, 8490, 9106, 12180, 12204, 12224, 12510, 13912, 13994, 14046, 14181, 14383, 14574, 14801, 15180, 15622, 15742, 16454, 17131, 17212, 18193, 27288, 27454, 27795, 27991, 28042, 28107, 28692, 29877, 30026, 30194, 30310, 30542, 30673, 31711, 31757, 31809, 31843, 31893, 32031, 33176, 33241, 34681, 34940, 35276, 35658, 37070, 37124]}, "edge": {"target": [], "time": []}}}, "displayed_time": "22.14", "trialTime": 38585, "trial_type": "mouselab-mdp", "trial_index": 4, "time_elapsed": 368453, "internal_node_id": "0.0-2.0-2.0-0.0"}}, {"uniqueid": "w74977008:a69140306", "current_trial": 5, "dateTime": 1691142528126, "trialdata": {"revealed_states": [], "clicked_states": ["27", "16", "3", "32", "21"], "num_clicks_accrued": [0, 0, 0, 0, 0, 0, 0, 0, 0, 0, 0, 0, 0], "stateRewards": ["", -10, 10, -10, -10, 10, 10, 10, 10, 10, -10, -10, 10, -10, 10, 10, -10, -10, -10, -10, 10, 10, 10, 10, 10, 10, -10, -10, -10, 10, 10, 10, -10, 10], "withholdReward": false, "trial_id": "practice_2", "block": "test", "trialIndex": 1, "score": 11, "costs": -2.5, "simulationMode": [null, null, null, null, null], "rewards": [-10, 10, -10, 10, 10], "path": ["0", "0", "1", "2", "3", "8", "9"], "rt": [10588, 575, 1131, 159, 341], "actions": ["up", "up", "up", "left", "up"], "actionTimes": [14000, 15096, 16776, 17459, 18323], "queries": {"click": {"state": {"target": ["27", "16", "3", "32", "21"], "time": [5476, 7283, 8692, 10581, 11836]}, "edge": {"target": [], "time": []}}, "mouseover": {"state": {"target": ["23", "25", "26", "27", "2", "16", "3", "2", "32", "21", "19", "2", "1", "12", "1"], "time": [4316, 4440, 4790, 5038, 6350, 6838, 8209, 9600, 10283, 11412, 12844, 13010, 13154, 13522, 13837]}, "edge": {"target": [], "time": []}}, "mouseout": {"state": {"target": ["14", "14", "13", "12", "0", "0", "23", "25", "26", "27", "2", "16", "3", "2", "32", "21", "19", "2", "1", "12", "1", "14"], "time": [1269, 1337, 1587, 1685, 2102, 4281, 4359, 4755, 4856, 6258, 6393, 7482, 9570, 9773, 11195, 12045, 12901, 13077, 13471, 13587, 21953, 22078]}, "edge": {"target": [], "time": []}}}, "displayed_time": "18.83", "trialTime": 24292, "trial_type": "mouselab-mdp", "trial_index": 5, "time_elapsed": 393796, "internal_node_id": "0.0-2.0-2.0-1.0"}}, {"uniqueid": "w74977008:a69140306", "current_trial": 6, "dateTime": 1691142566993, "trialdata": {"view_history": [{"page_index": 0, "viewing_time": 27593}, {"page_index": 1, "viewing_time": 11256}], "rt": 38852, "trial_id": "mouselab_instructions_2_misaligned", "trial_type": "instructions", "trial_index": 6, "time_elapsed": 432665, "internal_node_id": "0.0-2.0-3.0"}}, {"uniqueid": "w74977008:a69140306", "current_trial": 7, "dateTime": 1691142602050, "trialdata": {"rt": 35034, "response": {"Q0": "The cost for clicking on nodes may vary between nodes.", "Q1": "The better I perform the higher my bonus will be.", "Q2": "No, the amount of cash at each node of the web may be different each time.", "Q3": "To get the highest total score.", "Q4": "Only before moving the spider.", "Q5": "3 seconds"}, "question_order": [0, 1, 2, 3, 4, 5], "correct": {"Q0": "The cost for clicking on nodes may vary between nodes.", "Q1": "The better I perform the higher my bonus will be.", "Q2": "No, the amount of cash at each node of the web may be different each time.", "Q3": "To get the highest total score.", "Q4": "Only before moving the spider.", "Q5": "3 seconds"}, "trial_id": "mouselab_quiz_misaligned", "trial_type": "survey-multi-choice", "trial_index": 7, "time_elapsed": 467721, "internal_node_id": "0.0-2.0-4.0"}}, {"uniqueid": "w74977008:a69140306", "current_trial": 8, "dateTime": 1691142628079, "trialdata": {"rt": 26001, "stimulus": "\n<h1> Get ready to start the game! </h1>\n\nThank you for reading the instructions. Get ready start with the 40 rounds of this game.\n<br><br>\nIf you need to take a break, feel free to take one after the end of a round, before continuing to the next one.\n<br><br>\nRemember, the more money the spider gets, the bigger your bonus will be!\n<br><br>\n<div style='text-align: center;'>Press <code>space</code> to begin.</div>\n\n<br><br>\n(If, at any point, the <code>space</code> key does not take you to the next page, click once on the text and try again.)", "response": " ", "trial_id": "mdp_ready", "trial_type": "html-keyboard-response", "trial_index": 8, "time_elapsed": 493751, "internal_node_id": "0.0-4.0-0.0"}}, {"uniqueid": "w74977008:a69140306", "current_trial": 9, "dateTime": 1691142647804, "trialdata": {"revealed_states": [], "clicked_states": ["27"], "num_clicks_accrued": [0, 0, 0, 0, 0, 0, 0, 0, 0, 0, 0, 0, 0], "stateRewards": ["", -2, 1, -3, -16, -39, -52, 30, -7, -41, -59, 11, 2, 1, 8, 2, -11, -26, -42, -13, 87, -59, -48, -1, -1, -1, 16, -79, 31, 50, -1, -84, 34, -82], "withholdReward": false, "trial_id": "mdp_trial_1", "block": "test", "trialIndex": 2, "score": -54.15, "costs": -2.15, "simulationMode": [null, null, null, null, null, null], "rewards": [-2, 1, -3, -7, -41], "path": ["0", "0", "1", "2", "3", "8", "9"], "rt": [3350, 610, 35, 133, 284, 260], "actions": ["up", "up", "up", "up", "left", "up"], "actionTimes": [5854, 6471, 7062, 7709, 8533, 9328], "queries": {"click": {"state": {"target": ["27"], "time": [4484]}, "edge": {"target": [], "time": []}}, "mouseover": {"state": {"target": ["28", "27", "1"], "time": [3805, 4106, 5415]}, "edge": {"target": [], "time": []}}, "mouseout": {"state": {"target": ["2", "1", "28", "27", "27", "1", "2"], "time": [903, 1022, 3891, 4685, 5262, 5467, 6923]}, "edge": {"target": [], "time": []}}}, "displayed_time": "16.51", "trialTime": 18703, "trial_type": "mouselab-mdp", "trial_index": 9, "time_elapsed": 513474, "internal_node_id": "0.0-4.0-1.0-0.0"}}, {"uniqueid": "w74977008:a69140306", "current_trial": 10, "dateTime": 1691142668815, "trialdata": {"revealed_states": [], "clicked_states": ["21"], "num_clicks_accrued": [0, 0, 0, 0, 0, 0, 0, 0, 0, 0, 0, 0, 0], "stateRewards": ["", -1, 3, 8, 9, -53, 20, -84, 2, -28, -62, -31, -1, -2, -7, 2, 51, 58, 45, -4, -17, -41, 36, 2, -2, -7, -15, 29, -54, -37, -16, -43, 65, -17], "withholdReward": false, "trial_id": "mdp_trial_2", "block": "test", "trialIndex": 3, "score": 39.85, "costs": -2.15, "simulationMode": [null, null, null, null, null, null], "rewards": [2, -2, -7, -16, 65], "path": ["0", "0", "23", "24", "25", "30", "32"], "rt": [4558, 765, 605, 622, 2, 186], "actions": ["up", "left", "left", "left", "down", "down"], "actionTimes": [7184, 7957, 9087, 10223, 10736, 11471], "queries": {"click": {"state": {"target": ["21"], "time": [5109]}, "edge": {"target": [], "time": []}}, "mouseover": {"state": {"target": ["12", "13", "14", "19", "21", "14", "4", "5", "4"], "time": [4190, 4245, 4360, 4558, 4658, 5927, 6080, 6327, 6546]}, "edge": {"target": [], "time": []}}, "mouseout": {"state": {"target": ["1", "1", "0", "0", "12", "13", "14", "19", "21", "14", "4", "5", "4"], "time": [null, 1188, 1330, 1580, 4225, 4307, 4490, 4625, 5885, 5980, 6127, 6512, 6608]}, "edge": {"target": [], "time": []}}}, "displayed_time": "16.63", "trialTime": 19913, "trial_type": "mouselab-mdp", "trial_index": 10, "time_elapsed": 534485, "internal_node_id": "0.0-4.0-1.0-1.0"}}, {"uniqueid": "w74977008:a69140306", "current_trial": 11, "dateTime": 1691142692694, "trialdata": {"revealed_states": [], "clicked_states": ["5"], "num_clicks_accrued": [0, 0, 0, 0, 0, 0, 0, 0, 0, 0, 0, 0, 0], "stateRewards": ["", 2, 4, -3, 16, -58, 30, -35, 11, -60, 47, 27, -2, -1, -7, -16, 23, -70, 68, -10, -65, -43, -34, -2, 1, 7, 9, -63, 34, -31, -8, -12, -86, 59], "withholdReward": false, "trial_id": "mdp_trial_3", "block": "test", "trialIndex": 4, "score": -65.15, "costs": -2.15, "simulationMode": [null, null, null, null, null, null], "rewards": [-2, -1, -7, -10, -43], "path": ["0", "0", "12", "13", "14", "19", "21"], "rt": [3098, 777, 150, 330, 288, 1160], "actions": ["right", "right", "right", "right", "down", "down"], "actionTimes": [6761, 7552, 8308, 9203, 10003, 11706], "queries": {"click": {"state": {"target": ["5"], "time": [5031]}, "edge": {"target": [], "time": []}}, "mouseover": {"state": {"target": ["7", "4", "5", "7", "12"], "time": [4498, 4556, 4649, 5870, 6365]}, "edge": {"target": [], "time": []}}, "mouseout": {"state": {"target": ["0", "7", "4", "5", "7", "12", "24", "25"], "time": [4406, 4532, 4605, 5224, 5919, 6422, 21583, 21619]}, "edge": {"target": [], "time": []}}}, "displayed_time": "17.67", "trialTime": 22648, "trial_type": "mouselab-mdp", "trial_index": 11, "time_elapsed": 558363, "internal_node_id": "0.0-4.0-1.0-2.0"}}, {"uniqueid": "w74977008:a69140306", "current_trial": 12, "dateTime": 1691142712773, "trialdata": {"revealed_states": [], "clicked_states": ["32"], "num_clicks_accrued": [0, 0, 0, 0, 0, 0, 0, 0, 0, 0, 0, 0, 0], "stateRewards": ["", 2, -4, 7, 3, 23, -42, 4, 7, -81, -33, 7, -2, -4, 5, -1, 50, -57, -14, -13, -14, 44, 55, -2, -2, 5, -2, 33, 1, 57, -13, -7, 58, 87], "withholdReward": false, "trial_id": "mdp_trial_4", "block": "test", "trialIndex": 5, "score": 43.85, "costs": -2.15, "simulationMode": [null, null, null, null, null, null], "rewards": [-2, -2, 5, -13, 58], "path": ["0", "0", "23", "24", "25", "30", "32"], "rt": [3528, 647, 197, 684, 693, 849], "actions": ["left", "left", "left", "left", "down", "down"], "actionTimes": [6263, 6919, 7689, 8917, 10160, 11597], "queries": {"click": {"state": {"target": ["32"], "time": [4835]}, "edge": {"target": [], "time": []}}, "mouseover": {"state": {"target": ["23", "31", "25", "26", "26", "25", "30", "32", "28"], "time": [2908, 3375, 3559, 3642, 3959, 4029, 4180, 4494, 5858]}, "edge": {"target": [], "time": []}}, "mouseout": {"state": {"target": ["25", "28", "23", "31", "25", "26", "26", "25", "30", "32", "28", "23"], "time": [805, 856, 3091, 3443, 3593, 3761, 4009, 4093, 4327, 5043, 5929, 14845]}, "edge": {"target": [], "time": []}}}, "displayed_time": "16.74", "trialTime": 18705, "trial_type": "mouselab-mdp", "trial_index": 12, "time_elapsed": 578443, "internal_node_id": "0.0-4.0-1.0-3.0"}}, {"uniqueid": "w74977008:a69140306", "current_trial": 13, "dateTime": 1691142740423, "trialdata": {"revealed_states": [], "clicked_states": ["5"], "num_clicks_accrued": [0, 0, 0, 0, 0, 0, 0, 0, 0, 0, 0, 0, 0], "stateRewards": ["", -1, -4, -1, -5, -28, -23, -15, -15, -38, 59, -87, 2, 2, -5, 9, -55, -39, -71, -6, 85, -85, -11, -1, -2, 5, -10, 1, 25, 41, -4, 69, -35, 86], "withholdReward": false, "trial_id": "mdp_trial_5", "block": "test", "trialIndex": 6, "score": -9.15, "costs": -2.15, "simulationMode": [null, null, null, null, null, null], "rewards": [-1, -2, 5, -10, 1], "path": ["0", "0", "23", "24", "25", "26", "27"], "rt": [3874, 383, 463, 416, 831, 291], "actions": ["left", "left", "left", "left", "up", "up"], "actionTimes": [8589, 8983, 10046, 11067, 12425, 13302], "queries": {"click": {"state": {"target": ["5"], "time": [7202]}, "edge": {"target": [], "time": []}}, "mouseover": {"state": {"target": ["1", "3", "5", "10"], "time": [5885, 6052, 6867, 8115]}, "edge": {"target": [], "time": []}}, "mouseout": {"state": {"target": ["23", "1", "1", "3", "5", "10", "23"], "time": [3097, 3415, 5959, 6134, 7972, 8185, 25287]}, "edge": {"target": [], "time": []}}}, "displayed_time": "18.72", "trialTime": 26146, "trial_type": "mouselab-mdp", "trial_index": 13, "time_elapsed": 606093, "internal_node_id": "0.0-4.0-1.0-4.0"}}, {"uniqueid": "w74977008:a69140306", "current_trial": 14, "dateTime": 1691142764066, "trialdata": {"revealed_states": [], "clicked_states": ["9"], "num_clicks_accrued": [0, 0, 0, 0, 0, 0, 0, 0, 0, 0, 0, 0, 0], "stateRewards": ["", -2, 3, 8, -9, 59, 41, -50, -1, 82, 66, 33, 2, -2, 7, 8, 1, -38, 12, -16, 24, -37, 67, 1, 4, -2, 5, 35, -83, 28, 8, -27, 69, -64], "withholdReward": false, "trial_id": "mdp_trial_6", "block": "test", "trialIndex": 7, "score": -48.15, "costs": -2.15, "simulationMode": [null, null, null, null, null], "rewards": [2, -2, 7, -16, -37], "path": ["0", "0", "12", "13", "14", "19", "21"], "rt": [5015, 6700, 572, 264, 1498], "actions": ["right", "right", "right", "down", "down"], "actionTimes": [7511, 14777, 15867, 16680, 18713], "queries": {"click": {"state": {"target": ["9"], "time": [4254]}, "edge": {"target": [], "time": []}}, "mouseover": {"state": {"target": ["28", "23", "12", "13", "22", "7", "3", "9", "2", "1"], "time": [2783, 2984, 3085, 3133, 3485, 3570, 3636, 3869, 5138, 5274]}, "edge": {"target": [], "time": []}}, "mouseout": {"state": {"target": ["0", "0", "28", "23", "12", "13", "22", "7", "3", "9", "2", "1"], "time": [913, 2540, 2933, 3018, 3107, 3155, 3507, 3602, 3676, 5071, 5204, 8354]}, "edge": {"target": [], "time": []}}}, "displayed_time": "19.23", "trialTime": 22089, "trial_type": "mouselab-mdp", "trial_index": 14, "time_elapsed": 629737, "internal_node_id": "0.0-4.0-1.0-5.0"}}, {"uniqueid": "w74977008:a69140306", "current_trial": 15, "dateTime": 1691142784724, "trialdata": {"revealed_states": [], "clicked_states": ["21"], "num_clicks_accrued": [0, 0, 0, 0, 0, 0, 0, 0, 0, 0, 0, 0, 0], "stateRewards": ["", 2, 4, 4, 9, -88, -10, 44, 16, -54, 64, 78, 1, 2, 5, 16, 80, 36, 7, -4, 9, -47, -70, -1, -3, 6, -16, 11, 80, 28, 8, -1, 34, -17], "withholdReward": false, "trial_id": "mdp_trial_7", "block": "test", "trialIndex": 8, "score": -30.15, "costs": -2.15, "simulationMode": [null, null, null, null, null], "rewards": [2, 4, 4, 16, -54], "path": ["0", "0", "1", "2", "3", "8", "9"], "rt": [5504, 114, 470, 227, 313], "actions": ["up", "up", "up", "left", "up"], "actionTimes": [8795, 9445, 10433, 11205, 12063], "queries": {"click": {"state": {"target": ["21"], "time": [4963]}, "edge": {"target": [], "time": []}}, "mouseover": {"state": {"target": ["12", "22", "21"], "time": [4150, 4238, 4566]}, "edge": {"target": [], "time": []}}, "mouseout": {"state": {"target": ["0", "12", "22"], "time": [2280, 4188, 4282]}, "edge": {"target": [], "time": []}}}, "displayed_time": "17.29", "trialTime": 19010, "trial_type": "mouselab-mdp", "trial_index": 15, "time_elapsed": 650394, "internal_node_id": "0.0-4.0-1.0-6.0"}}, {"uniqueid": "w74977008:a69140306", "current_trial": 16, "dateTime": 1691142805205, "trialdata": {"revealed_states": [], "clicked_states": ["32"], "num_clicks_accrued": [0, 0, 0, 0, 0, 0, 0, 0, 0, 0, 0, 0, 0], "stateRewards": ["", -1, 4, -3, 3, 57, -61, 5, -11, 23, -1, 34, -2, -4, -1, -13, 27, 38, -36, 4, -45, 21, 88, 1, -2, -1, 1, -69, -5, -78, -12, -9, 38, -54], "withholdReward": false, "trial_id": "mdp_trial_8", "block": "test", "trialIndex": 9, "score": 21.85, "costs": -2.15, "simulationMode": [null, null, null, null, null, null], "rewards": [1, -2, -1, -12, 38], "path": ["0", "0", "23", "24", "25", "30", "32"], "rt": [4219, 304, 319, 628, 338, 93], "actions": ["left", "left", "left", "left", "down", "down"], "actionTimes": [7936, 8250, 9144, 10326, 11221, 11867], "queries": {"click": {"state": {"target": ["32"], "time": [6070]}, "edge": {"target": [], "time": []}}, "mouseover": {"state": {"target": ["1", "1", "24", "30", "32", "24"], "time": [4689, 4857, 4986, 5457, 5609, 7458]}, "edge": {"target": [], "time": []}}, "mouseout": {"state": {"target": ["21", "15", "18", "12", "0", "1", "1", "24", "30", "32", "24"], "time": [1154, 1303, 1354, 2072, 4646, 4824, 4882, 5029, 5504, 7448, 7523]}, "edge": {"target": [], "time": []}}}, "displayed_time": "17.72", "trialTime": 18863, "trial_type": "mouselab-mdp", "trial_index": 16, "time_elapsed": 670875, "internal_node_id": "0.0-4.0-1.0-7.0"}}, {"uniqueid": "w74977008:a69140306", "current_trial": 17, "dateTime": 1691142825917, "trialdata": {"revealed_states": [], "clicked_states": ["5"], "num_clicks_accrued": [0, 0, 0, 0, 0, 0, 0, 0, 0, 0, 0, 0, 0], "stateRewards": ["", -1, -4, -6, -15, 21, -67, -63, 9, 51, 69, -14, -1, 3, 8, -8, 39, 72, 63, 15, 19, 47, 15, 1, 4, 5, 16, -18, 34, 35, -14, -80, 40, 1], "withholdReward": false, "trial_id": "mdp_trial_9", "block": "test", "trialIndex": 10, "score": -7.149999999999999, "costs": -2.15, "simulationMode": [null, null, null, null, null], "rewards": [-1, -4, -6, -15, 21], "path": ["0", "0", "1", "2", "3", "4", "5"], "rt": [6242, 143, 434, 520, 373], "actions": ["up", "up", "up", "right", "up"], "actionTimes": [8888, 9554, 10514, 11636, 12582], "queries": {"click": {"state": {"target": ["5"], "time": [4808]}, "edge": {"target": [], "time": []}}, "mouseover": {"state": {"target": ["1", "4", "5"], "time": [4050, 4151, 4434]}, "edge": {"target": [], "time": []}}, "mouseout": {"state": {"target": ["1", "4", "5"], "time": [4070, 4300, 5613]}, "edge": {"target": [], "time": []}}}, "displayed_time": "16.65", "trialTime": 18986, "trial_type": "mouselab-mdp", "trial_index": 17, "time_elapsed": 691587, "internal_node_id": "0.0-4.0-1.0-8.0"}}, {"uniqueid": "w74977008:a69140306", "current_trial": 18, "dateTime": 1691142845795, "trialdata": {"revealed_states": [], "clicked_states": ["16"], "num_clicks_accrued": [0, 0, 0, 0, 0, 0, 0, 0, 0, 0, 0, 0, 0], "stateRewards": ["", -1, 1, 3, -8, -23, -15, -14, -11, -23, 58, 68, 1, 3, 5, 12, -17, -41, -7, -10, -4, 82, 10, 1, 4, -4, 11, 73, 55, -55, -1, -86, -86, 54], "withholdReward": false, "trial_id": "mdp_trial_10", "block": "test", "trialIndex": 11, "score": 82.85, "costs": -2.15, "simulationMode": [null, null, null, null, null], "rewards": [1, 4, -4, 11, 73], "path": ["0", "0", "23", "24", "25", "26", "27"], "rt": [6738, 496, 506, 346, 591], "actions": ["left", "left", "left", "up", "up"], "actionTimes": [9014, 10087, 11124, 11995, 13129], "queries": {"click": {"state": {"target": ["16"], "time": [5182]}, "edge": {"target": [], "time": []}}, "mouseover": {"state": {"target": ["31", "32", "22", "19", "17", "16"], "time": [3304, 3602, 3971, 4038, 4154, 4722]}, "edge": {"target": [], "time": []}}, "mouseout": {"state": {"target": ["2", "1", "0", "31", "32", "22", "19", "17"], "time": [701, 787, 1117, 3370, 3787, 4003, 4070, 4638]}, "edge": {"target": [], "time": []}}}, "displayed_time": "16.28", "trialTime": 18250, "trial_type": "mouselab-mdp", "trial_index": 18, "time_elapsed": 711466, "internal_node_id": "0.0-4.0-1.0-9.0"}}, {"uniqueid": "w74977008:a69140306", "current_trial": 19, "dateTime": 1691142867450, "trialdata": {"revealed_states": [], "clicked_states": ["5"], "num_clicks_accrued": [0, 0, 0, 0, 0, 0, 0, 0, 0, 0, 0, 0, 0], "stateRewards": ["", -2, -3, -6, -7, 9, 16, 65, 5, -41, 20, -25, -1, -4, 1, -11, -49, -4, 71, 1, 39, -62, 52, -2, -3, 7, -9, -28, -70, 84, 8, 24, -58, 82], "withholdReward": false, "trial_id": "mdp_trial_11", "block": "test", "trialIndex": 12, "score": -11.149999999999999, "costs": -2.15, "simulationMode": [null, null, null, null, null], "rewards": [-2, -3, -6, -7, 9], "path": ["0", "0", "1", "2", "3", "4", "5"], "rt": [7013, 423, 468, 312, 271], "actions": ["up", "up", "up", "right", "up"], "actionTimes": [9785, 10742, 11732, 12558, 13396], "queries": {"click": {"state": {"target": ["5"], "time": [5215]}, "edge": {"target": [], "time": []}}, "mouseover": {"state": {"target": ["12", "22", "13", "18", "4", "5"], "time": [4172, 4256, 4455, 4511, 4620, 4755]}, "edge": {"target": [], "time": []}}, "mouseout": {"state": {"target": ["16", "18", "0", "12", "22", "13", "18", "4"], "time": [1019, 1067, 3968, 4206, 4389, 4496, 4560, 4671]}, "edge": {"target": [], "time": []}}}, "displayed_time": "16.77", "trialTime": 19987, "trial_type": "mouselab-mdp", "trial_index": 19, "time_elapsed": 733120, "internal_node_id": "0.0-4.0-1.0-10.0"}}, {"uniqueid": "w74977008:a69140306", "current_trial": 20, "dateTime": 1691142886718, "trialdata": {"revealed_states": [], "clicked_states": ["9"], "num_clicks_accrued": [0, 0, 0, 0, 0, 0, 0, 0, 0, 0, 0, 0, 0], "stateRewards": ["", -1, 3, 1, -7, 56, 76, 57, 3, 11, -9, 14, 1, -2, 2, 8, -77, -3, 79, -5, 88, 24, -66, -2, -1, 7, -7, -30, 14, -76, 11, -36, 28, -6], "withholdReward": false, "trial_id": "mdp_trial_12", "block": "test", "trialIndex": 13, "score": 17.85, "costs": -2.15, "simulationMode": [null, null, null, null, null], "rewards": [1, -2, 2, -5, 24], "path": ["0", "0", "12", "13", "14", "19", "21"], "rt": [8008, 538, 324, 137, 184], "actions": ["right", "right", "right", "down", "down"], "actionTimes": [10318, 11421, 12338, 13017, 13730], "queries": {"click": {"state": {"target": ["9"], "time": [4543]}, "edge": {"target": [], "time": []}}, "mouseover": {"state": {"target": ["23", "31", "31", "28", "24", "10", "9", "8", "1"], "time": [2487, 2587, 2788, 3421, 3570, 3638, 4155, 5477, 5677]}, "edge": {"target": [], "time": []}}, "mouseout": {"state": {"target": ["5", "3", "2", "1", "23", "31", "31", "28", "24", "10", "9", "8", "1", "0"], "time": [553, 622, 719, 819, 2522, 2670, 2838, 3454, 3605, 3674, 4758, 5543, 5810, 17220]}, "edge": {"target": [], "time": []}}}, "displayed_time": "16.31", "trialTime": 17626, "trial_type": "mouselab-mdp", "trial_index": 20, "time_elapsed": 752390, "internal_node_id": "0.0-4.0-1.0-11.0"}}, {"uniqueid": "w74977008:a69140306", "current_trial": 21, "dateTime": 1691142905796, "trialdata": {"revealed_states": [], "clicked_states": [], "num_clicks_accrued": [0, 0, 0, 0, 0, 0, 0, 0, 0, 0, 0, 0, 0], "stateRewards": ["", -1, -3, -6, 14, 41, 18, 63, -14, 80, 21, 17, -2, -4, -2, -5, 13, 70, 8, -4, -64, -10, -20, 2, -1, 4, -1, -17, -55, 42, -7, 47, 54, 15], "withholdReward": false, "trial_id": "mdp_trial_13", "block": "test", "trialIndex": 14, "score": -13, "costs": 0, "simulationMode": [null, null, null, null, null], "rewards": [2, -1, 4, -1, -17], "path": ["0", "0", "23", "24", "25", "26", "27"], "rt": [5639, 424, 101, 556, 669], "actions": ["left", "left", "left", "up", "up"], "actionTimes": [8197, 9167, 9821, 10897, 12115], "queries": {"click": {"state": {"target": [], "time": []}, "edge": {"target": [], "time": []}}, "mouseover": {"state": {"target": ["1", "2", "10", "28", "25", "32"], "time": [3779, 3850, 3979, 4112, 4569, 5094]}, "edge": {"target": [], "time": []}}, "mouseout": {"state": {"target": ["0", "1", "2", "10", "28", "25"], "time": [3725, 3817, 3895, 4063, 4163, 4613]}, "edge": {"target": [], "time": []}}}, "displayed_time": "16.56", "trialTime": 17556, "trial_type": "mouselab-mdp", "trial_index": 21, "time_elapsed": 771465, "internal_node_id": "0.0-4.0-1.0-12.0"}}, {"uniqueid": "w74977008:a69140306", "current_trial": 22, "dateTime": 1691142929027, "trialdata": {"revealed_states": [], "clicked_states": ["5"], "num_clicks_accrued": [0, 0, 0, 0, 0, 0, 0, 0, 0, 0, 0, 0, 0], "stateRewards": ["", -2, 2, -5, 1, 42, -63, -58, -6, 2, 16, 81, -2, 4, 7, -10, 33, 3, -33, -2, -52, -84, -27, 2, -3, -3, 15, -74, -14, -5, -5, -84, 79, -31], "withholdReward": false, "trial_id": "mdp_trial_14", "block": "test", "trialIndex": 15, "score": -69.15, "costs": -2.15, "simulationMode": [null, null, null, null, null], "rewards": [-2, 2, -5, 1, -63], "path": ["0", "0", "1", "2", "3", "4", "6"], "rt": [6067, 954, 78, 679, 224], "actions": ["up", "up", "up", "right", "right"], "actionTimes": [8892, 10382, 11024, 12236, 13031], "queries": {"click": {"state": {"target": ["5"], "time": [4992]}, "edge": {"target": [], "time": []}}, "mouseover": {"state": {"target": ["1", "2", "4", "5"], "time": [3845, 3994, 4144, 4544]}, "edge": {"target": [], "time": []}}, "mouseout": {"state": {"target": ["32", "31", "23", "0", "1", "2", "4", "5", "5", "4"], "time": [907, 993, 1276, 1376, 3894, 4086, 4194, 5183, 15477, 15562]}, "edge": {"target": [], "time": []}}}, "displayed_time": "16.83", "trialTime": 21437, "trial_type": "mouselab-mdp", "trial_index": 22, "time_elapsed": 794697, "internal_node_id": "0.0-4.0-1.0-13.0"}}, {"uniqueid": "w74977008:a69140306", "current_trial": 23, "dateTime": 1691142948692, "trialdata": {"revealed_states": [], "clicked_states": ["21"], "num_clicks_accrued": [0, 0, 0, 0, 0, 0, 0, 0, 0, 0, 0, 0, 0], "stateRewards": ["", -1, -3, 1, -4, -48, -63, -49, -2, -84, -19, 65, 2, -2, -2, -12, -4, 59, 9, 6, 75, 69, -13, -1, -3, -3, -2, -37, -68, -36, 13, 32, 18, -14], "withholdReward": false, "trial_id": "mdp_trial_15", "block": "test", "trialIndex": 16, "score": 70.85, "costs": -2.15, "simulationMode": [null, null, null, null, null], "rewards": [2, -2, -2, 6, 69], "path": ["0", "0", "12", "13", "14", "19", "21"], "rt": [5361, 679, 428, 242, 1735], "actions": ["right", "right", "right", "down", "down"], "actionTimes": [7946, 9180, 10144, 10992, 13265], "queries": {"click": {"state": {"target": ["21"], "time": [3953]}, "edge": {"target": [], "time": []}}, "mouseover": {"state": {"target": ["12", "22", "21"], "time": [3235, 3306, 3670]}, "edge": {"target": [], "time": []}}, "mouseout": {"state": {"target": ["1", "12", "22", "21"], "time": [1017, 3265, 3406, 17363]}, "edge": {"target": [], "time": []}}}, "displayed_time": "16.59", "trialTime": 17913, "trial_type": "mouselab-mdp", "trial_index": 23, "time_elapsed": 814363, "internal_node_id": "0.0-4.0-1.0-14.0"}}, {"uniqueid": "w74977008:a69140306", "current_trial": 24, "dateTime": 1691142969718, "trialdata": {"revealed_states": [], "clicked_states": ["9"], "num_clicks_accrued": [0, 0, 0, 0, 0, 0, 0, 0, 0, 0, 0, 0, 0], "stateRewards": ["", 1, 1, 7, -11, 80, -20, -53, -14, 3, 31, 27, 2, -1, -8, -10, 33, 41, 86, 9, 78, -37, -13, -1, -2, -6, -8, -80, 75, 4, -16, -49, -74, 24], "withholdReward": false, "trial_id": "mdp_trial_16", "block": "test", "trialIndex": 17, "score": -101.15, "costs": -2.15, "simulationMode": [null, null, null, null, null], "rewards": [-1, -2, -6, -16, -74], "path": ["0", "0", "23", "24", "25", "30", "32"], "rt": [6880, 486, 614, 438, 507], "actions": ["left", "left", "left", "down", "down"], "actionTimes": [9932, 11002, 12220, 13202, 14305], "queries": {"click": {"state": {"target": ["9"], "time": [4814]}, "edge": {"target": [], "time": []}}, "mouseover": {"state": {"target": ["1", "9", "8", "26"], "time": [3852, 4436, 5654, 9555]}, "edge": {"target": [], "time": []}}, "mouseout": {"state": {"target": ["13", "13", "12", "1", "9", "8", "26"], "time": [1136, 1287, 1351, 3879, 5643, 5744, 9843]}, "edge": {"target": [], "time": []}}}, "displayed_time": "17.05", "trialTime": 18884, "trial_type": "mouselab-mdp", "trial_index": 24, "time_elapsed": 835388, "internal_node_id": "0.0-4.0-1.0-15.0"}}, {"uniqueid": "w74977008:a69140306", "current_trial": 25, "dateTime": 1691142990887, "trialdata": {"revealed_states": [], "clicked_states": ["16"], "num_clicks_accrued": [0, 0, 0, 0, 0, 0, 0, 0, 0, 0, 0, 0, 0], "stateRewards": ["", 2, -3, 5, -14, -63, -9, -24, -11, -54, -43, 68, 2, -2, -4, 7, -64, 30, 47, 12, -74, 11, 86, 1, -3, 3, 10, -71, -42, -52, -1, -29, -16, 69], "withholdReward": false, "trial_id": "mdp_trial_17", "block": "test", "trialIndex": 18, "score": -62.15, "costs": -2.15, "simulationMode": [null, null, null, null, null], "rewards": [1, -3, 3, 10, -71], "path": ["0", "0", "23", "24", "25", "26", "27"], "rt": [5984, 529, 453, 276, 304], "actions": ["left", "left", "left", "up", "up"], "actionTimes": [10044, 11123, 12093, 12933, 13801], "queries": {"click": {"state": {"target": ["16"], "time": [6293]}, "edge": {"target": [], "time": []}}, "mouseover": {"state": {"target": ["12", "19", "19", "14", "15", "16", "7"], "time": [4718, 4816, 5264, 5348, 5499, 5915, 6998]}, "edge": {"target": [], "time": []}}, "mouseout": {"state": {"target": ["27", "28", "23", "0", "12", "19", "19", "14", "15", "16", "7", "28"], "time": [2333, 2395, 2512, 2879, 4749, 4965, 5314, 5415, 5681, 6987, 7055, 18901]}, "edge": {"target": [], "time": []}}}, "displayed_time": "18.06", "trialTime": 19082, "trial_type": "mouselab-mdp", "trial_index": 25, "time_elapsed": 856557, "internal_node_id": "0.0-4.0-1.0-16.0"}}, {"uniqueid": "w74977008:a69140306", "current_trial": 26, "dateTime": 1691143010390, "trialdata": {"revealed_states": [], "clicked_states": [], "num_clicks_accrued": [0, 0, 0, 0, 0, 0, 0, 0, 0, 0, 0, 0, 0], "stateRewards": ["", 2, 3, 6, -5, -74, -53, 17, -12, 46, 44, 18, -2, 4, 1, -8, 22, -23, -49, 9, -45, 55, 81, 1, -1, -7, -16, -83, -71, -45, 2, 51, 82, 61], "withholdReward": false, "trial_id": "mdp_trial_18", "block": "test", "trialIndex": 19, "score": 45, "costs": 0, "simulationMode": [null, null, null, null, null], "rewards": [2, 3, 6, -12, 46], "path": ["0", "0", "1", "2", "3", "8", "9"], "rt": [5777, 213, 476, 516, 357], "actions": ["up", "up", "up", "left", "up"], "actionTimes": [8388, 9113, 10167, 11290, 12172], "queries": {"click": {"state": {"target": [], "time": []}, "edge": {"target": [], "time": []}}, "mouseover": {"state": {"target": ["0", "1", "9", "9", "8", "1", "0"], "time": [3638, 4371, 5142, 5392, 6889, 7370, 7846]}, "edge": {"target": [], "time": []}}, "mouseout": {"state": {"target": ["0", "0", "0", "1", "9", "9", "8", "1", "0"], "time": [969, 3609, 4308, 5090, 5190, 6787, 6993, 7788, 7904]}, "edge": {"target": [], "time": []}}}, "displayed_time": "16.61", "trialTime": 17373, "trial_type": "mouselab-mdp", "trial_index": 26, "time_elapsed": 876059, "internal_node_id": "0.0-4.0-1.0-17.0"}}, {"uniqueid": "w74977008:a69140306", "current_trial": 27, "dateTime": 1691143033529, "trialdata": {"revealed_states": [], "clicked_states": ["5"], "num_clicks_accrued": [0, 0, 0, 0, 0, 0, 0, 0, 0, 0, 0, 0, 0], "stateRewards": ["", 1, -3, -4, -11, -56, 61, -47, -16, -28, -9, 69, -2, -3, -4, -8, 40, -86, 59, -4, 80, 27, 54, -1, 3, -1, 8, 67, 23, 50, 6, 83, -43, -29], "withholdReward": false, "trial_id": "mdp_trial_19", "block": "test", "trialIndex": 20, "score": -38.15, "costs": -2.15, "simulationMode": [null, null, null, null, null], "rewards": [-1, 3, -1, 6, -43], "path": ["0", "0", "23", "24", "25", "30", "32"], "rt": [6688, 47, 349, 382, 430], "actions": ["left", "left", "left", "down", "down"], "actionTimes": [12192, 12772, 13686, 14628, 15600], "queries": {"click": {"state": {"target": ["5"], "time": [7938]}, "edge": {"target": [], "time": []}}, "mouseover": {"state": {"target": ["23", "24", "31", "31", "23", "2", "5"], "time": [6477, 6678, 6828, 6928, 7045, 7162, 7495]}, "edge": {"target": [], "time": []}}, "mouseout": {"state": {"target": ["0", "1", "23", "24", "31", "31", "23", "2"], "time": [3607, 3825, 6561, 6795, 6862, 6996, 7070, 7188]}, "edge": {"target": [], "time": []}}}, "displayed_time": "19.51", "trialTime": 20852, "trial_type": "mouselab-mdp", "trial_index": 27, "time_elapsed": 899199, "internal_node_id": "0.0-4.0-1.0-18.0"}}, {"uniqueid": "w74977008:a69140306", "current_trial": 28, "dateTime": 1691143054057, "trialdata": {"revealed_states": [], "clicked_states": ["21"], "num_clicks_accrued": [0, 0, 0, 0, 0, 0, 0, 0, 0, 0, 0, 0, 0], "stateRewards": ["", 1, -4, 6, -3, 40, 76, -51, 5, -24, -63, 44, -2, -2, 8, 1, 76, -85, -58, 10, 59, 20, 11, -2, 3, -3, 3, -82, -10, 54, -7, -57, -6, -32], "withholdReward": false, "trial_id": "mdp_trial_20", "block": "test", "trialIndex": 21, "score": 31.85, "costs": -2.15, "simulationMode": [null, null, null, null, null], "rewards": [-2, -2, 8, 10, 20], "path": ["0", "0", "12", "13", "14", "19", "21"], "rt": [6514, 610, 522, 363, 319], "actions": ["right", "right", "right", "down", "down"], "actionTimes": [9396, 10583, 11642, 12583, 13452], "queries": {"click": {"state": {"target": ["21"], "time": [4943]}, "edge": {"target": [], "time": []}}, "mouseover": {"state": {"target": ["1", "2", "8", "12", "21"], "time": [3671, 3738, 4008, 4337, 4538]}, "edge": {"target": [], "time": []}}, "mouseout": {"state": {"target": ["5", "2", "1", "0", "1", "2", "8", "12", "21"], "time": [868, 952, 1334, 3620, 3705, 3805, 4190, 4390, 14555]}, "edge": {"target": [], "time": []}}}, "displayed_time": "16.89", "trialTime": 18055, "trial_type": "mouselab-mdp", "trial_index": 28, "time_elapsed": 919726, "internal_node_id": "0.0-4.0-1.0-19.0"}}, {"uniqueid": "w74977008:a69140306", "current_trial": 29, "dateTime": 1691143074233, "trialdata": {"revealed_states": [], "clicked_states": ["16"], "num_clicks_accrued": [0, 0, 0, 0, 0, 0, 0, 0, 0, 0, 0, 0, 0], "stateRewards": ["", -1, 2, -2, 5, 80, -61, -27, 12, 44, -26, -75, -2, -4, 1, -16, 42, -49, -50, 4, -44, 2, 80, -2, -2, 5, -2, 59, 10, 24, 7, -48, -86, -44], "withholdReward": false, "trial_id": "mdp_trial_21", "block": "test", "trialIndex": 22, "score": 18.85, "costs": -2.15, "simulationMode": [null, null, null, null, null], "rewards": [-2, -4, 1, -16, 42], "path": ["0", "0", "12", "13", "14", "15", "16"], "rt": [5952, 400, 301, 209, 191], "actions": ["right", "right", "right", "up", "up"], "actionTimes": [8718, 9648, 10536, 11305, 12071], "queries": {"click": {"state": {"target": ["16"], "time": [4803]}, "edge": {"target": [], "time": []}}, "mouseover": {"state": {"target": ["16"], "time": [4478]}, "edge": {"target": [], "time": []}}, "mouseout": {"state": {"target": ["0", "16"], "time": [3986, 5006]}, "edge": {"target": [], "time": []}}}, "displayed_time": "16.77", "trialTime": 17380, "trial_type": "mouselab-mdp", "trial_index": 29, "time_elapsed": 939903, "internal_node_id": "0.0-4.0-1.0-20.0"}}, {"uniqueid": "w74977008:a69140306", "current_trial": 30, "dateTime": 1691143094310, "trialdata": {"revealed_states": [], "clicked_states": ["32"], "num_clicks_accrued": [0, 0, 0, 0, 0, 0, 0, 0, 0, 0, 0, 0, 0], "stateRewards": ["", -1, 1, -2, 5, 73, 15, 61, 8, 7, 38, 76, 2, 2, -4, -6, -6, -26, 43, -5, -45, -85, -35, -2, 1, -4, 15, -10, 69, 72, -11, 84, -49, -38], "withholdReward": false, "trial_id": "mdp_trial_22", "block": "test", "trialIndex": 23, "score": 61.85, "costs": -2.15, "simulationMode": [null, null, null, null, null], "rewards": [-1, 1, -2, 5, 61], "path": ["0", "0", "1", "2", "3", "4", "7"], "rt": [6895, 291, 255, 360, 389], "actions": ["up", "up", "up", "right", "down"], "actionTimes": [9451, 10291, 11118, 12007, 13026], "queries": {"click": {"state": {"target": ["32"], "time": [5066]}, "edge": {"target": [], "time": []}}, "mouseover": {"state": {"target": ["23", "23", "31", "0", "1", "10", "28", "24", "32", "23"], "time": [2633, 3155, 3276, 3805, 3864, 4089, 4273, 4359, 4574, 9191]}, "edge": {"target": [], "time": []}}, "mouseout": {"state": {"target": ["12", "0", "23", "23", "31", "0", "1", "10", "28", "24", "32", "23", "31"], "time": [833, 2623, 2677, 3205, 3323, 3841, 3892, 4174, 4322, 4422, 9123, 9225, 17506]}, "edge": {"target": [], "time": []}}}, "displayed_time": "16.56", "trialTime": 18025, "trial_type": "mouselab-mdp", "trial_index": 30, "time_elapsed": 959980, "internal_node_id": "0.0-4.0-1.0-21.0"}}, {"uniqueid": "w74977008:a69140306", "current_trial": 31, "dateTime": 1691143113832, "trialdata": {"revealed_states": [], "clicked_states": ["10"], "num_clicks_accrued": [0, 0, 0, 0, 0, 0, 0, 0, 0, 0, 0, 0, 0], "stateRewards": ["", 2, -2, 7, -11, -76, -65, -23, 16, -58, 30, 81, 1, 2, 7, 14, 9, 55, -2, 6, 11, -15, 31, -1, -1, -3, 2, 15, 2, 46, 15, 18, 45, -34], "withholdReward": false, "trial_id": "mdp_trial_23", "block": "test", "trialIndex": 24, "score": 50.85, "costs": -2.15, "simulationMode": [null, null, null, null, null], "rewards": [2, -2, 7, 16, 30], "path": ["0", "0", "1", "2", "3", "8", "10"], "rt": [5399, 520, 300, 285, 379], "actions": ["up", "up", "up", "left", "down"], "actionTimes": [8117, 9193, 10056, 10891, 11784], "queries": {"click": {"state": {"target": ["10"], "time": [4292]}, "edge": {"target": [], "time": []}}, "mouseover": {"state": {"target": ["10"], "time": [3776]}, "edge": {"target": [], "time": []}}, "mouseout": {"state": {"target": ["0"], "time": [967]}, "edge": {"target": [], "time": []}}}, "displayed_time": "16.72", "trialTime": 17451, "trial_type": "mouselab-mdp", "trial_index": 31, "time_elapsed": 979502, "internal_node_id": "0.0-4.0-1.0-22.0"}}, {"uniqueid": "w74977008:a69140306", "current_trial": 32, "dateTime": 1691143133629, "trialdata": {"revealed_states": [], "clicked_states": ["9"], "num_clicks_accrued": [0, 0, 0, 0, 0, 0, 0, 0, 0, 0, 0, 0, 0], "stateRewards": ["", 1, 4, -4, 14, 35, 51, 19, -13, 54, 78, -74, -2, -1, -3, 13, -11, -42, -73, -15, -24, -3, -69, 2, -1, 5, 16, -27, 73, 58, 9, -60, 5, -60], "withholdReward": false, "trial_id": "mdp_trial_24", "block": "test", "trialIndex": 25, "score": 39.85, "costs": -2.15, "simulationMode": [null, null, null, null, null], "rewards": [1, 4, -4, -13, 54], "path": ["0", "0", "1", "2", "3", "8", "9"], "rt": [5385, 15, 224, 58, 200], "actions": ["up", "up", "up", "left", "up"], "actionTimes": [8037, 8581, 9422, 10070, 10797], "queries": {"click": {"state": {"target": ["9"], "time": [4207]}, "edge": {"target": [], "time": []}}, "mouseover": {"state": {"target": ["1", "2", "9"], "time": [3517, 3584, 3733]}, "edge": {"target": [], "time": []}}, "mouseout": {"state": {"target": ["10", "1", "2"], "time": [561, 3550, 3633]}, "edge": {"target": [], "time": []}}}, "displayed_time": "16.66", "trialTime": 17453, "trial_type": "mouselab-mdp", "trial_index": 32, "time_elapsed": 999298, "internal_node_id": "0.0-4.0-1.0-23.0"}}, {"uniqueid": "w74977008:a69140306", "current_trial": 33, "dateTime": 1691143153863, "trialdata": {"revealed_states": [], "clicked_states": ["27"], "num_clicks_accrued": [0, 0, 0, 0, 0, 0, 0, 0, 0, 0, 0, 0, 0], "stateRewards": ["", -1, -1, 7, -15, -43, -21, -84, -9, -45, -66, 2, 1, -2, 2, 8, -27, 44, -52, -5, -84, 11, 53, 1, 4, -4, 16, 83, -82, -15, -16, 68, -43, 81], "withholdReward": false, "trial_id": "mdp_trial_25", "block": "test", "trialIndex": 26, "score": 97.85, "costs": -2.15, "simulationMode": [null, null, null, null, null], "rewards": [1, 4, -4, 16, 83], "path": ["0", "0", "23", "24", "25", "26", "27"], "rt": [5590, 356, 327, 279, 165], "actions": ["left", "left", "left", "up", "up"], "actionTimes": [8414, 9314, 10212, 11028, 11751], "queries": {"click": {"state": {"target": ["27"], "time": [4812]}, "edge": {"target": [], "time": []}}, "mouseover": {"state": {"target": ["25", "23", "0", "23", "27"], "time": [2911, 3222, 3390, 3451, 4304]}, "edge": {"target": [], "time": []}}, "mouseout": {"state": {"target": ["3", "8", "1", "25", "23", "0", "23"], "time": [34, 138, 719, 2943, 3256, 3415, 3499]}, "edge": {"target": [], "time": []}}}, "displayed_time": "16.82", "trialTime": 17309, "trial_type": "mouselab-mdp", "trial_index": 33, "time_elapsed": 1019533, "internal_node_id": "0.0-4.0-1.0-24.0"}}, {"uniqueid": "w74977008:a69140306", "current_trial": 34, "dateTime": 1691143176299, "trialdata": {"revealed_states": [], "clicked_states": ["32"], "num_clicks_accrued": [0, 0, 0, 0, 0, 0, 0, 0, 0, 0, 0, 0, 0], "stateRewards": ["", -2, -4, -8, 8, 63, -50, -19, -7, -17, -31, 31, 1, 3, -5, 12, -35, -63, -29, -4, -17, -75, -79, -2, -3, -2, 8, -3, -85, 10, -2, -82, -82, 56], "withholdReward": false, "trial_id": "mdp_trial_26", "block": "test", "trialIndex": 27, "score": -26.15, "costs": -2.15, "simulationMode": [null, null, null, null, null], "rewards": [1, 3, -5, 12, -35], "path": ["0", "0", "12", "13", "14", "15", "16"], "rt": [10318, 351, 218, 1464, 67], "actions": ["right", "right", "right", "up", "up"], "actionTimes": [12772, 13671, 14459, 16502, 17322], "queries": {"click": {"state": {"target": ["32"], "time": [3743]}, "edge": {"target": [], "time": []}}, "mouseover": {"state": {"target": ["23", "30", "32", "0"], "time": [3056, 3195, 3358, 10309]}, "edge": {"target": [], "time": []}}, "mouseout": {"state": {"target": ["27", "23", "30", "32", "0"], "time": [680, 3094, 3234, 8041, 11279]}, "edge": {"target": [], "time": []}}}, "displayed_time": "17.89", "trialTime": 19964, "trial_type": "mouselab-mdp", "trial_index": 34, "time_elapsed": 1041969, "internal_node_id": "0.0-4.0-1.0-25.0"}}, {"uniqueid": "w74977008:a69140306", "current_trial": 35, "dateTime": 1691143196054, "trialdata": {"revealed_states": [], "clicked_states": ["16"], "num_clicks_accrued": [0, 0, 0, 0, 0, 0, 0, 0, 0, 0, 0, 0, 0], "stateRewards": ["", -1, -2, 4, 9, 10, -75, 39, 16, -43, 88, -19, -1, 1, 2, 4, -31, 10, 73, 12, 41, -64, -81, -2, 2, -6, 1, -81, -1, -26, 3, -59, -3, -20], "withholdReward": false, "trial_id": "mdp_trial_27", "block": "test", "trialIndex": 28, "score": 46.85, "costs": -2.15, "simulationMode": [null, null, null, null, null], "rewards": [-1, -2, 4, 9, 39], "path": ["0", "0", "1", "2", "3", "4", "7"], "rt": [6871, 223, 419, 202, 124], "actions": ["up", "up", "up", "right", "down"], "actionTimes": [9633, 10433, 11405, 12185, 12912], "queries": {"click": {"state": {"target": ["16"], "time": [4445]}, "edge": {"target": [], "time": []}}, "mouseover": {"state": {"target": ["0", "12", "1", "22", "13", "16", "17", "20", "19", "13"], "time": [2991, 3174, 3241, 3756, 3820, 3991, 5754, 8208, 8427, 8530]}, "edge": {"target": [], "time": []}}, "mouseout": {"state": {"target": ["23", "0", "0", "12", "1", "22", "13", "16", "17", "20", "19", "13"], "time": [754, 1420, 3024, 3208, 3291, 3792, 3859, 5745, 5813, 8358, 8494, 8558]}, "edge": {"target": [], "time": []}}}, "displayed_time": "16.77", "trialTime": 17567, "trial_type": "mouselab-mdp", "trial_index": 35, "time_elapsed": 1061724, "internal_node_id": "0.0-4.0-1.0-26.0"}}, {"uniqueid": "w74977008:a69140306", "current_trial": 36, "dateTime": 1691143217969, "trialdata": {"revealed_states": [], "clicked_states": [], "num_clicks_accrued": [0, 0, 0, 0, 0, 0, 0, 0, 0, 0, 0, 0, 0], "stateRewards": ["", -1, 2, 5, -6, 13, -64, -47, 8, -79, -80, -33, 1, 2, -2, -16, 56, -71, -10, 3, 29, 44, 85, -1, 4, 5, 4, -36, -56, 19, 8, 52, -13, -2], "withholdReward": false, "trial_id": "mdp_trial_28", "block": "test", "trialIndex": 29, "score": -65, "costs": 0, "simulationMode": [null, null, null, null, null], "rewards": [-1, 2, 5, 8, -79], "path": ["0", "0", "1", "2", "3", "8", "9"], "rt": [1184, 3662, 207, 848, 450], "actions": ["up", "up", "up", "left", "up"], "actionTimes": [3804, 8015, 8787, 10145, 11154], "queries": {"click": {"state": {"target": [], "time": []}, "edge": {"target": [], "time": []}}, "mouseover": {"state": {"target": [], "time": []}, "edge": {"target": [], "time": []}}, "mouseout": {"state": {"target": ["0", "10"], "time": [4619, 19378]}, "edge": {"target": [], "time": []}}}, "displayed_time": "18.62", "trialTime": 19611, "trial_type": "mouselab-mdp", "trial_index": 36, "time_elapsed": 1083639, "internal_node_id": "0.0-4.0-1.0-27.0"}}, {"uniqueid": "w74977008:a69140306", "current_trial": 37, "dateTime": 1691143242106, "trialdata": {"revealed_states": [], "clicked_states": ["10"], "num_clicks_accrued": [0, 0, 0, 0, 0, 0, 0, 0, 0, 0, 0, 0, 0], "stateRewards": ["", -2, -1, -6, -14, -55, 78, -13, 11, 14, -71, 59, 2, 2, 6, -6, 9, 38, 14, 7, 85, 11, 68, 1, -4, -1, -3, -63, -85, 9, -2, 63, -86, -10], "withholdReward": false, "trial_id": "mdp_trial_29", "block": "test", "trialIndex": 30, "score": 25.85, "costs": -2.15, "simulationMode": [null, null, null, null, null], "rewards": [2, 2, 6, 7, 11], "path": ["0", "0", "12", "13", "14", "19", "21"], "rt": [6000, 284, 364, 328, 257], "actions": ["right", "right", "right", "down", "down"], "actionTimes": [13409, 14212, 15142, 16024, 16785], "queries": {"click": {"state": {"target": ["10"], "time": [9013]}, "edge": {"target": [], "time": []}}, "mouseover": {"state": {"target": ["10", "6", "4", "18", "14", "19"], "time": [8586, 12439, 12590, 12789, 12941, 13120]}, "edge": {"target": [], "time": []}}, "mouseout": {"state": {"target": ["1", "23", "1", "23", "10", "23", "0", "1", "2", "12", "2", "10", "28", "24", "0", "0", "0", "10", "6", "4", "18", "14", "19", "13"], "time": [933, 3200, 3367, 3567, 3750, 3867, 3934, 3983, 4017, 4284, 4333, 4401, 4733, 4755, 5017, 5283, 8211, 9891, 12491, 12689, 12828, 13028, 19387, 19871]}, "edge": {"target": [], "time": []}}}, "displayed_time": "21.41", "trialTime": 21984, "trial_type": "mouselab-mdp", "trial_index": 37, "time_elapsed": 1107777, "internal_node_id": "0.0-4.0-1.0-28.0"}}, {"uniqueid": "w74977008:a69140306", "current_trial": 38, "dateTime": 1691143268318, "trialdata": {"revealed_states": [], "clicked_states": ["5"], "num_clicks_accrued": [0, 0, 0, 0, 0, 0, 0, 0, 0, 0, 0, 0, 0], "stateRewards": ["", 1, 2, 3, 16, 63, -25, 16, -4, -14, 82, -66, -1, -3, -3, -11, -14, 19, 46, 3, -34, -82, 66, -2, -3, 4, -5, -63, 77, -37, -1, -45, -41, 84], "withholdReward": false, "trial_id": "mdp_trial_30", "block": "test", "trialIndex": 31, "score": 82.85, "costs": -2.15, "simulationMode": [null, null, null, null, null], "rewards": [1, 2, 3, 16, 63], "path": ["0", "0", "1", "2", "3", "4", "5"], "rt": [14502, 427, 291, 1256, 258], "actions": ["up", "up", "up", "right", "up"], "actionTimes": [16973, 17940, 18769, 20567, 21352], "queries": {"click": {"state": {"target": ["5"], "time": [4015]}, "edge": {"target": [], "time": []}}, "mouseover": {"state": {"target": ["1", "7", "4", "5", "5", "5", "5", "3", "2"], "time": [2930, 3030, 3110, 3170, 3682, 12432, 12751, 14018, 15512]}, "edge": {"target": [], "time": []}}, "mouseout": {"state": {"target": ["10", "28", "1", "7", "4", "5", "5", "5", "5", "3", "2"], "time": [477, 677, 2955, 3066, 3137, 3297, 12259, 12484, 13982, 14068, 23752]}, "edge": {"target": [], "time": []}}}, "displayed_time": "21.87", "trialTime": 23902, "trial_type": "mouselab-mdp", "trial_index": 38, "time_elapsed": 1133988, "internal_node_id": "0.0-4.0-1.0-29.0"}}, {"uniqueid": "w74977008:a69140306", "current_trial": 39, "dateTime": 1691143300708, "trialdata": {"revealed_states": [], "clicked_states": ["11"], "num_clicks_accrued": [0, 0, 0, 0, 0, 0, 0, 0, 0, 0, 0, 0, 0], "stateRewards": ["", -2, -2, -7, -13, -10, 49, -68, -1, 84, 70, 88, 1, 4, 4, 12, -57, 25, 30, 8, -1, -77, 57, 2, 3, 2, 3, -18, -80, 23, -15, -41, 70, 11], "withholdReward": false, "trial_id": "mdp_trial_31", "block": "test", "trialIndex": 32, "score": 73.85, "costs": -2.15, "simulationMode": [null, null, null, null, null], "rewards": [-2, -2, -7, -1, 88], "path": ["0", "0", "1", "2", "3", "8", "11"], "rt": [5771, 1236, 407, 273, 205], "actions": ["up", "up", "up", "left", "left"], "actionTimes": [20874, 22693, 23662, 24468, 25201], "queries": {"click": {"state": {"target": ["11"], "time": [17154]}, "edge": {"target": [], "time": []}}, "mouseover": {"state": {"target": ["0", "31", "24", "28", "11"], "time": [15782, 15882, 16330, 16415, 16731]}, "edge": {"target": [], "time": []}}, "mouseout": {"state": {"target": ["2", "1", "0", "31", "24", "28", "11"], "time": [13378, 13428, 15815, 15947, 16372, 16442, 20811]}, "edge": {"target": [], "time": []}}}, "displayed_time": "29.11", "trialTime": 29991, "trial_type": "mouselab-mdp", "trial_index": 39, "time_elapsed": 1166378, "internal_node_id": "0.0-4.0-1.0-30.0"}}, {"uniqueid": "w74977008:a69140306", "current_trial": 40, "dateTime": 1691143321004, "trialdata": {"revealed_states": [], "clicked_states": ["6"], "num_clicks_accrued": [0, 0, 0, 0, 0, 0, 0, 0, 0, 0, 0, 0, 0], "stateRewards": ["", 1, -3, -1, 9, -34, -40, 22, -7, 45, 53, -11, 2, 4, 5, 15, 21, 37, -49, -3, 80, -28, -34, 1, -3, 1, 1, -40, -6, -5, -16, -85, -86, 59], "withholdReward": false, "trial_id": "mdp_trial_32", "block": "test", "trialIndex": 33, "score": 60.85, "costs": -2.15, "simulationMode": [null, null, null, null, null], "rewards": [2, 4, 5, 15, 37], "path": ["0", "0", "12", "13", "14", "15", "17"], "rt": [5931, 323, 315, 373, 242], "actions": ["right", "right", "right", "up", "right"], "actionTimes": [8769, 9634, 10475, 11415, 12210], "queries": {"click": {"state": {"target": ["6"], "time": [4527]}, "edge": {"target": [], "time": []}}, "mouseover": {"state": {"target": ["6"], "time": [3994]}, "edge": {"target": [], "time": []}}, "mouseout": {"state": {"target": ["11", "10", "0", "6"], "time": [893, 976, 3408, 17775]}, "edge": {"target": [], "time": []}}}, "displayed_time": "16.84", "trialTime": 18081, "trial_type": "mouselab-mdp", "trial_index": 40, "time_elapsed": 1186673, "internal_node_id": "0.0-4.0-1.0-31.0"}}, {"uniqueid": "w74977008:a69140306", "current_trial": 41, "dateTime": 1691143341567, "trialdata": {"revealed_states": [], "clicked_states": ["20"], "num_clicks_accrued": [0, 0, 0, 0, 0, 0, 0, 0, 0, 0, 0, 0, 0], "stateRewards": ["", -1, 3, 1, -11, -22, -36, 19, -5, -70, -52, 50, -2, -4, 4, -2, -41, -83, 29, -2, 22, 10, -6, -2, 3, -2, 14, 54, 44, 77, -9, -65, -37, -40], "withholdReward": false, "trial_id": "mdp_trial_33", "block": "test", "trialIndex": 34, "score": 15.85, "costs": -2.15, "simulationMode": [null, null, null, null, null], "rewards": [-2, -4, 4, -2, 22], "path": ["0", "0", "12", "13", "14", "19", "20"], "rt": [5117, 385, 303, 439, 376], "actions": ["right", "right", "right", "down", "right"], "actionTimes": [7857, 8770, 9640, 10607, 11504], "queries": {"click": {"state": {"target": ["20"], "time": [4334]}, "edge": {"target": [], "time": []}}, "mouseover": {"state": {"target": ["12", "22", "19", "20"], "time": [3385, 3506, 3604, 3902]}, "edge": {"target": [], "time": []}}, "mouseout": {"state": {"target": ["2", "1", "0", "12", "22", "19", "20"], "time": [750, 883, 1156, 3428, 3568, 3639, 5073]}, "edge": {"target": [], "time": []}}}, "displayed_time": "16.74", "trialTime": 17519, "trial_type": "mouselab-mdp", "trial_index": 41, "time_elapsed": 1207236, "internal_node_id": "0.0-4.0-1.0-32.0"}}, {"uniqueid": "w74977008:a69140306", "current_trial": 42, "dateTime": 1691143366550, "trialdata": {"revealed_states": [], "clicked_states": ["6"], "num_clicks_accrued": [0, 0, 0, 0, 0, 0, 0, 0, 0, 0, 0, 0, 0], "stateRewards": ["", -1, 3, -4, -14, 78, 67, 2, 13, -32, 28, 39, -2, 1, -4, -4, -4, -42, -86, 11, 64, -29, -32, -1, -4, 2, -7, 5, 68, -61, 2, -21, 85, 50], "withholdReward": false, "trial_id": "mdp_trial_34", "block": "test", "trialIndex": 35, "score": 48.85, "costs": -2.15, "simulationMode": [null, null, null, null, null], "rewards": [-1, 3, -4, -14, 67], "path": ["0", "0", "1", "2", "3", "4", "6"], "rt": [5173, 137, 221, 162, 177], "actions": ["up", "up", "up", "right", "right"], "actionTimes": [10024, 10729, 11491, 12175, 12927], "queries": {"click": {"state": {"target": ["6"], "time": [6040]}, "edge": {"target": [], "time": []}}, "mouseover": {"state": {"target": ["7", "6"], "time": [5504, 5605]}, "edge": {"target": [], "time": []}}, "mouseout": {"state": {"target": ["1", "23", "1", "7", "6", "6"], "time": [734, 950, 2269, 5539, 6250, 19536]}, "edge": {"target": [], "time": []}}}, "displayed_time": "18.87", "trialTime": 22488, "trial_type": "mouselab-mdp", "trial_index": 42, "time_elapsed": 1232220, "internal_node_id": "0.0-4.0-1.0-33.0"}}, {"uniqueid": "w74977008:a69140306", "current_trial": 43, "dateTime": 1691143388322, "trialdata": {"revealed_states": [], "clicked_states": ["29"], "num_clicks_accrued": [0, 0, 0, 0, 0, 0, 0, 0, 0, 0, 0, 0, 0], "stateRewards": ["", -2, -1, -1, 5, -54, -87, 35, 2, -8, 20, -22, 1, 3, 6, 13, -75, -32, -55, -3, 56, 62, -22, -1, -4, -1, -7, -51, 84, 70, 7, -15, 5, 55], "withholdReward": false, "trial_id": "mdp_trial_35", "block": "test", "trialIndex": 36, "score": 54.85, "costs": -2.15, "simulationMode": [null, null, null, null, null], "rewards": [-1, -4, -1, -7, 70], "path": ["0", "0", "23", "24", "25", "26", "29"], "rt": [5394, 243, 339, 291, 362], "actions": ["left", "left", "left", "up", "left"], "actionTimes": [8459, 9246, 10113, 10952, 11885], "queries": {"click": {"state": {"target": ["29"], "time": [4855]}, "edge": {"target": [], "time": []}}, "mouseover": {"state": {"target": ["26", "29", "29"], "time": [3893, 4092, 4395]}, "edge": {"target": [], "time": []}}, "mouseout": {"state": {"target": ["0", "26", "29", "29", "26"], "time": [3577, 4045, 4265, 5954, 13164]}, "edge": {"target": [], "time": []}}}, "displayed_time": "17.07", "trialTime": 18149, "trial_type": "mouselab-mdp", "trial_index": 43, "time_elapsed": 1253992, "internal_node_id": "0.0-4.0-1.0-34.0"}}, {"uniqueid": "w74977008:a69140306", "current_trial": 44, "dateTime": 1691143409399, "trialdata": {"revealed_states": [], "clicked_states": ["6"], "num_clicks_accrued": [0, 0, 0, 0, 0, 0, 0, 0, 0, 0, 0, 0, 0], "stateRewards": ["", 2, 3, 6, -12, -29, 12, 87, 4, 35, -30, 67, 2, 3, -5, -9, 44, 69, -8, 1, 45, -8, 28, -2, -1, -8, 11, -12, -5, 81, 9, 87, 82, 88], "withholdReward": false, "trial_id": "mdp_trial_36", "block": "test", "trialIndex": 37, "score": 8.85, "costs": -2.15, "simulationMode": [null, null, null, null, null], "rewards": [2, 3, 6, -12, 12], "path": ["0", "0", "1", "2", "3", "4", "6"], "rt": [5393, 123, 282, 177, 157], "actions": ["up", "up", "up", "right", "right"], "actionTimes": [8840, 9518, 10351, 11182, 11923], "queries": {"click": {"state": {"target": ["6"], "time": [5008]}, "edge": {"target": [], "time": []}}, "mouseover": {"state": {"target": ["1", "4", "6"], "time": [4296, 4396, 4595]}, "edge": {"target": [], "time": []}}, "mouseout": {"state": {"target": ["1", "4", "6", "6"], "time": [4329, 4474, 5209, 8455]}, "edge": {"target": [], "time": []}}}, "displayed_time": "17.45", "trialTime": 18721, "trial_type": "mouselab-mdp", "trial_index": 44, "time_elapsed": 1275070, "internal_node_id": "0.0-4.0-1.0-35.0"}}, {"uniqueid": "w74977008:a69140306", "current_trial": 45, "dateTime": 1691143429307, "trialdata": {"revealed_states": [], "clicked_states": ["33"], "num_clicks_accrued": [0, 0, 0, 0, 0, 0, 0, 0, 0, 0, 0, 0, 0], "stateRewards": ["", 1, 2, -3, -6, 50, -7, 7, -7, -80, 21, -1, 2, 2, 4, -1, 33, 84, 1, 14, -53, 81, 6, -2, -2, -3, -9, -87, -38, -59, -5, -74, -3, -71], "withholdReward": false, "trial_id": "mdp_trial_37", "block": "test", "trialIndex": 38, "score": 37.85, "costs": -2.15, "simulationMode": [null, null, null, null, null], "rewards": [2, 2, 4, -1, 33], "path": ["0", "0", "12", "13", "14", "15", "16"], "rt": [6456, 178, 351, 227, 225], "actions": ["right", "right", "right", "up", "up"], "actionTimes": [9225, 9932, 10851, 11651, 12417], "queries": {"click": {"state": {"target": ["33"], "time": [4446]}, "edge": {"target": [], "time": []}}, "mouseover": {"state": {"target": ["30", "33", "1"], "time": [3976, 4068, 9078]}, "edge": {"target": [], "time": []}}, "mouseout": {"state": {"target": ["0", "30", "33"], "time": [1091, 4006, 4683]}, "edge": {"target": [], "time": []}}}, "displayed_time": "16.77", "trialTime": 17414, "trial_type": "mouselab-mdp", "trial_index": 45, "time_elapsed": 1294977, "internal_node_id": "0.0-4.0-1.0-36.0"}}, {"uniqueid": "w74977008:a69140306", "current_trial": 46, "dateTime": 1691143452776, "trialdata": {"revealed_states": [], "clicked_states": ["7"], "num_clicks_accrued": [0, 0, 0, 0, 0, 0, 0, 0, 0, 0, 0, 0, 0], "stateRewards": ["", -2, 1, 6, -2, -10, -78, -69, 14, -15, 7, -1, 1, -1, -2, 13, 77, 32, 87, 5, -74, 30, -26, 1, 3, 4, 12, 39, 54, -43, 2, 10, 23, 13], "withholdReward": false, "trial_id": "mdp_trial_38", "block": "test", "trialIndex": 39, "score": 1.8500000000000014, "costs": -2.15, "simulationMode": [null, null, null, null, null], "rewards": [-2, 1, 6, 14, -15], "path": ["0", "0", "1", "2", "3", "8", "9"], "rt": [4861, 86, 328, 149, 313], "actions": ["up", "up", "up", "left", "up"], "actionTimes": [9641, 10373, 11256, 11929, 12809], "queries": {"click": {"state": {"target": ["7"], "time": [5929]}, "edge": {"target": [], "time": []}}, "mouseover": {"state": {"target": ["1", "7"], "time": [5266, 5468]}, "edge": {"target": [], "time": []}}, "mouseout": {"state": {"target": ["1", "0", "1", "7"], "time": [672, 1036, 5368, 20126]}, "edge": {"target": [], "time": []}}}, "displayed_time": "18.79", "trialTime": 21028, "trial_type": "mouselab-mdp", "trial_index": 46, "time_elapsed": 1318447, "internal_node_id": "0.0-4.0-1.0-37.0"}}, {"uniqueid": "w74977008:a69140306", "current_trial": 47, "dateTime": 1691143472774, "trialdata": {"revealed_states": [], "clicked_states": ["7"], "num_clicks_accrued": [0, 0, 0, 0, 0, 0, 0, 0, 0, 0, 0, 0, 0], "stateRewards": ["", 1, 4, -8, -13, -13, -87, -77, -10, -44, 54, 42, 2, -3, -4, 12, -9, -80, 52, 9, 84, -2, -65, 1, -4, -5, -6, 8, 80, 32, 13, -59, -5, -13], "withholdReward": false, "trial_id": "mdp_trial_39", "block": "test", "trialIndex": 40, "score": -8.149999999999999, "costs": -2.15, "simulationMode": [null, null, null, null, null], "rewards": [1, -4, -5, -6, 8], "path": ["0", "0", "23", "24", "25", "26", "27"], "rt": [6135, 335, 491, 114, 263], "actions": ["left", "left", "left", "up", "up"], "actionTimes": [8854, 9702, 10788, 11419, 12217], "queries": {"click": {"state": {"target": ["7"], "time": [4049]}, "edge": {"target": [], "time": []}}, "mouseover": {"state": {"target": ["1", "7", "1"], "time": [3408, 3802, 8409]}, "edge": {"target": [], "time": []}}, "mouseout": {"state": {"target": ["1", "7", "1"], "time": [3442, 5380, 8492]}, "edge": {"target": [], "time": []}}}, "displayed_time": "16.72", "trialTime": 17643, "trial_type": "mouselab-mdp", "trial_index": 47, "time_elapsed": 1338442, "internal_node_id": "0.0-4.0-1.0-38.0"}}, {"uniqueid": "w74977008:a69140306", "current_trial": 48, "dateTime": 1691143492771, "trialdata": {"revealed_states": [], "clicked_states": ["11"], "num_clicks_accrued": [0, 0, 0, 0, 0, 0, 0, 0, 0, 0, 0, 0, 0], "stateRewards": ["", 2, -1, -1, -9, -81, -30, 55, -6, 78, 25, 62, 2, 4, -1, 9, -85, 1, -19, 1, -60, 12, -34, 1, 4, -1, -13, -24, -16, -83, -8, 16, 43, 9], "withholdReward": false, "trial_id": "mdp_trial_40", "block": "test", "trialIndex": 41, "score": 53.85, "costs": -2.15, "simulationMode": [null, null, null, null, null], "rewards": [2, -1, -1, -6, 62], "path": ["0", "0", "1", "2", "3", "8", "11"], "rt": [4679, 676, 395, 256, 170], "actions": ["up", "up", "up", "left", "left"], "actionTimes": [7138, 8363, 9333, 10127, 10876], "queries": {"click": {"state": {"target": ["11"], "time": [3709]}, "edge": {"target": [], "time": []}}, "mouseover": {"state": {"target": ["11"], "time": [3227]}, "edge": {"target": [], "time": []}}, "mouseout": {"state": {"target": ["0", "0", "11"], "time": [177, 2809, 5120]}, "edge": {"target": [], "time": []}}}, "displayed_time": "16.46", "trialTime": 17326, "trial_type": "mouselab-mdp", "trial_index": 48, "time_elapsed": 1358440, "internal_node_id": "0.0-4.0-1.0-39.0"}}, {"uniqueid": "w74977008:a69140306", "current_trial": 49, "dateTime": 1691143554397, "trialdata": {"rt": 61582, "response": {"Q0": "$-2 to $2", "Q1": "$-32 to $32", "Q2": "$-16 to $16", "Q3": "The cost for clicking on nodes varied between nodes.", "Q4": "Very motivated"}, "question_order": [0, 1, 2, 3, 4], "trial_id": "final_quiz_control", "trial_type": "survey-multi-choice", "trial_index": 49, "time_elapsed": 1420067, "internal_node_id": "0.0-4.0-2.0"}}, {"uniqueid": "w74977008:a69140306", "current_trial": 50, "dateTime": 1691143693004, "trialdata": {"rt": 138452, "response": {"Q0": "I FIRST TRIED OUT HOW MUCH THE NODES WAS IN THE TOP SECTION IF IT WAS A MINUS AMOUNT I WOULD GO TO ANOTHER SECTION AND THERE I WOULD GET A HIGH AMOUNT", "Q1": "YES, I KEPT ON PLAYING AROUND AND CHOOSE DIFFERENT NODES", "Q2": "THE FIRST FEW ROUNDS WAS A BIT DIFFICULT BUT I GOT THE HANG OF IT"}, "trial_id": "self_report_control", "trial_type": "survey-text", "trial_index": 50, "time_elapsed": 1558675, "internal_node_id": "0.0-4.0-3.0"}}, {"uniqueid": "w74977008:a69140306", "current_trial": 51, "dateTime": 1691143737207, "trialdata": {"rt": 44181, "response": {"Q0": "Agree", "Q1": "Neither disagree nor agree", "Q2": "Agree", "Q3": "Agree", "Q4": "Agree", "Q5": "Strongly agree", "Q6": "Disagree"}, "question_order": [0, 1, 2, 3, 4, 5, 6], "trial_id": "self_report_2", "trial_type": "survey-multi-choice", "trial_index": 51, "time_elapsed": 1602879, "internal_node_id": "0.0-4.0-4.0"}}, {"uniqueid": "w74977008:a69140306", "current_trial": 52, "dateTime": 1691143764485, "trialdata": {"rt": 27246, "response": {"gender": "female", "age": "21", "colorblind": "0", "effort": "0"}, "trial_type": "survey-html-form", "trial_index": 52, "time_elapsed": 1630157, "internal_node_id": "0.0-4.0-5.0"}}, {"uniqueid": "w74977008:a69140306", "current_trial": 53, "dateTime": 1691143794405, "trialdata": {"rt": 29714, "response": {"Q0": "NO ", "Q1": "I CANT REMEMBER", "Q2": ""}, "trial_type": "survey-text", "trial_index": 53, "time_elapsed": 1660077, "internal_node_id": "0.0-4.0-6.0"}}, {"uniqueid": "w74977008:a69140306", "current_trial": 54, "dateTime": 1691143797370, "trialdata": {"rt": 2942, "stimulus": "Press 'Finish HIT' in order to reach the completion code. Once the data has been saved, you will receive the code either in this window or in the original browser window where you started the experiment.\n", "response": 0, "trial_type": "html-button-response", "trial_index": 54, "time_elapsed": 1663042, "internal_node_id": "0.0-5.0"}}, {"uniqueid": "w74977008:a69140306", "current_trial": 55, "dateTime": 1691143798411, "trialdata": {"success": true, "trial_type": "fullscreen", "trial_index": 55, "time_elapsed": 1664083, "internal_node_id": "0.0-6.0"}}], "questiondata": {"params": {"CODE": "C6DMOQA6", "MIN_TIME": 14, "inspectCost": 1, "startTime": "Fri Aug 04 2023 11:42:11 GMT+0200 (South Africa Standard Time)", "bonusRate": 0.002, "variance": "1_2_4_8_44", "branching": "31123"}, "final_score": 527.45}, "eventdata": [{"eventtype": "initialized", "value": null, "timestamp": 1691142131167, "interval": 0}, {"eventtype": "window_resize", "value": [1024, 646], "timestamp": 1691142131167, "interval": 0}, {"eventtype": "window_resize", "value": [1024, 646], "timestamp": 1691142131758, "interval": 591}, {"eventtype": "window_resize", "value": [1366, 662], "timestamp": 1691142140351, "interval": 8593}, {"eventtype": "window_resize", "value": [1366, 768], "timestamp": 1691142141895, "interval": 1544}], "useragent": "Mozilla/5.0 (Windows NT 10.0; Win64; x64) AppleWebKit/537.36 (KHTML, like Gecko) Chrome/115.0.0.0 Safari/537.36", "mode": "live", "id": "w74977008:a69140306", "status": "user data saved", "Beginhit": "2023-08-04 09:42:11.421444", "Beginexp": "2023-08-04 09:42:26.120305", "Endhit": "2023-08-04 10:10:04.319296", "psiturkStatus": 3, "browser": "<redacted>", "platform": "windows", "language": "en-ZA"}