{"condition": 0, "counterbalance": 0, "assignmentId": "a74195641", "workerId": "w50373425", "hitId": "h36833673", "currenttrial": 6, "bonus": 0, "data": [{"uniqueid": "w50373425:a74195641", "current_trial": 0, "dateTime": 1693660406148, "trialdata": {"success": true, "trial_type": "fullscreen", "trial_index": 0, "time_elapsed": 4799, "internal_node_id": "0.0-0.0"}}, {"uniqueid": "w50373425:a74195641", "current_trial": 1, "dateTime": 1693660415176, "trialdata": {"view_history": [{"page_index": 0, "viewing_time": 9013}], "rt": 9014, "trial_id": "exp_instructions_control", "trial_type": "instructions", "trial_index": 1, "time_elapsed": 13829, "internal_node_id": "0.0-1.0"}}, {"uniqueid": "w50373425:a74195641", "current_trial": 2, "dateTime": 1693660493455, "trialdata": {"view_history": [{"page_index": 0, "viewing_time": 57145}, {"page_index": 1, "viewing_time": 8108}, {"page_index": 2, "viewing_time": 11044}, {"page_index": 3, "viewing_time": 1980}], "rt": 78277, "trial_id": "mouselab_instructions_1_control", "trial_type": "instructions", "trial_index": 2, "time_elapsed": 92108, "internal_node_id": "0.0-2.0-1.0"}}, {"uniqueid": "w50373425:a74195641", "current_trial": 3, "dateTime": 1693660555854, "trialdata": {"revealed_states": [], "clicked_states": ["12", "13", "14", "19", "21", "15", "16", "17", "20"], "num_clicks_accrued": [0, 0, 0, 0, 0, 0, 0, 0, 0, 0, 0, 0, 0], "stateRewards": ["", -10, 10, -10, -10, -10, 10, 10, -10, -10, 10, 10, -10, -10, 10, -10, -10, 10, -10, -10, 10, 10, 10, -10, -10, 10, -10, -10, -10, 10, -10, 10, 10, -10], "withholdReward": false, "trial_id": "practice_1", "block": "test", "trialIndex": 0, "score": -31, "costs": -4.5, "simulationMode": [null, null, null, null, null], "rewards": [-10, 10, -10, -10, -10], "path": ["0", "0", "1", "2", "3", "4", "5"], "rt": [44540, 924, 1458, 1320, 1104], "actions": ["up", "up", "up", "right", "up"], "actionTimes": [48336, 49765, 51748, 53589, 55203], "queries": {"click": {"state": {"target": ["12", "13", "14", "19", "21", "15", "16", "17", "20"], "time": [8116, 9977, 13011, 14604, 16405, 22860, 24062, 25601, 26948]}, "edge": {"target": [], "time": []}}, "mouseover": {"state": {"target": ["1", "12", "13", "14", "19", "21", "21", "22", "12", "18", "15", "16", "17", "20", "0", "1", "0", "0", "1"], "time": [4627, 7803, 8997, 11257, 13537, 15384, 21124, 21277, 21488, 21821, 22473, 23619, 24567, 26761, 32944, 34435, 35970, 41719, 42106]}, "edge": {"target": [], "time": []}}, "mouseout": {"state": {"target": ["1", "1", "1", "12", "13", "14", "19", "21", "21", "22", "12", "18", "15", "15", "16", "17", "20", "0", "1", "0", "0", "1"], "time": [1706, 2873, 5400, 8813, 11091, 13421, 15318, 17131, 21157, 21344, 21621, 22445, 23236, 23486, 24484, 26496, 27262, 34289, 35876, 35998, 41976, 43555]}, "edge": {"target": [], "time": []}}}, "displayed_time": "55.71", "trialTime": 61870, "trial_type": "mouselab-mdp", "trial_index": 3, "time_elapsed": 154505, "internal_node_id": "0.0-2.0-2.0-0.0"}}, {"uniqueid": "w50373425:a74195641", "current_trial": 4, "dateTime": 1693660586471, "trialdata": {"revealed_states": [], "clicked_states": [], "num_clicks_accrued": [0, 0, 0, 0, 0, 0, 0, 0, 0, 0, 0, 0, 0], "stateRewards": ["", -10, -10, 10, 10, 10, 10, -10, -10, -10, -10, 10, -10, -10, 10, -10, -10, 10, 10, 10, -10, 10, 10, 10, 10, -10, 10, -10, 10, 10, -10, 10, -10, 10], "withholdReward": false, "trial_id": "practice_2", "block": "test", "trialIndex": 1, "score": -26.5, "costs": 0, "simulationMode": [null, null, null, null, null], "rewards": [-10, -10, 10, -10, -10], "path": ["0", "0", "1", "2", "3", "8", "9"], "rt": [4221, 1003, 1076, 2381, 811], "actions": ["up", "up", "up", "left", "up"], "actionTimes": [9444, 10956, 12543, 15444, 16769], "queries": {"click": {"state": {"target": [], "time": []}, "edge": {"target": [], "time": []}}, "mouseover": {"state": {"target": ["1"], "time": [8324]}, "edge": {"target": [], "time": []}}, "mouseout": {"state": {"target": ["22", "12", "0", "0", "1", "12", "7", "0", "23", "24", "31", "30", "32", "23", "1", "2", "8", "2", "1", "13", "22", "22"], "time": [943, 1318, 1634, 6194, 9800, 19980, 20447, 22874, 22980, 23245, 23395, 23478, 24589, 24719, 24756, 24859, 27899, 29231, 29268, 29597, 29779, 29896]}, "edge": {"target": [], "time": []}}}, "displayed_time": "17.29", "trialTime": 30275, "trial_type": "mouselab-mdp", "trial_index": 4, "time_elapsed": 185121, "internal_node_id": "0.0-2.0-2.0-1.0"}}, {"uniqueid": "w50373425:a74195641", "current_trial": 5, "dateTime": 1693660624468, "trialdata": {"view_history": [{"page_index": 0, "viewing_time": 35500}, {"page_index": 1, "viewing_time": 2484}], "rt": 37984, "trial_id": "mouselab_instructions_2_control", "trial_type": "instructions", "trial_index": 5, "time_elapsed": 223121, "internal_node_id": "0.0-2.0-3.0"}}], "questiondata": {"params": {"CODE": "C6DMOQA6", "MIN_TIME": 14, "inspectCost": 1, "startTime": "Sat Sep 02 2023 14:13:20 GMT+0100 (British Summer Time)", "bonusRate": 0.002, "variance": "1_2_4_8_44", "branching": "31123"}}, "eventdata": [{"eventtype": "initialized", "value": null, "timestamp": 1693660400256, "interval": 0}, {"eventtype": "window_resize", "value": [1024, 654], "timestamp": 1693660400256, "interval": 0}, {"eventtype": "window_resize", "value": [1024, 654], "timestamp": 1693660400576, "interval": 320}, {"eventtype": "window_resize", "value": [1366, 670], "timestamp": 1693660403787, "interval": 3211}, {"eventtype": "window_resize", "value": [1366, 768], "timestamp": 1693660405375, "interval": 1588}, {"eventtype": "window_resize", "value": [1366, 670], "timestamp": 1693660485312, "interval": 79937}, {"eventtype": "focus", "value": "off", "timestamp": 1693660488864, "interval": 3552}, {"eventtype": "focus", "value": "on", "timestamp": 1693660488869, "interval": 5}], "useragent": "Mozilla/5.0 (Windows NT 10.0; Win64; x64) AppleWebKit/537.36 (KHTML, like Gecko) Chrome/116.0.0.0 Safari/537.36", "mode": "live", "id": "w50373425:a74195641", "status": "user data saved", "Beginhit": "2023-09-02 13:13:20.078845", "Beginexp": "2023-09-02 13:13:27.906183", "Endhit": null, "psiturkStatus": 6, "browser": "<redacted>", "platform": "windows", "language": "en-GB", "excludeReason": "quizfail"}