{"condition": 0, "counterbalance": 0, "assignmentId": "a33305529", "workerId": "w59165799", "hitId": "h50471084", "currenttrial": 33, "bonus": 0, "data": [{"uniqueid": "w59165799:a33305529", "current_trial": 0, "dateTime": 1693564685734, "trialdata": {"success": true, "trial_type": "fullscreen", "trial_index": 0, "time_elapsed": 31413, "internal_node_id": "0.0-0.0"}}, {"uniqueid": "w59165799:a33305529", "current_trial": 1, "dateTime": 1693564837349, "trialdata": {"view_history": [{"page_index": 0, "viewing_time": 151609}], "rt": 151610, "trial_id": "exp_instructions_control", "trial_type": "instructions", "trial_index": 1, "time_elapsed": 183029, "internal_node_id": "0.0-1.0"}}, {"uniqueid": "w59165799:a33305529", "current_trial": 2, "dateTime": 1693565004805, "trialdata": {"view_history": [{"page_index": 0, "viewing_time": 61270}, {"page_index": 1, "viewing_time": 53384}, {"page_index": 2, "viewing_time": 19392}, {"page_index": 3, "viewing_time": 33408}], "rt": 167454, "trial_id": "mouselab_instructions_1_control", "trial_type": "instructions", "trial_index": 2, "time_elapsed": 350485, "internal_node_id": "0.0-2.0-1.0"}}, {"uniqueid": "w59165799:a33305529", "current_trial": 3, "dateTime": 1693565051128, "trialdata": {"revealed_states": [], "clicked_states": ["23", "24", "31", "30", "32"], "num_clicks_accrued": [0, 0, 0, 0, 0, 0, 0, 0, 0, 0, 0, 0, 0], "stateRewards": ["", -10, 10, -10, -10, 10, -10, -10, -10, -10, 10, -10, -10, 10, 10, -10, 10, 10, -10, 10, -10, 10, 10, 10, 10, -10, 10, 10, -10, -10, 10, -10, -10, -10], "withholdReward": false, "trial_id": "practice_1", "block": "test", "trialIndex": 0, "score": 11, "costs": -2.5, "simulationMode": [null, null, null, null, null], "rewards": [10, 10, -10, 10, -10], "path": ["0", "0", "23", "24", "25", "30", "32"], "rt": [30923, 255, 2464, 266, 236], "actions": ["left", "left", "left", "down", "down"], "actionTimes": [34272, 35021, 37998, 38766, 39502], "queries": {"click": {"state": {"target": ["23", "24", "31", "30", "32"], "time": [6663, 7715, 10110, 11973, 13327]}, "edge": {"target": [], "time": []}}, "mouseover": {"state": {"target": ["23", "24", "23", "24", "31", "30", "32", "31", "0", "23", "0", "23"], "time": [3979, 6149, 6431, 6931, 9013, 10581, 12346, 26897, 27664, 28347, 30181, 30681]}, "edge": {"target": [], "time": []}}, "mouseout": {"state": {"target": ["0", "23", "24", "23", "24", "31", "30", "32", "31", "0", "23", "0", "23", "0", "12", "22", "21"], "time": [630, 5747, 6397, 6848, 8847, 10347, 12214, 14098, 26947, 28281, 29097, 30648, 30897, 43681, 43730, 43781, 43864]}, "edge": {"target": [], "time": []}}}, "displayed_time": "40.00", "trialTime": 45918, "trial_type": "mouselab-mdp", "trial_index": 3, "time_elapsed": 396808, "internal_node_id": "0.0-2.0-2.0-0.0"}}, {"uniqueid": "w59165799:a33305529", "current_trial": 4, "dateTime": 1693565073078, "trialdata": {"revealed_states": [], "clicked_states": ["12", "13", "14", "19", "21"], "num_clicks_accrued": [0, 0, 0, 0, 0, 0, 0, 0, 0, 0, 0, 0, 0], "stateRewards": ["", 10, -10, -10, 10, 10, 10, 10, 10, -10, -10, -10, 10, 10, -10, -10, -10, 10, 10, 10, -10, 10, -10, 10, -10, 10, -10, 10, -10, -10, 10, -10, 10, 10], "withholdReward": false, "trial_id": "practice_2", "block": "test", "trialIndex": 1, "score": 31, "costs": -2.5, "simulationMode": [null, null, null, null, null], "rewards": [10, 10, -10, 10, 10], "path": ["0", "0", "12", "13", "14", "19", "21"], "rt": [12749, 492, 245, 182, 235], "actions": ["right", "right", "right", "down", "down"], "actionTimes": [15961, 16952, 17688, 18376, 19112], "queries": {"click": {"state": {"target": ["12", "13", "14", "19", "21"], "time": [4767, 6862, 7991, 10760, 11795]}, "edge": {"target": [], "time": []}}, "mouseover": {"state": {"target": ["12", "12", "13", "13", "14", "13", "14", "19", "19", "19", "21"], "time": [3791, 4107, 5257, 6040, 6091, 6690, 7157, 8474, 10257, 10591, 11324]}, "edge": {"target": [], "time": []}}, "mouseout": {"state": {"target": ["0", "12", "12", "13", "13", "14", "13", "14", "19", "14", "14", "19", "19", "21", "21", "21"], "time": [3774, 3840, 5207, 5707, 6057, 6390, 7124, 8390, 9824, 9890, 10224, 10291, 11008, 11928, 13824, 20707]}, "edge": {"target": [], "time": []}}}, "displayed_time": "19.61", "trialTime": 21879, "trial_type": "mouselab-mdp", "trial_index": 4, "time_elapsed": 418757, "internal_node_id": "0.0-2.0-2.0-1.0"}}, {"uniqueid": "w59165799:a33305529", "current_trial": 5, "dateTime": 1693565105574, "trialdata": {"view_history": [{"page_index": 0, "viewing_time": 9071}, {"page_index": 1, "viewing_time": 23424}], "rt": 32495, "trial_id": "mouselab_instructions_2_control", "trial_type": "instructions", "trial_index": 5, "time_elapsed": 451254, "internal_node_id": "0.0-2.0-3.0"}}, {"uniqueid": "w59165799:a33305529", "current_trial": 6, "dateTime": 1693565135342, "trialdata": {"rt": 29766, "response": {"Q0": "The cost for clicking on nodes may vary between nodes.", "Q1": "The better I perform the higher my bonus will be.", "Q2": "No, the amount of cash at each node of the web may be different each time.", "Q3": "To get the highest total score.", "Q4": "Only before moving the spider.", "Q5": "3 seconds"}, "question_order": [0, 1, 2, 3, 4, 5], "correct": {"Q0": "The cost for clicking on nodes may vary between nodes.", "Q1": "The better I perform the higher my bonus will be.", "Q2": "No, the amount of cash at each node of the web may be different each time.", "Q3": "To get the highest total score.", "Q4": "Only before moving the spider.", "Q5": "3 seconds"}, "trial_id": "mouselab_quiz_control", "trial_type": "survey-multi-choice", "trial_index": 6, "time_elapsed": 481022, "internal_node_id": "0.0-2.0-4.0"}}, {"uniqueid": "w59165799:a33305529", "current_trial": 7, "dateTime": 1693565141333, "trialdata": {"rt": 5988, "response": {"Q0": "No"}, "question_order": [0], "trial_id": "repeat_check", "trial_type": "survey-multi-choice", "trial_index": 7, "time_elapsed": 487013, "internal_node_id": "0.0-4.0-0.0"}}, {"uniqueid": "w59165799:a33305529", "current_trial": 8, "dateTime": 1693565158247, "trialdata": {"rt": 16910, "stimulus": "\n<h1> Get ready to start the game! </h1>\n\nThank you for reading the instructions. Get ready start with the 40 rounds of this game.\n<br><br>\nIf you need to take a break, feel free to take one after the end of a round, before continuing to the next one.\n<br><br>\nRemember, the more money the spider gets, the bigger your bonus will be!\n<br><br>\n<div style='text-align: center;'>Press <code>space</code> to begin.</div>\n\n<br><br>\n(If, at any point, the <code>space</code> key does not take you to the next page, click once on the text and try again.)", "response": " ", "trial_id": "mdp_ready", "trial_type": "html-keyboard-response", "trial_index": 8, "time_elapsed": 503927, "internal_node_id": "0.0-6.0-0.0"}}, {"uniqueid": "w59165799:a33305529", "current_trial": 9, "dateTime": 1693565179736, "trialdata": {"revealed_states": [], "clicked_states": ["1", "2", "3", "8", "9"], "num_clicks_accrued": [0, 0, 0, 0, 0, 0, 0, 0, 0, 0, 0, 0, 0], "stateRewards": ["", 1, 4, -8, -13, -13, -87, -77, -10, -44, 54, 42, 2, -3, -4, 12, -9, -80, 52, 9, 84, -2, -65, 1, -4, -5, -6, 8, 80, 32, 13, -59, -5, -13], "withholdReward": false, "trial_id": "mdp_trial_1", "block": "test", "trialIndex": 2, "score": -64, "costs": -7, "simulationMode": [null, null, null, null, null], "rewards": [1, 4, -8, -10, -44], "path": ["0", "0", "1", "2", "3", "8", "9"], "rt": [14063, 35, 78, 424, 577], "actions": ["up", "up", "up", "left", "up"], "actionTimes": [15830, 16372, 16964, 17892, 18980], "queries": {"click": {"state": {"target": ["1", "2", "3", "8", "9"], "time": [3259, 5963, 8154, 10964, 13027]}, "edge": {"target": [], "time": []}}, "mouseover": {"state": {"target": ["0", "12", "1", "2", "3", "3", "2", "3", "2", "3", "4", "8", "9", "1"], "time": [2088, 2662, 2934, 3483, 4201, 4468, 4617, 5017, 5401, 6350, 8483, 10567, 12017, 14517]}, "edge": {"target": [], "time": []}}, "mouseout": {"state": {"target": ["7", "0", "12", "1", "2", "3", "3", "2", "3", "2", "3", "4", "3", "8", "9", "1", "18", "13", "22"], "time": [583, 2360, 2815, 3400, 4100, 4334, 4533, 4934, 5367, 6234, 8467, 10400, 10550, 11768, 13984, 15000, 20350, 20417, 20484]}, "edge": {"target": [], "time": []}}}, "displayed_time": "19.52", "trialTime": 21412, "trial_type": "mouselab-mdp", "trial_index": 9, "time_elapsed": 525415, "internal_node_id": "0.0-6.0-1.0-0.0"}}, {"uniqueid": "w59165799:a33305529", "current_trial": 10, "dateTime": 1693565196392, "trialdata": {"revealed_states": [], "clicked_states": ["12", "13", "14", "19", "22"], "num_clicks_accrued": [0, 0, 0, 0, 0, 0, 0, 0, 0, 0, 0, 0, 0], "stateRewards": ["", 2, 1, -3, 7, 46, 11, -36, 16, 71, 5, 1, 2, -2, -8, -3, -4, 6, 55, 7, 68, -54, 2, 1, 1, 6, -6, 42, -4, -84, -11, -65, 63, 25], "withholdReward": false, "trial_id": "mdp_trial_2", "block": "test", "trialIndex": 3, "score": -6, "costs": -7, "simulationMode": [null, null, null, null, null, null], "rewards": [2, -2, -8, 7, 2], "path": ["0", "0", "12", "13", "14", "19", "22"], "rt": [10276, 380, 134, 156, 354, 81], "actions": ["right", "right", "right", "right", "down", "left"], "actionTimes": [11513, 11897, 12537, 13193, 14057, 14649], "queries": {"click": {"state": {"target": ["12", "13", "14", "19", "22"], "time": [1992, 4633, 6312, 8608, 10193]}, "edge": {"target": [], "time": []}}, "mouseover": {"state": {"target": ["12", "13", "0", "23", "13", "14", "19", "22", "19", "22"], "time": [1666, 2317, 3067, 3183, 3750, 5034, 6851, 8067, 8384, 9001]}, "edge": {"target": [], "time": []}}, "mouseout": {"state": {"target": ["0", "12", "13", "12", "0", "23", "12", "13", "14", "19", "22", "19"], "time": [1550, 2284, 2917, 3017, 3133, 3566, 3716, 5001, 6667, 8034, 8351, 8917]}, "edge": {"target": [], "time": []}}}, "displayed_time": "15.24", "trialTime": 16585, "trial_type": "mouselab-mdp", "trial_index": 10, "time_elapsed": 542071, "internal_node_id": "0.0-6.0-1.0-1.0"}}, {"uniqueid": "w59165799:a33305529", "current_trial": 11, "dateTime": 1693565216985, "trialdata": {"revealed_states": [], "clicked_states": ["23", "24", "25", "30", "31"], "num_clicks_accrued": [0, 0, 0, 0, 0, 0, 0, 0, 0, 0, 0, 0, 0], "stateRewards": ["", -1, -3, 4, -10, -5, 79, -87, -2, 53, 29, -20, -2, -1, -5, 10, 27, 86, 46, -16, -29, 40, 3, 2, 4, -1, -6, 37, 79, -29, 7, 86, -62, 29], "withholdReward": false, "trial_id": "mdp_trial_3", "block": "test", "trialIndex": 4, "score": 91, "costs": -7, "simulationMode": [null, null, null, null, null], "rewards": [2, 4, -1, 7, 86], "path": ["0", "0", "23", "24", "25", "30", "31"], "rt": [10828, 148, 218, 206, 195], "actions": ["left", "left", "left", "down", "right"], "actionTimes": [14888, 15527, 16247, 16951, 17639], "queries": {"click": {"state": {"target": ["23", "24", "25", "30", "31"], "time": [5870, 8032, 9648, 11349, 13044]}, "edge": {"target": [], "time": []}}, "mouseover": {"state": {"target": ["23", "24", "25", "30", "31", "31", "31"], "time": [4959, 6126, 8326, 10091, 11675, 11875, 12009]}, "edge": {"target": [], "time": []}}, "mouseout": {"state": {"target": ["22", "2", "1", "1", "0", "0", "23", "24", "25", "30", "31", "31", "30", "31"], "time": [762, 858, 2358, 2458, 2542, 4915, 6093, 8276, 9943, 11658, 11709, 11909, 11976, 19126]}, "edge": {"target": [], "time": []}}}, "displayed_time": "18.14", "trialTime": 20519, "trial_type": "mouselab-mdp", "trial_index": 11, "time_elapsed": 562664, "internal_node_id": "0.0-6.0-1.0-2.0"}}, {"uniqueid": "w59165799:a33305529", "current_trial": 12, "dateTime": 1693565244025, "trialdata": {"revealed_states": [], "clicked_states": ["1", "23", "24", "28", "25", "30", "31", "32"], "num_clicks_accrued": [0, 0, 0, 0, 0, 0, 0, 0, 0, 0, 0, 0, 0], "stateRewards": ["", 1, 2, 8, -2, 23, -69, -18, -16, 54, -21, 71, -1, -4, 7, 11, 43, -6, 88, 6, -55, 72, 43, 1, -3, -2, -1, 68, -31, -54, 4, -8, 25, -2], "withholdReward": false, "trial_id": "mdp_trial_4", "block": "test", "trialIndex": 5, "score": 13.799999999999999, "costs": -11.200000000000001, "simulationMode": [null, null, null, null, null], "rewards": [1, -3, -2, 4, 25], "path": ["0", "0", "23", "24", "25", "30", "32"], "rt": [20821, 67, 110, 104, 207], "actions": ["left", "left", "left", "down", "down"], "actionTimes": [22275, 22851, 23459, 24051, 24771], "queries": {"click": {"state": {"target": ["1", "23", "24", "28", "25", "30", "31", "32"], "time": [2966, 5147, 7243, 10242, 11987, 14873, 16915, 19290]}, "edge": {"target": [], "time": []}}, "mouseover": {"state": {"target": ["0", "1", "2", "23", "24", "25", "28", "26", "25", "25", "26", "30", "31", "32"], "time": [1830, 2063, 3547, 4880, 6697, 7780, 10013, 10680, 11447, 11697, 12297, 14564, 15530, 19113]}, "edge": {"target": [], "time": []}}, "mouseout": {"state": {"target": ["2", "7", "0", "1", "2", "23", "24", "25", "28", "26", "25", "25", "26", "25", "30", "31", "32"], "time": [646, 929, 1946, 3213, 4613, 6630, 7697, 9847, 10597, 11395, 11513, 12197, 14480, 14546, 15247, 18963, 19380]}, "edge": {"target": [], "time": []}}}, "displayed_time": "25.28", "trialTime": 26964, "trial_type": "mouselab-mdp", "trial_index": 12, "time_elapsed": 589704, "internal_node_id": "0.0-6.0-1.0-3.0"}}, {"uniqueid": "w59165799:a33305529", "current_trial": 13, "dateTime": 1693565273494, "trialdata": {"revealed_states": [], "clicked_states": ["1", "2", "7", "12", "13", "14", "19", "22", "20", "21"], "num_clicks_accrued": [0, 0, 0, 0, 0, 0, 0, 0, 0, 0, 0, 0, 0], "stateRewards": ["", -2, 3, -1, -9, 44, 48, -37, -3, 71, -39, 87, -1, 3, -4, 4, -21, 59, -15, -8, -1, 28, -38, 2, 4, 4, 8, -85, -72, -63, 14, 58, 63, -46], "withholdReward": false, "trial_id": "mdp_trial_5", "block": "test", "trialIndex": 6, "score": 4, "costs": -14.000000000000002, "simulationMode": [null, null, null, null, null], "rewards": [-1, 3, -4, -8, 28], "path": ["0", "0", "12", "13", "14", "19", "21"], "rt": [20948, 84, 74, 515, 155], "actions": ["right", "right", "right", "down", "down"], "actionTimes": [24097, 24688, 25263, 26271, 26928], "queries": {"click": {"state": {"target": ["1", "2", "7", "12", "13", "14", "19", "22", "20", "21"], "time": [4471, 6328, 8393, 10080, 11880, 13825, 15672, 17479, 19248, 20991]}, "edge": {"target": [], "time": []}}, "mouseover": {"state": {"target": ["12", "12", "1", "2", "7", "12", "0", "12", "13", "14", "19", "22", "20", "21", "19", "14"], "time": [3504, 3787, 4171, 4838, 7070, 9088, 9371, 9603, 10770, 12255, 14338, 16088, 17820, 19804, 22220, 23104]}, "edge": {"target": [], "time": []}}, "mouseout": {"state": {"target": ["13", "12", "0", "12", "12", "1", "2", "7", "7", "12", "0", "12", "13", "14", "14", "19", "22", "19", "20", "21", "19", "14", "6", "6", "7", "0"], "time": [2787, 2870, 3471, 3554, 3887, 4569, 6687, 8506, 8654, 9321, 9571, 10371, 12188, 13905, 14121, 15954, 17738, 17787, 19520, 21388, 22804, 27716, 27770, 28054, 28202, 28335]}, "edge": {"target": [], "time": []}}}, "displayed_time": "27.42", "trialTime": 29391, "trial_type": "mouselab-mdp", "trial_index": 13, "time_elapsed": 619174, "internal_node_id": "0.0-6.0-1.0-4.0"}}, {"uniqueid": "w59165799:a33305529", "current_trial": 14, "dateTime": 1693565297017, "trialdata": {"revealed_states": [], "clicked_states": ["1", "2", "23", "12", "3", "4", "5"], "num_clicks_accrued": [0, 0, 0, 0, 0, 0, 0, 0, 0, 0, 0, 0, 0], "stateRewards": ["", 2, -1, -4, -13, 74, 77, 3, 2, -43, -2, -11, 2, 3, 7, 11, -26, -29, -33, -3, -3, -13, -3, 1, 3, -7, 14, -59, 33, 9, -5, 34, 79, 68], "withholdReward": false, "trial_id": "mdp_trial_6", "block": "test", "trialIndex": 7, "score": 48.2, "costs": -9.8, "simulationMode": [null, null, null, null, null], "rewards": [2, -1, -4, -13, 74], "path": ["0", "0", "1", "2", "3", "4", "5"], "rt": [16351, 20, 1, 1435, 109], "actions": ["up", "up", "up", "right", "up"], "actionTimes": [17782, 18293, 18823, 20789, 21399], "queries": {"click": {"state": {"target": ["1", "2", "23", "12", "3", "4", "5"], "time": [2565, 4469, 6509, 8156, 11165, 12973, 14505]}, "edge": {"target": [], "time": []}}, "mouseover": {"state": {"target": ["1", "8", "2", "1", "2", "23", "23", "0", "12", "10", "2", "7", "4", "7", "3", "4", "5", "9", "8", "9", "8", "3"], "time": [1887, 2087, 2237, 2337, 2888, 4853, 5186, 6821, 6937, 9103, 9186, 9337, 9803, 10270, 10953, 11487, 13270, 15287, 15673, 16303, 16620, 16920]}, "edge": {"target": [], "time": []}}, "mouseout": {"state": {"target": ["1", "2", "3", "2", "1", "1", "8", "2", "1", "2", "23", "23", "0", "12", "10", "2", "7", "4", "7", "3", "4", "5", "9", "8", "9", "8", "3", "0"], "time": [686, 703, 886, 936, 1003, 1937, 2204, 2287, 2614, 4637, 4987, 6771, 6904, 8504, 9170, 9203, 9504, 10254, 10704, 11436, 13071, 15204, 15604, 16120, 16537, 16887, 17192, 22653]}, "edge": {"target": [], "time": []}}}, "displayed_time": "21.89", "trialTime": 23446, "trial_type": "mouselab-mdp", "trial_index": 14, "time_elapsed": 642696, "internal_node_id": "0.0-6.0-1.0-5.0"}}, {"uniqueid": "w59165799:a33305529", "current_trial": 15, "dateTime": 1693565319737, "trialdata": {"revealed_states": [], "clicked_states": ["23", "24", "28", "26", "27"], "num_clicks_accrued": [0, 0, 0, 0, 0, 0, 0, 0, 0, 0, 0, 0, 0], "stateRewards": ["", 1, 1, 4, 11, 83, -66, 18, -16, -23, 5, 25, 1, -3, 1, -12, 18, 24, -86, -11, -64, 36, 40, 2, 1, -6, 13, 55, 29, 72, -2, 81, -72, -41], "withholdReward": false, "trial_id": "mdp_trial_7", "block": "test", "trialIndex": 8, "score": 58, "costs": -7, "simulationMode": [null, null, null, null, null], "rewards": [2, 1, -6, 13, 55], "path": ["0", "0", "23", "24", "25", "26", "27"], "rt": [11038, 57, 2962, 407, 563], "actions": ["left", "left", "left", "up", "up"], "actionTimes": [13761, 14320, 17793, 18704, 19776], "queries": {"click": {"state": {"target": ["23", "24", "28", "26", "27"], "time": [4840, 6496, 8118, 9750, 11336]}, "edge": {"target": [], "time": []}}, "mouseover": {"state": {"target": ["24", "23", "24", "28", "26", "27"], "time": [3729, 4328, 5161, 6879, 8429, 10329]}, "edge": {"target": [], "time": []}}, "mouseout": {"state": {"target": ["24", "23", "24", "28", "26", "27", "27", "24", "31"], "time": [4079, 5094, 6609, 8209, 9865, 20595, 20995, 21445, 21462]}, "edge": {"target": [], "time": []}}}, "displayed_time": "20.28", "trialTime": 22641, "trial_type": "mouselab-mdp", "trial_index": 15, "time_elapsed": 665417, "internal_node_id": "0.0-6.0-1.0-6.0"}}, {"uniqueid": "w59165799:a33305529", "current_trial": 16, "dateTime": 1693565347369, "trialdata": {"revealed_states": [], "clicked_states": ["1", "12", "23", "24", "25", "30", "32", "26", "27", "28", "29"], "num_clicks_accrued": [0, 0, 0, 0, 0, 0, 0, 0, 0, 0, 0, 0, 0], "stateRewards": ["", -1, -2, -1, -10, -57, 73, -72, -16, 75, -14, -46, -2, -3, -7, -1, -61, -60, 76, -4, 50, 4, 14, 2, 2, -7, 12, -65, -32, 15, -8, -76, -25, -61], "withholdReward": false, "trial_id": "mdp_trial_8", "block": "test", "trialIndex": 9, "score": 8.599999999999998, "costs": -15.400000000000002, "simulationMode": [null, null, null, null, null], "rewards": [2, 2, -7, 12, 15], "path": ["0", "0", "23", "24", "25", "26", "29"], "rt": [21943, 93, 55, 225, 83], "actions": ["left", "left", "left", "up", "left"], "actionTimes": [23279, 23870, 24430, 25167, 25758], "queries": {"click": {"state": {"target": ["1", "12", "23", "24", "25", "30", "32", "26", "27", "28", "29"], "time": [2158, 4198, 5966, 7998, 9662, 11203, 13094, 15079, 16669, 18669, 20358]}, "edge": {"target": [], "time": []}}, "mouseover": {"state": {"target": ["12", "1", "2", "12", "12", "13", "0", "23", "24", "31", "25", "30", "32", "26", "27", "28", "29"], "time": [1757, 1939, 2623, 3056, 3840, 4439, 5089, 5306, 6324, 8489, 9140, 10157, 12223, 13623, 15438, 17972, 19056]}, "edge": {"target": [], "time": []}}, "mouseout": {"state": {"target": ["0", "12", "1", "2", "12", "12", "13", "12", "0", "23", "24", "31", "25", "25", "30", "32", "30", "26", "27", "28", "26", "29"], "time": [1728, 1790, 2488, 2923, 3539, 4405, 5041, 5073, 5173, 6189, 8356, 9073, 9759, 9989, 12073, 13273, 13323, 15150, 17423, 18855, 18989, 27007]}, "edge": {"target": [], "time": []}}}, "displayed_time": "26.27", "trialTime": 27551, "trial_type": "mouselab-mdp", "trial_index": 16, "time_elapsed": 693048, "internal_node_id": "0.0-6.0-1.0-7.0"}}, {"uniqueid": "w59165799:a33305529", "current_trial": 17, "dateTime": 1693565375961, "trialdata": {"revealed_states": [], "clicked_states": ["1", "2", "3", "4", "5", "12", "13", "14", "19", "21"], "num_clicks_accrued": [0, 0, 0, 0, 0, 0, 0, 0, 0, 0, 0, 0, 0], "stateRewards": ["", 2, -1, 8, -2, -16, 69, -39, -7, -13, -27, -86, 2, -2, 2, 13, -34, -16, -20, -5, 19, 81, 32, -2, -1, 2, -14, 20, 80, 58, 4, 70, 12, 73], "withholdReward": false, "trial_id": "mdp_trial_9", "block": "test", "trialIndex": 10, "score": 64, "costs": -14.000000000000002, "simulationMode": [null, null, null, null, null], "rewards": [2, -2, 2, -5, 81], "path": ["0", "0", "12", "13", "14", "19", "21"], "rt": [22522, 70, 78, 424, 210], "actions": ["right", "right", "right", "down", "down"], "actionTimes": [23904, 24480, 25072, 25984, 26688], "queries": {"click": {"state": {"target": ["1", "2", "3", "4", "5", "12", "13", "14", "19", "21"], "time": [2942, 4703, 6247, 8028, 11342, 13015, 14798, 16375, 18421, 20062]}, "edge": {"target": [], "time": []}}, "mouseover": {"state": {"target": ["12", "12", "1", "2", "3", "4", "5", "18", "14", "14", "12", "13", "13", "14", "19", "21", "14", "15", "18", "23", "0", "12"], "time": [2192, 2525, 2792, 3475, 5225, 6725, 8542, 11625, 11708, 12309, 12842, 13325, 13792, 15409, 16893, 18874, 21476, 21726, 22710, 22792, 23025, 23209]}, "edge": {"target": [], "time": []}}, "mouseout": {"state": {"target": ["24", "23", "12", "12", "1", "2", "3", "4", "5", "18", "14", "14", "12", "13", "13", "14", "19", "21", "19", "14", "15", "18", "23", "0"], "time": [791, 841, 2209, 2609, 3000, 4794, 6575, 8325, 11525, 11642, 11725, 12359, 13309, 13392, 15142, 16776, 18759, 20976, 21343, 21526, 22698, 22726, 23009, 23059]}, "edge": {"target": [], "time": []}}}, "displayed_time": "27.18", "trialTime": 28512, "trial_type": "mouselab-mdp", "trial_index": 17, "time_elapsed": 721640, "internal_node_id": "0.0-6.0-1.0-8.0"}}, {"uniqueid": "w59165799:a33305529", "current_trial": 18, "dateTime": 1693565407817, "trialdata": {"revealed_states": [], "clicked_states": ["1", "2", "3", "4", "5", "8", "9", "15", "14", "13", "12", "16"], "num_clicks_accrued": [0, 0, 0, 0, 0, 0, 0, 0, 0, 0, 0, 0, 0], "stateRewards": ["", -2, 1, 6, -2, -10, -78, -69, 14, -15, 7, -1, 1, -1, -2, 13, 77, 32, 87, 5, -74, 30, -26, 1, 3, 4, 12, 39, 54, -43, 2, 10, 23, 13], "withholdReward": false, "trial_id": "mdp_trial_10", "block": "test", "trialIndex": 11, "score": 71.2, "costs": -16.8, "simulationMode": [null, null, null, null, null], "rewards": [1, -1, -2, 13, 77], "path": ["0", "0", "12", "13", "14", "15", "16"], "rt": [26493, 67, 62, 55, 1], "actions": ["right", "right", "right", "up", "up"], "actionTimes": [27699, 28258, 28819, 29395, 29891], "queries": {"click": {"state": {"target": ["1", "2", "3", "4", "5", "8", "9", "15", "14", "13", "12", "16"], "time": [2203, 4945, 6898, 8873, 10745, 12618, 14289, 17274, 19314, 21067, 22946, 24778]}, "edge": {"target": [], "time": []}}, "mouseover": {"state": {"target": ["1", "2", "7", "2", "3", "4", "5", "9", "8", "9", "3", "7", "18", "15", "14", "13", "12", "18", "15", "16", "16"], "time": [1687, 2804, 4569, 4787, 5221, 7271, 9288, 11121, 11754, 13021, 16338, 16421, 16671, 16987, 17771, 19888, 21420, 23338, 23404, 23703, 23986]}, "edge": {"target": [], "time": []}}, "mouseout": {"state": {"target": ["12", "0", "1", "2", "7", "2", "3", "4", "5", "9", "8", "9", "3", "7", "18", "15", "14", "13", "12", "18", "15", "16", "16", "16", "19"], "time": [720, 1504, 2308, 4154, 4662, 5137, 7187, 9153, 11071, 11455, 12699, 16306, 16354, 16454, 16721, 17537, 19622, 21388, 23051, 23371, 23421, 23736, 24866, 26819, 31071]}, "edge": {"target": [], "time": []}}}, "displayed_time": "30.41", "trialTime": 31763, "trial_type": "mouselab-mdp", "trial_index": 18, "time_elapsed": 753496, "internal_node_id": "0.0-6.0-1.0-9.0"}}, {"uniqueid": "w59165799:a33305529", "current_trial": 19, "dateTime": 1693565437370, "trialdata": {"revealed_states": [], "clicked_states": ["1", "2", "3", "4", "5", "23", "24", "25", "30", "33", "32", "31"], "num_clicks_accrued": [0, 0, 0, 0, 0, 0, 0, 0, 0, 0, 0, 0, 0], "stateRewards": ["", -2, -1, -1, 5, -54, -87, 35, 2, -8, 20, -22, 1, 3, 6, 13, -75, -32, -55, -3, 56, 62, -22, -1, -4, -1, -7, -51, 84, 70, 7, -15, 5, 55], "withholdReward": false, "trial_id": "mdp_trial_11", "block": "test", "trialIndex": 12, "score": 39.2, "costs": -16.8, "simulationMode": [null, null, null, null, null], "rewards": [-1, -4, -1, 7, 55], "path": ["0", "0", "23", "24", "25", "30", "33"], "rt": [23564, 296, 153, 46, 91], "actions": ["left", "left", "left", "down", "left"], "actionTimes": [25324, 26140, 26796, 27340, 27932], "queries": {"click": {"state": {"target": ["1", "2", "3", "4", "5", "23", "24", "25", "30", "33", "32", "31"], "time": [3035, 4746, 6427, 8099, 10210, 12162, 13803, 15311, 16915, 18431, 21091, 22963]}, "edge": {"target": [], "time": []}}, "mouseover": {"state": {"target": ["1", "2", "3", "4", "5", "2", "24", "30", "25", "24", "23", "0", "23", "24", "25", "30", "33", "33", "32", "31"], "time": [2857, 3423, 5207, 6807, 8541, 10873, 10973, 11007, 11440, 11607, 11657, 11690, 11941, 12706, 14357, 15974, 17474, 17757, 19208, 21541]}, "edge": {"target": [], "time": []}}, "mouseout": {"state": {"target": ["0", "1", "2", "3", "4", "5", "4", "2", "24", "30", "25", "24", "23", "0", "23", "24", "25", "30", "33", "33", "32", "31"], "time": [2524, 3274, 4774, 6773, 8391, 10773, 10824, 10891, 10990, 11257, 11591, 11641, 11673, 11907, 12260, 14307, 15857, 17458, 17508, 18940, 21373, 23458]}, "edge": {"target": [], "time": []}}}, "displayed_time": "28.44", "trialTime": 29468, "trial_type": "mouselab-mdp", "trial_index": 19, "time_elapsed": 783049, "internal_node_id": "0.0-6.0-1.0-10.0"}}, {"uniqueid": "w59165799:a33305529", "current_trial": 20, "dateTime": 1693565490794, "trialdata": {"revealed_states": [], "clicked_states": ["12", "13", "14", "19", "21", "15", "16", "1", "2", "3", "4", "5", "8", "9", "11", "10", "6", "7", "23", "24", "32", "27", "17"], "num_clicks_accrued": [0, 0, 0, 0, 0, 0, 0, 0, 0, 0, 0, 0, 0], "stateRewards": ["", 2, -1, -3, 16, -3, -16, -62, -1, 13, -26, 43, -1, 4, 3, -9, -54, -37, -3, -12, -71, -68, -57, 1, -3, 2, -9, 2, -2, -9, -11, 84, -52, 55], "withholdReward": false, "trial_id": "mdp_trial_12", "block": "test", "trialIndex": 13, "score": -22.19999999999999, "costs": -32.19999999999999, "simulationMode": [null, null, null, null, null], "rewards": [2, -1, -3, -1, 13], "path": ["0", "0", "1", "2", "3", "8", "9"], "rt": [45149, 114, 1997, 102, 415], "actions": ["up", "up", "up", "left", "up"], "actionTimes": [46349, 46958, 49454, 50061, 50973], "queries": {"click": {"state": {"target": ["12", "13", "14", "19", "21", "15", "16", "1", "2", "3", "4", "5", "8", "9", "11", "10", "6", "7", "23", "24", "32", "27", "17"], "time": [2524, 4291, 5884, 7468, 9315, 11141, 12964, 14612, 16523, 18789, 20451, 21986, 23589, 25594, 27173, 28979, 30670, 32532, 34541, 37355, 38996, 41243, 43731]}, "edge": {"target": [], "time": []}}, "mouseover": {"state": {"target": ["12", "13", "14", "19", "21", "15", "16", "7", "2", "1", "2", "3", "3", "4", "4", "5", "8", "9", "11", "10", "4", "6", "7", "1", "23", "23", "24", "24", "24", "24", "25", "30", "32", "30", "25", "26", "27", "10", "2", "16", "17", "20"], "time": [2373, 2840, 4639, 6489, 8025, 9873, 11673, 13740, 13906, 14340, 14956, 16957, 17640, 19023, 19273, 20873, 23123, 24306, 26089, 27990, 29890, 30138, 31240, 32957, 33056, 33473, 34873, 36641, 36873, 37240, 37807, 38123, 38555, 39589, 39757, 40289, 40906, 43238, 43257, 43323, 43540, 44390]}, "edge": {"target": [], "time": []}}, "mouseout": {"state": {"target": ["31", "12", "13", "14", "19", "19", "21", "19", "14", "15", "16", "7", "2", "1", "2", "3", "3", "3", "4", "4", "5", "8", "9", "11", "10", "4", "6", "7", "1", "23", "23", "24", "24", "24", "24", "25", "30", "32", "30", "25", "26", "27", "10", "2", "16", "17", "20"], "time": [606, 2790, 4623, 6390, 7597, 7923, 9622, 9706, 9807, 11440, 13590, 13774, 13923, 14701, 16839, 17073, 18877, 19006, 19056, 20773, 22705, 24073, 25873, 27657, 29655, 29990, 30955, 32840, 32991, 33106, 34824, 36456, 36690, 37185, 37623, 38090, 38139, 39473, 39639, 40157, 40490, 43222, 43256, 43272, 43456, 44024, 51807]}, "edge": {"target": [], "time": []}}}, "displayed_time": "51.48", "trialTime": 53342, "trial_type": "mouselab-mdp", "trial_index": 20, "time_elapsed": 836474, "internal_node_id": "0.0-6.0-1.0-11.0"}}, {"uniqueid": "w59165799:a33305529", "current_trial": 21, "dateTime": 1693565539786, "trialdata": {"revealed_states": [], "clicked_states": ["1", "2", "4", "5", "17", "18", "21", "16", "12", "13", "14", "19", "22", "20", "32", "33", "31", "23", "24", "25", "30"], "num_clicks_accrued": [0, 0, 0, 0, 0, 0, 0, 0, 0, 0, 0, 0, 0], "stateRewards": ["", 2, -1, -1, 7, 11, -40, -22, -2, 69, 37, 8, -2, 4, -8, -12, -2, -72, -3, -12, 17, 63, 12, 1, 3, -7, 6, 25, 61, 61, -9, 28, -17, 27], "withholdReward": false, "trial_id": "mdp_trial_13", "block": "test", "trialIndex": 14, "score": -14.399999999999991, "costs": -29.399999999999988, "simulationMode": [null, null, null, null, null], "rewards": [1, 3, -7, -9, 27], "path": ["0", "0", "23", "24", "25", "30", "33"], "rt": [43300, 94, 102, 29, 73], "actions": ["left", "left", "left", "down", "left"], "actionTimes": [44633, 45241, 45849, 46376, 46968], "queries": {"click": {"state": {"target": ["1", "2", "4", "5", "17", "18", "21", "16", "12", "13", "14", "19", "22", "20", "32", "33", "31", "23", "24", "25", "30"], "time": [3264, 5049, 8305, 10470, 12247, 14024, 15968, 17817, 19592, 21232, 22811, 24600, 26296, 28025, 30296, 32608, 34592, 36640, 38424, 40279, 42177]}, "edge": {"target": [], "time": []}}, "mouseover": {"state": {"target": ["8", "2", "1", "2", "3", "4", "5", "6", "16", "17", "15", "18", "14", "19", "21", "19", "14", "15", "16", "15", "13", "12", "13", "14", "19", "22", "20", "19", "32", "30", "33", "30", "31", "25", "24", "23", "24", "25", "30", "31"], "time": [1928, 2661, 2819, 3712, 5579, 7361, 8728, 10895, 10961, 11228, 12561, 12978, 14395, 14611, 14994, 16228, 16278, 16378, 16512, 18245, 18478, 18578, 19911, 21728, 23360, 25195, 26811, 29377, 30095, 32178, 32328, 32878, 32962, 35244, 35411, 35960, 36944, 39061, 41511, 42893]}, "edge": {"target": [], "time": []}}, "mouseout": {"state": {"target": ["0", "8", "2", "1", "2", "3", "4", "5", "6", "16", "17", "15", "18", "18", "14", "19", "21", "19", "14", "15", "16", "15", "13", "12", "13", "14", "14", "19", "22", "19", "20", "20", "19", "22", "32", "30", "33", "30", "31", "25", "24", "23", "24", "25", "30", "31"], "time": [1044, 1945, 2728, 3478, 5193, 7145, 8628, 10844, 10927, 11144, 12330, 12611, 14114, 14311, 14528, 14661, 16049, 16244, 16311, 16445, 18211, 18328, 18528, 19862, 21711, 22905, 23227, 24845, 26511, 26744, 28131, 29361, 29411, 29511, 31862, 32295, 32861, 32928, 34978, 35378, 35461, 36910, 38695, 41395, 42795, 43094]}, "edge": {"target": [], "time": []}}}, "displayed_time": "47.46", "trialTime": 48905, "trial_type": "mouselab-mdp", "trial_index": 21, "time_elapsed": 885465, "internal_node_id": "0.0-6.0-1.0-12.0"}}, {"uniqueid": "w59165799:a33305529", "current_trial": 22, "dateTime": 1693565567946, "trialdata": {"revealed_states": [], "clicked_states": ["21", "1", "2", "23", "24", "25", "26", "29", "27"], "num_clicks_accrued": [0, 0, 0, 0, 0, 0, 0, 0, 0, 0, 0, 0, 0], "stateRewards": ["", -2, 2, 3, -7, -31, -33, 29, -8, -57, 50, -83, -1, -1, 5, 13, -23, -62, 25, 5, -66, -85, 14, 1, -2, -1, 16, 71, 33, -19, -14, 5, -43, 79], "withholdReward": false, "trial_id": "mdp_trial_14", "block": "test", "trialIndex": 15, "score": 72.4, "costs": -12.600000000000001, "simulationMode": [null, null, null, null, null], "rewards": [1, -2, -1, 16, 71], "path": ["0", "0", "23", "24", "25", "26", "27"], "rt": [21248, 124, 164, 184, 75], "actions": ["left", "left", "left", "up", "up"], "actionTimes": [23707, 24346, 25002, 25706, 26298], "queries": {"click": {"state": {"target": ["21", "1", "2", "23", "24", "25", "26", "29", "27"], "time": [3875, 7304, 8848, 11065, 12842, 14665, 16753, 18658, 20480]}, "edge": {"target": [], "time": []}}, "mouseover": {"state": {"target": ["18", "14", "21", "21", "19", "12", "1", "2", "3", "9", "8", "2", "1", "2", "3", "10", "23", "24", "25", "26", "29", "29", "27", "28", "23"], "time": [3138, 3321, 3422, 3705, 4504, 5605, 6104, 6188, 6255, 6371, 6638, 6871, 7121, 7654, 9270, 10172, 10438, 11620, 13204, 14971, 17187, 17637, 19905, 20905, 23205]}, "edge": {"target": [], "time": []}}, "mouseout": {"state": {"target": ["12", "0", "0", "18", "14", "21", "21", "19", "12", "1", "2", "3", "9", "8", "2", "1", "2", "3", "10", "23", "24", "25", "26", "29", "29", "27", "28"], "time": [1604, 1937, 2888, 3205, 3388, 3538, 4287, 4722, 5804, 6155, 6221, 6305, 6554, 6754, 6988, 7521, 9154, 10105, 10187, 11455, 13087, 14763, 16843, 17204, 19338, 20738, 22871]}, "edge": {"target": [], "time": []}}}, "displayed_time": "26.80", "trialTime": 28075, "trial_type": "mouselab-mdp", "trial_index": 22, "time_elapsed": 913625, "internal_node_id": "0.0-6.0-1.0-13.0"}}, {"uniqueid": "w59165799:a33305529", "current_trial": 23, "dateTime": 1693565584682, "trialdata": {"revealed_states": [], "clicked_states": ["12", "13", "14", "19", "22"], "num_clicks_accrued": [0, 0, 0, 0, 0, 0, 0, 0, 0, 0, 0, 0, 0], "stateRewards": ["", -2, -1, -3, -1, -78, -6, 2, -1, 22, -88, 32, 2, 2, -7, -8, -51, -17, 54, 2, -44, 54, 75, 2, -2, -8, -15, -29, 12, -67, 15, -1, -47, -47], "withholdReward": false, "trial_id": "mdp_trial_15", "block": "test", "trialIndex": 16, "score": 67, "costs": -7, "simulationMode": [null, null, null, null, null], "rewards": [2, 2, -7, 2, 75], "path": ["0", "0", "12", "13", "14", "19", "22"], "rt": [11234, 78, 120, 96, 7], "actions": ["right", "right", "right", "down", "left"], "actionTimes": [12645, 13236, 13876, 14484, 14980], "queries": {"click": {"state": {"target": ["12", "13", "14", "19", "22"], "time": [2491, 4244, 6020, 7843, 9745]}, "edge": {"target": [], "time": []}}, "mouseover": {"state": {"target": ["12", "13", "14", "19", "19", "19", "22", "20"], "time": [1889, 2789, 4588, 6505, 7105, 7338, 8105, 10505]}, "edge": {"target": [], "time": []}}, "mouseout": {"state": {"target": ["23", "12", "12", "13", "14", "19", "19", "19", "22", "19"], "time": [622, 1004, 2755, 4554, 6455, 6638, 7121, 8006, 10055, 10438]}, "edge": {"target": [], "time": []}}}, "displayed_time": "15.51", "trialTime": 16645, "trial_type": "mouselab-mdp", "trial_index": 23, "time_elapsed": 930361, "internal_node_id": "0.0-6.0-1.0-14.0"}}, {"uniqueid": "w59165799:a33305529", "current_trial": 24, "dateTime": 1693565618971, "trialdata": {"revealed_states": [], "clicked_states": ["12", "13", "14", "23", "24", "25", "26", "27", "32", "21", "16", "15"], "num_clicks_accrued": [0, 0, 0, 0, 0, 0, 0, 0, 0, 0, 0, 0, 0], "stateRewards": ["", -1, 1, 8, -8, -49, 62, -78, 16, 28, -81, 78, -2, -3, -1, -4, 67, 49, -2, -13, -16, -39, 83, 1, -4, 4, -5, -20, 7, 84, 7, -32, -59, 19], "withholdReward": false, "trial_id": "mdp_trial_16", "block": "test", "trialIndex": 17, "score": 40.2, "costs": -16.8, "simulationMode": [null, null, null, null, null], "rewards": [-2, -3, -1, -4, 67], "path": ["0", "0", "12", "13", "14", "15", "16"], "rt": [28697, 12, 57, 49, 123], "actions": ["right", "right", "right", "up", "up"], "actionTimes": [29964, 30491, 31067, 31611, 32251], "queries": {"click": {"state": {"target": ["12", "13", "14", "23", "24", "25", "26", "27", "32", "21", "16", "15"], "time": [3256, 4841, 6882, 8978, 10754, 12568, 14403, 16449, 19112, 21698, 23572, 27819]}, "edge": {"target": [], "time": []}}, "mouseover": {"state": {"target": ["12", "13", "14", "0", "23", "24", "23", "24", "25", "30", "26", "29", "27", "30", "32", "21", "19", "14", "15", "16", "16", "15", "14", "15"], "time": [2908, 3657, 5692, 7857, 8075, 8308, 8717, 9475, 11641, 13040, 13542, 15424, 16258, 17041, 17742, 21176, 22160, 22192, 22259, 22459, 23176, 26243, 26476, 27609]}, "edge": {"target": [], "time": []}}, "mouseout": {"state": {"target": ["20", "1", "12", "13", "14", "12", "0", "23", "24", "23", "24", "25", "30", "25", "26", "29", "27", "26", "25", "30", "32", "21", "19", "14", "15", "16", "16", "16", "15", "14"], "time": [658, 891, 3624, 5508, 7392, 7807, 7908, 8142, 8575, 9375, 11042, 12842, 13225, 13357, 14825, 16190, 16725, 16858, 16990, 17691, 21026, 22109, 22176, 22226, 22325, 23010, 23635, 25976, 26342, 26493]}, "edge": {"target": [], "time": []}}}, "displayed_time": "32.76", "trialTime": 34203, "trial_type": "mouselab-mdp", "trial_index": 24, "time_elapsed": 964650, "internal_node_id": "0.0-6.0-1.0-15.0"}}, {"uniqueid": "w59165799:a33305529", "current_trial": 25, "dateTime": 1693565758123, "trialdata": {"revealed_states": [], "clicked_states": [], "num_clicks_accrued": [0, 0, 0, 0, 0, 0, 0, 0, 0, 0, 0, 0, 0], "stateRewards": ["", -1, 4, -3, 3, 57, -61, 5, -11, 23, -1, 34, -2, -4, -1, -13, 27, 38, -36, 4, -45, 21, 88, 1, -2, -1, 1, -69, -5, -78, -12, -9, 38, -54], "withholdReward": false, "trial_id": "mdp_trial_17", "block": "test", "trialIndex": 18, "score": 7, "costs": 0, "simulationMode": [null, null, null, null, null], "rewards": [-2, -4, -1, -13, 27], "path": ["0", "0", "12", "13", "14", "15", "16"], "rt": [132555, 61, 405, 225, 148], "actions": ["right", "right", "right", "up", "up"], "actionTimes": [133736, 134295, 135191, 135911, 136567], "queries": {"click": {"state": {"target": [], "time": []}, "edge": {"target": [], "time": []}}, "mouseover": {"state": {"target": ["0", "12", "1", "2", "2", "2", "2", "23", "23", "12", "13", "19"], "time": [2517, 2951, 123718, 123751, 123906, 128467, 128701, 128768, 128984, 129301, 132501, 132617]}, "edge": {"target": [], "time": []}}, "mouseout": {"state": {"target": ["15", "18", "12", "0", "12", "1", "2", "2", "2", "2", "23", "23", "12", "13", "19"], "time": [568, 683, 816, 2601, 123668, 123734, 123817, 128451, 128501, 128735, 128784, 129067, 132467, 132534, 132767]}, "edge": {"target": [], "time": []}}}, "displayed_time": "137.09", "trialTime": 139063, "trial_type": "mouselab-mdp", "trial_index": 25, "time_elapsed": 1103802, "internal_node_id": "0.0-6.0-1.0-16.0"}}, {"uniqueid": "w59165799:a33305529", "current_trial": 26, "dateTime": 1693565774875, "trialdata": {"revealed_states": [], "clicked_states": ["12", "14", "16"], "num_clicks_accrued": [0, 0, 0, 0, 0, 0, 0, 0, 0, 0, 0, 0, 0], "stateRewards": ["", 1, 1, 1, 15, -76, 52, -32, 14, -57, 37, 49, 1, -4, -3, 6, 83, -76, 25, 9, 36, -1, -17, -1, 4, 4, -2, -22, -21, 58, -15, -57, 49, -24], "withholdReward": false, "trial_id": "mdp_trial_18", "block": "test", "trialIndex": 19, "score": 78.8, "costs": -4.199999999999999, "simulationMode": [null, null, null, null, null], "rewards": [1, -4, -3, 6, 83], "path": ["0", "0", "12", "13", "14", "15", "16"], "rt": [9338, 149, 172, 64, 122], "actions": ["right", "right", "right", "up", "up"], "actionTimes": [10697, 11369, 12041, 12601, 13225], "queries": {"click": {"state": {"target": ["12", "14", "16"], "time": [2457, 4832, 7159]}, "edge": {"target": [], "time": []}}, "mouseover": {"state": {"target": ["12", "13", "12", "13", "14", "15", "16", "16", "15", "19", "21", "13", "13"], "time": [1635, 1685, 2268, 2701, 3467, 5200, 6784, 7035, 7801, 7984, 8318, 9801, 10068]}, "edge": {"target": [], "time": []}}, "mouseout": {"state": {"target": ["22", "23", "28", "27", "27", "1", "12", "12", "0", "12", "13", "12", "13", "14", "15", "16", "16", "15", "14", "19", "21", "13", "13", "13", "15"], "time": [417, 467, 484, 517, 684, 751, 818, 984, 1217, 1651, 1735, 2635, 3034, 5085, 6751, 6851, 7701, 7850, 7934, 8167, 9735, 9851, 10134, 15001, 16068]}, "edge": {"target": [], "time": []}}}, "displayed_time": "15.36", "trialTime": 16649, "trial_type": "mouselab-mdp", "trial_index": 26, "time_elapsed": 1120554, "internal_node_id": "0.0-6.0-1.0-17.0"}}, {"uniqueid": "w59165799:a33305529", "current_trial": 27, "dateTime": 1693565794168, "trialdata": {"revealed_states": [], "clicked_states": ["16", "21", "32", "24", "25", "30"], "num_clicks_accrued": [0, 0, 0, 0, 0, 0, 0, 0, 0, 0, 0, 0, 0], "stateRewards": ["", 2, -3, -4, -1, 25, -16, 16, 10, -71, -20, -55, 1, 3, -4, -9, 1, 32, 11, -6, 32, -50, -41, -1, 4, 4, -8, 7, -81, 70, 2, -52, 45, -10], "withholdReward": false, "trial_id": "mdp_trial_19", "block": "test", "trialIndex": 20, "score": 45.6, "costs": -8.4, "simulationMode": [null, null, null, null, null], "rewards": [-1, 4, 4, 2, 45], "path": ["0", "0", "23", "24", "25", "30", "32"], "rt": [13898, 108, 134, 75, 131], "actions": ["left", "left", "left", "down", "down"], "actionTimes": [14973, 15580, 16204, 16796, 17436], "queries": {"click": {"state": {"target": ["16", "21", "32", "24", "25", "30"], "time": [2803, 4683, 6484, 9811, 11612, 13355]}, "edge": {"target": [], "time": []}}, "mouseover": {"state": {"target": ["12", "13", "15", "16", "15", "14", "19", "21", "22", "31", "32", "27", "27", "26", "24", "23", "24", "25", "30", "31"], "time": [1636, 2369, 2436, 2602, 3086, 3169, 3269, 3351, 5119, 5370, 5519, 7268, 7785, 8853, 9152, 9236, 9519, 10068, 12037, 13868]}, "edge": {"target": [], "time": []}}, "mouseout": {"state": {"target": ["13", "12", "0", "12", "13", "15", "16", "15", "14", "19", "21", "22", "31", "32", "27", "27", "26", "24", "23", "24", "25", "30", "31"], "time": [436, 485, 585, 1786, 2403, 2536, 2951, 3118, 3236, 3319, 4732, 5135, 5435, 6752, 7386, 8835, 8902, 9202, 9502, 10018, 11885, 13852, 13885]}, "edge": {"target": [], "time": []}}}, "displayed_time": "17.95", "trialTime": 19195, "trial_type": "mouselab-mdp", "trial_index": 27, "time_elapsed": 1139847, "internal_node_id": "0.0-6.0-1.0-18.0"}}, {"uniqueid": "w59165799:a33305529", "current_trial": 28, "dateTime": 1693565813323, "trialdata": {"revealed_states": [], "clicked_states": ["1", "5", "16", "21", "32", "27", "25"], "num_clicks_accrued": [0, 0, 0, 0, 0, 0, 0, 0, 0, 0, 0, 0, 0], "stateRewards": ["", 2, -4, 7, 3, 23, -42, 4, 7, -81, -33, 7, -2, -4, 5, -1, 50, -57, -14, -13, -14, 44, 55, -2, -2, 5, -2, 33, 1, 57, -13, -7, 58, 87], "withholdReward": false, "trial_id": "mdp_trial_20", "block": "test", "trialIndex": 21, "score": 36.2, "costs": -9.8, "simulationMode": [null, null, null, null, null], "rewards": [-2, -2, 5, -13, 58], "path": ["0", "0", "23", "24", "25", "30", "32"], "rt": [13847, 329, 187, 142, 227], "actions": ["left", "left", "left", "down", "down"], "actionTimes": [14539, 15370, 16058, 16698, 17434], "queries": {"click": {"state": {"target": ["1", "5", "16", "21", "32", "27", "25"], "time": [1633, 3273, 5026, 6567, 8434, 10778, 12537]}, "edge": {"target": [], "time": []}}, "mouseover": {"state": {"target": ["1", "2", "4", "5", "15", "16", "15", "14", "19", "21", "12", "0", "23", "31", "32", "30", "25", "26", "27", "27", "28", "24", "25", "24"], "time": [1204, 2069, 2805, 2886, 3805, 3937, 5304, 5387, 5453, 5570, 7421, 7470, 7504, 7555, 7637, 8754, 8821, 8937, 9303, 10621, 11338, 11471, 11688, 12854]}, "edge": {"target": [], "time": []}}, "mouseout": {"state": {"target": ["0", "1", "2", "4", "5", "15", "16", "15", "14", "19", "21", "12", "0", "23", "31", "32", "30", "25", "26", "27", "27", "27", "28", "24", "25"], "time": [419, 1986, 2754, 2820, 3620, 3887, 5270, 5354, 5437, 5524, 6937, 7437, 7487, 7521, 7587, 8671, 8804, 8887, 9136, 9521, 10851, 11204, 11420, 11554, 12821]}, "edge": {"target": [], "time": []}}}, "displayed_time": "17.92", "trialTime": 19050, "trial_type": "mouselab-mdp", "trial_index": 28, "time_elapsed": 1159002, "internal_node_id": "0.0-6.0-1.0-19.0"}}, {"uniqueid": "w59165799:a33305529", "current_trial": 29, "dateTime": 1693565835530, "trialdata": {"revealed_states": [], "clicked_states": ["16", "21", "32", "27", "25", "5", "9"], "num_clicks_accrued": [0, 0, 0, 0, 0, 0, 0, 0, 0, 0, 0, 0, 0], "stateRewards": ["", -1, -3, -6, 14, 41, 18, 63, -14, 80, 21, 17, -2, -4, -2, -5, 13, 70, 8, -4, -64, -10, -20, 2, -1, 4, -1, -17, -55, 42, -7, 47, 54, 15], "withholdReward": false, "trial_id": "mdp_trial_21", "block": "test", "trialIndex": 22, "score": 42.2, "costs": -9.8, "simulationMode": [null, null, null, null, null], "rewards": [2, -1, 4, -7, 54], "path": ["0", "0", "23", "24", "25", "30", "32"], "rt": [14970, 180, 171, 577, 167], "actions": ["left", "left", "left", "down", "down"], "actionTimes": [16308, 16995, 17667, 18739, 19396], "queries": {"click": {"state": {"target": ["16", "21", "32", "27", "25", "5", "9"], "time": [3090, 4794, 6729, 8681, 10347, 12393, 14179]}, "edge": {"target": [], "time": []}}, "mouseover": {"state": {"target": ["16", "16", "15", "14", "19", "21", "21", "32", "30", "25", "26", "27", "26", "25", "28", "10", "3", "5", "9", "8", "28", "24", "0"], "time": [2345, 2945, 3331, 3394, 3445, 3527, 4578, 5578, 7077, 7144, 7295, 7394, 9294, 9411, 10644, 10694, 10777, 11061, 13711, 14661, 14828, 14978, 15711]}, "edge": {"target": [], "time": []}}, "mouseout": {"state": {"target": ["24", "23", "0", "16", "16", "15", "14", "19", "21", "21", "32", "30", "25", "26", "27", "26", "25", "28", "10", "3", "5", "9", "8", "28", "24", "0"], "time": [811, 1011, 2011, 2461, 3278, 3360, 3410, 3478, 3711, 5211, 7011, 7111, 7178, 7328, 9261, 9361, 10610, 10679, 10728, 10911, 13112, 14628, 14695, 14877, 15045, 20952]}, "edge": {"target": [], "time": []}}}, "displayed_time": "19.91", "trialTime": 22115, "trial_type": "mouselab-mdp", "trial_index": 29, "time_elapsed": 1181209, "internal_node_id": "0.0-6.0-1.0-20.0"}}, {"uniqueid": "w59165799:a33305529", "current_trial": 30, "dateTime": 1693565851642, "trialdata": {"revealed_states": [], "clicked_states": ["13", "16", "21"], "num_clicks_accrued": [0, 0, 0, 0, 0, 0, 0, 0, 0, 0, 0, 0, 0], "stateRewards": ["", 2, 3, 6, -5, -74, -53, 17, -12, 46, 44, 18, -2, 4, 1, -8, 22, -23, -49, 9, -45, 55, 81, 1, -1, -7, -16, -83, -71, -45, 2, 51, 82, 61], "withholdReward": false, "trial_id": "mdp_trial_22", "block": "test", "trialIndex": 23, "score": 62.8, "costs": -4.199999999999999, "simulationMode": [null, null, null, null, null], "rewards": [-2, 4, 1, 9, 55], "path": ["0", "0", "12", "13", "14", "19", "21"], "rt": [7866, 159, 164, 428, 212], "actions": ["right", "right", "right", "down", "down"], "actionTimes": [9088, 9743, 10415, 11343, 12047], "queries": {"click": {"state": {"target": ["13", "16", "21"], "time": [2238, 3999, 5852]}, "edge": {"target": [], "time": []}}, "mouseover": {"state": {"target": ["12", "13", "14", "15", "16", "15", "14", "19", "21", "32"], "time": [1583, 2033, 2699, 2933, 3333, 4315, 4399, 4465, 4733, 6999]}, "edge": {"target": [], "time": []}}, "mouseout": {"state": {"target": ["0", "12", "13", "14", "15", "16", "16", "15", "14", "19", "21", "32"], "time": [1550, 1766, 2466, 2899, 3015, 4071, 4282, 4366, 4449, 4550, 6449, 8216]}, "edge": {"target": [], "time": []}}}, "displayed_time": "15.22", "trialTime": 16015, "trial_type": "mouselab-mdp", "trial_index": 30, "time_elapsed": 1197322, "internal_node_id": "0.0-6.0-1.0-21.0"}}, {"uniqueid": "w59165799:a33305529", "current_trial": 31, "dateTime": 1693565869515, "trialdata": {"revealed_states": [], "clicked_states": ["25", "27", "29", "32", "21", "16"], "num_clicks_accrued": [0, 0, 0, 0, 0, 0, 0, 0, 0, 0, 0, 0, 0], "stateRewards": ["", -2, -2, -7, -13, -10, 49, -68, -1, 84, 70, 88, 1, 4, 4, 12, -57, 25, 30, 8, -1, -77, 57, 2, 3, 2, 3, -18, -80, 23, -15, -41, 70, 11], "withholdReward": false, "trial_id": "mdp_trial_23", "block": "test", "trialIndex": 24, "score": 53.6, "costs": -8.4, "simulationMode": [null, null, null, null, null], "rewards": [2, 3, 2, -15, 70], "path": ["0", "0", "23", "24", "25", "30", "32"], "rt": [12376, 102, 140, 68, 140], "actions": ["left", "left", "left", "down", "down"], "actionTimes": [13599, 14208, 14864, 15456, 16112], "queries": {"click": {"state": {"target": ["25", "27", "29", "32", "21", "16"], "time": [2711, 4480, 6584, 8552, 10341, 12087]}, "edge": {"target": [], "time": []}}, "mouseover": {"state": {"target": ["23", "24", "25", "26", "27", "26", "30", "32", "29", "26", "24", "30", "32", "22", "21", "19", "14", "16"], "time": [1870, 2154, 2454, 3037, 3236, 5104, 5286, 5353, 6454, 6804, 6904, 7103, 7820, 8969, 9420, 10652, 10753, 11120]}, "edge": {"target": [], "time": []}}, "mouseout": {"state": {"target": ["23", "0", "0", "23", "24", "25", "26", "27", "27", "26", "25", "30", "32", "29", "26", "24", "30", "32", "22", "21", "19", "14"], "time": [587, 803, 1053, 2089, 2337, 2744, 3137, 4600, 5071, 5153, 5237, 5320, 6171, 6753, 6820, 6953, 7137, 8615, 9036, 10519, 10738, 10803]}, "edge": {"target": [], "time": []}}}, "displayed_time": "16.61", "trialTime": 17776, "trial_type": "mouselab-mdp", "trial_index": 31, "time_elapsed": 1215194, "internal_node_id": "0.0-6.0-1.0-22.0"}}, {"uniqueid": "w59165799:a33305529", "current_trial": 32, "dateTime": 1693565890075, "trialdata": {"revealed_states": [], "clicked_states": ["16", "21", "32", "27", "5", "9"], "num_clicks_accrued": [0, 0, 0, 0, 0, 0, 0, 0, 0, 0, 0, 0, 0], "stateRewards": ["", 1, 3, -2, 15, 51, 15, -19, 11, 67, -45, -73, 2, 4, -2, -13, 36, 9, -28, 10, -30, 31, 16, 1, 2, -1, -16, 14, -22, 36, -1, 88, -5, 45], "withholdReward": false, "trial_id": "mdp_trial_24", "block": "test", "trialIndex": 25, "score": 71.6, "costs": -8.4, "simulationMode": [null, null, null, null, null], "rewards": [1, 3, -2, 11, 67], "path": ["0", "0", "1", "2", "3", "8", "9"], "rt": [14247, 105, 130, 187, 110], "actions": ["up", "up", "up", "left", "up"], "actionTimes": [15200, 15808, 16431, 17120, 17744], "queries": {"click": {"state": {"target": ["16", "21", "32", "27", "5", "9"], "time": [2568, 4090, 5847, 7676, 10839, 12552]}, "edge": {"target": [], "time": []}}, "mouseover": {"state": {"target": ["18", "16", "16", "16", "15", "14", "19", "21", "32", "30", "25", "26", "27", "28", "3", "5", "9"], "time": [1466, 1716, 2075, 2432, 2832, 2915, 3015, 3281, 5116, 6199, 6298, 6431, 6982, 9932, 10414, 10599, 11866]}, "edge": {"target": [], "time": []}}, "mouseout": {"state": {"target": ["16", "15", "0", "18", "16", "16", "16", "16", "15", "14", "19", "21", "32", "30", "25", "26", "27", "27", "28", "3", "5", "9", "9", "8", "2", "1", "0"], "time": [398, 465, 1166, 1666, 1832, 2249, 2634, 2783, 2865, 2982, 3149, 4218, 6131, 6249, 6382, 6465, 7787, 9599, 9983, 10482, 10896, 12640, 19170, 19249, 19416, 19532, 19683]}, "edge": {"target": [], "time": []}}}, "displayed_time": "18.25", "trialTime": 20464, "trial_type": "mouselab-mdp", "trial_index": 32, "time_elapsed": 1235754, "internal_node_id": "0.0-6.0-1.0-23.0"}}], "questiondata": {"params": {"CODE": "C6DMOQA6", "MIN_TIME": 14, "inspectCost": 1, "startTime": "Fri Sep 01 2023 12:37:33 GMT+0200 (South Africa Standard Time)", "bonusRate": 0.002, "variance": "1_2_4_8_44", "branching": "31123"}}, "eventdata": [{"eventtype": "initialized", "value": null, "timestamp": 1693564652747, "interval": 0}, {"eventtype": "window_resize", "value": [1024, 767], "timestamp": 1693564652747, "interval": 0}, {"eventtype": "window_resize", "value": [1024, 767], "timestamp": 1693564653149, "interval": 402}, {"eventtype": "window_resize", "value": [1920, 1080], "timestamp": 1693564684952, "interval": 31803}], "useragent": "Mozilla/5.0 (Windows NT 10.0; Win64; x64) AppleWebKit/537.36 (KHTML, like Gecko) Chrome/116.0.0.0 Safari/537.36", "mode": "live", "id": "w59165799:a33305529", "status": "user data saved", "Beginhit": "2023-09-01 10:37:30.9822", "Beginexp": "2023-09-01 10:38:05.992388", "Endhit": null, "psiturkStatus": 2, "browser": "<redacted>", "platform": "windows", "language": "en-US", "excludeReason": "dataincomplete"}