{"condition": 1, "counterbalance": 0, "assignmentId": "a46553981", "workerId": "w26139069", "hitId": "h35171516", "currenttrial": 62, "bonus": 0, "data": [{"uniqueid": "w26139069:a46553981", "current_trial": 0, "dateTime": 1693480951951, "trialdata": {"success": true, "trial_type": "fullscreen", "trial_index": 0, "time_elapsed": 203974, "internal_node_id": "0.0-0.0"}}, {"uniqueid": "w26139069:a46553981", "current_trial": 1, "dateTime": 1693480965929, "trialdata": {"view_history": [{"page_index": 0, "viewing_time": 13950}], "rt": 13955, "trial_id": "exp_instructions_misaligned", "trial_type": "instructions", "trial_index": 1, "time_elapsed": 217954, "internal_node_id": "0.0-1.0"}}, {"uniqueid": "w26139069:a46553981", "current_trial": 2, "dateTime": 1693481298420, "trialdata": {"view_history": [{"page_index": 0, "viewing_time": 90345}, {"page_index": 1, "viewing_time": 152868}, {"page_index": 2, "viewing_time": 38709}, {"page_index": 3, "viewing_time": 50560}], "rt": 332484, "trial_id": "mouselab_instructions_1_misaligned", "trial_type": "instructions", "trial_index": 2, "time_elapsed": 550444, "internal_node_id": "0.0-2.0-1.0"}}, {"uniqueid": "w26139069:a46553981", "current_trial": 3, "dateTime": 1693481429392, "trialdata": {"revealed_states": [], "clicked_states": ["13", "14", "15", "17", "12", "1", "2", "10", "8", "9", "23", "24", "30", "32", "25", "26", "29", "27", "28", "19", "21", "20", "22", "18", "16", "4", "11", "7", "5", "6", "3", "31", "33"], "num_clicks_accrued": [0, 0, 0, 0, 0, 0, 0, 0, 0, 0, 0, 0, 0], "stateRewards": ["", 10, 10, -10, 10, 10, 10, -10, -10, -10, -10, -10, 10, -10, -10, 10, 10, 10, -10, -10, 10, -10, -10, 10, 10, 10, 10, -10, 10, -10, -10, 10, 10, -10], "withholdReward": false, "trial_id": "practice_1", "block": "test", "trialIndex": 0, "score": -43, "costs": -16.5, "simulationMode": [null, null, null, null, null], "rewards": [10, -10, -10, -10, -10], "path": ["0", "0", "12", "13", "14", "19", "21"], "rt": [115874, 1824, 669, 504, 525], "actions": ["right", "right", "right", "down", "down"], "actionTimes": [118862, 121180, 122357, 123358, 124397], "queries": {"click": {"state": {"target": ["13", "14", "15", "17", "12", "1", "2", "10", "8", "9", "23", "24", "30", "32", "25", "26", "29", "27", "28", "19", "21", "20", "22", "18", "16", "4", "11", "7", "5", "6", "3", "31", "33"], "time": [8959, 12558, 15236, 21773, 23379, 27764, 28823, 31349, 33753, 36101, 40551, 41920, 44210, 46124, 54505, 57285, 59455, 61383, 62944, 69224, 70492, 72997, 74596, 76416, 77573, 79240, 81980, 83884, 85608, 87307, 88849, 90352, 91419]}, "edge": {"target": [], "time": []}}, "mouseover": {"state": {"target": ["12", "13", "12", "14", "15", "17", "17", "15", "12", "15", "19", "22", "23", "1", "2", "10", "8", "9", "11", "3", "10", "28", "23", "24", "25", "30", "32", "25", "26", "25", "30", "32", "30", "25", "24", "25", "26", "29", "27", "28", "12", "22", "22", "12", "0", "12", "13", "19", "21", "22", "20", "19", "22", "13", "18", "16", "7", "4", "7", "11", "11", "8", "3", "7", "4", "5", "6", "4", "3", "10", "31", "30", "33", "32", "22", "22", "0", "1", "1", "2", "1", "2", "1", "1", "13", "13", "20", "12", "0", "0", "12"], "time": [8287, 8517, 11238, 11972, 14035, 20239, 21322, 22675, 22952, 24093, 25322, 26051, 26155, 27304, 28487, 30272, 33436, 35497, 37671, 38618, 39351, 39757, 39855, 41540, 42523, 43466, 45734, 48071, 49821, 51234, 51287, 51599, 52792, 52905, 53435, 54115, 56637, 59187, 60851, 62579, 64371, 64470, 64901, 64995, 66652, 67087, 68587, 68764, 69939, 71169, 72413, 73639, 73771, 75808, 76046, 77169, 78075, 78948, 79789, 81162, 81427, 82806, 82875, 83429, 84704, 85026, 86869, 88002, 88136, 89568, 89902, 90846, 91035, 93952, 95840, 96085, 96617, 96668, 98267, 98728, 100334, 102312, 104085, 105556, 105784, 106353, 108951, 109311, 109725, 111134, 113517]}, "edge": {"target": [], "time": []}}, "mouseout": {"state": {"target": ["0", "12", "13", "12", "13", "14", "15", "17", "17", "15", "12", "15", "19", "22", "23", "1", "2", "2", "10", "8", "9", "11", "3", "10", "28", "23", "24", "25", "30", "32", "30", "25", "26", "25", "30", "32", "30", "25", "24", "25", "26", "29", "27", "28", "12", "22", "22", "12", "0", "12", "13", "19", "21", "22", "19", "20", "19", "22", "13", "18", "16", "7", "4", "7", "11", "11", "8", "3", "7", "4", "5", "6", "4", "3", "10", "31", "30", "33", "32", "22", "22", "0", "1", "1", "2", "1", "2", "1", "1", "13", "13", "20", "12", "0", "0", "12"], "time": [7736, 8449, 11195, 11251, 11843, 13606, 20208, 20414, 22627, 22704, 24043, 24113, 25362, 26088, 27138, 28359, 29739, 30205, 33173, 35238, 37591, 38522, 39321, 39371, 39794, 41242, 42405, 43304, 45226, 47935, 48037, 49720, 51227, 51245, 51337, 52773, 52806, 53178, 54015, 56286, 59087, 60674, 62421, 63739, 64404, 64487, 64914, 65041, 66849, 68278, 68607, 69856, 71014, 71974, 72269, 73621, 73688, 75769, 75864, 76969, 77757, 78842, 79753, 80851, 81305, 82786, 82854, 82921, 84668, 84738, 86638, 87968, 88068, 89501, 89587, 90819, 90884, 93356, 93979, 95853, 96134, 96647, 97151, 98434, 100174, 102201, 103969, 104103, 105633, 105933, 106372, 108979, 109682, 109750, 113216, 116218]}, "edge": {"target": [], "time": []}}}, "displayed_time": "124.92", "trialTime": 129275, "trial_type": "mouselab-mdp", "trial_index": 3, "time_elapsed": 681415, "internal_node_id": "0.0-2.0-2.0-0.0"}}, {"uniqueid": "w26139069:a46553981", "current_trial": 4, "dateTime": 1693481453022, "trialdata": {"revealed_states": [], "clicked_states": [], "num_clicks_accrued": [0, 0, 0, 0, 0, 0, 0, 0, 0, 0, 0, 0, 0], "stateRewards": ["", 10, -10, 10, -10, 10, 10, -10, -10, 10, -10, 10, 10, 10, 10, -10, 10, -10, -10, 10, 10, -10, -10, 10, -10, 10, 10, -10, 10, 10, -10, -10, 10, 10], "withholdReward": false, "trial_id": "practice_2", "block": "test", "trialIndex": 1, "score": 13.5, "costs": 0, "simulationMode": [null, null, null, null, null], "rewards": [10, -10, 10, -10, 10], "path": ["0", "0", "1", "2", "3", "8", "11"], "rt": [4233, 3839, 1065, 1069, 868], "actions": ["up", "up", "up", "left", "left"], "actionTimes": [8038, 12401, 13995, 15612, 17059], "queries": {"click": {"state": {"target": [], "time": []}, "edge": {"target": [], "time": []}}, "mouseover": {"state": {"target": [], "time": []}, "edge": {"target": [], "time": []}}, "mouseout": {"state": {"target": ["0", "1"], "time": [10119, 10201]}, "edge": {"target": [], "time": []}}}, "displayed_time": "17.63", "trialTime": 22776, "trial_type": "mouselab-mdp", "trial_index": 4, "time_elapsed": 705045, "internal_node_id": "0.0-2.0-2.0-1.0"}}, {"uniqueid": "w26139069:a46553981", "current_trial": 5, "dateTime": 1693481546005, "trialdata": {"view_history": [{"page_index": 0, "viewing_time": 69668}, {"page_index": 1, "viewing_time": 23296}], "rt": 92966, "trial_id": "mouselab_instructions_2_misaligned", "trial_type": "instructions", "trial_index": 5, "time_elapsed": 798030, "internal_node_id": "0.0-2.0-3.0"}}, {"uniqueid": "w26139069:a46553981", "current_trial": 6, "dateTime": 1693481634572, "trialdata": {"rt": 88543, "response": {"Q0": "The cost for clicking on nodes may vary between nodes.", "Q1": "The better I perform the higher my bonus will be.", "Q2": "No, the amount of cash at each node of the web may be different each time.", "Q3": "To finish the game in the shortest amount of time.", "Q4": "Any time during the round.", "Q5": "3 seconds"}, "question_order": [0, 1, 2, 3, 4, 5], "correct": {"Q0": "The cost for clicking on nodes may vary between nodes.", "Q1": "The better I perform the higher my bonus will be.", "Q2": "No, the amount of cash at each node of the web may be different each time.", "Q3": "To get the highest total score.", "Q4": "Only before moving the spider.", "Q5": "3 seconds"}, "trial_id": "mouselab_quiz_misaligned", "trial_type": "survey-multi-choice", "trial_index": 6, "time_elapsed": 886597, "internal_node_id": "0.0-2.0-4.0"}}, {"uniqueid": "w26139069:a46553981", "current_trial": 7, "dateTime": 1693481645535, "trialdata": {"success": true, "trial_type": "fullscreen", "trial_index": 7, "time_elapsed": 897559, "internal_node_id": "0.0-2.1-0.1-0.1"}}, {"uniqueid": "w26139069:a46553981", "current_trial": 8, "dateTime": 1693481709331, "trialdata": {"view_history": [{"page_index": 0, "viewing_time": 32398}, {"page_index": 1, "viewing_time": 11150}, {"page_index": 2, "viewing_time": 13535}, {"page_index": 3, "viewing_time": 6700}], "rt": 63784, "trial_id": "mouselab_instructions_1_misaligned", "trial_type": "instructions", "trial_index": 8, "time_elapsed": 961356, "internal_node_id": "0.0-2.1-1.1"}}, {"uniqueid": "w26139069:a46553981", "current_trial": 9, "dateTime": 1693481724059, "trialdata": {"revealed_states": [], "clicked_states": [], "num_clicks_accrued": [0, 0, 0, 0, 0, 0, 0, 0, 0, 0, 0, 0, 0], "stateRewards": ["", 10, 10, -10, 10, 10, 10, -10, -10, -10, -10, -10, 10, -10, -10, 10, 10, 10, -10, -10, 10, -10, -10, 10, 10, 10, 10, -10, 10, -10, -10, 10, 10, -10], "withholdReward": false, "trial_id": "practice_1", "block": "test", "trialIndex": 2, "score": -6.5, "costs": 0, "simulationMode": [null, null, null, null, null], "rewards": [10, 10, -10, -10, -10], "path": ["0", "0", "1", "2", "3", "8", "11"], "rt": [1259, 1585, 547, 341, 334], "actions": ["up", "up", "up", "left", "left"], "actionTimes": [6852, 8990, 10074, 10968, 11853], "queries": {"click": {"state": {"target": [], "time": []}, "edge": {"target": [], "time": []}}, "mouseover": {"state": {"target": [], "time": []}, "edge": {"target": [], "time": []}}, "mouseout": {"state": {"target": ["0"], "time": [4314]}, "edge": {"target": [], "time": []}}}, "displayed_time": "12.41", "trialTime": 13931, "trial_type": "mouselab-mdp", "trial_index": 9, "time_elapsed": 976082, "internal_node_id": "0.0-2.1-2.1-0.1"}}, {"uniqueid": "w26139069:a46553981", "current_trial": 10, "dateTime": 1693481739644, "trialdata": {"revealed_states": [], "clicked_states": [], "num_clicks_accrued": [0, 0, 0, 0, 0, 0, 0, 0, 0, 0, 0, 0, 0], "stateRewards": ["", 10, -10, 10, -10, 10, 10, -10, -10, 10, -10, 10, 10, 10, 10, -10, 10, -10, -10, 10, 10, -10, -10, 10, -10, 10, 10, -10, 10, 10, -10, -10, 10, 10], "withholdReward": false, "trial_id": "practice_2", "block": "test", "trialIndex": 3, "score": 33.5, "costs": 0, "simulationMode": [null, null, null, null, null], "rewards": [10, 10, 10, 10, -10], "path": ["0", "0", "12", "13", "14", "19", "21"], "rt": [1933, 1174, 781, 330, 515], "actions": ["right", "right", "right", "down", "down"], "actionTimes": [7608, 9323, 10631, 11536, 12581], "queries": {"click": {"state": {"target": [], "time": []}, "edge": {"target": [], "time": []}}, "mouseover": {"state": {"target": [], "time": []}, "edge": {"target": [], "time": []}}, "mouseout": {"state": {"target": ["0", "12"], "time": [27, 4385]}, "edge": {"target": [], "time": []}}}, "displayed_time": "13.12", "trialTime": 14717, "trial_type": "mouselab-mdp", "trial_index": 10, "time_elapsed": 991666, "internal_node_id": "0.0-2.1-2.1-1.1"}}, {"uniqueid": "w26139069:a46553981", "current_trial": 11, "dateTime": 1693481764602, "trialdata": {"view_history": [{"page_index": 0, "viewing_time": 16663}, {"page_index": 1, "viewing_time": 8281}], "rt": 24946, "trial_id": "mouselab_instructions_2_misaligned", "trial_type": "instructions", "trial_index": 11, "time_elapsed": 1016627, "internal_node_id": "0.0-2.1-3.1"}}, {"uniqueid": "w26139069:a46553981", "current_trial": 12, "dateTime": 1693482122347, "trialdata": {"rt": 357732, "response": {"Q0": "The cost for clicking on nodes may vary between nodes.", "Q1": "The better I perform the higher my bonus will be.", "Q2": "No, the amount of cash at each node of the web may be different each time.", "Q3": "To get the highest total score.", "Q4": "Only before moving the spider.", "Q5": "3 seconds"}, "question_order": [0, 1, 2, 3, 4, 5], "correct": {"Q0": "The cost for clicking on nodes may vary between nodes.", "Q1": "The better I perform the higher my bonus will be.", "Q2": "No, the amount of cash at each node of the web may be different each time.", "Q3": "To get the highest total score.", "Q4": "Only before moving the spider.", "Q5": "3 seconds"}, "trial_id": "mouselab_quiz_misaligned", "trial_type": "survey-multi-choice", "trial_index": 12, "time_elapsed": 1374372, "internal_node_id": "0.0-2.1-4.1"}}, {"uniqueid": "w26139069:a46553981", "current_trial": 13, "dateTime": 1693482131136, "trialdata": {"rt": 8748, "response": {"Q0": "No"}, "question_order": [0], "trial_id": "repeat_check", "trial_type": "survey-multi-choice", "trial_index": 13, "time_elapsed": 1383158, "internal_node_id": "0.0-4.0-0.0"}}, {"uniqueid": "w26139069:a46553981", "current_trial": 14, "dateTime": 1693482166880, "trialdata": {"rt": 35712, "stimulus": "\n<h1> Get ready to start the game! </h1>\n\nThank you for reading the instructions. Get ready start with the 40 rounds of this game.\n<br><br>\nIf you need to take a break, feel free to take one after the end of a round, before continuing to the next one.\n<br><br>\nRemember, the more money the spider gets, the bigger your bonus will be!\n<br><br>\n<div style='text-align: center;'>Press <code>space</code> to begin.</div>\n\n<br><br>\n(If, at any point, the <code>space</code> key does not take you to the next page, click once on the text and try again.)", "response": " ", "trial_id": "mdp_ready", "trial_type": "html-keyboard-response", "trial_index": 14, "time_elapsed": 1418905, "internal_node_id": "0.0-6.0-0.0"}}, {"uniqueid": "w26139069:a46553981", "current_trial": 15, "dateTime": 1693482197139, "trialdata": {"revealed_states": [], "clicked_states": [], "num_clicks_accrued": [0, 0, 0, 0, 0, 0, 0, 0, 0, 0, 0, 0, 0], "stateRewards": ["", 1, 2, 3, 16, 63, -25, 16, -4, -14, 82, -66, -1, -3, -3, -11, -14, 19, 46, 3, -34, -82, 66, -2, -3, 4, -5, -63, 77, -37, -1, -45, -41, 84], "withholdReward": false, "trial_id": "mdp_trial_1", "block": "test", "trialIndex": 4, "score": -69, "costs": 0, "simulationMode": [null, null, null, null, null], "rewards": [-2, -3, 4, -5, -63], "path": ["0", "0", "23", "24", "25", "26", "27"], "rt": [1256, 1026, 761, 919, 246], "actions": ["left", "left", "left", "up", "up"], "actionTimes": [13737, 15311, 16588, 18065, 18866], "queries": {"click": {"state": {"target": [], "time": []}, "edge": {"target": [], "time": []}}, "mouseover": {"state": {"target": [], "time": []}, "edge": {"target": [], "time": []}}, "mouseout": {"state": {"target": ["3", "10", "1", "0"], "time": [12, 122, 622, 9436]}, "edge": {"target": [], "time": []}}}, "displayed_time": "26.48", "trialTime": 29329, "trial_type": "mouselab-mdp", "trial_index": 15, "time_elapsed": 1449163, "internal_node_id": "0.0-6.0-1.0-0.0"}}, {"uniqueid": "w26139069:a46553981", "current_trial": 16, "dateTime": 1693482218775, "trialdata": {"revealed_states": [], "clicked_states": [], "num_clicks_accrued": [0, 0, 0, 0, 0, 0, 0, 0, 0, 0, 0, 0, 0], "stateRewards": ["", -2, 1, -5, 2, -68, 80, 33, 10, 67, -59, 20, -1, -3, 3, 14, 74, -2, 24, -16, 63, 80, 46, -1, 4, 6, 12, 83, -38, -43, -4, 43, 14, -79], "withholdReward": false, "trial_id": "mdp_trial_2", "block": "test", "trialIndex": 5, "score": 63, "costs": 0, "simulationMode": [null, null, null, null, null], "rewards": [-1, -3, 3, -16, 80], "path": ["0", "0", "12", "13", "14", "19", "21"], "rt": [5402, 813, 1032, 630, 491], "actions": ["right", "right", "right", "down", "down"], "actionTimes": [10384, 11745, 13335, 14483, 15493], "queries": {"click": {"state": {"target": [], "time": []}, "edge": {"target": [], "time": []}}, "mouseover": {"state": {"target": [], "time": []}, "edge": {"target": [], "time": []}}, "mouseout": {"state": {"target": ["0", "12"], "time": [17668, 17700]}, "edge": {"target": [], "time": []}}}, "displayed_time": "18.98", "trialTime": 20735, "trial_type": "mouselab-mdp", "trial_index": 16, "time_elapsed": 1470798, "internal_node_id": "0.0-6.0-1.0-1.0"}}, {"uniqueid": "w26139069:a46553981", "current_trial": 17, "dateTime": 1693482242392, "trialdata": {"revealed_states": [], "clicked_states": [], "num_clicks_accrued": [0, 0, 0, 0, 0, 0, 0, 0, 0, 0, 0, 0, 0], "stateRewards": ["", -2, -3, 4, 1, 33, -53, 15, 9, -12, 61, -6, -2, 4, 6, -11, 47, -43, -7, -11, 46, 23, -28, -1, -1, 3, -10, 11, 76, -76, 10, 18, -38, 87], "withholdReward": false, "trial_id": "mdp_trial_3", "block": "test", "trialIndex": 6, "score": -53, "costs": 0, "simulationMode": [null, null, null, null, null], "rewards": [-2, -3, 4, 1, -53], "path": ["0", "0", "1", "2", "3", "4", "6"], "rt": [1229, 821, 571, 701, 405], "actions": ["up", "up", "up", "right", "right"], "actionTimes": [9122, 10441, 11535, 12769, 13716], "queries": {"click": {"state": {"target": [], "time": []}, "edge": {"target": [], "time": []}}, "mouseover": {"state": {"target": [], "time": []}, "edge": {"target": [], "time": []}}, "mouseout": {"state": {"target": ["14", "0"], "time": [6232, 16481]}, "edge": {"target": [], "time": []}}}, "displayed_time": "21.90", "trialTime": 22765, "trial_type": "mouselab-mdp", "trial_index": 17, "time_elapsed": 1494416, "internal_node_id": "0.0-6.0-1.0-2.0"}}, {"uniqueid": "w26139069:a46553981", "current_trial": 18, "dateTime": 1693482280589, "trialdata": {"revealed_states": [], "clicked_states": ["1", "2", "10", "3", "8", "11"], "num_clicks_accrued": [0, 0, 0, 0, 0, 0, 0, 0, 0, 0, 0, 0, 0], "stateRewards": ["", 1, -2, -8, -3, 31, -84, -55, -14, 15, -58, 17, -2, -3, 7, 7, -12, 48, 67, 4, -44, -68, 46, 2, 3, -5, -7, 76, 27, 5, 11, 57, 52, 59], "withholdReward": false, "trial_id": "mdp_trial_4", "block": "test", "trialIndex": 7, "score": 69.1, "costs": -6.9, "simulationMode": [null, null, null, null, null], "rewards": [-2, -3, 7, 7, 67], "path": ["0", "0", "12", "13", "14", "15", "18"], "rt": [21095, 2242, 378, 766, 783], "actions": ["right", "right", "right", "up", "left"], "actionTimes": [27724, 30500, 31400, 32672, 34014], "queries": {"click": {"state": {"target": ["1", "2", "10", "3", "8", "11"], "time": [8033, 10535, 12275, 15078, 16348, 18251]}, "edge": {"target": [], "time": []}}, "mouseover": {"state": {"target": ["1", "2", "10", "3", "8", "11", "3"], "time": [7630, 9266, 11881, 12897, 15969, 17984, 18888]}, "edge": {"target": [], "time": []}}, "mouseout": {"state": {"target": ["1", "1", "0", "1", "2", "10", "3", "8", "11", "3"], "time": [2644, 2848, 7451, 8952, 11648, 12796, 15770, 17836, 18882, 18919]}, "edge": {"target": [], "time": []}}}, "displayed_time": "34.55", "trialTime": 37148, "trial_type": "mouselab-mdp", "trial_index": 18, "time_elapsed": 1532612, "internal_node_id": "0.0-6.0-1.0-3.0"}}, {"uniqueid": "w26139069:a46553981", "current_trial": 19, "dateTime": 1693482299607, "trialdata": {"revealed_states": [], "clicked_states": [], "num_clicks_accrued": [0, 0, 0, 0, 0, 0, 0, 0, 0, 0, 0, 0, 0], "stateRewards": ["", -1, -3, -6, -2, -7, 80, -45, -3, -38, -72, 76, 2, 1, 7, 4, -62, 14, -74, 14, -87, -21, -88, -2, 1, -7, -10, 66, 56, -76, 10, -29, -72, -70], "withholdReward": false, "trial_id": "mdp_trial_5", "block": "test", "trialIndex": 8, "score": 28, "costs": 0, "simulationMode": [null, null, null, null, null], "rewards": [2, 1, 7, 4, 14], "path": ["0", "0", "12", "13", "14", "15", "17"], "rt": [1774, 131, 137, 526, 103], "actions": ["right", "right", "right", "up", "right"], "actionTimes": [5250, 5966, 6683, 7779, 8434], "queries": {"click": {"state": {"target": [], "time": []}, "edge": {"target": [], "time": []}}, "mouseover": {"state": {"target": [], "time": []}, "edge": {"target": [], "time": []}}, "mouseout": {"state": {"target": ["19", "14", "12", "0"], "time": [1932, 2198, 2321, 12176]}, "edge": {"target": [], "time": []}}}, "displayed_time": "17.48", "trialTime": 18123, "trial_type": "mouselab-mdp", "trial_index": 19, "time_elapsed": 1551631, "internal_node_id": "0.0-6.0-1.0-4.0"}}, {"uniqueid": "w26139069:a46553981", "current_trial": 20, "dateTime": 1693482323990, "trialdata": {"revealed_states": [], "clicked_states": ["12", "13", "14", "15", "16"], "num_clicks_accrued": [0, 0, 0, 0, 0, 0, 0, 0, 0, 0, 0, 0, 0], "stateRewards": ["", -1, 4, 3, 12, -27, 34, -33, 3, -63, 1, 6, 2, 2, -6, -11, -77, -85, 68, -6, 51, 81, -60, -2, -2, 1, 15, 20, 15, 68, -10, -14, 6, -4], "withholdReward": false, "trial_id": "mdp_trial_6", "block": "test", "trialIndex": 9, "score": 50.25, "costs": -4.75, "simulationMode": [null, null, null, null, null], "rewards": [2, 2, -6, -11, 68], "path": ["0", "0", "12", "13", "14", "15", "18"], "rt": [10696, 637, 225, 427, 2923], "actions": ["right", "right", "right", "up", "left"], "actionTimes": [14728, 15931, 16676, 17658, 21162], "queries": {"click": {"state": {"target": ["12", "13", "14", "15", "16"], "time": [5478, 7091, 7948, 9025, 9915]}, "edge": {"target": [], "time": []}}, "mouseover": {"state": {"target": ["12", "13", "14", "15", "16"], "time": [5245, 6499, 7615, 8364, 9482]}, "edge": {"target": [], "time": []}}, "mouseout": {"state": {"target": ["0", "12", "13", "14", "15", "16", "22"], "time": [5100, 6299, 7564, 8331, 9236, 11176, 22912]}, "edge": {"target": [], "time": []}}}, "displayed_time": "21.71", "trialTime": 23332, "trial_type": "mouselab-mdp", "trial_index": 20, "time_elapsed": 1576013, "internal_node_id": "0.0-6.0-1.0-5.0"}}, {"uniqueid": "w26139069:a46553981", "current_trial": 21, "dateTime": 1693482342972, "trialdata": {"revealed_states": [], "clicked_states": [], "num_clicks_accrued": [0, 0, 0, 0, 0, 0, 0, 0, 0, 0, 0, 0, 0], "stateRewards": ["", 1, 2, 8, -2, 23, -69, -18, -16, 54, -21, 71, -1, -4, 7, 11, 43, -6, 88, 6, -55, 72, 43, 1, -3, -2, -1, 68, -31, -54, 4, -8, 25, -2], "withholdReward": false, "trial_id": "mdp_trial_7", "block": "test", "trialIndex": 10, "score": -9, "costs": 0, "simulationMode": [null, null, null, null, null], "rewards": [1, 2, 8, -2, -18], "path": ["0", "0", "1", "2", "3", "4", "7"], "rt": [4847, 881, 624, 272, 274], "actions": ["up", "up", "up", "right", "down"], "actionTimes": [8479, 9884, 11025, 11858, 12642], "queries": {"click": {"state": {"target": [], "time": []}, "edge": {"target": [], "time": []}}, "mouseover": {"state": {"target": ["1"], "time": [6730]}, "edge": {"target": [], "time": []}}, "mouseout": {"state": {"target": ["0", "1"], "time": [6647, 14581]}, "edge": {"target": [], "time": []}}}, "displayed_time": "17.63", "trialTime": 18048, "trial_type": "mouselab-mdp", "trial_index": 21, "time_elapsed": 1594995, "internal_node_id": "0.0-6.0-1.0-6.0"}}, {"uniqueid": "w26139069:a46553981", "current_trial": 22, "dateTime": 1693482361574, "trialdata": {"revealed_states": [], "clicked_states": [], "num_clicks_accrued": [0, 0, 0, 0, 0, 0, 0, 0, 0, 0, 0, 0, 0], "stateRewards": ["", -2, -1, 3, -3, 71, -58, -21, 7, -10, -75, -37, 2, 4, -1, -12, -79, -29, -48, 3, -41, -10, -30, -1, -2, 1, -15, 13, 66, 22, -1, -42, -86, -55], "withholdReward": false, "trial_id": "mdp_trial_8", "block": "test", "trialIndex": 11, "score": -61, "costs": 0, "simulationMode": [null, null, null, null, null], "rewards": [-2, -1, 3, -3, -58], "path": ["0", "0", "1", "2", "3", "4", "6"], "rt": [2744, 3, 280, 129, 632], "actions": ["up", "up", "up", "right", "right"], "actionTimes": [5709, 6233, 7072, 7739, 8911], "queries": {"click": {"state": {"target": [], "time": []}, "edge": {"target": [], "time": []}}, "mouseover": {"state": {"target": [], "time": []}, "edge": {"target": [], "time": []}}, "mouseout": {"state": {"target": ["14", "13", "12", "18"], "time": [1225, 1495, 1529, 10675]}, "edge": {"target": [], "time": []}}}, "displayed_time": "16.97", "trialTime": 17438, "trial_type": "mouselab-mdp", "trial_index": 22, "time_elapsed": 1613596, "internal_node_id": "0.0-6.0-1.0-7.0"}}, {"uniqueid": "w26139069:a46553981", "current_trial": 23, "dateTime": 1693482400625, "trialdata": {"revealed_states": [], "clicked_states": ["23", "24", "25", "30", "31", "32", "33", "26", "29", "28", "27"], "num_clicks_accrued": [0, 0, 0, 0, 0, 0, 0, 0, 0, 0, 0, 0, 0], "stateRewards": ["", -2, 1, -7, 9, 8, 25, 61, -7, -17, 69, -81, 1, 4, -4, -11, 16, 67, 44, 3, 6, -45, -54, -2, 3, 6, -11, -15, 32, -47, 3, -39, -6, -88], "withholdReward": false, "trial_id": "mdp_trial_9", "block": "test", "trialIndex": 12, "score": -13.05, "costs": -17.05, "simulationMode": [null, null, null, null, null], "rewards": [-2, 3, 6, 3, -6], "path": ["0", "0", "23", "24", "25", "30", "32"], "rt": [29178, 327, 240, 269, 183], "actions": ["left", "left", "left", "down", "down"], "actionTimes": [32115, 32989, 33803, 34574, 35333], "queries": {"click": {"state": {"target": ["23", "24", "25", "30", "31", "32", "33", "26", "29", "28", "27"], "time": [3817, 5054, 5927, 6876, 7765, 11161, 14623, 17466, 18945, 22137, 26485]}, "edge": {"target": [], "time": []}}, "mouseover": {"state": {"target": ["23", "24", "25", "30", "31", "21", "32", "33", "32", "33", "26", "29", "27", "27", "28", "27"], "time": [3558, 4737, 5587, 6477, 7471, 8620, 9021, 10202, 10419, 11902, 16596, 18379, 19486, 20468, 21831, 22669]}, "edge": {"target": [], "time": []}}, "mouseout": {"state": {"target": ["0", "0", "23", "24", "25", "30", "31", "21", "32", "33", "32", "33", "26", "29", "27", "27", "28", "27"], "time": [1608, 3501, 4604, 5503, 6387, 7370, 8514, 8720, 9820, 10336, 11670, 16114, 18152, 19303, 20335, 21456, 22602, 26669]}, "edge": {"target": [], "time": []}}}, "displayed_time": "35.84", "trialTime": 37970, "trial_type": "mouselab-mdp", "trial_index": 23, "time_elapsed": 1652649, "internal_node_id": "0.0-6.0-1.0-8.0"}}, {"uniqueid": "w26139069:a46553981", "current_trial": 24, "dateTime": 1693482419219, "trialdata": {"revealed_states": [], "clicked_states": [], "num_clicks_accrued": [0, 0, 0, 0, 0, 0, 0, 0, 0, 0, 0, 0, 0], "stateRewards": ["", -1, -3, 4, -10, -5, 79, -87, -2, 53, 29, -20, -2, -1, -5, 10, 27, 86, 46, -16, -29, 40, 3, 2, 4, -1, -6, 37, 79, -29, 7, 86, -62, 29], "withholdReward": false, "trial_id": "mdp_trial_10", "block": "test", "trialIndex": 13, "score": 78, "costs": 0, "simulationMode": [null, null, null, null, null], "rewards": [2, 4, -1, -6, 79], "path": ["0", "0", "23", "24", "25", "26", "28"], "rt": [1418, 116, 190, 321, 837], "actions": ["left", "left", "left", "up", "right"], "actionTimes": [4447, 5132, 5873, 6709, 8094], "queries": {"click": {"state": {"target": [], "time": []}, "edge": {"target": [], "time": []}}, "mouseover": {"state": {"target": [], "time": []}, "edge": {"target": [], "time": []}}, "mouseout": {"state": {"target": ["22", "0", "0"], "time": [1491, 1893, 10332]}, "edge": {"target": [], "time": []}}}, "displayed_time": "17.03", "trialTime": 17581, "trial_type": "mouselab-mdp", "trial_index": 24, "time_elapsed": 1671242, "internal_node_id": "0.0-6.0-1.0-9.0"}}, {"uniqueid": "w26139069:a46553981", "current_trial": 25, "dateTime": 1693482436969, "trialdata": {"revealed_states": [], "clicked_states": [], "num_clicks_accrued": [0, 0, 0, 0, 0, 0, 0, 0, 0, 0, 0, 0, 0], "stateRewards": ["", -2, -4, 4, -11, -63, -60, -7, 2, -14, 81, -43, -1, -1, -5, 7, 10, 69, 40, 8, -83, 52, 60, 1, 2, 5, -5, 16, 64, 14, -3, 29, 7, -51], "withholdReward": false, "trial_id": "mdp_trial_11", "block": "test", "trialIndex": 14, "score": -46, "costs": 0, "simulationMode": [null, null, null, null, null], "rewards": [1, 2, 5, -3, -51], "path": ["0", "0", "23", "24", "25", "30", "33"], "rt": [1151, 185, 380, 1331, 646], "actions": ["left", "left", "left", "down", "left"], "actionTimes": [3362, 4087, 4967, 6861, 8049], "queries": {"click": {"state": {"target": [], "time": []}, "edge": {"target": [], "time": []}}, "mouseover": {"state": {"target": [], "time": []}, "edge": {"target": [], "time": []}}, "mouseout": {"state": {"target": ["0"], "time": [9382]}, "edge": {"target": [], "time": []}}}, "displayed_time": "16.22", "trialTime": 16551, "trial_type": "mouselab-mdp", "trial_index": 25, "time_elapsed": 1688992, "internal_node_id": "0.0-6.0-1.0-10.0"}}, {"uniqueid": "w26139069:a46553981", "current_trial": 26, "dateTime": 1693482455927, "trialdata": {"revealed_states": [], "clicked_states": [], "num_clicks_accrued": [0, 0, 0, 0, 0, 0, 0, 0, 0, 0, 0, 0, 0], "stateRewards": ["", -1, -3, 1, -4, -48, -63, -49, -2, -84, -19, 65, 2, -2, -2, -12, -4, 59, 9, 6, 75, 69, -13, -1, -3, -3, -2, -37, -68, -36, 13, 32, 18, -14], "withholdReward": false, "trial_id": "mdp_trial_12", "block": "test", "trialIndex": 15, "score": 38, "costs": 0, "simulationMode": [null, null, null, null, null], "rewards": [-1, -3, -3, 13, 32], "path": ["0", "0", "23", "24", "25", "30", "31"], "rt": [801, 16, 242, 341, 871], "actions": ["left", "left", "left", "down", "right"], "actionTimes": [3982, 4505, 5346, 6265, 7688], "queries": {"click": {"state": {"target": [], "time": []}, "edge": {"target": [], "time": []}}, "mouseover": {"state": {"target": [], "time": []}, "edge": {"target": [], "time": []}}, "mouseout": {"state": {"target": [], "time": []}, "edge": {"target": [], "time": []}}}, "displayed_time": "17.19", "trialTime": 17779, "trial_type": "mouselab-mdp", "trial_index": 26, "time_elapsed": 1707950, "internal_node_id": "0.0-6.0-1.0-11.0"}}, {"uniqueid": "w26139069:a46553981", "current_trial": 27, "dateTime": 1693482475094, "trialdata": {"revealed_states": [], "clicked_states": [], "num_clicks_accrued": [0, 0, 0, 0, 0, 0, 0, 0, 0, 0, 0, 0, 0], "stateRewards": ["", -2, -3, -3, 9, 79, 67, 22, -15, -56, 27, -85, -2, 4, -4, -15, -20, -32, 60, 15, 71, 57, 17, 1, 2, -8, 15, -37, -81, 82, 15, 21, -3, 2], "withholdReward": false, "trial_id": "mdp_trial_13", "block": "test", "trialIndex": 16, "score": -79, "costs": 0, "simulationMode": [null, null, null, null, null], "rewards": [-2, -3, -3, -15, -56], "path": ["0", "0", "1", "2", "3", "8", "9"], "rt": [1602, 243, 188, 555, 637], "actions": ["up", "up", "up", "left", "up"], "actionTimes": [4099, 4882, 5633, 6722, 7910], "queries": {"click": {"state": {"target": [], "time": []}, "edge": {"target": [], "time": []}}, "mouseover": {"state": {"target": [], "time": []}, "edge": {"target": [], "time": []}}, "mouseout": {"state": {"target": ["0", "31", "24"], "time": [960, 1145, 1186]}, "edge": {"target": [], "time": []}}}, "displayed_time": "16.51", "trialTime": 17880, "trial_type": "mouselab-mdp", "trial_index": 27, "time_elapsed": 1727117, "internal_node_id": "0.0-6.0-1.0-12.0"}}, {"uniqueid": "w26139069:a46553981", "current_trial": 28, "dateTime": 1693482495887, "trialdata": {"revealed_states": [], "clicked_states": [], "num_clicks_accrued": [0, 0, 0, 0, 0, 0, 0, 0, 0, 0, 0, 0, 0], "stateRewards": ["", 1, 1, -5, 10, -31, 73, 14, -8, -23, 63, -70, -1, 2, 8, 7, 25, -59, 27, -10, -40, -71, -15, -2, 3, -8, -5, -19, 77, -34, 7, 67, 63, 19], "withholdReward": false, "trial_id": "mdp_trial_14", "block": "test", "trialIndex": 17, "score": -81, "costs": 0, "simulationMode": [null, null, null, null, null], "rewards": [1, 1, -5, -8, -70], "path": ["0", "0", "1", "2", "3", "8", "11"], "rt": [1591, 205, 218, 481, 311], "actions": ["up", "up", "up", "left", "left"], "actionTimes": [3705, 4451, 5218, 6607, 7472], "queries": {"click": {"state": {"target": [], "time": []}, "edge": {"target": [], "time": []}}, "mouseover": {"state": {"target": [], "time": []}, "edge": {"target": [], "time": []}}, "mouseout": {"state": {"target": ["0"], "time": [1473]}, "edge": {"target": [], "time": []}}}, "displayed_time": "16.12", "trialTime": 19571, "trial_type": "mouselab-mdp", "trial_index": 28, "time_elapsed": 1747910, "internal_node_id": "0.0-6.0-1.0-13.0"}}, {"uniqueid": "w26139069:a46553981", "current_trial": 29, "dateTime": 1693482514496, "trialdata": {"revealed_states": [], "clicked_states": [], "num_clicks_accrued": [0, 0, 0, 0, 0, 0, 0, 0, 0, 0, 0, 0, 0], "stateRewards": ["", -2, -2, -7, -13, -10, 49, -68, -1, 84, 70, 88, 1, 4, 4, 12, -57, 25, 30, 8, -1, -77, 57, 2, 3, 2, 3, -18, -80, 23, -15, -41, 70, 11], "withholdReward": false, "trial_id": "mdp_trial_15", "block": "test", "trialIndex": 18, "score": 74, "costs": 0, "simulationMode": [null, null, null, null, null], "rewards": [1, 4, 4, 8, 57], "path": ["0", "0", "12", "13", "14", "19", "22"], "rt": [815, 145, 313, 114, 587], "actions": ["right", "right", "right", "down", "left"], "actionTimes": [3325, 4010, 4861, 5501, 6635], "queries": {"click": {"state": {"target": [], "time": []}, "edge": {"target": [], "time": []}}, "mouseover": {"state": {"target": [], "time": []}, "edge": {"target": [], "time": []}}, "mouseout": {"state": {"target": ["0"], "time": [1845]}, "edge": {"target": [], "time": []}}}, "displayed_time": "16.52", "trialTime": 17170, "trial_type": "mouselab-mdp", "trial_index": 29, "time_elapsed": 1766519, "internal_node_id": "0.0-6.0-1.0-14.0"}}, {"uniqueid": "w26139069:a46553981", "current_trial": 30, "dateTime": 1693482532609, "trialdata": {"revealed_states": [], "clicked_states": [], "num_clicks_accrued": [0, 0, 0, 0, 0, 0, 0, 0, 0, 0, 0, 0, 0], "stateRewards": ["", 2, -3, -2, 14, -4, 85, 46, 15, -28, 41, 31, -1, -1, -1, 5, 62, 79, 57, 12, -73, -64, 86, -1, 1, -3, -5, 68, 11, -32, 8, -80, -21, -56], "withholdReward": false, "trial_id": "mdp_trial_16", "block": "test", "trialIndex": 19, "score": 53, "costs": 0, "simulationMode": [null, null, null, null, null], "rewards": [2, -3, -2, 15, 41], "path": ["0", "0", "1", "2", "3", "8", "10"], "rt": [1692, 1191, 233, 478, 983], "actions": ["up", "up", "up", "left", "down"], "actionTimes": [3523, 5254, 5992, 7018, 8563], "queries": {"click": {"state": {"target": [], "time": []}, "edge": {"target": [], "time": []}}, "mouseover": {"state": {"target": [], "time": []}, "edge": {"target": [], "time": []}}, "mouseout": {"state": {"target": ["0"], "time": [1062]}, "edge": {"target": [], "time": []}}}, "displayed_time": "15.84", "trialTime": 16545, "trial_type": "mouselab-mdp", "trial_index": 30, "time_elapsed": 1784632, "internal_node_id": "0.0-6.0-1.0-15.0"}}, {"uniqueid": "w26139069:a46553981", "current_trial": 31, "dateTime": 1693482562846, "trialdata": {"revealed_states": [], "clicked_states": [], "num_clicks_accrued": [0, 0, 0, 0, 0, 0, 0, 0, 0, 0, 0, 0, 0], "stateRewards": ["", -1, -3, -3, 1, -38, 2, -53, -2, -1, -81, 70, -1, 1, -5, -9, 46, 15, 35, -1, -22, 38, 59, -2, 4, -8, 13, 1, -83, -43, 4, 76, 13, 48], "withholdReward": false, "trial_id": "mdp_trial_17", "block": "test", "trialIndex": 20, "score": 32, "costs": 0, "simulationMode": [null, null, null, null, null], "rewards": [-1, 1, -5, -1, 38], "path": ["0", "0", "12", "13", "14", "19", "21"], "rt": [650, 14, 298, 256, 229], "actions": ["right", "right", "right", "down", "down"], "actionTimes": [4252, 4829, 5717, 6492, 7264], "queries": {"click": {"state": {"target": [], "time": []}, "edge": {"target": [], "time": []}}, "mouseover": {"state": {"target": [], "time": []}, "edge": {"target": [], "time": []}}, "mouseout": {"state": {"target": ["0"], "time": [2838]}, "edge": {"target": [], "time": []}}}, "displayed_time": "17.61", "trialTime": 28892, "trial_type": "mouselab-mdp", "trial_index": 31, "time_elapsed": 1814869, "internal_node_id": "0.0-6.0-1.0-16.0"}}, {"uniqueid": "w26139069:a46553981", "current_trial": 32, "dateTime": 1693482581401, "trialdata": {"revealed_states": [], "clicked_states": [], "num_clicks_accrued": [0, 0, 0, 0, 0, 0, 0, 0, 0, 0, 0, 0, 0], "stateRewards": ["", 2, -1, 5, 6, 10, 86, 55, 10, -45, 63, -71, 1, -2, 5, -8, -50, -72, 36, 15, 61, 12, 33, -1, -4, 6, 5, 79, -56, -21, -16, -87, 60, -81], "withholdReward": false, "trial_id": "mdp_trial_18", "block": "test", "trialIndex": 21, "score": 22, "costs": 0, "simulationMode": [null, null, null, null, null], "rewards": [2, -1, 5, 6, 10], "path": ["0", "0", "1", "2", "3", "4", "5"], "rt": [2099, 64, 184, 936, 733], "actions": ["up", "up", "up", "right", "up"], "actionTimes": [4094, 4717, 5423, 6903, 8155], "queries": {"click": {"state": {"target": [], "time": []}, "edge": {"target": [], "time": []}}, "mouseover": {"state": {"target": [], "time": []}, "edge": {"target": [], "time": []}}, "mouseout": {"state": {"target": ["0"], "time": [612]}, "edge": {"target": [], "time": []}}}, "displayed_time": "16.01", "trialTime": 17082, "trial_type": "mouselab-mdp", "trial_index": 32, "time_elapsed": 1833423, "internal_node_id": "0.0-6.0-1.0-17.0"}}, {"uniqueid": "w26139069:a46553981", "current_trial": 33, "dateTime": 1693482599963, "trialdata": {"revealed_states": [], "clicked_states": [], "num_clicks_accrued": [0, 0, 0, 0, 0, 0, 0, 0, 0, 0, 0, 0, 0], "stateRewards": ["", -1, -2, 8, -6, -79, -6, 87, 9, -5, -66, -38, 2, 2, 5, -6, -82, 74, 85, -8, 67, -30, -15, 1, -2, -2, -2, 87, 64, 49, 7, 2, -38, -9], "withholdReward": false, "trial_id": "mdp_trial_19", "block": "test", "trialIndex": 22, "score": 68, "costs": 0, "simulationMode": [null, null, null, null, null], "rewards": [2, 2, 5, -8, 67], "path": ["0", "0", "12", "13", "14", "19", "20"], "rt": [2656, 131, 135, 264, 194], "actions": ["right", "right", "right", "down", "right"], "actionTimes": [4245, 4932, 5613, 6412, 7129], "queries": {"click": {"state": {"target": [], "time": []}, "edge": {"target": [], "time": []}}, "mouseover": {"state": {"target": [], "time": []}, "edge": {"target": [], "time": []}}, "mouseout": {"state": {"target": [], "time": []}, "edge": {"target": [], "time": []}}}, "displayed_time": "15.59", "trialTime": 17390, "trial_type": "mouselab-mdp", "trial_index": 33, "time_elapsed": 1851986, "internal_node_id": "0.0-6.0-1.0-18.0"}}, {"uniqueid": "w26139069:a46553981", "current_trial": 34, "dateTime": 1693482619665, "trialdata": {"revealed_states": [], "clicked_states": [], "num_clicks_accrued": [0, 0, 0, 0, 0, 0, 0, 0, 0, 0, 0, 0, 0], "stateRewards": ["", 2, -1, 3, -12, -83, 6, -33, 9, 28, 24, -50, -2, -1, -2, -5, -87, 37, 82, 12, 80, -5, 10, -2, -3, -6, 9, 22, -1, 16, 9, 77, -62, 58], "withholdReward": false, "trial_id": "mdp_trial_20", "block": "test", "trialIndex": 23, "score": 27, "costs": 0, "simulationMode": [null, null, null, null, null], "rewards": [-2, -1, -2, -5, 37], "path": ["0", "0", "12", "13", "14", "15", "17"], "rt": [1979, 161, 194, 307, 42], "actions": ["right", "right", "right", "up", "right"], "actionTimes": [3858, 4569, 5285, 6149, 6719], "queries": {"click": {"state": {"target": [], "time": []}, "edge": {"target": [], "time": []}}, "mouseover": {"state": {"target": [], "time": []}, "edge": {"target": [], "time": []}}, "mouseout": {"state": {"target": [], "time": []}, "edge": {"target": [], "time": []}}}, "displayed_time": "15.88", "trialTime": 18409, "trial_type": "mouselab-mdp", "trial_index": 34, "time_elapsed": 1871688, "internal_node_id": "0.0-6.0-1.0-19.0"}}, {"uniqueid": "w26139069:a46553981", "current_trial": 35, "dateTime": 1693482639381, "trialdata": {"revealed_states": [], "clicked_states": [], "num_clicks_accrued": [0, 0, 0, 0, 0, 0, 0, 0, 0, 0, 0, 0, 0], "stateRewards": ["", 1, 4, 5, -5, 58, -80, 75, 6, 25, -39, 46, 2, -2, 4, 2, 59, 31, -22, -12, -61, 15, 72, 1, -2, -7, 8, 77, 76, -23, -7, 71, -15, -3], "withholdReward": false, "trial_id": "mdp_trial_21", "block": "test", "trialIndex": 24, "score": -75, "costs": 0, "simulationMode": [null, null, null, null, null], "rewards": [1, 4, 5, -5, -80], "path": ["0", "0", "1", "2", "3", "4", "6"], "rt": [4182, 310, 232, 475, 1154], "actions": ["up", "up", "up", "right", "right"], "actionTimes": [6167, 6996, 7770, 8812, 10521], "queries": {"click": {"state": {"target": [], "time": []}, "edge": {"target": [], "time": []}}, "mouseover": {"state": {"target": [], "time": []}, "edge": {"target": [], "time": []}}, "mouseout": {"state": {"target": [], "time": []}, "edge": {"target": [], "time": []}}}, "displayed_time": "15.99", "trialTime": 17938, "trial_type": "mouselab-mdp", "trial_index": 35, "time_elapsed": 1891404, "internal_node_id": "0.0-6.0-1.0-20.0"}}, {"uniqueid": "w26139069:a46553981", "current_trial": 36, "dateTime": 1693482667669, "trialdata": {"revealed_states": [], "clicked_states": [], "num_clicks_accrued": [0, 0, 0, 0, 0, 0, 0, 0, 0, 0, 0, 0, 0], "stateRewards": ["", -2, -1, -2, -15, 87, 57, 29, -10, 77, -80, -7, 1, -3, 6, 14, -11, 87, -59, 4, -71, 16, -11, 2, 2, -7, 2, -47, 61, 50, 14, -20, 17, 81], "withholdReward": false, "trial_id": "mdp_trial_22", "block": "test", "trialIndex": 25, "score": 9, "costs": 0, "simulationMode": [null, null, null, null, null], "rewards": [-2, -1, -2, -15, 29], "path": ["0", "0", "1", "2", "3", "4", "7"], "rt": [3592, 429, 598, 529, 240], "actions": ["up", "up", "up", "right", "down"], "actionTimes": [10471, 11453, 12590, 13673, 14476], "queries": {"click": {"state": {"target": [], "time": []}, "edge": {"target": [], "time": []}}, "mouseover": {"state": {"target": [], "time": []}, "edge": {"target": [], "time": []}}, "mouseout": {"state": {"target": [], "time": []}, "edge": {"target": [], "time": []}}}, "displayed_time": "20.88", "trialTime": 26849, "trial_type": "mouselab-mdp", "trial_index": 36, "time_elapsed": 1919692, "internal_node_id": "0.0-6.0-1.0-21.0"}}, {"uniqueid": "w26139069:a46553981", "current_trial": 37, "dateTime": 1693482691602, "trialdata": {"revealed_states": [], "clicked_states": [], "num_clicks_accrued": [0, 0, 0, 0, 0, 0, 0, 0, 0, 0, 0, 0, 0], "stateRewards": ["", -2, -3, 7, -13, 60, 9, 37, -6, 37, 20, 1, 2, -2, -8, 6, -80, -31, -10, -7, 70, -65, -44, -1, 1, 7, 6, -11, 73, -85, 16, -21, 47, 34], "withholdReward": false, "trial_id": "mdp_trial_23", "block": "test", "trialIndex": 26, "score": 86, "costs": 0, "simulationMode": [null, null, null, null, null], "rewards": [-1, 1, 7, 6, 73], "path": ["0", "0", "23", "24", "25", "26", "28"], "rt": [2546, 130, 348, 574, 235], "actions": ["left", "left", "left", "up", "right"], "actionTimes": [10267, 10941, 11790, 12883, 13660], "queries": {"click": {"state": {"target": [], "time": []}, "edge": {"target": [], "time": []}}, "mouseover": {"state": {"target": [], "time": []}, "edge": {"target": [], "time": []}}, "mouseout": {"state": {"target": [], "time": []}, "edge": {"target": [], "time": []}}}, "displayed_time": "21.73", "trialTime": 22415, "trial_type": "mouselab-mdp", "trial_index": 37, "time_elapsed": 1943624, "internal_node_id": "0.0-6.0-1.0-22.0"}}, {"uniqueid": "w26139069:a46553981", "current_trial": 38, "dateTime": 1693482710856, "trialdata": {"revealed_states": [], "clicked_states": [], "num_clicks_accrued": [0, 0, 0, 0, 0, 0, 0, 0, 0, 0, 0, 0, 0], "stateRewards": ["", -1, 1, -5, -6, -78, 47, -13, 12, 48, -88, 20, 2, -3, -2, 13, -20, 37, -57, 14, -38, 30, 31, -2, -2, 8, 2, -23, 78, 28, 12, -74, -88, 8], "withholdReward": false, "trial_id": "mdp_trial_24", "block": "test", "trialIndex": 27, "score": -81, "costs": 0, "simulationMode": [null, null, null, null, null], "rewards": [-1, 1, -5, 12, -88], "path": ["0", "0", "1", "2", "3", "8", "10"], "rt": [5192, 216, 635, 363, 461], "actions": ["up", "up", "up", "left", "down"], "actionTimes": [7243, 7997, 9159, 10077, 11053], "queries": {"click": {"state": {"target": [], "time": []}, "edge": {"target": [], "time": []}}, "mouseover": {"state": {"target": [], "time": []}, "edge": {"target": [], "time": []}}, "mouseout": {"state": {"target": [], "time": []}, "edge": {"target": [], "time": []}}}, "displayed_time": "16.06", "trialTime": 17451, "trial_type": "mouselab-mdp", "trial_index": 38, "time_elapsed": 1962878, "internal_node_id": "0.0-6.0-1.0-23.0"}}, {"uniqueid": "w26139069:a46553981", "current_trial": 39, "dateTime": 1693482737470, "trialdata": {"revealed_states": [], "clicked_states": ["23", "24", "25"], "num_clicks_accrued": [0, 0, 0, 0, 0, 0, 0, 0, 0, 0, 0, 0, 0], "stateRewards": ["", -2, -4, -8, 8, 63, -50, -19, -7, -17, -31, 31, 1, 3, -5, 12, -35, -63, -29, -4, -17, -75, -79, -2, -3, -2, 8, -3, -85, 10, -2, -82, -82, 56], "withholdReward": false, "trial_id": "mdp_trial_25", "block": "test", "trialIndex": 28, "score": -92.05, "costs": -1.0499999999999998, "simulationMode": [null, null, null, null, null], "rewards": [-2, -3, -2, -2, -82], "path": ["0", "0", "23", "24", "25", "30", "31"], "rt": [5918, 653, 1329, 804, 440], "actions": ["left", "left", "left", "down", "right"], "actionTimes": [8752, 9941, 11795, 13159, 14123], "queries": {"click": {"state": {"target": ["23", "24", "25"], "time": [5735, 6843, 7731]}, "edge": {"target": [], "time": []}}, "mouseover": {"state": {"target": ["23", "23", "24", "25"], "time": [4986, 5380, 6498, 7420]}, "edge": {"target": [], "time": []}}, "mouseout": {"state": {"target": ["0", "23", "23", "24"], "time": [4965, 5038, 6298, 7332]}, "edge": {"target": [], "time": []}}}, "displayed_time": "16.83", "trialTime": 24846, "trial_type": "mouselab-mdp", "trial_index": 39, "time_elapsed": 1989495, "internal_node_id": "0.0-6.0-1.0-24.0"}}, {"uniqueid": "w26139069:a46553981", "current_trial": 40, "dateTime": 1693482757830, "trialdata": {"revealed_states": [], "clicked_states": [], "num_clicks_accrued": [0, 0, 0, 0, 0, 0, 0, 0, 0, 0, 0, 0, 0], "stateRewards": ["", 2, 1, -3, 7, 46, 11, -36, 16, 71, 5, 1, 2, -2, -8, -3, -4, 6, 55, 7, 68, -54, 2, 1, 1, 6, -6, 42, -4, -84, -11, -65, 63, 25], "withholdReward": false, "trial_id": "mdp_trial_26", "block": "test", "trialIndex": 29, "score": -29, "costs": 0, "simulationMode": [null, null, null, null, null], "rewards": [2, 1, -3, 7, -36], "path": ["0", "0", "1", "2", "3", "4", "7"], "rt": [1838, 34, 179, 457, 535], "actions": ["up", "up", "up", "right", "down"], "actionTimes": [5535, 6131, 6843, 7828, 8866], "queries": {"click": {"state": {"target": [], "time": []}, "edge": {"target": [], "time": []}}, "mouseover": {"state": {"target": [], "time": []}, "edge": {"target": [], "time": []}}, "mouseout": {"state": {"target": ["25", "24", "23", "0"], "time": [1908, 2008, 2257, 4658]}, "edge": {"target": [], "time": []}}}, "displayed_time": "17.71", "trialTime": 18463, "trial_type": "mouselab-mdp", "trial_index": 40, "time_elapsed": 2009852, "internal_node_id": "0.0-6.0-1.0-25.0"}}, {"uniqueid": "w26139069:a46553981", "current_trial": 41, "dateTime": 1693482780737, "trialdata": {"revealed_states": [], "clicked_states": [], "num_clicks_accrued": [0, 0, 0, 0, 0, 0, 0, 0, 0, 0, 0, 0, 0], "stateRewards": ["", 1, -2, -3, 14, -42, -87, -37, -11, -50, 33, -44, -2, 4, -7, 13, 48, -75, -66, 12, 23, -2, 82, 1, -4, 3, 12, 51, -15, -26, -11, -52, -29, 82], "withholdReward": false, "trial_id": "mdp_trial_27", "block": "test", "trialIndex": 30, "score": -32, "costs": 0, "simulationMode": [null, null, null, null, null], "rewards": [1, -2, -3, 14, -42], "path": ["0", "0", "1", "2", "3", "4", "5"], "rt": [2385, 497, 237, 698, 263], "actions": ["up", "up", "up", "right", "up"], "actionTimes": [5483, 6502, 7309, 8536, 9457], "queries": {"click": {"state": {"target": [], "time": []}, "edge": {"target": [], "time": []}}, "mouseover": {"state": {"target": [], "time": []}, "edge": {"target": [], "time": []}}, "mouseout": {"state": {"target": [], "time": []}, "edge": {"target": [], "time": []}}}, "displayed_time": "17.11", "trialTime": 21447, "trial_type": "mouselab-mdp", "trial_index": 41, "time_elapsed": 2032759, "internal_node_id": "0.0-6.0-1.0-26.0"}}, {"uniqueid": "w26139069:a46553981", "current_trial": 42, "dateTime": 1693482805084, "trialdata": {"revealed_states": [], "clicked_states": [], "num_clicks_accrued": [0, 0, 0, 0, 0, 0, 0, 0, 0, 0, 0, 0, 0], "stateRewards": ["", 2, 3, -1, 16, -78, -11, 46, 2, -20, 79, -67, 2, 3, 2, 11, -83, -42, -58, -11, -67, -22, 55, 2, -1, -1, -16, -83, -82, 23, -11, -29, 13, 13], "withholdReward": false, "trial_id": "mdp_trial_28", "block": "test", "trialIndex": 31, "score": 7, "costs": 0, "simulationMode": [null, null, null, null, null], "rewards": [2, -1, -1, -16, 23], "path": ["0", "0", "23", "24", "25", "26", "29"], "rt": [1133, 108, 302, 436, 634], "actions": ["left", "left", "left", "up", "left"], "actionTimes": [3310, 3976, 4832, 5793, 6957], "queries": {"click": {"state": {"target": [], "time": []}, "edge": {"target": [], "time": []}}, "mouseover": {"state": {"target": [], "time": []}, "edge": {"target": [], "time": []}}, "mouseout": {"state": {"target": ["0"], "time": [1364]}, "edge": {"target": [], "time": []}}}, "displayed_time": "16.18", "trialTime": 22895, "trial_type": "mouselab-mdp", "trial_index": 42, "time_elapsed": 2057107, "internal_node_id": "0.0-6.0-1.0-27.0"}}, {"uniqueid": "w26139069:a46553981", "current_trial": 43, "dateTime": 1693482824379, "trialdata": {"revealed_states": [], "clicked_states": [], "num_clicks_accrued": [0, 0, 0, 0, 0, 0, 0, 0, 0, 0, 0, 0, 0], "stateRewards": ["", -1, 3, 8, 10, -86, 61, -36, 10, 17, -60, 24, -1, -3, 3, 11, 50, 60, 33, -3, -20, 58, -6, 1, -4, -4, 13, -70, -71, 43, 14, 52, 82, -11], "withholdReward": false, "trial_id": "mdp_trial_29", "block": "test", "trialIndex": 32, "score": -65, "costs": 0, "simulationMode": [null, null, null, null, null], "rewards": [1, -4, -4, 13, -71], "path": ["0", "0", "23", "24", "25", "26", "28"], "rt": [1958, 194, 264, 717, 214], "actions": ["left", "left", "left", "up", "right"], "actionTimes": [4255, 4983, 5782, 7020, 7751], "queries": {"click": {"state": {"target": [], "time": []}, "edge": {"target": [], "time": []}}, "mouseover": {"state": {"target": [], "time": []}, "edge": {"target": [], "time": []}}, "mouseout": {"state": {"target": ["0"], "time": [1338]}, "edge": {"target": [], "time": []}}}, "displayed_time": "16.30", "trialTime": 17751, "trial_type": "mouselab-mdp", "trial_index": 43, "time_elapsed": 2076401, "internal_node_id": "0.0-6.0-1.0-28.0"}}, {"uniqueid": "w26139069:a46553981", "current_trial": 44, "dateTime": 1693482843689, "trialdata": {"revealed_states": [], "clicked_states": [], "num_clicks_accrued": [0, 0, 0, 0, 0, 0, 0, 0, 0, 0, 0, 0, 0], "stateRewards": ["", 1, 2, 7, 13, 88, -71, 27, 3, 60, 5, -53, -2, 2, -6, -1, -30, 79, 47, -4, -14, 46, 68, 1, 1, 8, 10, -14, 86, 48, -11, -67, -44, 5], "withholdReward": false, "trial_id": "mdp_trial_30", "block": "test", "trialIndex": 33, "score": -24, "costs": 0, "simulationMode": [null, null, null, null, null], "rewards": [-2, 2, -6, -4, -14], "path": ["0", "0", "12", "13", "14", "19", "20"], "rt": [507, 13, 38, 63, 145], "actions": ["right", "right", "right", "down", "right"], "actionTimes": [3595, 4134, 4723, 5332, 6046], "queries": {"click": {"state": {"target": [], "time": []}, "edge": {"target": [], "time": []}}, "mouseover": {"state": {"target": [], "time": []}, "edge": {"target": [], "time": []}}, "mouseout": {"state": {"target": ["0"], "time": [2259]}, "edge": {"target": [], "time": []}}}, "displayed_time": "17.10", "trialTime": 17816, "trial_type": "mouselab-mdp", "trial_index": 44, "time_elapsed": 2095711, "internal_node_id": "0.0-6.0-1.0-29.0"}}, {"uniqueid": "w26139069:a46553981", "current_trial": 45, "dateTime": 1693482862296, "trialdata": {"revealed_states": [], "clicked_states": [], "num_clicks_accrued": [0, 0, 0, 0, 0, 0, 0, 0, 0, 0, 0, 0, 0], "stateRewards": ["", -1, -2, -1, -10, -57, 73, -72, -16, 75, -14, -46, -2, -3, -7, -1, -61, -60, 76, -4, 50, 4, 14, 2, 2, -7, 12, -65, -32, 15, -8, -76, -25, -61], "withholdReward": false, "trial_id": "mdp_trial_31", "block": "test", "trialIndex": 34, "score": 63, "costs": 0, "simulationMode": [null, null, null, null, null], "rewards": [-2, -3, -7, -1, 76], "path": ["0", "0", "12", "13", "14", "15", "18"], "rt": [1551, 219, 270, 132, 38], "actions": ["right", "right", "right", "up", "left"], "actionTimes": [3713, 4477, 5277, 5904, 6508], "queries": {"click": {"state": {"target": [], "time": []}, "edge": {"target": [], "time": []}}, "mouseover": {"state": {"target": [], "time": []}, "edge": {"target": [], "time": []}}, "mouseout": {"state": {"target": ["0"], "time": [1362]}, "edge": {"target": [], "time": []}}}, "displayed_time": "16.16", "trialTime": 17096, "trial_type": "mouselab-mdp", "trial_index": 45, "time_elapsed": 2114319, "internal_node_id": "0.0-6.0-1.0-30.0"}}, {"uniqueid": "w26139069:a46553981", "current_trial": 46, "dateTime": 1693482879851, "trialdata": {"revealed_states": [], "clicked_states": [], "num_clicks_accrued": [0, 0, 0, 0, 0, 0, 0, 0, 0, 0, 0, 0, 0], "stateRewards": ["", 1, 1, 1, 15, -76, 52, -32, 14, -57, 37, 49, 1, -4, -3, 6, 83, -76, 25, 9, 36, -1, -17, -1, 4, 4, -2, -22, -21, 58, -15, -57, 49, -24], "withholdReward": false, "trial_id": "mdp_trial_32", "block": "test", "trialIndex": 35, "score": -76, "costs": 0, "simulationMode": [null, null, null, null, null], "rewards": [1, -4, -3, 6, -76], "path": ["0", "0", "12", "13", "14", "15", "17"], "rt": [819, 81, 157, 343, 739], "actions": ["right", "right", "right", "up", "right"], "actionTimes": [2103, 2727, 3509, 4378, 5681], "queries": {"click": {"state": {"target": [], "time": []}, "edge": {"target": [], "time": []}}, "mouseover": {"state": {"target": [], "time": []}, "edge": {"target": [], "time": []}}, "mouseout": {"state": {"target": ["0"], "time": [391]}, "edge": {"target": [], "time": []}}}, "displayed_time": "15.29", "trialTime": 16096, "trial_type": "mouselab-mdp", "trial_index": 46, "time_elapsed": 2131873, "internal_node_id": "0.0-6.0-1.0-31.0"}}, {"uniqueid": "w26139069:a46553981", "current_trial": 47, "dateTime": 1693482897700, "trialdata": {"revealed_states": [], "clicked_states": [], "num_clicks_accrued": [0, 0, 0, 0, 0, 0, 0, 0, 0, 0, 0, 0, 0], "stateRewards": ["", 1, -3, -6, -5, 47, 80, -29, 11, -71, 10, -29, -2, 3, -6, 12, 2, -78, -6, 8, 34, -16, -5, -1, 3, 3, -13, 84, -36, -62, -3, -27, 66, 15], "withholdReward": false, "trial_id": "mdp_trial_33", "block": "test", "trialIndex": 36, "score": -26, "costs": 0, "simulationMode": [null, null, null, null, null], "rewards": [1, -3, -6, 11, -29], "path": ["0", "0", "1", "2", "3", "8", "11"], "rt": [928, 27, 14, 431, 669], "actions": ["up", "up", "up", "left", "left"], "actionTimes": [2776, 3311, 3882, 4865, 6069], "queries": {"click": {"state": {"target": [], "time": []}, "edge": {"target": [], "time": []}}, "mouseover": {"state": {"target": [], "time": []}, "edge": {"target": [], "time": []}}, "mouseout": {"state": {"target": ["0"], "time": [1027]}, "edge": {"target": [], "time": []}}}, "displayed_time": "15.86", "trialTime": 16380, "trial_type": "mouselab-mdp", "trial_index": 47, "time_elapsed": 2149723, "internal_node_id": "0.0-6.0-1.0-32.0"}}, {"uniqueid": "w26139069:a46553981", "current_trial": 48, "dateTime": 1693482916972, "trialdata": {"revealed_states": [], "clicked_states": [], "num_clicks_accrued": [0, 0, 0, 0, 0, 0, 0, 0, 0, 0, 0, 0, 0], "stateRewards": ["", -2, -4, -2, 10, -8, -15, -47, 7, -84, 53, 5, -1, 2, -7, 3, 83, 31, 47, -1, 30, -8, 69, 2, -4, -1, 8, -7, 12, -8, -8, -13, 30, -84], "withholdReward": false, "trial_id": "mdp_trial_34", "block": "test", "trialIndex": 37, "score": 28, "costs": 0, "simulationMode": [null, null, null, null, null], "rewards": [-1, 2, -7, 3, 31], "path": ["0", "0", "12", "13", "14", "15", "17"], "rt": [2108, 115, 113, 247, 691], "actions": ["right", "right", "right", "up", "right"], "actionTimes": [3788, 4449, 5095, 5914, 7125], "queries": {"click": {"state": {"target": [], "time": []}, "edge": {"target": [], "time": []}}, "mouseover": {"state": {"target": [], "time": []}, "edge": {"target": [], "time": []}}, "mouseout": {"state": {"target": ["0"], "time": [388]}, "edge": {"target": [], "time": []}}}, "displayed_time": "15.69", "trialTime": 17848, "trial_type": "mouselab-mdp", "trial_index": 48, "time_elapsed": 2168994, "internal_node_id": "0.0-6.0-1.0-33.0"}}, {"uniqueid": "w26139069:a46553981", "current_trial": 49, "dateTime": 1693482936019, "trialdata": {"revealed_states": [], "clicked_states": [], "num_clicks_accrued": [0, 0, 0, 0, 0, 0, 0, 0, 0, 0, 0, 0, 0], "stateRewards": ["", -2, -2, -3, -6, -15, -11, 41, -12, -63, -76, 2, -2, -3, 8, 9, -36, -2, -18, -16, -32, -85, -17, -2, 1, 5, -16, 82, 35, -88, -1, 80, -82, -20], "withholdReward": false, "trial_id": "mdp_trial_35", "block": "test", "trialIndex": 38, "score": -45, "costs": 0, "simulationMode": [null, null, null, null, null], "rewards": [-2, -3, 8, -16, -32], "path": ["0", "0", "12", "13", "14", "19", "20"], "rt": [1722, 689, 206, 174, 281], "actions": ["right", "right", "right", "down", "right"], "actionTimes": [3235, 4467, 5242, 5939, 6751], "queries": {"click": {"state": {"target": [], "time": []}, "edge": {"target": [], "time": []}}, "mouseover": {"state": {"target": [], "time": []}, "edge": {"target": [], "time": []}}, "mouseout": {"state": {"target": ["0"], "time": [417]}, "edge": {"target": [], "time": []}}}, "displayed_time": "15.52", "trialTime": 17544, "trial_type": "mouselab-mdp", "trial_index": 49, "time_elapsed": 2188042, "internal_node_id": "0.0-6.0-1.0-34.0"}}, {"uniqueid": "w26139069:a46553981", "current_trial": 50, "dateTime": 1693482955570, "trialdata": {"revealed_states": [], "clicked_states": [], "num_clicks_accrued": [0, 0, 0, 0, 0, 0, 0, 0, 0, 0, 0, 0, 0], "stateRewards": ["", -1, 4, -5, 9, 29, -75, -42, -16, 24, -28, -41, 2, -3, 1, 10, 60, 47, 55, -1, -53, 22, -40, 2, -3, -6, 4, -26, 44, 54, 15, -76, 42, 14], "withholdReward": false, "trial_id": "mdp_trial_36", "block": "test", "trialIndex": 39, "score": -68, "costs": 0, "simulationMode": [null, null, null, null, null], "rewards": [2, -3, -6, 15, -76], "path": ["0", "0", "23", "24", "25", "30", "31"], "rt": [1349, 40, 95, 433, 532], "actions": ["left", "left", "left", "down", "right"], "actionTimes": [2626, 3187, 3838, 4839, 5895], "queries": {"click": {"state": {"target": [], "time": []}, "edge": {"target": [], "time": []}}, "mouseover": {"state": {"target": [], "time": []}, "edge": {"target": [], "time": []}}, "mouseout": {"state": {"target": ["0"], "time": [124]}, "edge": {"target": [], "time": []}}}, "displayed_time": "15.29", "trialTime": 17995, "trial_type": "mouselab-mdp", "trial_index": 50, "time_elapsed": 2207592, "internal_node_id": "0.0-6.0-1.0-35.0"}}, {"uniqueid": "w26139069:a46553981", "current_trial": 51, "dateTime": 1693482974499, "trialdata": {"revealed_states": [], "clicked_states": [], "num_clicks_accrued": [0, 0, 0, 0, 0, 0, 0, 0, 0, 0, 0, 0, 0], "stateRewards": ["", 1, 2, -5, 14, 54, -14, -25, 16, -5, -87, 78, -1, 1, 3, -3, 52, 53, 53, -10, 73, -69, -48, 2, 3, 1, 8, -62, -7, 85, 7, 82, 52, -28], "withholdReward": false, "trial_id": "mdp_trial_37", "block": "test", "trialIndex": 40, "score": 9, "costs": 0, "simulationMode": [null, null, null, null, null], "rewards": [1, 2, -5, 16, -5], "path": ["0", "0", "1", "2", "3", "8", "9"], "rt": [809, 135, 264, 799, 609], "actions": ["up", "up", "up", "left", "up"], "actionTimes": [3373, 4021, 4850, 6185, 7312], "queries": {"click": {"state": {"target": [], "time": []}, "edge": {"target": [], "time": []}}, "mouseover": {"state": {"target": [], "time": []}, "edge": {"target": [], "time": []}}, "mouseout": {"state": {"target": ["0"], "time": [1672]}, "edge": {"target": [], "time": []}}}, "displayed_time": "16.57", "trialTime": 17099, "trial_type": "mouselab-mdp", "trial_index": 51, "time_elapsed": 2226521, "internal_node_id": "0.0-6.0-1.0-36.0"}}, {"uniqueid": "w26139069:a46553981", "current_trial": 52, "dateTime": 1693482998101, "trialdata": {"revealed_states": [], "clicked_states": [], "num_clicks_accrued": [0, 0, 0, 0, 0, 0, 0, 0, 0, 0, 0, 0, 0], "stateRewards": ["", -2, 3, -1, 2, -72, 63, 20, -1, 62, -66, 39, -2, 3, -6, 14, 22, 47, 1, 8, -49, -1, -41, 2, 2, -6, -16, -64, -60, -34, 16, 54, 22, -7], "withholdReward": false, "trial_id": "mdp_trial_38", "block": "test", "trialIndex": 41, "score": 22, "costs": 0, "simulationMode": [null, null, null, null, null], "rewards": [-2, 3, -1, 2, 20], "path": ["0", "0", "1", "2", "3", "4", "7"], "rt": [1572, 277, 149, 230, 556], "actions": ["up", "up", "up", "right", "down"], "actionTimes": [6852, 7665, 8331, 9084, 10214], "queries": {"click": {"state": {"target": [], "time": []}, "edge": {"target": [], "time": []}}, "mouseover": {"state": {"target": [], "time": []}, "edge": {"target": [], "time": []}}, "mouseout": {"state": {"target": ["0"], "time": [4379]}, "edge": {"target": [], "time": []}}}, "displayed_time": "19.29", "trialTime": 21437, "trial_type": "mouselab-mdp", "trial_index": 52, "time_elapsed": 2250124, "internal_node_id": "0.0-6.0-1.0-37.0"}}, {"uniqueid": "w26139069:a46553981", "current_trial": 53, "dateTime": 1693483018213, "trialdata": {"revealed_states": [], "clicked_states": [], "num_clicks_accrued": [0, 0, 0, 0, 0, 0, 0, 0, 0, 0, 0, 0, 0], "stateRewards": ["", -1, -1, 4, -16, -75, 81, -51, -7, -84, 73, -30, -2, 1, -3, -16, -77, 33, 14, 1, 45, 87, -66, 2, 2, -5, -7, -19, -17, 79, -3, 8, 49, 47], "withholdReward": false, "trial_id": "mdp_trial_39", "block": "test", "trialIndex": 42, "score": -89, "costs": 0, "simulationMode": [null, null, null, null, null], "rewards": [-1, -1, 4, -16, -75], "path": ["0", "0", "1", "2", "3", "4", "5"], "rt": [1533, 54, 246, 396, 446], "actions": ["up", "up", "up", "right", "up"], "actionTimes": [4260, 4828, 5617, 6519, 7523], "queries": {"click": {"state": {"target": [], "time": []}, "edge": {"target": [], "time": []}}, "mouseover": {"state": {"target": [], "time": []}, "edge": {"target": [], "time": []}}, "mouseout": {"state": {"target": ["0"], "time": [1886]}, "edge": {"target": [], "time": []}}}, "displayed_time": "16.73", "trialTime": 18268, "trial_type": "mouselab-mdp", "trial_index": 53, "time_elapsed": 2270236, "internal_node_id": "0.0-6.0-1.0-38.0"}}, {"uniqueid": "w26139069:a46553981", "current_trial": 54, "dateTime": 1693483036616, "trialdata": {"revealed_states": [], "clicked_states": [], "num_clicks_accrued": [0, 0, 0, 0, 0, 0, 0, 0, 0, 0, 0, 0, 0], "stateRewards": ["", -1, -4, -6, -15, 21, -67, -63, 9, 51, 69, -14, -1, 3, 8, -8, 39, 72, 63, 15, 19, 47, 15, 1, 4, 5, 16, -18, 34, 35, -14, -80, 40, 1], "withholdReward": false, "trial_id": "mdp_trial_40", "block": "test", "trialIndex": 43, "score": 72, "costs": 0, "simulationMode": [null, null, null, null, null], "rewards": [-1, 3, 8, 15, 47], "path": ["0", "0", "12", "13", "14", "19", "21"], "rt": [837, 34, 10, 382, 674], "actions": ["right", "right", "right", "down", "down"], "actionTimes": [2742, 3338, 3911, 4865, 6059], "queries": {"click": {"state": {"target": [], "time": []}, "edge": {"target": [], "time": []}}, "mouseover": {"state": {"target": [], "time": []}, "edge": {"target": [], "time": []}}, "mouseout": {"state": {"target": ["0"], "time": [888]}, "edge": {"target": [], "time": []}}}, "displayed_time": "15.91", "trialTime": 16417, "trial_type": "mouselab-mdp", "trial_index": 54, "time_elapsed": 2288639, "internal_node_id": "0.0-6.0-1.0-39.0"}}, {"uniqueid": "w26139069:a46553981", "current_trial": 55, "dateTime": 1693483128813, "trialdata": {"rt": 92139, "response": {"Q0": "$-88 to $88", "Q1": "$-16 to $16", "Q2": "$-88 to $88", "Q3": "The cost for clicking on nodes varied between nodes.", "Q4": "Very unmotivated"}, "question_order": [0, 1, 2, 3, 4], "trial_id": "final_quiz_control", "trial_type": "survey-multi-choice", "trial_index": 55, "time_elapsed": 2380837, "internal_node_id": "0.0-6.0-2.0"}}, {"uniqueid": "w26139069:a46553981", "current_trial": 56, "dateTime": 1693483171332, "trialdata": {"rt": 42479, "response": {"Q0": "No strategy used", "Q1": "No", "Q2": "I did not try to change anything so there was no difficulty"}, "trial_id": "self_report_control", "trial_type": "survey-text", "trial_index": 56, "time_elapsed": 2423357, "internal_node_id": "0.0-6.0-3.0"}}, {"uniqueid": "w26139069:a46553981", "current_trial": 57, "dateTime": 1693483247383, "trialdata": {"rt": 76007, "response": {"Q0": "Neither disagree nor agree", "Q1": "Strongly disagree", "Q2": "Strongly agree", "Q3": "Neither disagree nor agree", "Q4": "Neither disagree nor agree", "Q5": "Strongly disagree", "Q6": "Strongly agree"}, "question_order": [0, 1, 2, 3, 4, 5, 6], "trial_id": "self_report_2", "trial_type": "survey-multi-choice", "trial_index": 57, "time_elapsed": 2499408, "internal_node_id": "0.0-6.0-4.0"}}, {"uniqueid": "w26139069:a46553981", "current_trial": 58, "dateTime": 1693483279574, "trialdata": {"rt": 32146, "response": {"gender": "female", "age": "30", "colorblind": "0", "effort": "1"}, "trial_type": "survey-html-form", "trial_index": 58, "time_elapsed": 2531599, "internal_node_id": "0.0-6.0-5.0"}}, {"uniqueid": "w26139069:a46553981", "current_trial": 59, "dateTime": 1693483310227, "trialdata": {"rt": 30590, "response": {"Q0": "No", "Q1": "No", "Q2": "None"}, "trial_type": "survey-text", "trial_index": 59, "time_elapsed": 2562251, "internal_node_id": "0.0-6.0-6.0"}}, {"uniqueid": "w26139069:a46553981", "current_trial": 60, "dateTime": 1693483350030, "trialdata": {"rt": 39755, "stimulus": "<h1>Completion Code Instructions (1/2)</h1>\n<br><br><br><br>\nYou have reached the end of the experiment! The completion code consists of two parts: (1) a code with 2 characters (2) a code with 6 characters. On this page, you will receive the second part of the code. The first part of the completion code will be on the next page.\n<br><br>\nThe second part of your completion code is: <b>EWEK22</b>\n<br><br>\nPlease note this down. Then, press 'Finish HIT' in order to find the first part of your completion code. Once the data has been saved, you will receive this code either in this window or in the original browser window where you started the experiment.\n", "response": 0, "trial_type": "html-button-response", "trial_index": 60, "time_elapsed": 2602055, "internal_node_id": "0.0-6.0-7.0"}}, {"uniqueid": "w26139069:a46553981", "current_trial": 61, "dateTime": 1693483351065, "trialdata": {"success": true, "trial_type": "fullscreen", "trial_index": 61, "time_elapsed": 2603090, "internal_node_id": "0.0-7.0"}}], "questiondata": {"params": {"CODE": "C6DMOQA6", "MIN_TIME": 14, "inspectCost": 1, "startTime": "Thu Aug 31 2023 13:19:04 GMT+0200 (South Africa Standard Time)", "bonusRate": 0.002, "variance": "1_2_4_8_44", "branching": "31123"}, "final_score": -214.75}, "eventdata": [{"eventtype": "initialized", "value": null, "timestamp": 1693480743445, "interval": 0}, {"eventtype": "window_resize", "value": [1024, 654], "timestamp": 1693480743445, "interval": 0}, {"eventtype": "window_resize", "value": [1024, 654], "timestamp": 1693480743980, "interval": 535}, {"eventtype": "window_resize", "value": [1366, 768], "timestamp": 1693480951222, "interval": 207242}, {"eventtype": "focus", "value": "off", "timestamp": 1693481636808, "interval": 685586}, {"eventtype": "focus", "value": "on", "timestamp": 1693481636809, "interval": 1}, {"eventtype": "window_resize", "value": [1024, 654], "timestamp": 1693481637068, "interval": 259}, {"eventtype": "focus", "value": "off", "timestamp": 1693481640402, "interval": 3334}, {"eventtype": "focus", "value": "on", "timestamp": 1693481643528, "interval": 3126}, {"eventtype": "window_resize", "value": [1366, 768], "timestamp": 1693481644834, "interval": 1306}, {"eventtype": "window_resize", "value": [1024, 654], "timestamp": 1693483350466, "interval": 1705632}], "useragent": "Mozilla/5.0 (Windows NT 10.0; Win64; x64) AppleWebKit/537.36 (KHTML, like Gecko) Chrome/116.0.0.0 Safari/537.36", "mode": "live", "id": "w26139069:a46553981", "status": "user data saved", "Beginhit": "2023-08-31 11:18:52.105444", "Beginexp": "2023-08-31 11:22:27.365245", "Endhit": "2023-08-31 12:02:28.007681", "psiturkStatus": 3, "browser": "<redacted>", "platform": "windows", "language": "en-US", "excludeReason": "invalidClickStrats"}