{"condition": 1, "counterbalance": 0, "assignmentId": "a70801579", "workerId": "w96870195", "hitId": "h64157351", "currenttrial": 12, "bonus": 0, "data": [{"uniqueid": "w96870195:a70801579", "current_trial": 0, "dateTime": 1693389112964, "trialdata": {"success": true, "trial_type": "fullscreen", "trial_index": 0, "time_elapsed": 9106, "internal_node_id": "0.0-0.0"}}, {"uniqueid": "w96870195:a70801579", "current_trial": 1, "dateTime": 1693389150963, "trialdata": {"view_history": [{"page_index": 0, "viewing_time": 37987}], "rt": 37988, "trial_id": "exp_instructions_misaligned", "trial_type": "instructions", "trial_index": 1, "time_elapsed": 47106, "internal_node_id": "0.0-1.0"}}, {"uniqueid": "w96870195:a70801579", "current_trial": 2, "dateTime": 1693389365967, "trialdata": {"view_history": [{"page_index": 0, "viewing_time": 88500}, {"page_index": 1, "viewing_time": 54393}, {"page_index": 2, "viewing_time": 29613}, {"page_index": 3, "viewing_time": 42491}], "rt": 214997, "trial_id": "mouselab_instructions_1_misaligned", "trial_type": "instructions", "trial_index": 2, "time_elapsed": 262109, "internal_node_id": "0.0-2.0-1.0"}}, {"uniqueid": "w96870195:a70801579", "current_trial": 3, "dateTime": 1693389397753, "trialdata": {"revealed_states": [], "clicked_states": [], "num_clicks_accrued": [0, 0, 0, 0, 0, 0, 0, 0, 0, 0, 0, 0, 0], "stateRewards": ["", -10, -10, 10, -10, -10, 10, 10, -10, -10, 10, 10, -10, -10, 10, -10, -10, -10, -10, -10, 10, -10, 10, 10, -10, -10, 10, 10, -10, 10, -10, 10, -10, -10], "withholdReward": false, "trial_id": "practice_1", "block": "test", "trialIndex": 0, "score": -26.5, "costs": 0, "simulationMode": [null, null, null, null, null], "rewards": [-10, -10, 10, -10, -10], "path": ["0", "0", "12", "13", "14", "15", "16"], "rt": [48, 11925, 921, 956, 853], "actions": ["right", "right", "right", "up", "up"], "actionTimes": [4311, 16303, 17783, 19283, 20681], "queries": {"click": {"state": {"target": [], "time": []}, "edge": {"target": [], "time": []}}, "mouseover": {"state": {"target": [], "time": []}, "edge": {"target": [], "time": []}}, "mouseout": {"state": {"target": ["23", "8", "7", "0", "0", "0", "0", "0", "12", "0"], "time": [476, 694, 1128, 1812, 5228, 8976, 11007, 11210, 11603, 14510]}, "edge": {"target": [], "time": []}}}, "displayed_time": "21.20", "trialTime": 30285, "trial_type": "mouselab-mdp", "trial_index": 3, "time_elapsed": 293895, "internal_node_id": "0.0-2.0-2.0-0.0"}}, {"uniqueid": "w96870195:a70801579", "current_trial": 4, "dateTime": 1693389422986, "trialdata": {"revealed_states": [], "clicked_states": [], "num_clicks_accrued": [0, 0, 0, 0, 0, 0, 0, 0, 0, 0, 0, 0, 0], "stateRewards": ["", -10, 10, -10, 10, 10, -10, 10, 10, -10, -10, -10, -10, 10, -10, 10, -10, -10, -10, 10, 10, 10, 10, 10, -10, -10, 10, -10, 10, 10, -10, -10, -10, -10], "withholdReward": false, "trial_id": "practice_2", "block": "test", "trialIndex": 1, "score": 13.5, "costs": 0, "simulationMode": [null, null, null, null, null], "rewards": [-10, 10, -10, 10, 10], "path": ["0", "0", "12", "13", "14", "19", "21"], "rt": [1007, 99, 171, 25, 37], "actions": ["right", "right", "right", "down", "down"], "actionTimes": [5835, 6489, 7205, 7783, 8334], "queries": {"click": {"state": {"target": [], "time": []}, "edge": {"target": [], "time": []}}, "mouseover": {"state": {"target": [], "time": []}, "edge": {"target": [], "time": []}}, "mouseout": {"state": {"target": ["0", "0", "0", "0", "18"], "time": [3453, 3492, 3883, 20521, 20603]}, "edge": {"target": [], "time": []}}}, "displayed_time": "8.87", "trialTime": 23010, "trial_type": "mouselab-mdp", "trial_index": 4, "time_elapsed": 319128, "internal_node_id": "0.0-2.0-2.0-1.0"}}, {"uniqueid": "w96870195:a70801579", "current_trial": 5, "dateTime": 1693389480974, "trialdata": {"view_history": [{"page_index": 0, "viewing_time": 18374}, {"page_index": 1, "viewing_time": 4643}, {"page_index": 0, "viewing_time": 19694}, {"page_index": 1, "viewing_time": 15270}], "rt": 57983, "trial_id": "mouselab_instructions_2_misaligned", "trial_type": "instructions", "trial_index": 5, "time_elapsed": 377117, "internal_node_id": "0.0-2.0-3.0"}}, {"uniqueid": "w96870195:a70801579", "current_trial": 6, "dateTime": 1693389660099, "trialdata": {"rt": 179116, "response": {"Q0": "There is no cost for clicking on nodes.", "Q1": "The better I perform the higher my bonus will be.", "Q2": "No, the structure of the web will be different each time.", "Q3": "To get the highest total score.", "Q4": "Only after moving the spider.", "Q5": "3 seconds"}, "question_order": [0, 1, 2, 3, 4, 5], "correct": {"Q0": "The cost for clicking on nodes may vary between nodes.", "Q1": "The better I perform the higher my bonus will be.", "Q2": "No, the amount of cash at each node of the web may be different each time.", "Q3": "To get the highest total score.", "Q4": "Only before moving the spider.", "Q5": "3 seconds"}, "trial_id": "mouselab_quiz_misaligned", "trial_type": "survey-multi-choice", "trial_index": 6, "time_elapsed": 556242, "internal_node_id": "0.0-2.0-4.0"}}, {"uniqueid": "w96870195:a70801579", "current_trial": 7, "dateTime": 1693389670530, "trialdata": {"success": true, "trial_type": "fullscreen", "trial_index": 7, "time_elapsed": 566673, "internal_node_id": "0.0-2.1-0.1-0.1"}}, {"uniqueid": "w96870195:a70801579", "current_trial": 8, "dateTime": 1693389748593, "trialdata": {"view_history": [{"page_index": 0, "viewing_time": 38024}, {"page_index": 1, "viewing_time": 22034}, {"page_index": 2, "viewing_time": 5342}, {"page_index": 3, "viewing_time": 12651}], "rt": 78051, "trial_id": "mouselab_instructions_1_misaligned", "trial_type": "instructions", "trial_index": 8, "time_elapsed": 644736, "internal_node_id": "0.0-2.1-1.1"}}, {"uniqueid": "w96870195:a70801579", "current_trial": 9, "dateTime": 1693389761210, "trialdata": {"revealed_states": [], "clicked_states": [], "num_clicks_accrued": [0, 0, 0, 0, 0, 0, 0, 0, 0, 0, 0, 0, 0], "stateRewards": ["", -10, -10, 10, -10, -10, 10, 10, -10, -10, 10, 10, -10, -10, 10, -10, -10, -10, -10, -10, 10, -10, 10, 10, -10, -10, 10, 10, -10, 10, -10, 10, -10, -10], "withholdReward": false, "trial_id": "practice_1", "block": "test", "trialIndex": 2, "score": -26.5, "costs": 0, "simulationMode": [null, null, null, null, null], "rewards": [-10, -10, 10, -10, -10], "path": ["0", "0", "12", "13", "14", "19", "21"], "rt": [676, 300, 55, 170, 589], "actions": ["right", "right", "right", "down", "down"], "actionTimes": [3630, 4471, 5078, 5829, 6967], "queries": {"click": {"state": {"target": [], "time": []}, "edge": {"target": [], "time": []}}, "mouseover": {"state": {"target": [], "time": []}, "edge": {"target": [], "time": []}}, "mouseout": {"state": {"target": ["0"], "time": [1129]}, "edge": {"target": [], "time": []}}}, "displayed_time": "7.48", "trialTime": 12023, "trial_type": "mouselab-mdp", "trial_index": 9, "time_elapsed": 657353, "internal_node_id": "0.0-2.1-2.1-0.1"}}, {"uniqueid": "w96870195:a70801579", "current_trial": 10, "dateTime": 1693389771391, "trialdata": {"revealed_states": [], "clicked_states": [], "num_clicks_accrued": [0, 0, 0, 0, 0, 0, 0, 0, 0, 0, 0, 0, 0], "stateRewards": ["", -10, 10, -10, 10, 10, -10, 10, 10, -10, -10, -10, -10, 10, -10, 10, -10, -10, -10, 10, 10, 10, 10, 10, -10, -10, 10, -10, 10, 10, -10, -10, -10, -10], "withholdReward": false, "trial_id": "practice_2", "block": "test", "trialIndex": 3, "score": -26.5, "costs": 0, "simulationMode": [null, null, null, null, null], "rewards": [10, -10, -10, -10, -10], "path": ["0", "0", "23", "24", "25", "30", "32"], "rt": [823, 25, 79, 240, 476], "actions": ["left", "left", "left", "down", "down"], "actionTimes": [2771, 3324, 3926, 4688, 5681], "queries": {"click": {"state": {"target": [], "time": []}, "edge": {"target": [], "time": []}}, "mouseover": {"state": {"target": [], "time": []}, "edge": {"target": [], "time": []}}, "mouseout": {"state": {"target": ["0"], "time": [9171]}, "edge": {"target": [], "time": []}}}, "displayed_time": "6.25", "trialTime": 9581, "trial_type": "mouselab-mdp", "trial_index": 10, "time_elapsed": 667533, "internal_node_id": "0.0-2.1-2.1-1.1"}}, {"uniqueid": "w96870195:a70801579", "current_trial": 11, "dateTime": 1693389780575, "trialdata": {"view_history": [{"page_index": 0, "viewing_time": 5511}, {"page_index": 1, "viewing_time": 3667}], "rt": 9180, "trial_id": "mouselab_instructions_2_misaligned", "trial_type": "instructions", "trial_index": 11, "time_elapsed": 676718, "internal_node_id": "0.0-2.1-3.1"}}], "questiondata": {"params": {"CODE": "C6DMOQA6", "MIN_TIME": 14, "inspectCost": 1, "startTime": "Wed Aug 30 2023 11:51:38 GMT+0200 (South Africa Standard Time)", "bonusRate": 0.002, "variance": "1_2_4_8_44", "branching": "31123"}}, "eventdata": [{"eventtype": "initialized", "value": null, "timestamp": 1693389097104, "interval": 0}, {"eventtype": "window_resize", "value": [1366, 666], "timestamp": 1693389097104, "interval": 0}, {"eventtype": "window_resize", "value": [1366, 666], "timestamp": 1693389097936, "interval": 832}, {"eventtype": "window_resize", "value": [1366, 768], "timestamp": 1693389113161, "interval": 15225}, {"eventtype": "focus", "value": "off", "timestamp": 1693389667743, "interval": 554582}, {"eventtype": "focus", "value": "on", "timestamp": 1693389667744, "interval": 1}, {"eventtype": "window_resize", "value": [1366, 666], "timestamp": 1693389667964, "interval": 220}, {"eventtype": "window_resize", "value": [1366, 768], "timestamp": 1693389669763, "interval": 1799}, {"eventtype": "window_resize", "value": [1366, 666], "timestamp": 1693397228756, "interval": 7558993}, {"eventtype": "focus", "value": "off", "timestamp": 1693397579613, "interval": 350857}], "useragent": "Mozilla/5.0 (Windows NT 10.0; Win64; x64) AppleWebKit/537.36 (KHTML, like Gecko) Chrome/116.0.0.0 Safari/537.36 Edg/116.0.1938.62", "mode": "live", "id": "w96870195:a70801579", "status": "user data saved", "Beginhit": "2023-08-30 09:51:30.118559", "Beginexp": "2023-08-30 09:51:53.882917", "Endhit": null, "psiturkStatus": 6, "browser": "<redacted>", "platform": "windows", "language": "en-GB", "excludeReason": "quizfail"}