{"condition": 0, "counterbalance": 0, "assignmentId": "a47055853", "workerId": "w92508391", "hitId": "h96763958", "currenttrial": 61, "bonus": 0, "data": [{"uniqueid": "w92508391:a47055853", "current_trial": 0, "dateTime": 1691159489462, "trialdata": {"success": true, "trial_type": "fullscreen", "trial_index": 0, "time_elapsed": 23630, "internal_node_id": "0.0-0.0"}}, {"uniqueid": "w92508391:a47055853", "current_trial": 1, "dateTime": 1691159511418, "trialdata": {"view_history": [{"page_index": 0, "viewing_time": 21948}], "rt": 21949, "trial_id": "exp_instructions_control", "trial_type": "instructions", "trial_index": 1, "time_elapsed": 45586, "internal_node_id": "0.0-1.0"}}, {"uniqueid": "w92508391:a47055853", "current_trial": 2, "dateTime": 1691159515659, "trialdata": {"success": true, "trial_type": "fullscreen", "trial_index": 2, "time_elapsed": 49827, "internal_node_id": "0.0-2.0-0.0"}}, {"uniqueid": "w92508391:a47055853", "current_trial": 3, "dateTime": 1691159759258, "trialdata": {"view_history": [{"page_index": 0, "viewing_time": 86276}, {"page_index": 1, "viewing_time": 87600}, {"page_index": 2, "viewing_time": 30784}, {"page_index": 3, "viewing_time": 38936}], "rt": 243596, "trial_id": "mouselab_instructions_1_control", "trial_type": "instructions", "trial_index": 3, "time_elapsed": 293426, "internal_node_id": "0.0-2.0-1.0"}}, {"uniqueid": "w92508391:a47055853", "current_trial": 4, "dateTime": 1691159784532, "trialdata": {"revealed_states": [], "clicked_states": [], "num_clicks_accrued": [0, 0, 0, 0, 0, 0, 0, 0, 0, 0, 0, 0, 0], "stateRewards": ["", -10, -10, -10, 10, 10, 10, -10, -10, 10, 10, 10, -10, 10, 10, -10, -10, -10, 10, -10, -10, 10, -10, 10, -10, 10, 10, -10, -10, -10, 10, -10, -10, -10], "withholdReward": false, "trial_id": "practice_1", "block": "test", "trialIndex": 0, "score": -6.5, "costs": 0, "simulationMode": [null, null, null, null, null], "rewards": [-10, -10, -10, 10, 10], "path": ["0", "0", "1", "2", "3", "4", "5"], "rt": [748, 1176, 36, 2751, 366], "actions": ["up", "up", "up", "right", "up"], "actionTimes": [12234, 13913, 14457, 17706, 18602], "queries": {"click": {"state": {"target": [], "time": []}, "edge": {"target": [], "time": []}}, "mouseover": {"state": {"target": [], "time": []}, "edge": {"target": [], "time": []}}, "mouseout": {"state": {"target": ["12", "0", "12", "12", "0", "0", "22", "21"], "time": [2302, 3702, 9218, 9353, 10401, 21634, 21786, 22636]}, "edge": {"target": [], "time": []}}}, "displayed_time": "19.12", "trialTime": 24594, "trial_type": "mouselab-mdp", "trial_index": 4, "time_elapsed": 318700, "internal_node_id": "0.0-2.0-2.0-0.0"}}, {"uniqueid": "w92508391:a47055853", "current_trial": 5, "dateTime": 1691159809037, "trialdata": {"revealed_states": [], "clicked_states": ["17", "29"], "num_clicks_accrued": [0, 0, 0, 0, 0, 0, 0, 0, 0, 0, 0, 0, 0], "stateRewards": ["", 10, -10, -10, -10, -10, 10, -10, 10, -10, 10, -10, -10, 10, -10, 10, 10, -10, -10, -10, 10, -10, -10, -10, 10, -10, -10, -10, 10, 10, -10, 10, 10, 10], "withholdReward": false, "trial_id": "practice_2", "block": "test", "trialIndex": 1, "score": -7.5, "costs": -1, "simulationMode": [null, null, null, null, null], "rewards": [-10, 10, -10, -10, 10], "path": ["0", "0", "23", "24", "25", "26", "29"], "rt": [11436, 255, 454, 858, 795], "actions": ["left", "left", "left", "up", "left"], "actionTimes": [15001, 15777, 16744, 18097, 19400], "queries": {"click": {"state": {"target": ["17", "29"], "time": [8868, 11299]}, "edge": {"target": [], "time": []}}, "mouseover": {"state": {"target": ["12", "13", "14", "17", "15", "28", "26", "29"], "time": [7453, 7489, 7513, 8103, 9774, 10319, 10402, 10538]}, "edge": {"target": [], "time": []}}, "mouseout": {"state": {"target": ["0", "12", "13", "14", "17", "17", "15", "28", "26", "29", "31"], "time": [7403, 7486, 7510, 7522, 9309, 9740, 9987, 10370, 10469, 12869, 22418]}, "edge": {"target": [], "time": []}}}, "displayed_time": "19.92", "trialTime": 24170, "trial_type": "mouselab-mdp", "trial_index": 5, "time_elapsed": 343204, "internal_node_id": "0.0-2.0-2.0-1.0"}}, {"uniqueid": "w92508391:a47055853", "current_trial": 6, "dateTime": 1691159855362, "trialdata": {"view_history": [{"page_index": 0, "viewing_time": 30474}, {"page_index": 1, "viewing_time": 15848}], "rt": 46322, "trial_id": "mouselab_instructions_2_control", "trial_type": "instructions", "trial_index": 6, "time_elapsed": 389530, "internal_node_id": "0.0-2.0-3.0"}}, {"uniqueid": "w92508391:a47055853", "current_trial": 7, "dateTime": 1691159915139, "trialdata": {"rt": 59771, "response": {"Q0": "There is no cost for clicking on nodes.", "Q1": "The better I perform the higher my bonus will be.", "Q2": "No, the amount of cash at each node of the web may be different each time.", "Q3": "To get the highest total score.", "Q4": "Only before moving the spider.", "Q5": "3 seconds"}, "question_order": [0, 1, 2, 3, 4, 5], "correct": {"Q0": "The cost for clicking on nodes may vary between nodes.", "Q1": "The better I perform the higher my bonus will be.", "Q2": "No, the amount of cash at each node of the web may be different each time.", "Q3": "To get the highest total score.", "Q4": "Only before moving the spider.", "Q5": "3 seconds"}, "trial_id": "mouselab_quiz_control", "trial_type": "survey-multi-choice", "trial_index": 7, "time_elapsed": 449307, "internal_node_id": "0.0-2.0-4.0"}}, {"uniqueid": "w92508391:a47055853", "current_trial": 8, "dateTime": 1691159926932, "trialdata": {"success": true, "trial_type": "fullscreen", "trial_index": 8, "time_elapsed": 461100, "internal_node_id": "0.0-2.1-0.1"}}, {"uniqueid": "w92508391:a47055853", "current_trial": 9, "dateTime": 1691159986618, "trialdata": {"view_history": [{"page_index": 0, "viewing_time": 5908}, {"page_index": 1, "viewing_time": 23280}, {"page_index": 2, "viewing_time": 7223}, {"page_index": 3, "viewing_time": 23272}], "rt": 59684, "trial_id": "mouselab_instructions_1_control", "trial_type": "instructions", "trial_index": 9, "time_elapsed": 520786, "internal_node_id": "0.0-2.1-1.1"}}, {"uniqueid": "w92508391:a47055853", "current_trial": 10, "dateTime": 1691160008308, "trialdata": {"revealed_states": [], "clicked_states": ["20", "9"], "num_clicks_accrued": [0, 0, 0, 0, 0, 0, 0, 0, 0, 0, 0, 0, 0], "stateRewards": ["", -10, -10, -10, 10, 10, 10, -10, -10, 10, 10, 10, -10, 10, 10, -10, -10, -10, 10, -10, -10, 10, -10, 10, -10, 10, 10, -10, -10, -10, 10, -10, -10, -10], "withholdReward": false, "trial_id": "practice_1", "block": "test", "trialIndex": 2, "score": -27.5, "costs": -1, "simulationMode": [null, null, null, null, null], "rewards": [-10, -10, -10, -10, 10], "path": ["0", "0", "1", "2", "3", "8", "9"], "rt": [7744, 246, 152, 565, 802], "actions": ["up", "up", "up", "left", "up"], "actionTimes": [13543, 14324, 14996, 16076, 17397], "queries": {"click": {"state": {"target": ["20", "9"], "time": [8487, 10846]}, "edge": {"target": [], "time": []}}, "mouseover": {"state": {"target": ["12", "13", "14", "20", "15", "4", "3", "9", "8", "2", "1", "22"], "time": [7377, 7494, 7528, 8094, 9346, 9644, 9760, 10010, 11445, 11712, 11812, 12960]}, "edge": {"target": [], "time": []}}, "mouseout": {"state": {"target": ["12", "0", "12", "15", "13", "12", "0", "12", "13", "14", "20", "15", "4", "3", "9", "8", "2", "1", "22"], "time": [1576, 2911, 3860, 4610, 4760, 4894, 5127, 7427, 7511, 7644, 9146, 9379, 9711, 9777, 11412, 11478, 11728, 11926, 12976]}, "edge": {"target": [], "time": []}}}, "displayed_time": "17.90", "trialTime": 21341, "trial_type": "mouselab-mdp", "trial_index": 10, "time_elapsed": 542475, "internal_node_id": "0.0-2.1-2.1-0.1"}}, {"uniqueid": "w92508391:a47055853", "current_trial": 11, "dateTime": 1691160038468, "trialdata": {"revealed_states": [], "clicked_states": ["21", "16", "11", "5", "9", "29", "33"], "num_clicks_accrued": [0, 0, 0, 0, 0, 0, 0, 0, 0, 0, 0, 0, 0], "stateRewards": ["", 10, -10, -10, -10, -10, 10, -10, 10, -10, 10, -10, -10, 10, -10, 10, 10, -10, -10, -10, 10, -10, -10, -10, 10, -10, -10, -10, 10, 10, -10, 10, 10, 10], "withholdReward": false, "trial_id": "practice_2", "block": "test", "trialIndex": 3, "score": -10, "costs": -3.5, "simulationMode": [null, null, null, null, null], "rewards": [-10, 10, -10, -10, 10], "path": ["0", "0", "23", "24", "25", "30", "33"], "rt": [18563, 1, 55, 1600, 1308], "actions": ["left", "left", "left", "down", "left"], "actionTimes": [21196, 21721, 22290, 24419, 26226], "queries": {"click": {"state": {"target": ["21", "16", "11", "5", "9", "29", "33"], "time": [6198, 8642, 11538, 14395, 16333, 17811, 19210]}, "edge": {"target": [], "time": []}}, "mouseover": {"state": {"target": ["23", "24", "25", "30", "30", "25", "12", "22", "21", "19", "14", "15", "16", "7", "2", "8", "11", "8", "3", "5", "9", "8", "28", "26", "29", "33", "30", "31"], "time": [3401, 3552, 3718, 4235, 4551, 4734, 5334, 5534, 5818, 7187, 7238, 7301, 7817, 10851, 10934, 11167, 11217, 12120, 12285, 13334, 15467, 17085, 17276, 17335, 17566, 18702, 20068, 20202]}, "edge": {"target": [], "time": []}}, "mouseout": {"state": {"target": ["0", "23", "24", "25", "30", "30", "25", "12", "22", "21", "19", "14", "15", "16", "7", "2", "8", "11", "8", "3", "5", "9", "8", "28", "26", "29", "33", "30", "31", "31", "23", "4"], "time": [3368, 3485, 3652, 4168, 4418, 4669, 4851, 5501, 5702, 7136, 7221, 7285, 7384, 10733, 10917, 11051, 11184, 12086, 12184, 12870, 15253, 17002, 17152, 17291, 17352, 18519, 20001, 20168, 20250, 22982, 27448, 27482]}, "edge": {"target": [], "time": []}}}, "displayed_time": "26.74", "trialTime": 29812, "trial_type": "mouselab-mdp", "trial_index": 11, "time_elapsed": 572636, "internal_node_id": "0.0-2.1-2.1-1.1"}}, {"uniqueid": "w92508391:a47055853", "current_trial": 12, "dateTime": 1691160060874, "trialdata": {"view_history": [{"page_index": 0, "viewing_time": 19202}, {"page_index": 1, "viewing_time": 3200}], "rt": 22402, "trial_id": "mouselab_instructions_2_control", "trial_type": "instructions", "trial_index": 12, "time_elapsed": 595042, "internal_node_id": "0.0-2.1-3.1"}}, {"uniqueid": "w92508391:a47055853", "current_trial": 13, "dateTime": 1691160096011, "trialdata": {"rt": 35133, "response": {"Q0": "The cost for clicking on nodes may vary between nodes.", "Q1": "The better I perform the higher my bonus will be.", "Q2": "No, the amount of cash at each node of the web may be different each time.", "Q3": "To get the highest total score.", "Q4": "Only before moving the spider.", "Q5": "3 seconds"}, "question_order": [0, 1, 2, 3, 4, 5], "correct": {"Q0": "The cost for clicking on nodes may vary between nodes.", "Q1": "The better I perform the higher my bonus will be.", "Q2": "No, the amount of cash at each node of the web may be different each time.", "Q3": "To get the highest total score.", "Q4": "Only before moving the spider.", "Q5": "3 seconds"}, "trial_id": "mouselab_quiz_control", "trial_type": "survey-multi-choice", "trial_index": 13, "time_elapsed": 630179, "internal_node_id": "0.0-2.1-4.1"}}, {"uniqueid": "w92508391:a47055853", "current_trial": 14, "dateTime": 1691160124564, "trialdata": {"rt": 28543, "stimulus": "\n<h1> Get ready to start the game! </h1>\n\nThank you for reading the instructions. Get ready start with the 40 rounds of this game.\n<br><br>\nIf you need to take a break, feel free to take one after the end of a round, before continuing to the next one.\n<br><br>\nRemember, the more money the spider gets, the bigger your bonus will be!\n<br><br>\n<div style='text-align: center;'>Press <code>space</code> to begin.</div>\n\n<br><br>\n(If, at any point, the <code>space</code> key does not take you to the next page, click once on the text and try again.)", "response": " ", "trial_id": "mdp_ready", "trial_type": "html-keyboard-response", "trial_index": 14, "time_elapsed": 658732, "internal_node_id": "0.0-4.0-0.0"}}, {"uniqueid": "w92508391:a47055853", "current_trial": 15, "dateTime": 1691160148908, "trialdata": {"revealed_states": [], "clicked_states": ["29", "17"], "num_clicks_accrued": [0, 0, 0, 0, 0, 0, 0, 0, 0, 0, 0, 0, 0], "stateRewards": ["", -1, -3, -5, -14, -13, -47, 79, 8, -60, -64, 41, -1, 2, 3, 13, -46, 61, -79, -11, -64, -65, 23, 1, -2, 6, -14, 46, 32, 21, 7, 75, -66, 15], "withholdReward": false, "trial_id": "mdp_trial_1", "block": "test", "trialIndex": 4, "score": -31.8, "costs": -2.8, "simulationMode": [null, null, null, null, null, null], "rewards": [-1, 2, 3, 13, -46], "path": ["0", "0", "12", "13", "14", "15", "16"], "rt": [6219, 1465, 418, 468, 613, 3041], "actions": ["right", "right", "right", "right", "up", "up"], "actionTimes": [11826, 13295, 14231, 15215, 16343, 19903], "queries": {"click": {"state": {"target": ["29", "17"], "time": [7354, 10720]}, "edge": {"target": [], "time": []}}, "mouseover": {"state": {"target": ["23", "24", "26", "29", "26", "28", "10", "3", "5", "5", "6", "17", "17"], "time": [6628, 6662, 6861, 7129, 7746, 7780, 7897, 8096, 8296, 8696, 9945, 10044, 10461]}, "edge": {"target": [], "time": []}}, "mouseout": {"state": {"target": ["16", "18", "12", "0", "23", "24", "26", "29", "26", "28", "10", "3", "5", "5", "6", "17", "17", "14", "19"], "time": [929, 1078, 1312, 1729, 6645, 6794, 7011, 7730, 7764, 7796, 7963, 8146, 8330, 9928, 9962, 10061, 11166, 17311, 22442]}, "edge": {"target": [], "time": []}}}, "displayed_time": "20.40", "trialTime": 23960, "trial_type": "mouselab-mdp", "trial_index": 15, "time_elapsed": 683075, "internal_node_id": "0.0-4.0-1.0-0.0"}}, {"uniqueid": "w92508391:a47055853", "current_trial": 16, "dateTime": 1691160167565, "trialdata": {"revealed_states": [], "clicked_states": [], "num_clicks_accrued": [0, 0, 0, 0, 0, 0, 0, 0, 0, 0, 0, 0, 0], "stateRewards": ["", -1, -4, -1, -5, -28, -23, -15, -15, -38, 59, -87, 2, 2, -5, 9, -55, -39, -71, -6, 85, -85, -11, -1, -2, 5, -10, 1, 25, 41, -4, 69, -35, 86], "withholdReward": false, "trial_id": "mdp_trial_2", "block": "test", "trialIndex": 5, "score": -39, "costs": 0, "simulationMode": [null, null, null, null, null], "rewards": [-1, -4, -1, -5, -28], "path": ["0", "0", "1", "2", "3", "4", "5"], "rt": [1196, 213, 522, 175, 220], "actions": ["up", "up", "up", "right", "up"], "actionTimes": [2874, 3602, 4642, 5330, 6058], "queries": {"click": {"state": {"target": [], "time": []}, "edge": {"target": [], "time": []}}, "mouseover": {"state": {"target": [], "time": []}, "edge": {"target": [], "time": []}}, "mouseout": {"state": {"target": ["0", "1", "4", "7", "14", "21"], "time": [8202, 8251, 8485, 8678, 17534, 17834]}, "edge": {"target": [], "time": []}}}, "displayed_time": "15.68", "trialTime": 18260, "trial_type": "mouselab-mdp", "trial_index": 16, "time_elapsed": 701733, "internal_node_id": "0.0-4.0-1.0-1.0"}}, {"uniqueid": "w92508391:a47055853", "current_trial": 17, "dateTime": 1691160192828, "trialdata": {"revealed_states": [], "clicked_states": ["9", "33", "29"], "num_clicks_accrued": [0, 0, 0, 0, 0, 0, 0, 0, 0, 0, 0, 0, 0], "stateRewards": ["", -1, 4, -3, 3, 57, -61, 5, -11, 23, -1, 34, -2, -4, -1, -13, 27, 38, -36, 4, -45, 21, 88, 1, -2, -1, 1, -69, -5, -78, -12, -9, 38, -54], "withholdReward": false, "trial_id": "mdp_trial_3", "block": "test", "trialIndex": 6, "score": 80.8, "costs": -4.199999999999999, "simulationMode": [null, null, null, null, null], "rewards": [-2, -4, -1, 4, 88], "path": ["0", "0", "12", "13", "14", "19", "22"], "rt": [12887, 293, 216, 427, 1477], "actions": ["right", "right", "right", "down", "left"], "actionTimes": [16453, 17269, 17989, 18917, 20934], "queries": {"click": {"state": {"target": ["9", "33", "29"], "time": [5038, 7365, 11471]}, "edge": {"target": [], "time": []}}, "mouseover": {"state": {"target": ["23", "11", "9", "8", "2", "14", "22", "31", "30", "33", "30", "30", "25", "29", "30", "19", "22"], "time": [3957, 4489, 4756, 5540, 5757, 5907, 6507, 6689, 6773, 6905, 8724, 9106, 9556, 9840, 12494, 14972, 15088]}, "edge": {"target": [], "time": []}}, "mouseout": {"state": {"target": ["12", "0", "23", "11", "9", "8", "2", "14", "22", "31", "30", "33", "30", "30", "25", "29", "30", "19", "22"], "time": [2939, 3906, 4306, 4540, 5473, 5657, 5777, 6208, 6525, 6739, 6843, 8529, 8893, 9522, 9577, 12458, 12529, 15039, 15138]}, "edge": {"target": [], "time": []}}}, "displayed_time": "21.44", "trialTime": 24830, "trial_type": "mouselab-mdp", "trial_index": 17, "time_elapsed": 726995, "internal_node_id": "0.0-4.0-1.0-2.0"}}, {"uniqueid": "w92508391:a47055853", "current_trial": 18, "dateTime": 1691160221827, "trialdata": {"revealed_states": [], "clicked_states": ["5", "29", "27", "33"], "num_clicks_accrued": [0, 0, 0, 0, 0, 0, 0, 0, 0, 0, 0, 0, 0], "stateRewards": ["", -1, -3, -6, -2, -7, 80, -45, -3, -38, -72, 76, 2, 1, 7, 4, -62, 14, -74, 14, -87, -21, -88, -2, 1, -7, -10, 66, 56, -76, 10, -29, -72, -70], "withholdReward": false, "trial_id": "mdp_trial_4", "block": "test", "trialIndex": 7, "score": 42.4, "costs": -5.6, "simulationMode": [null, null, null, null, null], "rewards": [-2, 1, -7, -10, 66], "path": ["0", "0", "23", "24", "25", "26", "27"], "rt": [14335, 308, 116, 772, 89], "actions": ["left", "left", "left", "up", "up"], "actionTimes": [18732, 19557, 20196, 21485, 22084], "queries": {"click": {"state": {"target": ["5", "29", "27", "33"], "time": [5414, 8190, 10726, 14245]}, "edge": {"target": [], "time": []}}, "mouseover": {"state": {"target": ["8", "5", "4", "1", "23", "24", "26", "29", "25", "16", "33", "27", "26", "25", "30", "32", "30", "33", "32", "32"], "time": [4812, 5029, 6079, 6213, 6315, 6379, 6929, 7112, 8614, 9480, 9828, 10261, 10996, 11080, 12179, 12478, 13827, 14028, 14813, 15944]}, "edge": {"target": [], "time": []}}, "mouseout": {"state": {"target": ["0", "1", "0", "0", "8", "5", "4", "1", "23", "24", "26", "29", "25", "16", "33", "27", "26", "25", "30", "32", "30", "33", "32", "32", "12", "20"], "time": [2178, 2295, 2528, 4596, 4945, 6063, 6112, 6230, 6362, 6729, 6947, 8598, 8631, 9502, 9861, 10946, 11046, 11129, 12377, 13794, 13880, 14631, 15630, 18160, 27042, 27692]}, "edge": {"target": [], "time": []}}}, "displayed_time": "22.60", "trialTime": 28588, "trial_type": "mouselab-mdp", "trial_index": 18, "time_elapsed": 755995, "internal_node_id": "0.0-4.0-1.0-3.0"}}, {"uniqueid": "w92508391:a47055853", "current_trial": 19, "dateTime": 1691160244891, "trialdata": {"revealed_states": [], "clicked_states": ["5", "32", "21"], "num_clicks_accrued": [0, 0, 0, 0, 0, 0, 0, 0, 0, 0, 0, 0, 0], "stateRewards": ["", 1, 3, 1, -13, 52, -28, 67, -14, 3, 63, -70, -1, -4, 7, -11, -10, 47, -18, 6, 69, -9, -61, 2, 3, -6, 10, 63, -34, 40, -6, -79, -35, -32], "withholdReward": false, "trial_id": "mdp_trial_5", "block": "test", "trialIndex": 8, "score": 39.8, "costs": -4.199999999999999, "simulationMode": [null, null, null, null, null], "rewards": [1, 3, 1, -13, 52], "path": ["0", "0", "1", "2", "3", "4", "5"], "rt": [11707, 181, 746, 456, 251], "actions": ["up", "up", "up", "right", "up"], "actionTimes": [15714, 16433, 17681, 18641, 19385], "queries": {"click": {"state": {"target": ["5", "32", "21"], "time": [5667, 9264, 12656]}, "edge": {"target": [], "time": []}}, "mouseover": {"state": {"target": ["12", "14", "17", "16", "6", "5", "7", "22", "32", "19", "20", "21"], "time": [4551, 4582, 4932, 5050, 5115, 5415, 5999, 6050, 9032, 11614, 11682, 12164]}, "edge": {"target": [], "time": []}}, "mouseout": {"state": {"target": ["0", "12", "14", "17", "16", "6", "5", "7", "22", "32", "19", "20", "21", "21"], "time": [4548, 4565, 4598, 4981, 5082, 5165, 5966, 6017, 6067, 9468, 11665, 11821, 13017, 14237]}, "edge": {"target": [], "time": []}}}, "displayed_time": "19.89", "trialTime": 22609, "trial_type": "mouselab-mdp", "trial_index": 19, "time_elapsed": 779058, "internal_node_id": "0.0-4.0-1.0-4.0"}}, {"uniqueid": "w92508391:a47055853", "current_trial": 20, "dateTime": 1691160273644, "trialdata": {"revealed_states": [], "clicked_states": ["28", "18"], "num_clicks_accrued": [0, 0, 0, 0, 0, 0, 0, 0, 0, 0, 0, 0, 0], "stateRewards": ["", -2, -3, 1, -14, 48, -49, 67, -1, -35, -48, 3, -2, 1, -4, -5, 86, -84, 39, 1, 48, 41, -42, -1, -4, 2, -7, 18, -86, 17, 7, -9, 57, -69], "withholdReward": false, "trial_id": "mdp_trial_6", "block": "test", "trialIndex": 9, "score": 73.2, "costs": -2.8, "simulationMode": [null, null, null, null, null], "rewards": [-2, 1, -4, -5, 86], "path": ["0", "0", "12", "13", "14", "15", "16"], "rt": [14306, 446, 99, 643, 1386], "actions": ["right", "right", "right", "up", "up"], "actionTimes": [20333, 21293, 21909, 23069, 24965], "queries": {"click": {"state": {"target": ["28", "18"], "time": [8975, 12437]}, "edge": {"target": [], "time": []}}, "mouseover": {"state": {"target": ["1", "10", "11", "27", "28", "24", "31", "13", "14", "15", "18", "13", "22", "31", "2", "3", "5", "4", "7", "7", "4", "5", "4", "7", "12", "22"], "time": [7276, 7409, 7578, 7726, 8692, 9328, 9413, 11559, 11578, 12126, 12193, 12628, 14725, 15225, 17108, 17158, 17441, 17841, 17958, 18591, 18758, 18924, 19525, 19591, 19809, 19942]}, "edge": {"target": [], "time": []}}, "mouseout": {"state": {"target": ["0", "1", "10", "11", "27", "28", "24", "31", "13", "14", "15", "18", "18", "13", "22", "31", "2", "3", "5", "4", "7", "7", "4", "5", "4", "7", "12", "22"], "time": [1076, 7359, 7442, 7625, 8542, 9278, 9378, 9494, 11576, 11592, 12142, 12516, 12594, 12697, 14942, 17025, 17125, 17208, 17808, 17891, 18308, 18725, 18824, 19508, 19558, 19624, 19874, 19958]}, "edge": {"target": [], "time": []}}}, "displayed_time": "25.48", "trialTime": 28326, "trial_type": "mouselab-mdp", "trial_index": 20, "time_elapsed": 807811, "internal_node_id": "0.0-4.0-1.0-5.0"}}, {"uniqueid": "w92508391:a47055853", "current_trial": 21, "dateTime": 1691160292443, "trialdata": {"revealed_states": [], "clicked_states": ["33", "21"], "num_clicks_accrued": [0, 0, 0, 0, 0, 0, 0, 0, 0, 0, 0, 0, 0], "stateRewards": ["", 2, -4, 7, 3, 23, -42, 4, 7, -81, -33, 7, -2, -4, 5, -1, 50, -57, -14, -13, -14, 44, 55, -2, -2, 5, -2, 33, 1, 57, -13, -7, 58, 87], "withholdReward": false, "trial_id": "mdp_trial_7", "block": "test", "trialIndex": 10, "score": 72.2, "costs": -2.8, "simulationMode": [null, null, null, null, null], "rewards": [-2, -2, 5, -13, 87], "path": ["0", "0", "23", "24", "25", "30", "33"], "rt": [7772, 269, 134, 668, 790], "actions": ["left", "left", "left", "down", "left"], "actionTimes": [10098, 10873, 11521, 12705, 13993], "queries": {"click": {"state": {"target": ["33", "21"], "time": [4403, 7091]}, "edge": {"target": [], "time": []}}, "mouseover": {"state": {"target": ["23", "30", "33", "30", "21"], "time": [3549, 4034, 4166, 6433, 6850]}, "edge": {"target": [], "time": []}}, "mouseout": {"state": {"target": ["0", "23", "30", "33", "33", "33", "30", "21", "21"], "time": [3501, 3633, 4066, 5001, 6149, 6416, 6450, 7190, 7335]}, "edge": {"target": [], "time": []}}}, "displayed_time": "16.33", "trialTime": 18369, "trial_type": "mouselab-mdp", "trial_index": 21, "time_elapsed": 826610, "internal_node_id": "0.0-4.0-1.0-6.0"}}, {"uniqueid": "w92508391:a47055853", "current_trial": 22, "dateTime": 1691160310491, "trialdata": {"revealed_states": [], "clicked_states": ["6", "29"], "num_clicks_accrued": [0, 0, 0, 0, 0, 0, 0, 0, 0, 0, 0, 0, 0], "stateRewards": ["", -2, -1, -2, -15, 87, 57, 29, -10, 77, -80, -7, 1, -3, 6, 14, -11, 87, -59, 4, -71, 16, -11, 2, 2, -7, 2, -47, 61, 50, 14, -20, 17, 81], "withholdReward": false, "trial_id": "mdp_trial_8", "block": "test", "trialIndex": 11, "score": 34.2, "costs": -2.8, "simulationMode": [null, null, null, null, null], "rewards": [-2, -1, -2, -15, 57], "path": ["0", "0", "1", "2", "3", "4", "6"], "rt": [7424, 249, 661, 587, 627], "actions": ["up", "up", "up", "right", "right"], "actionTimes": [9626, 10386, 11546, 12667, 13794], "queries": {"click": {"state": {"target": ["6", "29"], "time": [3827, 6644]}, "edge": {"target": [], "time": []}}, "mouseover": {"state": {"target": ["1", "7", "6", "7", "2", "10", "26", "29", "25", "24", "23"], "time": [2916, 2999, 3249, 4584, 4653, 4701, 4985, 6266, 8866, 8968, 9182]}, "edge": {"target": [], "time": []}}, "mouseout": {"state": {"target": ["0", "1", "7", "6", "7", "2", "10", "26", "29", "25", "24", "23"], "time": [1221, 2967, 3016, 4319, 4635, 4685, 4752, 5018, 7318, 8916, 9149, 9199]}, "edge": {"target": [], "time": []}}}, "displayed_time": "16.20", "trialTime": 17602, "trial_type": "mouselab-mdp", "trial_index": 22, "time_elapsed": 844658, "internal_node_id": "0.0-4.0-1.0-7.0"}}, {"uniqueid": "w92508391:a47055853", "current_trial": 23, "dateTime": 1691160334780, "trialdata": {"revealed_states": [], "clicked_states": ["27", "21", "5"], "num_clicks_accrued": [0, 0, 0, 0, 0, 0, 0, 0, 0, 0, 0, 0, 0], "stateRewards": ["", -2, -3, 7, -13, 60, 9, 37, -6, 37, 20, 1, 2, -2, -8, 6, -80, -31, -10, -7, 70, -65, -44, -1, 1, 7, 6, -11, 73, -85, 16, -21, 47, 34], "withholdReward": false, "trial_id": "mdp_trial_9", "block": "test", "trialIndex": 12, "score": 44.8, "costs": -4.199999999999999, "simulationMode": [null, null, null, null, null], "rewards": [-2, -3, 7, -13, 60], "path": ["0", "0", "1", "2", "3", "4", "5"], "rt": [11958, 270, 23, 844, 92], "actions": ["up", "up", "up", "right", "up"], "actionTimes": [16793, 17585, 18105, 19457, 20057], "queries": {"click": {"state": {"target": ["27", "21", "5"], "time": [7132, 9881, 13715]}, "edge": {"target": [], "time": []}}, "mouseover": {"state": {"target": ["23", "27", "28", "23", "22", "21", "5", "5"], "time": [5530, 6630, 7520, 7548, 7949, 8147, 13245, 13478]}, "edge": {"target": [], "time": []}}, "mouseout": {"state": {"target": ["0", "0", "0", "23", "27", "28", "23", "22", "21", "5", "5", "6", "14", "19"], "time": [2746, 3513, 5482, 6097, 7464, 7545, 7571, 7966, 10565, 13296, 13879, 21713, 21779, 21913]}, "edge": {"target": [], "time": []}}}, "displayed_time": "20.60", "trialTime": 23874, "trial_type": "mouselab-mdp", "trial_index": 23, "time_elapsed": 868947, "internal_node_id": "0.0-4.0-1.0-8.0"}}, {"uniqueid": "w92508391:a47055853", "current_trial": 24, "dateTime": 1691160361836, "trialdata": {"revealed_states": [], "clicked_states": ["11", "17", "33"], "num_clicks_accrued": [0, 0, 0, 0, 0, 0, 0, 0, 0, 0, 0, 0, 0], "stateRewards": ["", 2, 3, 8, 14, 69, -27, 17, 2, -71, -65, -10, 2, -3, 7, 8, 65, -10, 65, -12, 73, -12, 13, -2, -2, 6, 10, -79, -69, -18, 10, -85, 67, 74], "withholdReward": false, "trial_id": "mdp_trial_10", "block": "test", "trialIndex": 13, "score": 81.8, "costs": -4.199999999999999, "simulationMode": [null, null, null, null, null], "rewards": [-2, -2, 6, 10, 74], "path": ["0", "0", "23", "24", "25", "30", "33"], "rt": [11757, 122, 184, 476, 190], "actions": ["left", "left", "left", "down", "left"], "actionTimes": [15254, 15917, 16613, 17605, 18317], "queries": {"click": {"state": {"target": ["11", "17", "33"], "time": [6317, 8558, 12238]}, "edge": {"target": [], "time": []}}, "mouseover": {"state": {"target": ["23", "24", "26", "27", "8", "11", "4", "6", "17", "15", "22", "30", "33", "30", "31"], "time": [4294, 4495, 4792, 5393, 5677, 6160, 6978, 7195, 7395, 9401, 11076, 11776, 12026, 14208, 14377]}, "edge": {"target": [], "time": []}}, "mouseout": {"state": {"target": ["0", "1", "23", "24", "26", "27", "8", "11", "4", "6", "17", "15", "22", "30", "33", "30", "31", "21"], "time": [1826, 1910, 4412, 4727, 5260, 5477, 6009, 6778, 7073, 7229, 9379, 9512, 11242, 11976, 13411, 14326, 14475, 19525]}, "edge": {"target": [], "time": []}}}, "displayed_time": "18.81", "trialTime": 26630, "trial_type": "mouselab-mdp", "trial_index": 24, "time_elapsed": 896004, "internal_node_id": "0.0-4.0-1.0-9.0"}}, {"uniqueid": "w92508391:a47055853", "current_trial": 25, "dateTime": 1691160385523, "trialdata": {"revealed_states": [], "clicked_states": ["9", "21", "32"], "num_clicks_accrued": [0, 0, 0, 0, 0, 0, 0, 0, 0, 0, 0, 0, 0], "stateRewards": ["", -2, -4, -2, -13, -15, 87, -19, -6, -80, 30, 12, 1, 1, -8, 2, 55, 56, 15, 11, -68, -7, 55, -2, 3, -3, -3, 48, 62, 4, 1, -3, 69, -33], "withholdReward": false, "trial_id": "mdp_trial_11", "block": "test", "trialIndex": 14, "score": 63.8, "costs": -4.199999999999999, "simulationMode": [null, null, null, null, null], "rewards": [-2, 3, -3, 1, 69], "path": ["0", "0", "23", "24", "25", "30", "32"], "rt": [10426, 20, 714, 1599, 299], "actions": ["left", "left", "left", "down", "down"], "actionTimes": [15412, 15939, 17161, 19265, 20081], "queries": {"click": {"state": {"target": ["9", "21", "32"], "time": [6812, 9657, 12648]}, "edge": {"target": [], "time": []}}, "mouseover": {"state": {"target": ["2", "3", "8", "9", "8", "10", "21", "32", "32"], "time": [6063, 6147, 6229, 6429, 7215, 7298, 7915, 10149, 10414]}, "edge": {"target": [], "time": []}}, "mouseout": {"state": {"target": ["12", "0", "2", "3", "8", "9", "8", "10", "21", "32", "32", "32", "32"], "time": [3212, 5963, 6096, 6163, 6313, 7198, 7265, 7431, 9991, 10315, 15196, 15979, 22381]}, "edge": {"target": [], "time": []}}}, "displayed_time": "20.60", "trialTime": 23257, "trial_type": "mouselab-mdp", "trial_index": 25, "time_elapsed": 919691, "internal_node_id": "0.0-4.0-1.0-10.0"}}, {"uniqueid": "w92508391:a47055853", "current_trial": 26, "dateTime": 1691160406228, "trialdata": {"revealed_states": [], "clicked_states": ["9", "29", "17"], "num_clicks_accrued": [0, 0, 0, 0, 0, 0, 0, 0, 0, 0, 0, 0, 0], "stateRewards": ["", 1, 2, -3, 6, -88, 74, -45, 7, -46, 40, -77, 1, -4, 4, 3, 22, -25, -59, 8, -83, 19, -60, -1, -1, -1, -8, 26, -29, 64, -7, -88, -51, -55], "withholdReward": false, "trial_id": "mdp_trial_12", "block": "test", "trialIndex": 15, "score": 48.8, "costs": -4.199999999999999, "simulationMode": [null, null, null, null, null], "rewards": [-1, -1, -1, -8, 64], "path": ["0", "0", "23", "24", "25", "26", "29"], "rt": [8833, 26, 376, 555, 365], "actions": ["left", "left", "left", "up", "left"], "actionTimes": [12023, 12551, 13447, 14495, 15375], "queries": {"click": {"state": {"target": ["9", "29", "17"], "time": [4937, 7215, 9386]}, "edge": {"target": [], "time": []}}, "mouseover": {"state": {"target": ["1", "2", "8", "9", "11", "27", "29", "18", "15", "17", "15", "18", "25", "24"], "time": [4121, 4171, 4253, 4687, 5256, 5371, 5722, 7756, 7988, 8222, 9608, 9627, 10038, 11402]}, "edge": {"target": [], "time": []}}, "mouseout": {"state": {"target": ["18", "12", "0", "1", "2", "8", "9", "11", "27", "29", "18", "15", "17", "17", "15", "18", "25", "24", "25", "26", "27"], "time": [1520, 1753, 4054, 4153, 4204, 4304, 5205, 5278, 5404, 7676, 7789, 8055, 9468, 9605, 9624, 9641, 11386, 11453, 20169, 20203, 20251]}, "edge": {"target": [], "time": []}}}, "displayed_time": "17.19", "trialTime": 20272, "trial_type": "mouselab-mdp", "trial_index": 26, "time_elapsed": 940395, "internal_node_id": "0.0-4.0-1.0-11.0"}}, {"uniqueid": "w92508391:a47055853", "current_trial": 27, "dateTime": 1691160435235, "trialdata": {"revealed_states": [], "clicked_states": ["16", "27", "21"], "num_clicks_accrued": [0, 0, 0, 0, 0, 0, 0, 0, 0, 0, 0, 0, 0], "stateRewards": ["", 1, 4, -8, -5, -15, -7, 21, 13, -30, 40, -65, 1, 1, 5, -14, 35, 27, -38, -11, 36, -58, -47, -2, 4, -3, 13, -16, -49, 22, 15, -56, -44, -10], "withholdReward": false, "trial_id": "mdp_trial_13", "block": "test", "trialIndex": 16, "score": 23.8, "costs": -4.199999999999999, "simulationMode": [null, null, null, null, null], "rewards": [1, 1, 5, -14, 35], "path": ["0", "0", "12", "13", "14", "15", "16"], "rt": [10774, 191, 412, 458, 506], "actions": ["right", "right", "right", "up", "up"], "actionTimes": [22799, 23509, 24461, 25445, 26476], "queries": {"click": {"state": {"target": ["16", "27", "21"], "time": [15036, 17064, 19855]}, "edge": {"target": [], "time": []}}, "mouseover": {"state": {"target": ["12", "13", "14", "13", "16", "27", "31", "21"], "time": [12949, 13005, 13386, 13815, 14799, 15701, 19181, 19564]}, "edge": {"target": [], "time": []}}, "mouseout": {"state": {"target": ["0", "23", "7", "18", "12", "0", "12", "13", "14", "13", "16", "27", "31", "21"], "time": [2248, 4931, 10699, 10782, 10864, 12755, 12983, 13270, 13691, 13899, 15300, 17383, 19247, 20285]}, "edge": {"target": [], "time": []}}}, "displayed_time": "27.00", "trialTime": 28477, "trial_type": "mouselab-mdp", "trial_index": 27, "time_elapsed": 969402, "internal_node_id": "0.0-4.0-1.0-12.0"}}, {"uniqueid": "w92508391:a47055853", "current_trial": 28, "dateTime": 1691160457379, "trialdata": {"revealed_states": [], "clicked_states": ["29", "9", "21"], "num_clicks_accrued": [0, 0, 0, 0, 0, 0, 0, 0, 0, 0, 0, 0, 0], "stateRewards": ["", 1, 2, 8, -2, 23, -69, -18, -16, 54, -21, 71, -1, -4, 7, 11, 43, -6, 88, 6, -55, 72, 43, 1, -3, -2, -1, 68, -31, -54, 4, -8, 25, -2], "withholdReward": false, "trial_id": "mdp_trial_14", "block": "test", "trialIndex": 17, "score": 75.8, "costs": -4.199999999999999, "simulationMode": [null, null, null, null, null], "rewards": [-1, -4, 7, 6, 72], "path": ["0", "0", "12", "13", "14", "19", "21"], "rt": [9231, 344, 493, 645, 574], "actions": ["right", "right", "right", "down", "down"], "actionTimes": [14624, 15488, 16504, 17688, 18784], "queries": {"click": {"state": {"target": ["29", "9", "21"], "time": [7281, 9232, 11600]}, "edge": {"target": [], "time": []}}, "mouseover": {"state": {"target": ["23", "28", "26", "29", "10", "8", "9", "3", "7", "20", "21", "12", "12"], "time": [6561, 6625, 6845, 7043, 7614, 7647, 7714, 9946, 10045, 10179, 10493, 12267, 13858]}, "edge": {"target": [], "time": []}}, "mouseout": {"state": {"target": ["23", "0", "0", "23", "28", "26", "29", "10", "8", "9", "9", "3", "7", "20", "21", "12", "12"], "time": [542, 1042, 6543, 6579, 6675, 6978, 7480, 7629, 7679, 9383, 9845, 9995, 10079, 10213, 12091, 12332, 13875]}, "edge": {"target": [], "time": []}}}, "displayed_time": "19.39", "trialTime": 21552, "trial_type": "mouselab-mdp", "trial_index": 28, "time_elapsed": 991546, "internal_node_id": "0.0-4.0-1.0-13.0"}}, {"uniqueid": "w92508391:a47055853", "current_trial": 29, "dateTime": 1691160481554, "trialdata": {"revealed_states": [], "clicked_states": [], "num_clicks_accrued": [0, 0, 0, 0, 0, 0, 0, 0, 0, 0, 0, 0, 0], "stateRewards": ["", -1, 1, -6, -1, 80, 23, 2, -11, 73, -81, 59, 1, 3, 5, -1, -26, 28, -3, 16, -59, -13, -50, -2, -2, 2, 15, -50, 86, 17, -4, 37, 35, 44], "withholdReward": false, "trial_id": "mdp_trial_15", "block": "test", "trialIndex": 18, "score": -34, "costs": 0, "simulationMode": [null, null, null, null, null], "rewards": [1, 3, 5, 16, -59], "path": ["0", "0", "12", "13", "14", "19", "20"], "rt": [10479, 891, 500, 570, 1936], "actions": ["right", "right", "right", "down", "right"], "actionTimes": [14387, 15771, 16778, 17866, 20314], "queries": {"click": {"state": {"target": [], "time": []}, "edge": {"target": [], "time": []}}, "mouseover": {"state": {"target": ["26", "26", "28", "1", "18", "15", "17", "15", "18", "13", "19", "20", "33", "32"], "time": [5543, 5826, 5845, 5876, 5959, 6142, 6814, 8575, 9009, 9860, 10076, 10342, 12092, 13318]}, "edge": {"target": [], "time": []}}, "mouseout": {"state": {"target": ["3", "13", "12", "0", "26", "26", "28", "1", "18", "15", "17", "15", "18", "13", "19", "20", "33", "32"], "time": [1227, 3142, 3259, 4460, 5627, 5842, 5860, 5893, 5993, 6175, 8476, 8676, 9792, 9893, 10142, 10792, 12541, 13875]}, "edge": {"target": [], "time": []}}}, "displayed_time": "20.81", "trialTime": 23714, "trial_type": "mouselab-mdp", "trial_index": 29, "time_elapsed": 1015721, "internal_node_id": "0.0-4.0-1.0-14.0"}}, {"uniqueid": "w92508391:a47055853", "current_trial": 30, "dateTime": 1691160500378, "trialdata": {"revealed_states": [], "clicked_states": ["5", "29", "28"], "num_clicks_accrued": [0, 0, 0, 0, 0, 0, 0, 0, 0, 0, 0, 0, 0], "stateRewards": ["", -1, 1, 8, -3, -24, 11, -65, -6, -77, 48, 44, -2, 1, -2, -7, -55, -35, 33, 8, -28, 19, -53, -1, -1, -5, -5, -70, 10, 44, 8, -58, -70, 51], "withholdReward": false, "trial_id": "mdp_trial_16", "block": "test", "trialIndex": 19, "score": 27.8, "costs": -4.199999999999999, "simulationMode": [null, null, null, null, null], "rewards": [-1, -1, -5, -5, 44], "path": ["0", "0", "23", "24", "25", "26", "29"], "rt": [10817, 245, 206, 610, 431], "actions": ["left", "left", "left", "up", "left"], "actionTimes": [12709, 13532, 14252, 15372, 16324], "queries": {"click": {"state": {"target": ["5", "29", "28"], "time": [3869, 6838, 10141]}, "edge": {"target": [], "time": []}}, "mouseover": {"state": {"target": ["5", "2", "25", "33", "33", "29", "25", "28", "24", "0"], "time": [3625, 4261, 4427, 4494, 4810, 6593, 7278, 9753, 10762, 10812]}, "edge": {"target": [], "time": []}}, "mouseout": {"state": {"target": ["30", "23", "5", "2", "25", "33", "33", "29", "29", "25", "28", "24", "0"], "time": [642, 975, 4138, 4294, 4461, 4696, 6460, 6932, 7078, 7311, 10693, 10781, 10830]}, "edge": {"target": [], "time": []}}}, "displayed_time": "16.83", "trialTime": 18324, "trial_type": "mouselab-mdp", "trial_index": 30, "time_elapsed": 1034545, "internal_node_id": "0.0-4.0-1.0-15.0"}}, {"uniqueid": "w92508391:a47055853", "current_trial": 31, "dateTime": 1691160522715, "trialdata": {"revealed_states": [], "clicked_states": [], "num_clicks_accrued": [0, 0, 0, 0, 0, 0, 0, 0, 0, 0, 0, 0, 0], "stateRewards": ["", -1, -3, -3, 1, -38, 2, -53, -2, -1, -81, 70, -1, 1, -5, -9, 46, 15, 35, -1, -22, 38, 59, -2, 4, -8, 13, 1, -83, -43, 4, 76, 13, 48], "withholdReward": false, "trial_id": "mdp_trial_17", "block": "test", "trialIndex": 20, "score": 53, "costs": 0, "simulationMode": [null, null, null, null, null], "rewards": [-1, 1, -5, -1, 59], "path": ["0", "0", "12", "13", "14", "19", "22"], "rt": [7054, 759, 972, 1017, 1620], "actions": ["right", "right", "right", "down", "left"], "actionTimes": [11217, 12488, 13968, 15496, 17633], "queries": {"click": {"state": {"target": [], "time": []}, "edge": {"target": [], "time": []}}, "mouseover": {"state": {"target": ["1", "2", "1", "12", "18", "15", "16", "4", "3", "8", "26", "33", "29"], "time": [4293, 4378, 4793, 5244, 6543, 6595, 6909, 7433, 7474, 7709, 7860, 8159, 9393]}, "edge": {"target": [], "time": []}}, "mouseout": {"state": {"target": ["1", "1", "2", "1", "12", "18", "15", "16", "4", "3", "8", "26", "33", "29"], "time": [3594, 4344, 4726, 4876, 6476, 6559, 6610, 7393, 7449, 7486, 7743, 7926, 8276, 10325]}, "edge": {"target": [], "time": []}}}, "displayed_time": "18.16", "trialTime": 21881, "trial_type": "mouselab-mdp", "trial_index": 31, "time_elapsed": 1056883, "internal_node_id": "0.0-4.0-1.0-16.0"}}, {"uniqueid": "w92508391:a47055853", "current_trial": 32, "dateTime": 1691160545011, "trialdata": {"revealed_states": [], "clicked_states": ["9", "33", "16"], "num_clicks_accrued": [0, 0, 0, 0, 0, 0, 0, 0, 0, 0, 0, 0, 0], "stateRewards": ["", 2, 4, 7, 7, -79, -2, -21, -5, -53, 47, -21, 1, -3, -1, 7, 83, 7, 84, -7, 80, -37, 69, 2, -4, 5, 2, 4, -20, -30, 7, 71, 44, -81], "withholdReward": false, "trial_id": "mdp_trial_18", "block": "test", "trialIndex": 21, "score": 82.8, "costs": -4.199999999999999, "simulationMode": [null, null, null, null, null], "rewards": [1, -3, -1, 7, 83], "path": ["0", "0", "12", "13", "14", "15", "16"], "rt": [11924, 262, 585, 666, 222], "actions": ["right", "right", "right", "up", "up"], "actionTimes": [15925, 16700, 17804, 18988, 19708], "queries": {"click": {"state": {"target": ["9", "33", "16"], "time": [6046, 10085, 13076]}, "edge": {"target": [], "time": []}}, "mouseover": {"state": {"target": ["1", "8", "9", "9", "7", "18", "20", "21", "30", "24", "25", "33", "30", "16", "15", "17"], "time": [4853, 4904, 4953, 5687, 6841, 6873, 7035, 7299, 8183, 8600, 8917, 9383, 12000, 12800, 14153, 15284]}, "edge": {"target": [], "time": []}}, "mouseout": {"state": {"target": ["8", "7", "12", "0", "1", "8", "9", "9", "9", "7", "18", "20", "21", "30", "24", "25", "33", "30", "16", "16", "15", "17"], "time": [1200, 1250, 2517, 3117, 4871, 4921, 5036, 6128, 6801, 6870, 6886, 7187, 7684, 8318, 8833, 9084, 11983, 12017, 13174, 14018, 15249, 15333]}, "edge": {"target": [], "time": []}}}, "displayed_time": "20.20", "trialTime": 21820, "trial_type": "mouselab-mdp", "trial_index": 32, "time_elapsed": 1079178, "internal_node_id": "0.0-4.0-1.0-17.0"}}, {"uniqueid": "w92508391:a47055853", "current_trial": 33, "dateTime": 1691160568845, "trialdata": {"revealed_states": [], "clicked_states": ["11", "6", "33"], "num_clicks_accrued": [0, 0, 0, 0, 0, 0, 0, 0, 0, 0, 0, 0, 0], "stateRewards": ["", 2, -4, -4, 13, -80, 62, 13, -11, 57, -13, -44, 1, 4, 3, -4, -29, -88, 15, 16, -58, 68, -45, -1, -3, -1, -9, -44, -86, -19, -7, -36, 59, 66], "withholdReward": false, "trial_id": "mdp_trial_19", "block": "test", "trialIndex": 22, "score": 49.8, "costs": -4.199999999999999, "simulationMode": [null, null, null, null, null], "rewards": [-1, -3, -1, -7, 66], "path": ["0", "0", "23", "24", "25", "30", "33"], "rt": [11693, 70, 448, 953, 860], "actions": ["left", "left", "left", "down", "left"], "actionTimes": [15327, 15918, 16880, 18351, 19727], "queries": {"click": {"state": {"target": ["11", "6", "33"], "time": [6530, 8869, 11621]}, "edge": {"target": [], "time": []}}, "mouseover": {"state": {"target": ["23", "11", "8", "3", "4", "6", "12", "13", "22", "33", "30", "31", "0", "12"], "time": [5897, 6281, 6899, 6949, 7032, 7132, 9481, 9681, 10081, 11362, 12199, 12249, 12332, 13179]}, "edge": {"target": [], "time": []}}, "mouseout": {"state": {"target": ["16", "15", "22", "12", "0", "23", "11", "8", "3", "4", "6", "12", "13", "22", "33", "30", "31", "0", "12", "17", "20"], "time": [1899, 2247, 2297, 2497, 4647, 5914, 6866, 6932, 6982, 7099, 9149, 9547, 9699, 10198, 12181, 12232, 12265, 12349, 13213, 22694, 22745]}, "edge": {"target": [], "time": []}}}, "displayed_time": "20.23", "trialTime": 23353, "trial_type": "mouselab-mdp", "trial_index": 33, "time_elapsed": 1103012, "internal_node_id": "0.0-4.0-1.0-18.0"}}, {"uniqueid": "w92508391:a47055853", "current_trial": 34, "dateTime": 1691160587611, "trialdata": {"revealed_states": [], "clicked_states": ["11", "17", "31"], "num_clicks_accrued": [0, 0, 0, 0, 0, 0, 0, 0, 0, 0, 0, 0, 0], "stateRewards": ["", -1, -2, 4, 9, 10, -75, 39, 16, -43, 88, -19, -1, 1, 2, 4, -31, 10, 73, 12, 41, -64, -81, -2, 2, -6, 1, -81, -1, -26, 3, -59, -3, -20], "withholdReward": false, "trial_id": "mdp_trial_20", "block": "test", "trialIndex": 23, "score": 11.8, "costs": -4.199999999999999, "simulationMode": [null, null, null, null, null], "rewards": [-1, 1, 2, 4, 10], "path": ["0", "0", "12", "13", "14", "15", "17"], "rt": [8996, 480, 234, 228, 325], "actions": ["right", "right", "right", "up", "right"], "actionTimes": [12483, 13476, 14227, 14971, 15819], "queries": {"click": {"state": {"target": ["11", "17", "31"], "time": [4520, 6795, 9579]}, "edge": {"target": [], "time": []}}, "mouseover": {"state": {"target": ["10", "11", "26", "29", "26", "28", "13", "14", "17", "13", "31", "31"], "time": [4009, 4243, 5073, 5134, 5482, 5505, 5651, 5712, 6035, 7174, 7328, 7943]}, "edge": {"target": [], "time": []}}, "mouseout": {"state": {"target": ["12", "7", "4", "12", "10", "11", "26", "29", "26", "28", "13", "14", "17", "13", "31", "31"], "time": [709, 758, 826, 2792, 4027, 4937, 5111, 5462, 5499, 5523, 5688, 5763, 7131, 7211, 7447, 10827]}, "edge": {"target": [], "time": []}}}, "displayed_time": "17.49", "trialTime": 18267, "trial_type": "mouselab-mdp", "trial_index": 34, "time_elapsed": 1121778, "internal_node_id": "0.0-4.0-1.0-19.0"}}, {"uniqueid": "w92508391:a47055853", "current_trial": 35, "dateTime": 1691160608253, "trialdata": {"revealed_states": [], "clicked_states": [], "num_clicks_accrued": [0, 0, 0, 0, 0, 0, 0, 0, 0, 0, 0, 0, 0], "stateRewards": ["", 1, -1, 8, -3, 38, 85, -20, -4, 8, 23, 73, 2, -4, 6, -13, 44, 7, -28, -11, -77, 45, -69, 1, -1, -7, -11, 75, -51, -87, 7, 36, -53, -26], "withholdReward": false, "trial_id": "mdp_trial_21", "block": "test", "trialIndex": 24, "score": -69, "costs": 0, "simulationMode": [null, null, null, null, null], "rewards": [1, -1, -7, -11, -51], "path": ["0", "0", "23", "24", "25", "26", "28"], "rt": [7055, 106, 227, 311, 111], "actions": ["left", "left", "left", "up", "right"], "actionTimes": [11895, 12541, 13278, 14094, 14710], "queries": {"click": {"state": {"target": [], "time": []}, "edge": {"target": [], "time": []}}, "mouseover": {"state": {"target": ["0", "23", "29", "26", "28", "28", "26", "29"], "time": [6232, 6565, 7399, 7598, 7982, 9649, 9748, 9831]}, "edge": {"target": [], "time": []}}, "mouseout": {"state": {"target": ["1", "4", "7", "1", "23", "0", "23", "29", "26", "28", "28", "26", "29"], "time": [3632, 3681, 3848, 3881, 4097, 6249, 7066, 7532, 7715, 8598, 9715, 9782, 10548]}, "edge": {"target": [], "time": []}}}, "displayed_time": "18.84", "trialTime": 20168, "trial_type": "mouselab-mdp", "trial_index": 35, "time_elapsed": 1142420, "internal_node_id": "0.0-4.0-1.0-20.0"}}, {"uniqueid": "w92508391:a47055853", "current_trial": 36, "dateTime": 1691160627380, "trialdata": {"revealed_states": [], "clicked_states": ["6", "32", "21"], "num_clicks_accrued": [0, 0, 0, 0, 0, 0, 0, 0, 0, 0, 0, 0, 0], "stateRewards": ["", -2, 2, 2, -6, 9, 37, 50, -13, -7, -18, -75, -2, -4, 4, 7, 23, -57, -66, -7, -81, -48, -76, 1, 1, -8, 1, 51, -2, 70, 14, 59, 71, -37], "withholdReward": false, "trial_id": "mdp_trial_22", "block": "test", "trialIndex": 25, "score": 74.8, "costs": -4.199999999999999, "simulationMode": [null, null, null, null, null], "rewards": [1, 1, -8, 14, 71], "path": ["0", "0", "23", "24", "25", "30", "32"], "rt": [8087, 6, 865, 538, 152], "actions": ["left", "left", "left", "down", "down"], "actionTimes": [11246, 11764, 13141, 14197, 14860], "queries": {"click": {"state": {"target": ["6", "32", "21"], "time": [4093, 6164, 8774]}, "edge": {"target": [], "time": []}}, "mouseover": {"state": {"target": ["7", "6", "23", "30", "32", "21", "31", "31"], "time": [3505, 3772, 4641, 4684, 5007, 6923, 9639, 9807]}, "edge": {"target": [], "time": []}}, "mouseout": {"state": {"target": ["26", "27", "9", "8", "1", "0", "0", "7", "6", "6", "23", "30", "32", "21", "31", "31", "31"], "time": [775, 804, 1021, 1055, 1371, 1455, 3405, 3555, 4179, 4506, 4664, 4705, 6424, 9105, 9690, 15954, 16671]}, "edge": {"target": [], "time": []}}}, "displayed_time": "17.16", "trialTime": 18653, "trial_type": "mouselab-mdp", "trial_index": 36, "time_elapsed": 1161547, "internal_node_id": "0.0-4.0-1.0-21.0"}}, {"uniqueid": "w92508391:a47055853", "current_trial": 37, "dateTime": 1691160647651, "trialdata": {"revealed_states": [], "clicked_states": [], "num_clicks_accrued": [0, 0, 0, 0, 0, 0, 0, 0, 0, 0, 0, 0, 0], "stateRewards": ["", 2, -1, -4, -13, 74, 77, 3, 2, -43, -2, -11, 2, 3, 7, 11, -26, -29, -33, -3, -3, -13, -3, 1, 3, -7, 14, -59, 33, 9, -5, 34, 79, 68], "withholdReward": false, "trial_id": "mdp_trial_23", "block": "test", "trialIndex": 26, "score": -48, "costs": 0, "simulationMode": [null, null, null, null, null], "rewards": [1, 3, -7, 14, -59], "path": ["0", "0", "23", "24", "25", "26", "27"], "rt": [7763, 39, 1244, 1719, 3], "actions": ["left", "left", "left", "up", "up"], "actionTimes": [12509, 13052, 14805, 17060, 17564], "queries": {"click": {"state": {"target": [], "time": []}, "edge": {"target": [], "time": []}}, "mouseover": {"state": {"target": ["0"], "time": [8909]}, "edge": {"target": [], "time": []}}, "mouseout": {"state": {"target": ["0", "0"], "time": [4767, 11700]}, "edge": {"target": [], "time": []}}}, "displayed_time": "18.75", "trialTime": 19732, "trial_type": "mouselab-mdp", "trial_index": 37, "time_elapsed": 1181819, "internal_node_id": "0.0-4.0-1.0-22.0"}}, {"uniqueid": "w92508391:a47055853", "current_trial": 38, "dateTime": 1691160666716, "trialdata": {"revealed_states": [], "clicked_states": ["20", "9", "5"], "num_clicks_accrued": [0, 0, 0, 0, 0, 0, 0, 0, 0, 0, 0, 0, 0], "stateRewards": ["", -1, 2, -2, 13, -56, -28, 10, 14, 53, -80, -29, 1, -3, -3, -14, 14, 9, -40, -9, 18, 18, 48, 1, 1, 1, -9, 64, -39, -9, 7, -52, -78, 7], "withholdReward": false, "trial_id": "mdp_trial_24", "block": "test", "trialIndex": 27, "score": 61.8, "costs": -4.199999999999999, "simulationMode": [null, null, null, null, null], "rewards": [-1, 2, -2, 14, 53], "path": ["0", "0", "1", "2", "3", "8", "9"], "rt": [8044, 751, 204, 568, 325], "actions": ["up", "up", "up", "left", "up"], "actionTimes": [10507, 11779, 12483, 13563, 14403], "queries": {"click": {"state": {"target": ["20", "9", "5"], "time": [4309, 6036, 8452]}, "edge": {"target": [], "time": []}}, "mouseover": {"state": {"target": ["22", "19", "20", "19", "22", "28", "26", "27", "8", "9", "5", "4", "2", "1"], "time": [3742, 3776, 4026, 4645, 4778, 4912, 4987, 5160, 5294, 5476, 8175, 8760, 8844, 8894]}, "edge": {"target": [], "time": []}}, "mouseout": {"state": {"target": ["0", "22", "19", "20", "20", "19", "22", "28", "26", "27", "8", "9", "5", "4", "2", "1"], "time": [2992, 3758, 3909, 4366, 4594, 4729, 4811, 4934, 5076, 5178, 5393, 6644, 8727, 8793, 8862, 9111]}, "edge": {"target": [], "time": []}}}, "displayed_time": "16.46", "trialTime": 18532, "trial_type": "mouselab-mdp", "trial_index": 38, "time_elapsed": 1200883, "internal_node_id": "0.0-4.0-1.0-23.0"}}, {"uniqueid": "w92508391:a47055853", "current_trial": 39, "dateTime": 1691160686250, "trialdata": {"revealed_states": [], "clicked_states": [], "num_clicks_accrued": [0, 0, 0, 0, 0, 0, 0, 0, 0, 0, 0, 0, 0], "stateRewards": ["", -1, 3, -5, -2, -13, -9, -34, -7, -81, 32, 35, -2, -2, 1, -14, -32, 81, 7, 4, 82, 56, -8, -1, 3, -8, 6, -24, -24, -53, 2, 38, 61, 54], "withholdReward": false, "trial_id": "mdp_trial_25", "block": "test", "trialIndex": 28, "score": 34, "costs": 0, "simulationMode": [null, null, null, null, null], "rewards": [-1, 3, -8, 2, 38], "path": ["0", "0", "23", "24", "25", "30", "31"], "rt": [8009, 1177, 505, 543, 222], "actions": ["left", "left", "left", "down", "right"], "actionTimes": [11437, 13125, 14133, 15189, 15933], "queries": {"click": {"state": {"target": [], "time": []}, "edge": {"target": [], "time": []}}, "mouseover": {"state": {"target": ["0", "12", "22", "22", "29", "23", "0"], "time": [4089, 4728, 5011, 5160, 5827, 8360, 8427]}, "edge": {"target": [], "time": []}}, "mouseout": {"state": {"target": ["0", "0", "12", "22", "22", "29", "23", "0"], "time": [2794, 4710, 4895, 5027, 5177, 7977, 8393, 8477]}, "edge": {"target": [], "time": []}}}, "displayed_time": "17.43", "trialTime": 19004, "trial_type": "mouselab-mdp", "trial_index": 39, "time_elapsed": 1220418, "internal_node_id": "0.0-4.0-1.0-24.0"}}, {"uniqueid": "w92508391:a47055853", "current_trial": 40, "dateTime": 1691160708202, "trialdata": {"revealed_states": [], "clicked_states": ["27", "32", "20", "5"], "num_clicks_accrued": [0, 0, 0, 0, 0, 0, 0, 0, 0, 0, 0, 0, 0], "stateRewards": ["", 2, -4, -8, -15, 71, -43, -41, 7, -17, 20, 67, -1, -1, -4, 6, 37, -24, -47, 9, 34, 57, 45, 1, 2, -4, -5, -23, 88, -5, 13, -40, 43, 44], "withholdReward": false, "trial_id": "mdp_trial_26", "block": "test", "trialIndex": 29, "score": 40.4, "costs": -5.6, "simulationMode": [null, null, null, null, null], "rewards": [2, -4, -8, -15, 71], "path": ["0", "0", "1", "2", "3", "4", "5"], "rt": [10970, 606, 139, 121, 200], "actions": ["up", "up", "up", "right", "up"], "actionTimes": [14490, 15593, 16241, 16857, 17569], "queries": {"click": {"state": {"target": ["27", "32", "20", "5"], "time": [4362, 6176, 9153, 11014]}, "edge": {"target": [], "time": []}}, "mouseover": {"state": {"target": ["23", "28", "26", "27", "26", "25", "32", "19", "20", "17", "16", "6", "5", "4", "16", "15", "13"], "time": [3683, 3800, 3851, 4084, 4627, 4667, 5053, 6852, 7157, 10267, 10434, 10534, 10782, 11735, 12599, 13316, 13549]}, "edge": {"target": [], "time": []}}, "mouseout": {"state": {"target": ["0", "23", "28", "26", "27", "26", "25", "32", "19", "20", "17", "16", "6", "5", "4", "16", "15", "13"], "time": [3537, 3750, 3818, 3900, 4588, 4660, 4700, 6262, 7003, 9937, 10385, 10468, 10568, 11517, 11918, 12816, 13399, 13583]}, "edge": {"target": [], "time": []}}}, "displayed_time": "18.09", "trialTime": 21248, "trial_type": "mouselab-mdp", "trial_index": 40, "time_elapsed": 1242370, "internal_node_id": "0.0-4.0-1.0-25.0"}}, {"uniqueid": "w92508391:a47055853", "current_trial": 41, "dateTime": 1691160735228, "trialdata": {"revealed_states": [], "clicked_states": ["29", "17", "32", "21", "5", "9", "22"], "num_clicks_accrued": [0, 0, 0, 0, 0, 0, 0, 0, 0, 0, 0, 0, 0], "stateRewards": ["", 2, 3, 3, 10, 19, -21, 6, 9, 54, 68, 16, 2, 2, -6, -8, 40, -2, -75, -2, -42, 55, 59, -1, 2, 4, -14, 11, -34, -30, -6, 61, -53, 13], "withholdReward": false, "trial_id": "mdp_trial_27", "block": "test", "trialIndex": 30, "score": 41.2, "costs": -9.8, "simulationMode": [null, null, null, null, null], "rewards": [2, 2, -6, -2, 55], "path": ["0", "0", "12", "13", "14", "19", "21"], "rt": [18195, 328, 103, 327, 166], "actions": ["right", "right", "right", "down", "down"], "actionTimes": [20441, 21289, 21896, 22737, 23408], "queries": {"click": {"state": {"target": ["29", "17", "32", "21", "5", "9", "22"], "time": [4044, 5874, 8233, 10161, 12201, 14363, 16881]}, "edge": {"target": [], "time": []}}, "mouseover": {"state": {"target": ["1", "2", "3", "27", "29", "17", "20", "14", "4", "2", "31", "32", "21", "13", "7", "4", "5", "9", "8", "2", "1", "13", "22", "19", "19"], "time": [2893, 2994, 3060, 3543, 3709, 4660, 6278, 6496, 6811, 6978, 7126, 7345, 9094, 10761, 10861, 10981, 11311, 13011, 14682, 14761, 14827, 16174, 16475, 18208, 18990]}, "edge": {"target": [], "time": []}}, "mouseout": {"state": {"target": ["0", "1", "2", "3", "27", "29", "17", "20", "14", "4", "2", "31", "32", "32", "21", "13", "7", "4", "5", "9", "8", "2", "1", "13", "22", "19", "19", "0"], "time": [1492, 2959, 3027, 3243, 3578, 4479, 6111, 6478, 6528, 6946, 7033, 7212, 8316, 8561, 10610, 10779, 10911, 11111, 12316, 14644, 14695, 14779, 15011, 16391, 18110, 18409, 19025, 25925]}, "edge": {"target": [], "time": []}}}, "displayed_time": "23.93", "trialTime": 26186, "trial_type": "mouselab-mdp", "trial_index": 41, "time_elapsed": 1269396, "internal_node_id": "0.0-4.0-1.0-26.0"}}, {"uniqueid": "w92508391:a47055853", "current_trial": 42, "dateTime": 1691160764163, "trialdata": {"revealed_states": [], "clicked_states": ["33", "31", "20", "5", "9", "29", "28"], "num_clicks_accrued": [0, 0, 0, 0, 0, 0, 0, 0, 0, 0, 0, 0, 0], "stateRewards": ["", -1, 3, -4, -14, 78, 67, 2, 13, -32, 28, 39, -2, 1, -4, -4, -4, -42, -86, 11, 64, -29, -32, -1, -4, 2, -7, 5, 68, -61, 2, -21, 85, 50], "withholdReward": false, "trial_id": "mdp_trial_28", "block": "test", "trialIndex": 31, "score": 52.2, "costs": -9.8, "simulationMode": [null, null, null, null, null], "rewards": [-1, 3, -4, -14, 78], "path": ["0", "0", "1", "2", "3", "4", "5"], "rt": [16921, 367, 125, 579, 825], "actions": ["up", "up", "up", "right", "up"], "actionTimes": [19494, 20382, 21021, 22142, 23470], "queries": {"click": {"state": {"target": ["33", "31", "20", "5", "9", "29", "28"], "time": [3255, 5165, 7144, 9195, 11413, 13846, 16830]}, "edge": {"target": [], "time": []}}, "mouseover": {"state": {"target": ["23", "31", "33", "30", "31", "19", "20", "20", "14", "18", "4", "5", "9", "11", "27", "29", "26", "28", "24", "30"], "time": [2661, 2728, 2995, 3599, 3963, 5865, 6163, 6633, 7548, 7584, 7697, 8163, 11111, 11764, 11980, 12114, 14295, 14578, 18371, 18409]}, "edge": {"target": [], "time": []}}, "mouseout": {"state": {"target": ["23", "31", "33", "30", "31", "19", "20", "20", "14", "18", "4", "5", "9", "11", "27", "29", "26", "28", "28", "24"], "time": [2679, 2761, 3580, 3631, 5447, 6148, 6181, 7497, 7564, 7599, 7897, 10794, 11680, 11863, 12047, 13953, 14345, 18198, 18368, 18379]}, "edge": {"target": [], "time": []}}}, "displayed_time": "23.99", "trialTime": 28110, "trial_type": "mouselab-mdp", "trial_index": 42, "time_elapsed": 1298330, "internal_node_id": "0.0-4.0-1.0-27.0"}}, {"uniqueid": "w92508391:a47055853", "current_trial": 43, "dateTime": 1691160796563, "trialdata": {"revealed_states": [], "clicked_states": ["17", "29", "5", "32", "21", "11"], "num_clicks_accrued": [0, 0, 0, 0, 0, 0, 0, 0, 0, 0, 0, 0, 0], "stateRewards": ["", 2, -1, 1, 10, -52, 86, -22, -2, -14, -63, 38, 1, 3, 7, -8, 11, -32, -27, 9, -71, 40, -87, -2, -1, 5, -7, 12, 31, -57, 13, 86, -58, 29], "withholdReward": false, "trial_id": "mdp_trial_29", "block": "test", "trialIndex": 32, "score": 51.6, "costs": -8.4, "simulationMode": [null, null, null, null, null], "rewards": [1, 3, 7, 9, 40], "path": ["0", "0", "12", "13", "14", "19", "21"], "rt": [17480, 464, 112, 1000, 252], "actions": ["right", "right", "right", "down", "down"], "actionTimes": [21985, 22953, 23569, 25089, 25841], "queries": {"click": {"state": {"target": ["17", "29", "5", "32", "21", "11"], "time": [6451, 9065, 11018, 12960, 15474, 18426]}, "edge": {"target": [], "time": []}}, "mouseover": {"state": {"target": ["18", "15", "17", "17", "28", "26", "29", "8", "5", "4", "7", "1", "23", "30", "32", "21", "22", "12", "1", "10", "11", "23", "0", "22", "19", "20"], "time": [5772, 5821, 5971, 6338, 7097, 7262, 7391, 9694, 10239, 11340, 11390, 11506, 11590, 11789, 12005, 15253, 17637, 17703, 17787, 17886, 18170, 19105, 19322, 19670, 19888, 19947]}, "edge": {"target": [], "time": []}}, "mouseout": {"state": {"target": ["30", "25", "11", "9", "0", "18", "15", "17", "17", "28", "26", "29", "8", "5", "4", "7", "1", "23", "30", "32", "21", "22", "12", "1", "10", "11", "23", "0", "22", "19", "20"], "time": [1604, 1639, 1706, 1739, 5688, 5804, 5905, 6038, 6823, 7236, 7324, 9523, 9874, 11307, 11374, 11439, 11540, 11624, 11807, 14887, 17453, 17654, 17721, 17804, 17936, 18721, 19287, 19338, 19773, 19943, 19959]}, "edge": {"target": [], "time": []}}}, "displayed_time": "26.34", "trialTime": 31657, "trial_type": "mouselab-mdp", "trial_index": 43, "time_elapsed": 1330730, "internal_node_id": "0.0-4.0-1.0-28.0"}}, {"uniqueid": "w92508391:a47055853", "current_trial": 44, "dateTime": 1691160830786, "trialdata": {"revealed_states": [], "clicked_states": ["32", "6", "20", "27", "9", "5"], "num_clicks_accrued": [0, 0, 0, 0, 0, 0, 0, 0, 0, 0, 0, 0, 0], "stateRewards": ["", 2, -1, 3, -12, -83, 6, -33, 9, 28, 24, -50, -2, -1, -2, -5, -87, 37, 82, 12, 80, -5, 10, -2, -3, -6, 9, 22, -1, 16, 9, 77, -62, 58], "withholdReward": false, "trial_id": "mdp_trial_30", "block": "test", "trialIndex": 33, "score": 78.6, "costs": -8.4, "simulationMode": [null, null, null, null, null], "rewards": [-2, -1, -2, 12, 80], "path": ["0", "0", "12", "13", "14", "19", "20"], "rt": [18040, 405, 203, 604, 226], "actions": ["right", "right", "right", "down", "right"], "actionTimes": [22310, 23222, 23933, 25053, 25774], "queries": {"click": {"state": {"target": ["32", "6", "20", "27", "9", "5"], "time": [5150, 7502, 10005, 12206, 15759, 18447]}, "edge": {"target": [], "time": []}}, "mouseover": {"state": {"target": ["0", "32", "31", "23", "6", "15", "20", "0", "23", "27", "11", "9", "5"], "time": [4529, 4946, 6671, 6746, 7247, 9313, 9796, 10299, 10319, 10582, 12849, 13130, 18062]}, "edge": {"target": [], "time": []}}, "mouseout": {"state": {"target": ["0", "0", "32", "32", "31", "23", "6", "15", "20", "0", "23", "27", "11", "9", "5", "5", "15", "13"], "time": [3579, 4564, 5699, 6516, 6686, 6764, 8032, 9363, 10104, 10315, 10334, 12338, 12882, 17862, 18564, 19614, 28328, 28376]}, "edge": {"target": [], "time": []}}}, "displayed_time": "26.31", "trialTime": 33693, "trial_type": "mouselab-mdp", "trial_index": 44, "time_elapsed": 1364954, "internal_node_id": "0.0-4.0-1.0-29.0"}}, {"uniqueid": "w92508391:a47055853", "current_trial": 45, "dateTime": 1691160855851, "trialdata": {"revealed_states": [], "clicked_states": ["27", "17", "31", "33", "5"], "num_clicks_accrued": [0, 0, 0, 0, 0, 0, 0, 0, 0, 0, 0, 0, 0], "stateRewards": ["", 2, -3, -2, 14, -4, 85, 46, 15, -28, 41, 31, -1, -1, -1, 5, 62, 79, 57, 12, -73, -64, 86, -1, 1, -3, -5, 68, 11, -32, 8, -80, -21, -56], "withholdReward": false, "trial_id": "mdp_trial_31", "block": "test", "trialIndex": 34, "score": 74, "costs": -7, "simulationMode": [null, null, null, null, null], "rewards": [-1, -1, -1, 5, 79], "path": ["0", "0", "12", "13", "14", "15", "17"], "rt": [14482, 21, 364, 935, 517], "actions": ["right", "right", "right", "up", "right"], "actionTimes": [18010, 18553, 19426, 20882, 21914], "queries": {"click": {"state": {"target": ["27", "17", "31", "33", "5"], "time": [4499, 6346, 8449, 11180, 13538]}, "edge": {"target": [], "time": []}}, "mouseover": {"state": {"target": ["1", "2", "10", "27", "10", "18", "15", "17", "17", "14", "13", "31", "33", "30", "12", "7", "4", "5", "4", "16", "15", "18", "12", "22", "19"], "time": [3829, 3912, 3980, 4312, 4964, 5014, 5035, 5054, 5364, 6666, 6686, 7246, 10894, 11781, 11946, 12049, 12173, 12299, 15777, 15827, 16178, 16212, 16427, 16493, 16627]}, "edge": {"target": [], "time": []}}, "mouseout": {"state": {"target": ["0", "1", "2", "10", "27", "10", "18", "15", "17", "17", "14", "13", "31", "33", "30", "12", "7", "4", "5", "4", "16", "15", "18", "12", "22", "19"], "time": [3011, 3878, 3946, 4029, 4897, 4982, 5031, 5050, 5090, 6663, 6682, 6704, 10677, 11696, 11814, 11980, 12102, 12245, 15526, 15794, 15844, 16195, 16244, 16461, 16544, 16827]}, "edge": {"target": [], "time": []}}}, "displayed_time": "22.41", "trialTime": 24395, "trial_type": "mouselab-mdp", "trial_index": 45, "time_elapsed": 1390019, "internal_node_id": "0.0-4.0-1.0-30.0"}}, {"uniqueid": "w92508391:a47055853", "current_trial": 46, "dateTime": 1691160888692, "trialdata": {"revealed_states": [], "clicked_states": ["27", "28", "22", "20", "5", "17"], "num_clicks_accrued": [0, 0, 0, 0, 0, 0, 0, 0, 0, 0, 0, 0, 0], "stateRewards": ["", -1, 1, -1, 2, 19, 85, -18, 2, -3, -26, 36, 2, 4, 7, -9, -18, 70, 72, -5, 35, -20, -28, 1, -2, -4, -3, -59, -11, -63, -2, -72, 59, -69], "withholdReward": false, "trial_id": "mdp_trial_32", "block": "test", "trialIndex": 35, "score": 65.6, "costs": -8.4, "simulationMode": [null, null, null, null, null], "rewards": [2, 4, 7, -9, 70], "path": ["0", "0", "12", "13", "14", "15", "17"], "rt": [15318, 413, 155, 87, 72], "actions": ["right", "right", "right", "up", "right"], "actionTimes": [17521, 18434, 19106, 19707, 20297], "queries": {"click": {"state": {"target": ["27", "28", "22", "20", "5", "17"], "time": [3410, 5490, 7434, 9586, 12651, 14779]}, "edge": {"target": [], "time": []}}, "mouseover": {"state": {"target": ["28", "27", "28", "23", "22", "19", "20", "15", "16", "6", "5", "6", "16", "17"], "time": [2801, 3101, 3669, 5821, 6453, 8041, 8535, 9836, 9869, 9954, 10169, 13303, 13835, 14137]}, "edge": {"target": [], "time": []}}, "mouseout": {"state": {"target": ["21", "0", "28", "27", "28", "23", "22", "19", "20", "15", "16", "6", "5", "6", "16", "17"], "time": [1051, 1766, 2851, 3586, 5787, 5870, 8007, 8075, 9692, 9853, 9905, 10087, 13168, 13402, 14002, 15335]}, "edge": {"target": [], "time": []}}}, "displayed_time": "20.82", "trialTime": 32227, "trial_type": "mouselab-mdp", "trial_index": 46, "time_elapsed": 1422859, "internal_node_id": "0.0-4.0-1.0-31.0"}}, {"uniqueid": "w92508391:a47055853", "current_trial": 47, "dateTime": 1691160913823, "trialdata": {"revealed_states": [], "clicked_states": ["16", "32", "9", "21", "6", "27"], "num_clicks_accrued": [0, 0, 0, 0, 0, 0, 0, 0, 0, 0, 0, 0, 0], "stateRewards": ["", -2, -1, -6, -14, -55, 78, -13, 11, 14, -71, 59, 2, 2, 6, -6, 9, 38, 14, 7, 85, 11, 68, 1, -4, -1, -3, -63, -85, 9, -2, 63, -86, -10], "withholdReward": false, "trial_id": "mdp_trial_33", "block": "test", "trialIndex": 36, "score": 46.6, "costs": -8.4, "simulationMode": [null, null, null, null, null], "rewards": [-2, -1, -6, -14, 78], "path": ["0", "0", "1", "2", "3", "4", "6"], "rt": [15074, 486, 102, 149, 68], "actions": ["up", "up", "up", "right", "right"], "actionTimes": [17537, 18537, 19154, 19817, 20417], "queries": {"click": {"state": {"target": ["16", "32", "9", "21", "6", "27"], "time": [4242, 6209, 8331, 10507, 13211, 15300]}, "edge": {"target": [], "time": []}}, "mouseover": {"state": {"target": ["18", "15", "16", "13", "32", "30", "28", "9", "9", "5", "6", "19", "21", "22", "13", "18", "6", "6", "7", "1", "27", "29"], "time": [3733, 3783, 3982, 4551, 4885, 6469, 6537, 6635, 6952, 8984, 9069, 9402, 9717, 11552, 11718, 11818, 11951, 12967, 13851, 13951, 14533, 16100]}, "edge": {"target": [], "time": []}}, "mouseout": {"state": {"target": ["21", "0", "18", "15", "16", "13", "32", "30", "28", "9", "9", "5", "6", "19", "21", "21", "22", "13", "18", "6", "6", "6", "7", "1", "27", "29", "27", "27"], "time": [433, 949, 3766, 3899, 4452, 4570, 6434, 6502, 6555, 6653, 8447, 9035, 9085, 9434, 10599, 10901, 11667, 11784, 11851, 11967, 13307, 13584, 13868, 13967, 16033, 22430, 22480, 22614]}, "edge": {"target": [], "time": []}}}, "displayed_time": "20.93", "trialTime": 24494, "trial_type": "mouselab-mdp", "trial_index": 47, "time_elapsed": 1447990, "internal_node_id": "0.0-4.0-1.0-32.0"}}, {"uniqueid": "w92508391:a47055853", "current_trial": 48, "dateTime": 1691160948316, "trialdata": {"revealed_states": [], "clicked_states": ["33", "27", "5", "20", "17", "21", "29"], "num_clicks_accrued": [0, 0, 0, 0, 0, 0, 0, 0, 0, 0, 0, 0, 0], "stateRewards": ["", 2, -1, -1, -9, -81, -30, 55, -6, 78, 25, 62, 2, 4, -1, 9, -85, 1, -19, 1, -60, 12, -34, 1, 4, -1, -13, -24, -16, -83, -8, 16, 43, 9], "withholdReward": false, "trial_id": "mdp_trial_34", "block": "test", "trialIndex": 37, "score": 8.2, "costs": -9.8, "simulationMode": [null, null, null, null, null], "rewards": [2, 4, -1, 1, 12], "path": ["0", "0", "12", "13", "14", "19", "21"], "rt": [16860, 347, 104, 398, 171], "actions": ["right", "right", "right", "down", "down"], "actionTimes": [19851, 20722, 21322, 22233, 22922], "queries": {"click": {"state": {"target": ["33", "27", "5", "20", "17", "21", "29"], "time": [3858, 5753, 7699, 9619, 12275, 14178, 16289]}, "edge": {"target": [], "time": []}}, "mouseover": {"state": {"target": ["0", "23", "24", "33", "29", "27", "8", "3", "5", "15", "20", "20", "19", "22", "21", "21", "19", "17", "16", "15", "14", "19", "21", "21", "31", "30", "33", "29"], "time": [3087, 3151, 3188, 3566, 4103, 4453, 6369, 6405, 6604, 8287, 8323, 8620, 10123, 10190, 10785, 11416, 11851, 12033, 12985, 13354, 13403, 13453, 13502, 13833, 14835, 14855, 14890, 15302]}, "edge": {"target": [], "time": []}}, "mouseout": {"state": {"target": ["14", "22", "12", "0", "23", "24", "33", "29", "27", "8", "3", "5", "15", "20", "20", "19", "22", "21", "21", "19", "17", "16", "15", "14", "19", "21", "21", "31", "30", "33", "29", "27", "11", "9", "21"], "time": [617, 1767, 1867, 3118, 3183, 3202, 3968, 4270, 5859, 6388, 6470, 8169, 8304, 8340, 10103, 10173, 10256, 10803, 11816, 11868, 12719, 13336, 13387, 13436, 13486, 13552, 14718, 14851, 14870, 15035, 18232, 25748, 25765, 25783, 33581]}, "edge": {"target": [], "time": []}}}, "displayed_time": "23.42", "trialTime": 33875, "trial_type": "mouselab-mdp", "trial_index": 48, "time_elapsed": 1482484, "internal_node_id": "0.0-4.0-1.0-33.0"}}, {"uniqueid": "w92508391:a47055853", "current_trial": 49, "dateTime": 1691160979186, "trialdata": {"revealed_states": [], "clicked_states": ["29", "17", "20", "5", "9", "32", "21", "33", "31"], "num_clicks_accrued": [0, 0, 0, 0, 0, 0, 0, 0, 0, 0, 0, 0, 0], "stateRewards": ["", -2, -3, 8, 14, -73, 73, 84, -12, -2, -50, -17, 2, 1, -2, -9, -44, -27, -33, 16, -63, -47, -66, -2, 1, 4, -5, -33, -11, 50, 9, 38, -79, 31], "withholdReward": false, "trial_id": "mdp_trial_35", "block": "test", "trialIndex": 38, "score": 35.4, "costs": -12.600000000000001, "simulationMode": [null, null, null, null, null], "rewards": [-2, 1, 4, -5, 50], "path": ["0", "0", "23", "24", "25", "26", "29"], "rt": [21905, 347, 163, 473, 105], "actions": ["left", "left", "left", "up", "left"], "actionTimes": [24585, 25449, 26129, 27121, 27744], "queries": {"click": {"state": {"target": ["29", "17", "20", "5", "9", "32", "21", "33", "31"], "time": [3946, 6105, 8489, 10467, 12354, 14265, 17000, 18866, 21396]}, "edge": {"target": [], "time": []}}, "mouseover": {"state": {"target": ["23", "28", "26", "29", "1", "15", "17", "17", "20", "20", "14", "18", "5", "9", "8", "10", "24", "30", "32", "21", "33", "30", "31"], "time": [3250, 3365, 3415, 3682, 4384, 4422, 4443, 4751, 6735, 7214, 8783, 8835, 9251, 11184, 12707, 12786, 12845, 13016, 13234, 16613, 17885, 19232, 19616]}, "edge": {"target": [], "time": []}}, "mouseout": {"state": {"target": ["21", "13", "3", "11", "10", "1", "0", "23", "28", "26", "29", "1", "15", "17", "17", "20", "20", "14", "18", "5", "9", "8", "10", "24", "30", "32", "21", "33", "30", "31"], "time": [848, 881, 915, 1265, 1364, 1465, 3232, 3283, 3382, 3466, 4334, 4404, 4438, 4473, 6468, 6751, 8750, 8801, 8851, 10867, 12671, 12782, 12808, 12874, 13134, 14373, 17231, 19182, 19333, 23996]}, "edge": {"target": [], "time": []}}}, "displayed_time": "28.26", "trialTime": 30264, "trial_type": "mouselab-mdp", "trial_index": 49, "time_elapsed": 1513353, "internal_node_id": "0.0-4.0-1.0-34.0"}}, {"uniqueid": "w92508391:a47055853", "current_trial": 50, "dateTime": 1691161002115, "trialdata": {"revealed_states": [], "clicked_states": ["17", "9"], "num_clicks_accrued": [0, 0, 0, 0, 0, 0, 0, 0, 0, 0, 0, 0, 0], "stateRewards": ["", -1, 3, 8, 10, -86, 61, -36, 10, 17, -60, 24, -1, -3, 3, 11, 50, 60, 33, -3, -20, 58, -6, 1, -4, -4, 13, -70, -71, 43, 14, 52, 82, -11], "withholdReward": false, "trial_id": "mdp_trial_36", "block": "test", "trialIndex": 39, "score": 67.2, "costs": -2.8, "simulationMode": [null, null, null, null, null], "rewards": [-1, -3, 3, 11, 60], "path": ["0", "0", "12", "13", "14", "15", "17"], "rt": [6805, 310, 215, 305, 384], "actions": ["right", "right", "right", "up", "right"], "actionTimes": [10727, 11550, 12287, 13110, 14008], "queries": {"click": {"state": {"target": ["17", "9"], "time": [5512, 7615]}, "edge": {"target": [], "time": []}}, "mouseover": {"state": {"target": ["14", "17", "4", "9", "11", "27", "29"], "time": [4804, 5254, 6013, 6423, 7890, 7926, 8223]}, "edge": {"target": [], "time": []}}, "mouseout": {"state": {"target": ["4", "1", "0", "14", "17", "4", "9", "11", "27", "29"], "time": [873, 905, 4370, 4954, 5904, 6034, 7840, 7909, 7962, 21602]}, "edge": {"target": [], "time": []}}}, "displayed_time": "17.94", "trialTime": 22319, "trial_type": "mouselab-mdp", "trial_index": 50, "time_elapsed": 1536283, "internal_node_id": "0.0-4.0-1.0-35.0"}}, {"uniqueid": "w92508391:a47055853", "current_trial": 51, "dateTime": 1691161021874, "trialdata": {"revealed_states": [], "clicked_states": ["31", "5"], "num_clicks_accrued": [0, 0, 0, 0, 0, 0, 0, 0, 0, 0, 0, 0, 0], "stateRewards": ["", -2, 4, -5, -12, 85, -24, -18, -15, -78, -22, 26, -1, -1, 2, 14, -45, 52, -23, 7, -33, 24, -6, -2, -4, 5, -7, -16, 36, -39, 5, 71, -87, -23], "withholdReward": false, "trial_id": "mdp_trial_37", "block": "test", "trialIndex": 40, "score": 67.2, "costs": -2.8, "simulationMode": [null, null, null, null, null], "rewards": [-2, 4, -5, -12, 85], "path": ["0", "0", "1", "2", "3", "4", "5"], "rt": [5805, 503, 208, 1550, 338], "actions": ["up", "up", "up", "right", "up"], "actionTimes": [8166, 9166, 9886, 12543, 13382], "queries": {"click": {"state": {"target": ["31", "5"], "time": [3182, 5342]}, "edge": {"target": [], "time": []}}, "mouseover": {"state": {"target": ["31", "23", "2", "5", "7"], "time": [2857, 3727, 3778, 4182, 6077]}, "edge": {"target": [], "time": []}}, "mouseout": {"state": {"target": ["0", "31", "23", "2", "5", "7"], "time": [2475, 3477, 3745, 3795, 5760, 6127]}, "edge": {"target": [], "time": []}}}, "displayed_time": "16.36", "trialTime": 19085, "trial_type": "mouselab-mdp", "trial_index": 51, "time_elapsed": 1556042, "internal_node_id": "0.0-4.0-1.0-36.0"}}, {"uniqueid": "w92508391:a47055853", "current_trial": 52, "dateTime": 1691161038683, "trialdata": {"revealed_states": [], "clicked_states": ["21", "27"], "num_clicks_accrued": [0, 0, 0, 0, 0, 0, 0, 0, 0, 0, 0, 0, 0], "stateRewards": ["", -1, -4, -3, 1, -45, -67, -24, 14, 32, 22, 22, -1, 1, -5, -7, 72, 84, -79, -5, 19, -40, -2, -1, -2, 8, -3, 84, -25, -28, 11, 64, -66, 77], "withholdReward": false, "trial_id": "mdp_trial_38", "block": "test", "trialIndex": 41, "score": 83.2, "costs": -2.8, "simulationMode": [null, null, null, null, null], "rewards": [-1, -2, 8, -3, 84], "path": ["0", "0", "23", "24", "25", "26", "27"], "rt": [6080, 443, 251, 438, 214], "actions": ["left", "left", "left", "up", "up"], "actionTimes": [7636, 8580, 9371, 10340, 11067], "queries": {"click": {"state": {"target": ["21", "27"], "time": [2628, 4852]}, "edge": {"target": [], "time": []}}, "mouseover": {"state": {"target": ["0", "12", "22", "21", "22", "0", "27", "11", "8", "5"], "time": [1900, 1936, 2016, 2366, 3119, 3171, 3269, 5552, 5588, 6066]}, "edge": {"target": [], "time": []}}, "mouseout": {"state": {"target": ["0", "12", "22", "21", "22", "0", "27", "11", "8", "5", "4", "7"], "time": [1917, 1967, 2133, 2745, 3136, 3188, 5001, 5586, 5604, 6949, 15714, 15748]}, "edge": {"target": [], "time": []}}}, "displayed_time": "15.56", "trialTime": 16188, "trial_type": "mouselab-mdp", "trial_index": 52, "time_elapsed": 1572851, "internal_node_id": "0.0-4.0-1.0-37.0"}}, {"uniqueid": "w92508391:a47055853", "current_trial": 53, "dateTime": 1691161059979, "trialdata": {"revealed_states": [], "clicked_states": ["5", "21"], "num_clicks_accrued": [0, 0, 0, 0, 0, 0, 0, 0, 0, 0, 0, 0, 0], "stateRewards": ["", -2, -4, -8, 8, 63, -50, -19, -7, -17, -31, 31, 1, 3, -5, 12, -35, -63, -29, -4, -17, -75, -79, -2, -3, -2, 8, -3, -85, 10, -2, -82, -82, 56], "withholdReward": false, "trial_id": "mdp_trial_39", "block": "test", "trialIndex": 42, "score": 54.2, "costs": -2.8, "simulationMode": [null, null, null, null, null], "rewards": [-2, -4, -8, 8, 63], "path": ["0", "0", "1", "2", "3", "4", "5"], "rt": [6255, 53, 218, 203, 47], "actions": ["up", "up", "up", "right", "up"], "actionTimes": [10419, 10986, 11715, 12418, 12963], "queries": {"click": {"state": {"target": ["5", "21"], "time": [5196, 7212]}, "edge": {"target": [], "time": []}}, "mouseover": {"state": {"target": ["24", "28", "10", "5", "4", "18", "14", "19", "21", "21", "31"], "time": [4379, 4461, 4512, 4996, 5549, 5649, 5715, 5766, 5965, 6148, 9746]}, "edge": {"target": [], "time": []}}, "mouseout": {"state": {"target": ["12", "0", "24", "28", "10", "5", "4", "18", "14", "19", "21", "21", "31"], "time": [3429, 4199, 4413, 4479, 4547, 5503, 5583, 5668, 5732, 5832, 6029, 7565, 19477]}, "edge": {"target": [], "time": []}}}, "displayed_time": "18.17", "trialTime": 20699, "trial_type": "mouselab-mdp", "trial_index": 53, "time_elapsed": 1594147, "internal_node_id": "0.0-4.0-1.0-38.0"}}, {"uniqueid": "w92508391:a47055853", "current_trial": 54, "dateTime": 1691161078826, "trialdata": {"revealed_states": [], "clicked_states": ["29", "17", "20"], "num_clicks_accrued": [0, 0, 0, 0, 0, 0, 0, 0, 0, 0, 0, 0, 0], "stateRewards": ["", 1, 1, -7, -9, -44, 24, -83, -15, 44, -24, 72, -2, -3, 4, -5, 57, 55, 29, -11, 22, 12, -25, -1, 2, 7, 12, 33, -8, 47, -4, 8, 50, -4], "withholdReward": false, "trial_id": "mdp_trial_40", "block": "test", "trialIndex": 43, "score": 44.8, "costs": -4.199999999999999, "simulationMode": [null, null, null, null, null], "rewards": [-2, -3, 4, -5, 55], "path": ["0", "0", "12", "13", "14", "15", "17"], "rt": [9051, 138, 280, 548, 48], "actions": ["right", "right", "right", "up", "right"], "actionTimes": [10924, 11580, 12371, 13420, 13987], "queries": {"click": {"state": {"target": ["29", "17", "20"], "time": [2741, 5252, 8228]}, "edge": {"target": [], "time": []}}, "mouseover": {"state": {"target": ["23", "24", "29", "12", "15", "17", "20", "19", "19"], "time": [2255, 2290, 2471, 3392, 3425, 3792, 8037, 8476, 8774]}, "edge": {"target": [], "time": []}}, "mouseout": {"state": {"target": ["0", "23", "24", "29", "12", "15", "17", "20", "19", "19"], "time": [2221, 2273, 2338, 3254, 3408, 3444, 5674, 8305, 8496, 9289]}, "edge": {"target": [], "time": []}}}, "displayed_time": "15.89", "trialTime": 18091, "trial_type": "mouselab-mdp", "trial_index": 54, "time_elapsed": 1612993, "internal_node_id": "0.0-4.0-1.0-39.0"}}, {"uniqueid": "w92508391:a47055853", "current_trial": 55, "dateTime": 1691161147962, "trialdata": {"rt": 69129, "response": {"Q0": "$-16 to 16", "Q1": "$-32 to $32", "Q2": "$-88 to $88", "Q3": "The cost for clicking on nodes varied between nodes.", "Q4": "Very motivated"}, "question_order": [0, 1, 2, 3, 4], "trial_id": "final_quiz_control", "trial_type": "survey-multi-choice", "trial_index": 55, "time_elapsed": 1682130, "internal_node_id": "0.0-4.0-2.0"}}, {"uniqueid": "w92508391:a47055853", "current_trial": 56, "dateTime": 1691161262498, "trialdata": {"rt": 114523, "response": {"Q0": "I wanted to try and go for the highest node without losing money", "Q1": "Yes I did by clicking on more nodes to reveal before i make a move, sometimes it was worth it", "Q2": "It was not difficult, it was just unpredicatble "}, "trial_id": "self_report_control", "trial_type": "survey-text", "trial_index": 56, "time_elapsed": 1796665, "internal_node_id": "0.0-4.0-3.0"}}, {"uniqueid": "w92508391:a47055853", "current_trial": 57, "dateTime": 1691161293442, "trialdata": {"rt": 30938, "response": {"gender": "female", "age": "25", "colorblind": "0", "effort": "0"}, "trial_type": "survey-html-form", "trial_index": 57, "time_elapsed": 1827610, "internal_node_id": "0.0-4.0-4.0"}}, {"uniqueid": "w92508391:a47055853", "current_trial": 58, "dateTime": 1691161352787, "trialdata": {"rt": 59334, "response": {"Q0": "Yes, the instructions were just a lot.", "Q1": "Never", "Q2": "It got kinda fun once you get the hang of it"}, "trial_type": "survey-text", "trial_index": 58, "time_elapsed": 1886954, "internal_node_id": "0.0-4.0-5.0"}}, {"uniqueid": "w92508391:a47055853", "current_trial": 59, "dateTime": 1691161357515, "trialdata": {"rt": 4719, "stimulus": "Press 'Finish HIT' in order to reach the completion code. Once the data has been saved, you will receive the code either in this window or in the original browser window where you started the experiment.\n", "response": 0, "trial_type": "html-button-response", "trial_index": 59, "time_elapsed": 1891682, "internal_node_id": "0.0-5.0"}}, {"uniqueid": "w92508391:a47055853", "current_trial": 60, "dateTime": 1691161358519, "trialdata": {"success": true, "trial_type": "fullscreen", "trial_index": 60, "time_elapsed": 1892687, "internal_node_id": "0.0-6.0"}}], "questiondata": {"params": {"CODE": "C6DMOQA6", "MIN_TIME": 14, "inspectCost": 1, "startTime": "Fri Aug 04 2023 16:31:03 GMT+0200 (South Africa Standard Time)", "bonusRate": 0.002, "variance": "1_2_4_8_44", "branching": "31123"}, "final_score": 1665.8}, "eventdata": [{"eventtype": "initialized", "value": null, "timestamp": 1691159462448, "interval": 0}, {"eventtype": "window_resize", "value": [1022, 767], "timestamp": 1691159462448, "interval": 0}, {"eventtype": "window_resize", "value": [1022, 767], "timestamp": 1691159462931, "interval": 483}, {"eventtype": "focus", "value": "off", "timestamp": 1691159478132, "interval": 15201}, {"eventtype": "focus", "value": "on", "timestamp": 1691159478282, "interval": 150}, {"eventtype": "focus", "value": "off", "timestamp": 1691159479678, "interval": 1396}, {"eventtype": "focus", "value": "on", "timestamp": 1691159484053, "interval": 4375}, {"eventtype": "window_resize", "value": [1920, 986], "timestamp": 1691159484869, "interval": 816}, {"eventtype": "window_resize", "value": [1920, 1080], "timestamp": 1691159488705, "interval": 3836}, {"eventtype": "focus", "value": "off", "timestamp": 1691159923302, "interval": 434597}, {"eventtype": "focus", "value": "on", "timestamp": 1691159923302, "interval": 0}, {"eventtype": "window_resize", "value": [1920, 986], "timestamp": 1691159923513, "interval": 211}, {"eventtype": "window_resize", "value": [1920, 1080], "timestamp": 1691159926175, "interval": 2662}, {"eventtype": "focus", "value": "off", "timestamp": 1691160415017, "interval": 488842}, {"eventtype": "focus", "value": "on", "timestamp": 1691160418291, "interval": 3274}, {"eventtype": "window_resize", "value": [1920, 986], "timestamp": 1691161357770, "interval": 939479}], "useragent": "Mozilla/5.0 (Windows NT 10.0; Win64; x64) AppleWebKit/537.36 (KHTML, like Gecko) Chrome/115.0.0.0 Safari/537.36 Edg/115.0.1901.188", "mode": "live", "id": "w92508391:a47055853", "status": "user data saved", "Beginhit": "2023-08-04 14:30:59.917185", "Beginexp": "2023-08-04 14:31:30.409447", "Endhit": "2023-08-04 15:02:40.327984", "psiturkStatus": 3, "browser": "<redacted>", "platform": "windows", "language": "en-US"}