{"condition": 0, "counterbalance": 0, "assignmentId": "a55121191", "workerId": "w24603609", "hitId": "h41089888", "currenttrial": 4, "bonus": 0, "data": [{"uniqueid": "w24603609:a55121191", "current_trial": 0, "dateTime": 1691141962264, "trialdata": {"success": true, "trial_type": "fullscreen", "trial_index": 0, "time_elapsed": 9695, "internal_node_id": "0.0-0.0"}}, {"uniqueid": "w24603609:a55121191", "current_trial": 1, "dateTime": 1691141985428, "trialdata": {"view_history": [{"page_index": 0, "viewing_time": 23159}], "rt": 23159, "trial_id": "exp_instructions_control", "trial_type": "instructions", "trial_index": 1, "time_elapsed": 32860, "internal_node_id": "0.0-1.0"}}, {"uniqueid": "w24603609:a55121191", "current_trial": 2, "dateTime": 1691141997356, "trialdata": {"success": true, "trial_type": "fullscreen", "trial_index": 2, "time_elapsed": 44788, "internal_node_id": "0.0-2.0-0.0"}}, {"uniqueid": "w24603609:a55121191", "current_trial": 3, "dateTime": 1691142245784, "trialdata": {"view_history": [{"page_index": 0, "viewing_time": 98287}, {"page_index": 1, "viewing_time": 76340}, {"page_index": 2, "viewing_time": 23279}, {"page_index": 3, "viewing_time": 50517}], "rt": 248424, "trial_id": "mouselab_instructions_1_control", "trial_type": "instructions", "trial_index": 3, "time_elapsed": 293216, "internal_node_id": "0.0-2.0-1.0"}}], "questiondata": {"params": {"CODE": "C6DMOQA6", "MIN_TIME": 14, "inspectCost": 1, "startTime": "Fri Aug 04 2023 11:39:10 GMT+0200 (South Africa Standard Time)", "bonusRate": 0.002, "variance": "1_2_4_8_44", "branching": "31123"}}, "eventdata": [{"eventtype": "initialized", "value": null, "timestamp": 1691141949815, "interval": 0}, {"eventtype": "window_resize", "value": [1024, 767], "timestamp": 1691141949816, "interval": 1}, {"eventtype": "window_resize", "value": [1024, 767], "timestamp": 1691141950345, "interval": 529}, {"eventtype": "window_resize", "value": [1920, 982], "timestamp": 1691141960131, "interval": 9786}, {"eventtype": "window_resize", "value": [1920, 1080], "timestamp": 1691141961525, "interval": 1394}, {"eventtype": "focus", "value": "off", "timestamp": 1691142297671, "interval": 336146}, {"eventtype": "window_resize", "value": [1920, 1079], "timestamp": 1691142297892, "interval": 221}, {"eventtype": "focus", "value": "on", "timestamp": 1691142301577, "interval": 3685}, {"eventtype": "window_resize", "value": [1920, 1080], "timestamp": 1691142301804, "interval": 227}, {"eventtype": "window_resize", "value": [1920, 982], "timestamp": 1691142351320, "interval": 49516}, {"eventtype": "focus", "value": "off", "timestamp": 1691142387595, "interval": 36275}, {"eventtype": "focus", "value": "on", "timestamp": 1691142955558, "interval": 567963}, {"eventtype": "focus", "value": "off", "timestamp": 1691142970157, "interval": 14599}], "useragent": "Mozilla/5.0 (Windows NT 10.0; Win64; x64) AppleWebKit/537.36 (KHTML, like Gecko) Chrome/115.0.0.0 Safari/537.36", "mode": "live", "id": "w24603609:a55121191", "status": "user data saved", "Beginhit": "2023-08-04 09:39:06.442303", "Beginexp": "2023-08-04 09:39:22.472963", "Endhit": null, "psiturkStatus": 6, "browser": "<redacted>", "platform": "windows", "language": "en-US", "excludeReason": "dropout"}