{"condition": 0, "counterbalance": 0, "assignmentId": "a23514138", "workerId": "w61477552", "hitId": "h72080929", "currenttrial": 55, "bonus": 0, "data": [{"uniqueid": "w61477552:a23514138", "current_trial": 0, "dateTime": 1691070901630, "trialdata": {"success": true, "trial_type": "fullscreen", "trial_index": 0, "time_elapsed": 7846, "internal_node_id": "0.0-0.0"}}, {"uniqueid": "w61477552:a23514138", "current_trial": 1, "dateTime": 1691070934083, "trialdata": {"view_history": [{"page_index": 0, "viewing_time": 32448}], "rt": 32449, "trial_id": "exp_instructions_control", "trial_type": "instructions", "trial_index": 1, "time_elapsed": 40300, "internal_node_id": "0.0-1.0"}}, {"uniqueid": "w61477552:a23514138", "current_trial": 2, "dateTime": 1691070936777, "trialdata": {"success": true, "trial_type": "fullscreen", "trial_index": 2, "time_elapsed": 42994, "internal_node_id": "0.0-2.0-0.0"}}, {"uniqueid": "w61477552:a23514138", "current_trial": 3, "dateTime": 1691071165652, "trialdata": {"view_history": [{"page_index": 0, "viewing_time": 79787}, {"page_index": 1, "viewing_time": 102660}, {"page_index": 2, "viewing_time": 9528}, {"page_index": 3, "viewing_time": 36899}], "rt": 228877, "trial_id": "mouselab_instructions_1_control", "trial_type": "instructions", "trial_index": 3, "time_elapsed": 271868, "internal_node_id": "0.0-2.0-1.0"}}, {"uniqueid": "w61477552:a23514138", "current_trial": 4, "dateTime": 1691071206955, "trialdata": {"revealed_states": [], "clicked_states": ["12", "1", "23"], "num_clicks_accrued": [0, 0, 0, 0, 0, 0, 0, 0, 0, 0, 0, 0, 0], "stateRewards": ["", -10, 10, 10, 10, 10, -10, 10, 10, 10, -10, -10, -10, 10, -10, 10, 10, -10, 10, -10, 10, -10, 10, 10, 10, -10, -10, -10, 10, 10, -10, 10, -10, -10], "withholdReward": false, "trial_id": "practice_1", "block": "test", "trialIndex": 0, "score": -8, "costs": -1.5, "simulationMode": [null, null, null, null, null], "rewards": [10, 10, -10, -10, -10], "path": ["0", "0", "23", "24", "25", "26", "27"], "rt": [16146, 1398, 381, 1194, 3898], "actions": ["left", "left", "left", "up", "up"], "actionTimes": [22994, 24949, 25886, 27641, 32075], "queries": {"click": {"state": {"target": ["12", "1", "23"], "time": [12792, 16036, 17474]}, "edge": {"target": [], "time": []}}, "mouseover": {"state": {"target": ["12", "0", "1", "23"], "time": [12351, 14372, 15579, 17146]}, "edge": {"target": [], "time": []}}, "mouseout": {"state": {"target": ["23", "0", "12", "12", "0", "1", "23", "23", "23", "24"], "time": [1769, 5816, 12827, 14190, 14457, 16876, 17506, 21368, 23526, 23701]}, "edge": {"target": [], "time": []}}}, "displayed_time": "32.59", "trialTime": 39998, "trial_type": "mouselab-mdp", "trial_index": 4, "time_elapsed": 313169, "internal_node_id": "0.0-2.0-2.0-0.0"}}, {"uniqueid": "w61477552:a23514138", "current_trial": 5, "dateTime": 1691071243374, "trialdata": {"revealed_states": [], "clicked_states": ["1", "24", "12", "23"], "num_clicks_accrued": [0, 0, 0, 0, 0, 0, 0, 0, 0, 0, 0, 0, 0], "stateRewards": ["", 10, -10, -10, 10, 10, -10, 10, 10, -10, -10, -10, 10, 10, 10, -10, 10, 10, -10, -10, 10, -10, 10, -10, -10, -10, 10, 10, 10, 10, 10, 10, 10, -10], "withholdReward": false, "trial_id": "practice_2", "block": "test", "trialIndex": 1, "score": 11.5, "costs": -2, "simulationMode": [null, null, null, null, null], "rewards": [10, 10, 10, -10, -10], "path": ["0", "0", "12", "13", "14", "19", "21"], "rt": [17007, 5738, 1137, 852, 362], "actions": ["right", "right", "right", "down", "down"], "actionTimes": [20150, 26456, 28173, 29551, 30447], "queries": {"click": {"state": {"target": ["1", "24", "12", "23"], "time": [12601, 14047, 15350, 17032]}, "edge": {"target": [], "time": []}}, "mouseover": {"state": {"target": ["12", "1", "24", "12", "0", "23", "24", "25"], "time": [11651, 12085, 13543, 14939, 16284, 16670, 18630, 19400]}, "edge": {"target": [], "time": []}}, "mouseout": {"state": {"target": ["0", "12", "1", "24", "12", "0", "23", "23", "24", "25", "24", "23", "0", "13", "14"], "time": [6465, 11952, 13114, 14596, 16048, 16577, 18151, 18534, 19167, 23835, 24119, 24601, 24674, 24786, 24935]}, "edge": {"target": [], "time": []}}}, "displayed_time": "31.02", "trialTime": 35529, "trial_type": "mouselab-mdp", "trial_index": 5, "time_elapsed": 349589, "internal_node_id": "0.0-2.0-2.0-1.0"}}, {"uniqueid": "w61477552:a23514138", "current_trial": 6, "dateTime": 1691071302981, "trialdata": {"view_history": [{"page_index": 0, "viewing_time": 56826}, {"page_index": 1, "viewing_time": 2775}], "rt": 59601, "trial_id": "mouselab_instructions_2_control", "trial_type": "instructions", "trial_index": 6, "time_elapsed": 409198, "internal_node_id": "0.0-2.0-3.0"}}, {"uniqueid": "w61477552:a23514138", "current_trial": 7, "dateTime": 1691071351082, "trialdata": {"rt": 48092, "response": {"Q0": "The cost for clicking on nodes may vary between nodes.", "Q1": "The better I perform the higher my bonus will be.", "Q2": "No, the amount of cash at each node of the web may be different each time.", "Q3": "To get the highest total score.", "Q4": "Only before moving the spider.", "Q5": "3 seconds"}, "question_order": [0, 1, 2, 3, 4, 5], "correct": {"Q0": "The cost for clicking on nodes may vary between nodes.", "Q1": "The better I perform the higher my bonus will be.", "Q2": "No, the amount of cash at each node of the web may be different each time.", "Q3": "To get the highest total score.", "Q4": "Only before moving the spider.", "Q5": "3 seconds"}, "trial_id": "mouselab_quiz_control", "trial_type": "survey-multi-choice", "trial_index": 7, "time_elapsed": 457298, "internal_node_id": "0.0-2.0-4.0"}}, {"uniqueid": "w61477552:a23514138", "current_trial": 8, "dateTime": 1691071353060, "trialdata": {"rt": 1966, "stimulus": "\n<h1> Get ready to start the game! </h1>\n\nThank you for reading the instructions. Get ready start with the 40 rounds of this game.\n<br><br>\nIf you need to take a break, feel free to take one after the end of a round, before continuing to the next one.\n<br><br>\nRemember, the more money the spider gets, the bigger your bonus will be!\n<br><br>\n<div style='text-align: center;'>Press <code>space</code> to begin.</div>\n\n<br><br>\n(If, at any point, the <code>space</code> key does not take you to the next page, click once on the text and try again.)", "response": " ", "trial_id": "mdp_ready", "trial_type": "html-keyboard-response", "trial_index": 8, "time_elapsed": 459277, "internal_node_id": "0.0-4.0-0.0"}}, {"uniqueid": "w61477552:a23514138", "current_trial": 9, "dateTime": 1691071374104, "trialdata": {"revealed_states": [], "clicked_states": ["21", "32", "27"], "num_clicks_accrued": [0, 0, 0, 0, 0, 0, 0, 0, 0, 0, 0, 0, 0], "stateRewards": ["", -2, -1, -1, 5, -54, -87, 35, 2, -8, 20, -22, 1, 3, 6, 13, -75, -32, -55, -3, 56, 62, -22, -1, -4, -1, -7, -51, 84, 70, 7, -15, 5, 55], "withholdReward": false, "trial_id": "mdp_trial_1", "block": "test", "trialIndex": 2, "score": 64.8, "costs": -4.199999999999999, "simulationMode": [null, null, null, null, null], "rewards": [1, 3, 6, -3, 62], "path": ["0", "0", "12", "13", "14", "19", "21"], "rt": [10317, 38, 95, 316, 468], "actions": ["right", "right", "right", "down", "down"], "actionTimes": [12414, 12986, 13653, 14483, 15489], "queries": {"click": {"state": {"target": ["21", "32", "27"], "time": [3532, 6259, 8819]}, "edge": {"target": [], "time": []}}, "mouseover": {"state": {"target": ["12", "14", "20", "21", "19", "32", "27", "16", "15", "13"], "time": [2713, 2800, 2904, 3141, 4150, 4684, 8353, 9589, 11605, 11751]}, "edge": {"target": [], "time": []}}, "mouseout": {"state": {"target": ["0", "12", "14", "20", "21", "19", "32", "27", "16", "15"], "time": [2667, 2792, 2895, 3005, 4138, 4251, 7216, 8855, 11305, 11658]}, "edge": {"target": [], "time": []}}}, "displayed_time": "16.10", "trialTime": 20169, "trial_type": "mouselab-mdp", "trial_index": 9, "time_elapsed": 480316, "internal_node_id": "0.0-4.0-1.0-0.0"}}, {"uniqueid": "w61477552:a23514138", "current_trial": 10, "dateTime": 1691071403121, "trialdata": {"revealed_states": [], "clicked_states": ["27", "16", "21", "32"], "num_clicks_accrued": [0, 0, 0, 0, 0, 0, 0, 0, 0, 0, 0, 0, 0], "stateRewards": ["", -1, -2, -1, -10, -57, 73, -72, -16, 75, -14, -46, -2, -3, -7, -1, -61, -60, 76, -4, 50, 4, 14, 2, 2, -7, 12, -65, -32, 15, -8, -76, -25, -61], "withholdReward": false, "trial_id": "mdp_trial_2", "block": "test", "trialIndex": 3, "score": -17.6, "costs": -5.6, "simulationMode": [null, null, null, null, null], "rewards": [-2, -3, -7, -4, 4], "path": ["0", "0", "12", "13", "14", "19", "21"], "rt": [13892, 59, 1478, 526, 273], "actions": ["right", "right", "right", "down", "down"], "actionTimes": [16165, 16807, 18870, 19945, 20752], "queries": {"click": {"state": {"target": ["27", "16", "21", "32"], "time": [3924, 6614, 9133, 13125]}, "edge": {"target": [], "time": []}}, "mouseover": {"state": {"target": ["11", "27", "16", "16", "0", "16", "21", "21", "32", "32"], "time": [3092, 3488, 4523, 4791, 5814, 6239, 7358, 7751, 9995, 10360]}, "edge": {"target": [], "time": []}}, "mouseout": {"state": {"target": ["13", "12", "11", "27", "16", "16", "0", "16", "16", "21", "21", "32"], "time": [1141, 1241, 3410, 4330, 4614, 5518, 5871, 6660, 7026, 7567, 9488, 10077]}, "edge": {"target": [], "time": []}}}, "displayed_time": "21.37", "trialTime": 28346, "trial_type": "mouselab-mdp", "trial_index": 10, "time_elapsed": 509336, "internal_node_id": "0.0-4.0-1.0-1.0"}}, {"uniqueid": "w61477552:a23514138", "current_trial": 11, "dateTime": 1691071423502, "trialdata": {"revealed_states": [], "clicked_states": ["27"], "num_clicks_accrued": [0, 0, 0, 0, 0, 0, 0, 0, 0, 0, 0, 0, 0], "stateRewards": ["", -1, -3, 1, 13, -64, -29, 12, -4, -33, 50, 56, 2, -3, 4, 11, -64, -58, -55, 12, 47, 38, -25, -2, 2, 5, -15, 85, 7, 84, 10, 8, 57, 26], "withholdReward": false, "trial_id": "mdp_trial_3", "block": "test", "trialIndex": 4, "score": 73.6, "costs": -1.4, "simulationMode": [null, null, null, null, null], "rewards": [-2, 2, 5, -15, 85], "path": ["0", "0", "23", "24", "25", "26", "27"], "rt": [5073, 144, 213, 209, 77], "actions": ["left", "left", "left", "up", "up"], "actionTimes": [7817, 8508, 9275, 10042, 10659], "queries": {"click": {"state": {"target": ["27"], "time": [4508]}, "edge": {"target": [], "time": []}}, "mouseover": {"state": {"target": ["28", "27", "25", "32"], "time": [3807, 4101, 4924, 5209]}, "edge": {"target": [], "time": []}}, "mouseout": {"state": {"target": ["32", "12", "13", "14", "0", "28", "27", "25", "32"], "time": [1083, 1166, 1209, 1448, 3128, 3916, 4912, 5036, 5954]}, "edge": {"target": [], "time": []}}}, "displayed_time": "16.75", "trialTime": 19497, "trial_type": "mouselab-mdp", "trial_index": 11, "time_elapsed": 529716, "internal_node_id": "0.0-4.0-1.0-2.0"}}, {"uniqueid": "w61477552:a23514138", "current_trial": 12, "dateTime": 1691071442617, "trialdata": {"revealed_states": [], "clicked_states": ["3", "32", "27"], "num_clicks_accrued": [0, 0, 0, 0, 0, 0, 0, 0, 0, 0, 0, 0, 0], "stateRewards": ["", 2, 3, 8, 14, 69, -27, 17, 2, -71, -65, -10, 2, -3, 7, 8, 65, -10, 65, -12, 73, -12, 13, -2, -2, 6, 10, -79, -69, -18, 10, -85, 67, 74], "withholdReward": false, "trial_id": "mdp_trial_4", "block": "test", "trialIndex": 5, "score": 74.8, "costs": -4.199999999999999, "simulationMode": [null, null, null, null, null, null], "rewards": [-2, -2, 6, 10, 67], "path": ["0", "0", "23", "24", "25", "30", "32"], "rt": [7780, 975, 312, 158, 482, 285], "actions": ["left", "left", "left", "left", "down", "down"], "actionTimes": [10008, 10998, 11919, 12682, 13742, 14578], "queries": {"click": {"state": {"target": ["3", "32", "27"], "time": [4120, 6294, 9049]}, "edge": {"target": [], "time": []}}, "mouseover": {"state": {"target": ["1", "2", "3", "4", "0", "23", "32", "27", "27", "27"], "time": [2974, 3224, 3693, 5125, 5381, 5655, 6005, 7125, 8227, 8526]}, "edge": {"target": [], "time": []}}, "mouseout": {"state": {"target": ["1", "2", "3", "4", "0", "23", "32", "27", "27"], "time": [3144, 3404, 4554, 5278, 5498, 5748, 6350, 8004, 8324]}, "edge": {"target": [], "time": []}}}, "displayed_time": "16.23", "trialTime": 18172, "trial_type": "mouselab-mdp", "trial_index": 12, "time_elapsed": 548831, "internal_node_id": "0.0-4.0-1.0-3.0"}}, {"uniqueid": "w61477552:a23514138", "current_trial": 13, "dateTime": 1691071467684, "trialdata": {"revealed_states": [], "clicked_states": ["3", "27", "32", "16", "21"], "num_clicks_accrued": [0, 0, 0, 0, 0, 0, 0, 0, 0, 0, 0, 0, 0], "stateRewards": ["", -2, 1, -8, 12, -65, -79, 16, 7, -80, -17, -45, -2, 2, -5, -2, -85, 23, -4, -7, 48, 27, -76, 2, 3, 5, 2, 43, 71, -13, 7, -49, 59, -31], "withholdReward": false, "trial_id": "mdp_trial_5", "block": "test", "trialIndex": 6, "score": 69, "costs": -7, "simulationMode": [null, null, null, null, null], "rewards": [2, 3, 5, 7, 59], "path": ["0", "0", "23", "24", "25", "30", "32"], "rt": [15156, 243, 56, 267, 326], "actions": ["left", "left", "left", "down", "down"], "actionTimes": [18142, 18931, 19585, 20455, 21384], "queries": {"click": {"state": {"target": ["3", "27", "32", "16", "21"], "time": [4696, 7627, 10660, 13243, 15870]}, "edge": {"target": [], "time": []}}, "mouseover": {"state": {"target": ["12", "18", "4", "3", "27", "27", "30", "32", "32", "21", "16", "19", "21"], "time": [3582, 3679, 4086, 4263, 5561, 7005, 8201, 8444, 10272, 11496, 12737, 13696, 14208]}, "edge": {"target": [], "time": []}}, "mouseout": {"state": {"target": ["27", "10", "0", "12", "18", "4", "3", "27", "27", "30", "32", "32", "21", "16", "19", "21"], "time": [1402, 1566, 2118, 3670, 3805, 4256, 5209, 6290, 8179, 8314, 9421, 11140, 12244, 13302, 13849, 23340]}, "edge": {"target": [], "time": []}}}, "displayed_time": "21.92", "trialTime": 24198, "trial_type": "mouselab-mdp", "trial_index": 13, "time_elapsed": 573900, "internal_node_id": "0.0-4.0-1.0-4.0"}}, {"uniqueid": "w61477552:a23514138", "current_trial": 14, "dateTime": 1691071488590, "trialdata": {"revealed_states": [], "clicked_states": ["27", "16", "21", "32"], "num_clicks_accrued": [0, 0, 0, 0, 0, 0, 0, 0, 0, 0, 0, 0, 0], "stateRewards": ["", -2, -4, -6, 12, -58, -70, -80, 2, 16, -88, -62, 1, 2, -5, 11, 77, -35, -44, -5, 18, -83, 87, 1, -3, -5, 13, -44, -21, -86, 10, -52, 8, 29], "withholdReward": false, "trial_id": "mdp_trial_6", "block": "test", "trialIndex": 7, "score": 80.4, "costs": -5.6, "simulationMode": [null, null, null, null, null, null], "rewards": [1, 2, -5, 11, 77], "path": ["0", "0", "12", "13", "14", "15", "16"], "rt": [11251, 1057, 245, 125, 294, 884], "actions": ["right", "right", "right", "right", "up", "up"], "actionTimes": [13244, 14312, 15139, 15880, 16738, 18196], "queries": {"click": {"state": {"target": ["27", "16", "21", "32"], "time": [3536, 6501, 9030, 11900]}, "edge": {"target": [], "time": []}}, "mouseover": {"state": {"target": ["28", "27", "15", "16", "14", "21", "32"], "time": [2843, 3133, 4146, 4591, 6973, 7268, 9650]}, "edge": {"target": [], "time": []}}, "mouseout": {"state": {"target": ["21", "12", "28", "27", "15", "16", "14", "21"], "time": [745, 998, 2970, 3838, 4472, 6962, 7130, 9487]}, "edge": {"target": [], "time": []}}}, "displayed_time": "18.71", "trialTime": 20067, "trial_type": "mouselab-mdp", "trial_index": 14, "time_elapsed": 594806, "internal_node_id": "0.0-4.0-1.0-5.0"}}, {"uniqueid": "w61477552:a23514138", "current_trial": 15, "dateTime": 1691071520375, "trialdata": {"revealed_states": [], "clicked_states": ["27", "32", "16", "21", "3"], "num_clicks_accrued": [0, 0, 0, 0, 0, 0, 0, 0, 0, 0, 0, 0, 0], "stateRewards": ["", -2, -4, 2, 10, -17, 18, 73, 11, -32, 23, -13, -2, -4, 7, 12, -25, 66, -23, 15, 40, -76, -9, 1, 2, -7, -5, -20, 24, 3, -5, 16, -73, 70], "withholdReward": false, "trial_id": "mdp_trial_7", "block": "test", "trialIndex": 8, "score": 17, "costs": -7, "simulationMode": [null, null, null, null, null], "rewards": [-2, -4, 2, 10, 18], "path": ["0", "0", "1", "2", "3", "4", "6"], "rt": [13719, 99, 94, 8729, 104], "actions": ["up", "up", "up", "right", "right"], "actionTimes": [16338, 17052, 17677, 27110, 27757], "queries": {"click": {"state": {"target": ["27", "32", "16", "21", "3"], "time": [5153, 7081, 8806, 11369, 13345]}, "edge": {"target": [], "time": []}}, "mouseover": {"state": {"target": ["27", "32", "16", "21", "22", "3", "10"], "time": [4745, 6271, 8206, 9658, 12105, 12558, 14696]}, "edge": {"target": [], "time": []}}, "mouseout": {"state": {"target": ["32", "0", "27", "32", "16", "21", "22", "3", "3", "10"], "time": [930, 1548, 5811, 7773, 8828, 12080, 12229, 13429, 14421, 14955]}, "edge": {"target": [], "time": []}}}, "displayed_time": "28.35", "trialTime": 31017, "trial_type": "mouselab-mdp", "trial_index": 15, "time_elapsed": 626591, "internal_node_id": "0.0-4.0-1.0-6.0"}}, {"uniqueid": "w61477552:a23514138", "current_trial": 16, "dateTime": 1691071545460, "trialdata": {"revealed_states": [], "clicked_states": ["27", "11", "32", "21", "16"], "num_clicks_accrued": [0, 0, 0, 0, 0, 0, 0, 0, 0, 0, 0, 0, 0], "stateRewards": ["", 2, -1, -2, -5, -47, -57, -33, -11, 31, -18, -72, -2, 1, -4, -8, -46, -53, -50, 15, -85, -9, 39, -2, -2, 1, 14, -1, -8, 53, -12, -41, -74, 62], "withholdReward": false, "trial_id": "mdp_trial_8", "block": "test", "trialIndex": 9, "score": -70, "costs": -7, "simulationMode": [null, null, null, null, null], "rewards": [2, -1, -2, -5, -57], "path": ["0", "0", "1", "2", "3", "4", "6"], "rt": [16314, 116, 95, 342, 147], "actions": ["up", "up", "up", "right", "right"], "actionTimes": [18227, 18871, 19531, 20473, 21182], "queries": {"click": {"state": {"target": ["27", "11", "32", "21", "16"], "time": [3219, 5833, 8982, 11981, 14707]}, "edge": {"target": [], "time": []}}, "mouseover": {"state": {"target": ["28", "27", "16", "8", "11", "32", "32", "21", "32", "21", "21", "14", "16"], "time": [2564, 2933, 4547, 5216, 5397, 6808, 7190, 8075, 8527, 9860, 11519, 12320, 14318]}, "edge": {"target": [], "time": []}}, "mouseout": {"state": {"target": ["28", "27", "16", "8", "11", "32", "32", "21", "32", "21", "21", "14", "16"], "time": [2716, 3527, 5106, 5385, 6430, 6990, 7729, 8110, 9522, 11265, 12288, 12611, 14804]}, "edge": {"target": [], "time": []}}}, "displayed_time": "21.79", "trialTime": 24202, "trial_type": "mouselab-mdp", "trial_index": 16, "time_elapsed": 651676, "internal_node_id": "0.0-4.0-1.0-7.0"}}, {"uniqueid": "w61477552:a23514138", "current_trial": 17, "dateTime": 1691071566884, "trialdata": {"revealed_states": [], "clicked_states": ["27", "32", "21", "16"], "num_clicks_accrued": [0, 0, 0, 0, 0, 0, 0, 0, 0, 0, 0, 0, 0], "stateRewards": ["", 2, 4, -5, 7, 81, 35, 6, 11, 14, -72, 42, -1, 2, 3, -7, -77, -44, -40, -15, -85, 51, -32, -2, -1, -5, 7, -74, 47, 52, 16, -49, 48, -46], "withholdReward": false, "trial_id": "mdp_trial_9", "block": "test", "trialIndex": 10, "score": 34.4, "costs": -5.6, "simulationMode": [null, null, null, null, null], "rewards": [-1, 2, 3, -15, 51], "path": ["0", "0", "12", "13", "14", "19", "21"], "rt": [11596, 670, 555, 280, 131], "actions": ["right", "right", "right", "down", "down"], "actionTimes": [13632, 14929, 16036, 16842, 17500], "queries": {"click": {"state": {"target": ["27", "32", "21", "16"], "time": [3337, 6363, 9028, 11199]}, "edge": {"target": [], "time": []}}, "mouseover": {"state": {"target": ["28", "27", "32", "21", "19", "16", "1"], "time": [2703, 3045, 4372, 7584, 9354, 9734, 12632]}, "edge": {"target": [], "time": []}}, "mouseout": {"state": {"target": ["17", "15", "12", "0", "28", "27", "27", "32", "21", "19", "16", "16", "1"], "time": [721, 840, 982, 2176, 2861, 3441, 4006, 6820, 9337, 9504, 11228, 12455, 12979]}, "edge": {"target": [], "time": []}}}, "displayed_time": "18.23", "trialTime": 20615, "trial_type": "mouselab-mdp", "trial_index": 17, "time_elapsed": 673100, "internal_node_id": "0.0-4.0-1.0-8.0"}}, {"uniqueid": "w61477552:a23514138", "current_trial": 18, "dateTime": 1691071585243, "trialdata": {"revealed_states": [], "clicked_states": ["11", "6"], "num_clicks_accrued": [0, 0, 0, 0, 0, 0, 0, 0, 0, 0, 0, 0, 0], "stateRewards": ["", -1, -3, 1, -4, -48, -63, -49, -2, -84, -19, 65, 2, -2, -2, -12, -4, 59, 9, 6, 75, 69, -13, -1, -3, -3, -2, -37, -68, -36, 13, 32, 18, -14], "withholdReward": false, "trial_id": "mdp_trial_10", "block": "test", "trialIndex": 11, "score": 57.2, "costs": -2.8, "simulationMode": [null, null, null, null, null, null], "rewards": [-1, -3, 1, -2, 65], "path": ["0", "0", "1", "2", "3", "8", "11"], "rt": [6471, 1225, 109, 190, 5, 160], "actions": ["up", "up", "up", "up", "left", "left"], "actionTimes": [8563, 9802, 10584, 11368, 12181, 12939], "queries": {"click": {"state": {"target": ["11", "6"], "time": [4207, 7059]}, "edge": {"target": [], "time": []}}, "mouseover": {"state": {"target": ["2", "3", "8", "11", "3", "6"], "time": [3071, 3289, 3714, 3938, 5430, 5971]}, "edge": {"target": [], "time": []}}, "mouseout": {"state": {"target": ["0", "0", "2", "3", "8", "11", "3"], "time": [723, 2897, 3280, 3480, 3930, 5421, 5652]}, "edge": {"target": [], "time": []}}}, "displayed_time": "16.09", "trialTime": 17383, "trial_type": "mouselab-mdp", "trial_index": 18, "time_elapsed": 691460, "internal_node_id": "0.0-4.0-1.0-9.0"}}, {"uniqueid": "w61477552:a23514138", "current_trial": 19, "dateTime": 1691071606789, "trialdata": {"revealed_states": [], "clicked_states": ["29", "33"], "num_clicks_accrued": [0, 0, 0, 0, 0, 0, 0, 0, 0, 0, 0, 0, 0], "stateRewards": ["", 2, -1, -1, 7, 11, -40, -22, -2, 69, 37, 8, -2, 4, -8, -12, -2, -72, -3, -12, 17, 63, 12, 1, 3, -7, 6, 25, 61, 61, -9, 28, -17, 27], "withholdReward": false, "trial_id": "mdp_trial_11", "block": "test", "trialIndex": 12, "score": 61.2, "costs": -2.8, "simulationMode": [null, null, null, null, null, null], "rewards": [1, 3, -7, 6, 61], "path": ["0", "0", "23", "24", "25", "26", "29"], "rt": [6359, 1891, 332, 331, 525, 624], "actions": ["left", "left", "left", "left", "up", "left"], "actionTimes": [8512, 10465, 11418, 12372, 13256, 14518], "queries": {"click": {"state": {"target": ["29", "33"], "time": [3845, 6850]}, "edge": {"target": [], "time": []}}, "mouseover": {"state": {"target": ["26", "29", "32", "32", "33"], "time": [2901, 3332, 4762, 5176, 5857]}, "edge": {"target": [], "time": []}}, "mouseout": {"state": {"target": ["6", "18", "26", "29", "32", "32", "33"], "time": [470, 736, 3090, 4548, 4973, 5442, 6973]}, "edge": {"target": [], "time": []}}}, "displayed_time": "16.15", "trialTime": 20683, "trial_type": "mouselab-mdp", "trial_index": 19, "time_elapsed": 713005, "internal_node_id": "0.0-4.0-1.0-10.0"}}, {"uniqueid": "w61477552:a23514138", "current_trial": 20, "dateTime": 1691071624878, "trialdata": {"revealed_states": [], "clicked_states": ["17"], "num_clicks_accrued": [0, 0, 0, 0, 0, 0, 0, 0, 0, 0, 0, 0, 0], "stateRewards": ["", 2, -3, -2, 14, -4, 85, 46, 15, -28, 41, 31, -1, -1, -1, 5, 62, 79, 57, 12, -73, -64, 86, -1, 1, -3, -5, 68, 11, -32, 8, -80, -21, -56], "withholdReward": false, "trial_id": "mdp_trial_12", "block": "test", "trialIndex": 13, "score": 79.6, "costs": -1.4, "simulationMode": [null, null, null, null, null], "rewards": [-1, -1, -1, 5, 79], "path": ["0", "0", "12", "13", "14", "15", "17"], "rt": [4991, 154, 296, 360, 456], "actions": ["right", "right", "right", "up", "right"], "actionTimes": [7345, 8159, 9045, 9923, 10925], "queries": {"click": {"state": {"target": ["17"], "time": [3961]}, "edge": {"target": [], "time": []}}, "mouseover": {"state": {"target": ["17", "20", "20"], "time": [3649, 4806, 5227]}, "edge": {"target": [], "time": []}}, "mouseout": {"state": {"target": ["33", "31", "0", "17", "20", "20"], "time": [797, 969, 3061, 4134, 5011, 6915]}, "edge": {"target": [], "time": []}}}, "displayed_time": "16.36", "trialTime": 17215, "trial_type": "mouselab-mdp", "trial_index": 20, "time_elapsed": 731095, "internal_node_id": "0.0-4.0-1.0-11.0"}}, {"uniqueid": "w61477552:a23514138", "current_trial": 21, "dateTime": 1691071647515, "trialdata": {"revealed_states": [], "clicked_states": ["11", "21", "32", "29"], "num_clicks_accrued": [0, 0, 0, 0, 0, 0, 0, 0, 0, 0, 0, 0, 0], "stateRewards": ["", -1, -2, 8, -6, -79, -6, 87, 9, -5, -66, -38, 2, 2, 5, -6, -82, 74, 85, -8, 67, -30, -15, 1, -2, -2, -2, 87, 64, 49, 7, 2, -38, -9], "withholdReward": false, "trial_id": "mdp_trial_13", "block": "test", "trialIndex": 14, "score": 38.4, "costs": -5.6, "simulationMode": [null, null, null, null, null], "rewards": [1, -2, -2, -2, 49], "path": ["0", "0", "23", "24", "25", "26", "29"], "rt": [12006, 590, 129, 153, 347], "actions": ["left", "left", "left", "up", "left"], "actionTimes": [14060, 15321, 16292, 17151, 18115], "queries": {"click": {"state": {"target": ["11", "21", "32", "29"], "time": [3596, 5873, 8445, 10811]}, "edge": {"target": [], "time": []}}, "mouseover": {"state": {"target": ["11", "21", "32", "29", "26", "1", "0"], "time": [3142, 4916, 6950, 9469, 12372, 12856, 13382]}, "edge": {"target": [], "time": []}}, "mouseout": {"state": {"target": ["21", "0", "1", "11", "21", "32", "29", "26", "1", "0"], "time": [475, 875, 1142, 3763, 6477, 9043, 11444, 12754, 13366, 13573]}, "edge": {"target": [], "time": []}}}, "displayed_time": "18.65", "trialTime": 21245, "trial_type": "mouselab-mdp", "trial_index": 21, "time_elapsed": 753731, "internal_node_id": "0.0-4.0-1.0-12.0"}}, {"uniqueid": "w61477552:a23514138", "current_trial": 22, "dateTime": 1691071669598, "trialdata": {"revealed_states": [], "clicked_states": ["17", "29"], "num_clicks_accrued": [0, 0, 0, 0, 0, 0, 0, 0, 0, 0, 0, 0, 0], "stateRewards": ["", 1, 3, -2, 15, 51, 15, -19, 11, 67, -45, -73, 2, 4, -2, -13, 36, 9, -28, 10, -30, 31, 16, 1, 2, -1, -16, 14, -22, 36, -1, 88, -5, 45], "withholdReward": false, "trial_id": "mdp_trial_14", "block": "test", "trialIndex": 15, "score": 19.2, "costs": -2.8, "simulationMode": [null, null, null, null, null], "rewards": [1, 2, -1, -16, 36], "path": ["0", "0", "23", "24", "25", "26", "29"], "rt": [6863, 205, 3010, 462, 182], "actions": ["left", "left", "left", "up", "left"], "actionTimes": [8871, 9696, 13561, 14619, 15366], "queries": {"click": {"state": {"target": ["17", "29"], "time": [3514, 5402]}, "edge": {"target": [], "time": []}}, "mouseover": {"state": {"target": ["17", "17", "29"], "time": [2795, 3296, 4913]}, "edge": {"target": [], "time": []}}, "mouseout": {"state": {"target": ["0", "17", "17", "29"], "time": [2569, 3051, 4389, 6884]}, "edge": {"target": [], "time": []}}}, "displayed_time": "16.18", "trialTime": 21221, "trial_type": "mouselab-mdp", "trial_index": 22, "time_elapsed": 775814, "internal_node_id": "0.0-4.0-1.0-13.0"}}, {"uniqueid": "w61477552:a23514138", "current_trial": 23, "dateTime": 1691071693111, "trialdata": {"revealed_states": [], "clicked_states": [], "num_clicks_accrued": [0, 0, 0, 0, 0, 0, 0, 0, 0, 0, 0, 0, 0], "stateRewards": ["", 1, 1, 1, -3, -7, -1, -41, -10, 20, -72, -63, 1, -4, -2, 2, -66, 30, -84, -2, 49, 23, 71, -1, -4, 4, -12, 67, 5, 18, -16, 88, 56, -5], "withholdReward": false, "trial_id": "mdp_trial_15", "block": "test", "trialIndex": 16, "score": -69, "costs": 0, "simulationMode": [null, null, null, null, null], "rewards": [1, -4, -2, 2, -66], "path": ["0", "0", "12", "13", "14", "15", "16"], "rt": [12285, 210, 333, 1296, 204], "actions": ["right", "right", "right", "up", "up"], "actionTimes": [14501, 15321, 16450, 18352, 19232], "queries": {"click": {"state": {"target": [], "time": []}, "edge": {"target": [], "time": []}}, "mouseover": {"state": {"target": ["26", "29", "0", "31", "30", "32"], "time": [9527, 9853, 11395, 12195, 12996, 13538]}, "edge": {"target": [], "time": []}}, "mouseout": {"state": {"target": ["0", "26", "29", "0", "31", "30"], "time": [9275, 9840, 10990, 11588, 12430, 13297]}, "edge": {"target": [], "time": []}}}, "displayed_time": "19.94", "trialTime": 22574, "trial_type": "mouselab-mdp", "trial_index": 23, "time_elapsed": 799327, "internal_node_id": "0.0-4.0-1.0-14.0"}}, {"uniqueid": "w61477552:a23514138", "current_trial": 24, "dateTime": 1691071712237, "trialdata": {"revealed_states": [], "clicked_states": ["27"], "num_clicks_accrued": [0, 0, 0, 0, 0, 0, 0, 0, 0, 0, 0, 0, 0], "stateRewards": ["", -1, -4, 8, 8, -68, 47, 24, -7, -61, 49, -69, -1, -1, 8, -7, 42, 1, -45, -11, 10, -63, -6, 1, 4, 6, -16, 79, -37, -58, -12, 81, 18, -53], "withholdReward": false, "trial_id": "mdp_trial_16", "block": "test", "trialIndex": 17, "score": 72.6, "costs": -1.4, "simulationMode": [null, null, null, null, null], "rewards": [1, 4, 6, -16, 79], "path": ["0", "0", "23", "24", "25", "26", "27"], "rt": [4683, 822, 1030, 225, 261], "actions": ["left", "left", "left", "up", "up"], "actionTimes": [6482, 8275, 9800, 10721, 11594], "queries": {"click": {"state": {"target": ["27"], "time": [3372]}, "edge": {"target": [], "time": []}}, "mouseover": {"state": {"target": ["0", "27", "21"], "time": [2522, 3074, 4515]}, "edge": {"target": [], "time": []}}, "mouseout": {"state": {"target": ["31", "12", "0", "0", "27"], "time": [224, 541, 2208, 2779, 4017]}, "edge": {"target": [], "time": []}}}, "displayed_time": "15.81", "trialTime": 18095, "trial_type": "mouselab-mdp", "trial_index": 24, "time_elapsed": 818453, "internal_node_id": "0.0-4.0-1.0-15.0"}}, {"uniqueid": "w61477552:a23514138", "current_trial": 25, "dateTime": 1691071730741, "trialdata": {"revealed_states": [], "clicked_states": [], "num_clicks_accrued": [0, 0, 0, 0, 0, 0, 0, 0, 0, 0, 0, 0, 0], "stateRewards": ["", 1, 1, -3, 7, 49, 78, 26, -5, 26, 48, -43, -1, -3, 2, -5, 4, -1, -60, 10, -35, 51, 81, -2, 1, -7, -5, -39, -86, -54, 4, -3, 74, 77], "withholdReward": false, "trial_id": "mdp_trial_17", "block": "test", "trialIndex": 18, "score": 70, "costs": 0, "simulationMode": [null, null, null, null, null], "rewards": [-2, 1, -7, 4, 74], "path": ["0", "0", "23", "24", "25", "30", "32"], "rt": [5213, 798, 243, 257, 363], "actions": ["left", "left", "left", "down", "down"], "actionTimes": [7663, 9131, 10034, 10994, 12049], "queries": {"click": {"state": {"target": [], "time": []}, "edge": {"target": [], "time": []}}, "mouseover": {"state": {"target": ["23", "28", "27"], "time": [3465, 5437, 5732]}, "edge": {"target": [], "time": []}}, "mouseout": {"state": {"target": ["21", "23", "28", "27"], "time": [1051, 3712, 5722, 6399]}, "edge": {"target": [], "time": []}}}, "displayed_time": "16.45", "trialTime": 17650, "trial_type": "mouselab-mdp", "trial_index": 25, "time_elapsed": 836957, "internal_node_id": "0.0-4.0-1.0-16.0"}}, {"uniqueid": "w61477552:a23514138", "current_trial": 26, "dateTime": 1691071769699, "trialdata": {"revealed_states": [], "clicked_states": ["29", "17", "21", "32"], "num_clicks_accrued": [0, 0, 0, 0, 0, 0, 0, 0, 0, 0, 0, 0, 0], "stateRewards": ["", 1, -4, -6, 11, -20, 8, -30, 1, -38, 88, 42, 2, 3, 5, -12, -8, -74, 30, -8, 67, -19, 42, 2, -1, 4, 13, 50, -68, 2, -8, -15, 87, -46], "withholdReward": false, "trial_id": "mdp_trial_18", "block": "test", "trialIndex": 19, "score": 78.4, "costs": -5.6, "simulationMode": [null, null, null, null, null], "rewards": [2, -1, 4, -8, 87], "path": ["0", "0", "23", "24", "25", "30", "32"], "rt": [18161, 1196, 423, 213, 218], "actions": ["left", "left", "left", "down", "down"], "actionTimes": [31106, 33040, 34201, 34962, 35860], "queries": {"click": {"state": {"target": ["29", "17", "21", "32"], "time": [15127, 18684, 22782, 27430]}, "edge": {"target": [], "time": []}}, "mouseover": {"state": {"target": ["23", "25", "29", "23", "22", "17", "21", "32", "32", "3"], "time": [13885, 14507, 14862, 15414, 15756, 16246, 19771, 26507, 27183, 30573]}, "edge": {"target": [], "time": []}}, "mouseout": {"state": {"target": ["12", "23", "25", "29", "23", "22", "17", "21", "21", "32", "32", "3", "1"], "time": [3568, 14168, 14852, 15404, 15450, 16239, 19482, 23021, 25760, 26818, 27450, 30878, 37509]}, "edge": {"target": [], "time": []}}}, "displayed_time": "36.62", "trialTime": 38054, "trial_type": "mouselab-mdp", "trial_index": 26, "time_elapsed": 875915, "internal_node_id": "0.0-4.0-1.0-17.0"}}, {"uniqueid": "w61477552:a23514138", "current_trial": 27, "dateTime": 1691071790851, "trialdata": {"revealed_states": [], "clicked_states": ["9"], "num_clicks_accrued": [0, 0, 0, 0, 0, 0, 0, 0, 0, 0, 0, 0, 0], "stateRewards": ["", -2, 2, -2, -7, -50, -62, -45, 7, 36, -24, -72, -1, -1, 8, -1, -67, 20, -52, 2, 35, -50, 80, -1, 1, 6, -6, -70, 6, 88, 8, -47, 74, -19], "withholdReward": false, "trial_id": "mdp_trial_19", "block": "test", "trialIndex": 20, "score": 39.6, "costs": -1.4, "simulationMode": [null, null, null, null, null], "rewards": [-2, 2, -2, 7, 36], "path": ["0", "0", "1", "2", "3", "8", "9"], "rt": [5899, 318, 226, 230, 332], "actions": ["up", "up", "up", "left", "up"], "actionTimes": [10877, 11728, 12677, 13495, 14355], "queries": {"click": {"state": {"target": ["9"], "time": [7435]}, "edge": {"target": [], "time": []}}, "mouseover": {"state": {"target": ["1", "8", "9", "3", "5"], "time": [6135, 6760, 7161, 8337, 8789]}, "edge": {"target": [], "time": []}}, "mouseout": {"state": {"target": ["0", "1", "8", "9", "3", "5", "7"], "time": [4084, 6425, 7148, 8314, 8778, 19292, 19693]}, "edge": {"target": [], "time": []}}}, "displayed_time": "18.98", "trialTime": 20170, "trial_type": "mouselab-mdp", "trial_index": 27, "time_elapsed": 897067, "internal_node_id": "0.0-4.0-1.0-18.0"}}, {"uniqueid": "w61477552:a23514138", "current_trial": 28, "dateTime": 1691071810887, "trialdata": {"revealed_states": [], "clicked_states": ["6", "5", "29"], "num_clicks_accrued": [0, 0, 0, 0, 0, 0, 0, 0, 0, 0, 0, 0, 0], "stateRewards": ["", -1, -4, -1, -5, -28, -23, -15, -15, -38, 59, -87, 2, 2, -5, 9, -55, -39, -71, -6, 85, -85, -11, -1, -2, 5, -10, 1, 25, 41, -4, 69, -35, 86], "withholdReward": false, "trial_id": "mdp_trial_20", "block": "test", "trialIndex": 21, "score": 28.8, "costs": -4.199999999999999, "simulationMode": [null, null, null, null, null], "rewards": [-1, -2, 5, -10, 41], "path": ["0", "0", "23", "24", "25", "26", "29"], "rt": [9858, 1056, 562, 241, 542], "actions": ["left", "left", "left", "up", "left"], "actionTimes": [12480, 14306, 15186, 16190, 17305], "queries": {"click": {"state": {"target": ["6", "5", "29"], "time": [4174, 6791, 9320]}, "edge": {"target": [], "time": []}}, "mouseover": {"state": {"target": ["24", "6", "5", "29", "32"], "time": [2985, 3721, 5684, 8102, 10570]}, "edge": {"target": [], "time": []}}, "mouseout": {"state": {"target": ["17", "17", "13", "24", "6", "5", "29"], "time": [223, 434, 985, 3323, 4430, 7646, 10232]}, "edge": {"target": [], "time": []}}}, "displayed_time": "18.02", "trialTime": 18954, "trial_type": "mouselab-mdp", "trial_index": 28, "time_elapsed": 917103, "internal_node_id": "0.0-4.0-1.0-19.0"}}, {"uniqueid": "w61477552:a23514138", "current_trial": 29, "dateTime": 1691071831329, "trialdata": {"revealed_states": [], "clicked_states": ["6", "21"], "num_clicks_accrued": [0, 0, 0, 0, 0, 0, 0, 0, 0, 0, 0, 0, 0], "stateRewards": ["", 2, -4, 4, 9, 69, 9, -75, 12, -86, 66, 25, -1, 3, 2, -13, -88, -3, 1, 4, -69, 49, -84, 2, -1, 4, 2, -18, -81, -52, -15, -69, -54, 25], "withholdReward": false, "trial_id": "mdp_trial_21", "block": "test", "trialIndex": 22, "score": 54.2, "costs": -2.8, "simulationMode": [null, null, null, null, null], "rewards": [-1, 3, 2, 4, 49], "path": ["0", "0", "12", "13", "14", "19", "21"], "rt": [7759, 293, 771, 252, 2835], "actions": ["right", "right", "right", "down", "down"], "actionTimes": [9826, 10747, 12151, 13014, 16415], "queries": {"click": {"state": {"target": ["6", "21"], "time": [3684, 6544]}, "edge": {"target": [], "time": []}}, "mouseover": {"state": {"target": ["6", "21", "32"], "time": [3261, 4854, 7914]}, "edge": {"target": [], "time": []}}, "mouseout": {"state": {"target": ["32", "0", "6", "21"], "time": [780, 1145, 4464, 7484]}, "edge": {"target": [], "time": []}}}, "displayed_time": "16.96", "trialTime": 19572, "trial_type": "mouselab-mdp", "trial_index": 29, "time_elapsed": 937545, "internal_node_id": "0.0-4.0-1.0-20.0"}}, {"uniqueid": "w61477552:a23514138", "current_trial": 30, "dateTime": 1691071855869, "trialdata": {"revealed_states": [], "clicked_states": [], "num_clicks_accrued": [0, 0, 0, 0, 0, 0, 0, 0, 0, 0, 0, 0, 0], "stateRewards": ["", -1, 4, -3, 3, 57, -61, 5, -11, 23, -1, 34, -2, -4, -1, -13, 27, 38, -36, 4, -45, 21, 88, 1, -2, -1, 1, -69, -5, -78, -12, -9, 38, -54], "withholdReward": false, "trial_id": "mdp_trial_22", "block": "test", "trialIndex": 23, "score": -58, "costs": 0, "simulationMode": [null, null, null, null, null], "rewards": [-1, 4, -3, 3, -61], "path": ["0", "0", "1", "2", "3", "4", "6"], "rt": [6609, 1298, 304, 457, 326], "actions": ["up", "up", "up", "right", "right"], "actionTimes": [14699, 16570, 17429, 18503, 19379], "queries": {"click": {"state": {"target": [], "time": []}, "edge": {"target": [], "time": []}}, "mouseover": {"state": {"target": ["26", "29", "7", "1"], "time": [12371, 13024, 14170, 14445]}, "edge": {"target": [], "time": []}}, "mouseout": {"state": {"target": ["32", "0", "26", "29", "7"], "time": [5804, 6199, 12686, 13637, 14438]}, "edge": {"target": [], "time": []}}}, "displayed_time": "22.09", "trialTime": 23549, "trial_type": "mouselab-mdp", "trial_index": 30, "time_elapsed": 962084, "internal_node_id": "0.0-4.0-1.0-21.0"}}, {"uniqueid": "w61477552:a23514138", "current_trial": 31, "dateTime": 1691071876320, "trialdata": {"revealed_states": [], "clicked_states": ["20", "21", "32"], "num_clicks_accrued": [0, 0, 0, 0, 0, 0, 0, 0, 0, 0, 0, 0, 0], "stateRewards": ["", 1, 3, 3, -10, 52, 68, 59, 12, 7, 49, 21, -2, -3, -4, -2, -2, 63, 63, -4, 44, 43, -76, -2, -3, -6, 13, 48, 36, 12, -5, -36, -33, -11], "withholdReward": false, "trial_id": "mdp_trial_23", "block": "test", "trialIndex": 24, "score": 26.8, "costs": -4.199999999999999, "simulationMode": [null, null, null, null, null], "rewards": [-2, -3, -4, -4, 44], "path": ["0", "0", "12", "13", "14", "19", "20"], "rt": [10525, 266, 421, 596, 595], "actions": ["right", "right", "right", "down", "right"], "actionTimes": [12404, 13007, 14386, 15582, 16531], "queries": {"click": {"state": {"target": ["20", "21", "32"], "time": [3794, 6504, 10353]}, "edge": {"target": [], "time": []}}, "mouseover": {"state": {"target": ["19", "20", "21", "32"], "time": [2263, 3440, 4216, 9838]}, "edge": {"target": [], "time": []}}, "mouseout": {"state": {"target": ["1", "19", "20", "21"], "time": [311, 3101, 4166, 8115]}, "edge": {"target": [], "time": []}}}, "displayed_time": "17.38", "trialTime": 19518, "trial_type": "mouselab-mdp", "trial_index": 31, "time_elapsed": 982536, "internal_node_id": "0.0-4.0-1.0-22.0"}}, {"uniqueid": "w61477552:a23514138", "current_trial": 32, "dateTime": 1691071899636, "trialdata": {"revealed_states": [], "clicked_states": ["27"], "num_clicks_accrued": [0, 0, 0, 0, 0, 0, 0, 0, 0, 0, 0, 0, 0], "stateRewards": ["", -1, -1, 7, -15, -43, -21, -84, -9, -45, -66, 2, 1, -2, 2, 8, -27, 44, -52, -5, -84, 11, 53, 1, 4, -4, 16, 83, -82, -15, -16, 68, -43, 81], "withholdReward": false, "trial_id": "mdp_trial_24", "block": "test", "trialIndex": 25, "score": 98.6, "costs": -1.4, "simulationMode": [null, null, null, null, null], "rewards": [1, 4, -4, 16, 83], "path": ["0", "0", "23", "24", "25", "26", "27"], "rt": [5035, 284, 610, 1348, 314], "actions": ["left", "left", "left", "up", "up"], "actionTimes": [8268, 9232, 10472, 12186, 13127], "queries": {"click": {"state": {"target": ["27"], "time": [4969]}, "edge": {"target": [], "time": []}}, "mouseover": {"state": {"target": ["23", "27", "29"], "time": [4097, 4544, 6624]}, "edge": {"target": [], "time": []}}, "mouseout": {"state": {"target": ["32", "32", "0", "23", "27", "27", "29", "25"], "time": [620, 1778, 3607, 4537, 5241, 6613, 17250, 21599]}, "edge": {"target": [], "time": []}}}, "displayed_time": "17.23", "trialTime": 22174, "trial_type": "mouselab-mdp", "trial_index": 32, "time_elapsed": 1005851, "internal_node_id": "0.0-4.0-1.0-23.0"}}, {"uniqueid": "w61477552:a23514138", "current_trial": 33, "dateTime": 1691071917854, "trialdata": {"revealed_states": [], "clicked_states": ["29"], "num_clicks_accrued": [0, 0, 0, 0, 0, 0, 0, 0, 0, 0, 0, 0, 0], "stateRewards": ["", -1, 2, -6, 6, 43, 78, 78, -2, 55, -29, -17, -2, -4, 1, -15, 13, 7, -79, 8, -28, -68, 36, -1, -3, 3, -16, 84, -18, 87, 10, 32, 13, -81], "withholdReward": false, "trial_id": "mdp_trial_25", "block": "test", "trialIndex": 26, "score": 68.6, "costs": -1.4, "simulationMode": [null, null, null, null, null], "rewards": [-1, -3, 3, -16, 87], "path": ["0", "0", "23", "24", "25", "26", "29"], "rt": [5891, 808, 420, 1389, 588], "actions": ["left", "left", "left", "up", "left"], "actionTimes": [7781, 9199, 9982, 11969, 13199], "queries": {"click": {"state": {"target": ["29"], "time": [3784]}, "edge": {"target": [], "time": []}}, "mouseover": {"state": {"target": ["29", "15", "17"], "time": [3398, 5487, 6242]}, "edge": {"target": [], "time": []}}, "mouseout": {"state": {"target": ["13", "0", "29", "15", "17"], "time": [685, 2898, 5110, 6235, 14619]}, "edge": {"target": [], "time": []}}}, "displayed_time": "15.89", "trialTime": 17196, "trial_type": "mouselab-mdp", "trial_index": 33, "time_elapsed": 1024071, "internal_node_id": "0.0-4.0-1.0-24.0"}}, {"uniqueid": "w61477552:a23514138", "current_trial": 34, "dateTime": 1691071937990, "trialdata": {"revealed_states": [], "clicked_states": ["16"], "num_clicks_accrued": [0, 0, 0, 0, 0, 0, 0, 0, 0, 0, 0, 0, 0], "stateRewards": ["", 1, 1, 1, 15, -76, 52, -32, 14, -57, 37, 49, 1, -4, -3, 6, 83, -76, 25, 9, 36, -1, -17, -1, 4, 4, -2, -22, -21, 58, -15, -57, 49, -24], "withholdReward": false, "trial_id": "mdp_trial_26", "block": "test", "trialIndex": 27, "score": 81.6, "costs": -1.4, "simulationMode": [null, null, null, null, null], "rewards": [1, -4, -3, 6, 83], "path": ["0", "0", "12", "13", "14", "15", "16"], "rt": [5571, 305, 304, 373, 503], "actions": ["right", "right", "right", "up", "up"], "actionTimes": [8892, 9872, 10843, 11946, 13317], "queries": {"click": {"state": {"target": ["16"], "time": [5127]}, "edge": {"target": [], "time": []}}, "mouseover": {"state": {"target": ["18", "16", "20"], "time": [4282, 4692, 7768]}, "edge": {"target": [], "time": []}}, "mouseout": {"state": {"target": ["0", "18", "16", "20"], "time": [2461, 4682, 6566, 7916]}, "edge": {"target": [], "time": []}}}, "displayed_time": "18.32", "trialTime": 19067, "trial_type": "mouselab-mdp", "trial_index": 34, "time_elapsed": 1044207, "internal_node_id": "0.0-4.0-1.0-25.0"}}, {"uniqueid": "w61477552:a23514138", "current_trial": 35, "dateTime": 1691071957057, "trialdata": {"revealed_states": [], "clicked_states": ["32"], "num_clicks_accrued": [0, 0, 0, 0, 0, 0, 0, 0, 0, 0, 0, 0, 0], "stateRewards": ["", -2, -4, -2, -13, -15, 87, -19, -6, -80, 30, 12, 1, 1, -8, 2, 55, 56, 15, 11, -68, -7, 55, -2, 3, -3, -3, 48, 62, 4, 1, -3, 69, -33], "withholdReward": false, "trial_id": "mdp_trial_27", "block": "test", "trialIndex": 28, "score": 66.6, "costs": -1.4, "simulationMode": [null, null, null, null, null], "rewards": [-2, 3, -3, 1, 69], "path": ["0", "0", "23", "24", "25", "30", "32"], "rt": [5124, 398, 300, 369, 909], "actions": ["left", "left", "left", "down", "down"], "actionTimes": [8016, 9112, 10086, 11205, 12803], "queries": {"click": {"state": {"target": ["32"], "time": [4628]}, "edge": {"target": [], "time": []}}, "mouseover": {"state": {"target": ["0", "32", "15"], "time": [3277, 4243, 7471]}, "edge": {"target": [], "time": []}}, "mouseout": {"state": {"target": ["13", "0", "32"], "time": [1459, 3802, 5096]}, "edge": {"target": [], "time": []}}}, "displayed_time": "16.89", "trialTime": 18020, "trial_type": "mouselab-mdp", "trial_index": 35, "time_elapsed": 1063274, "internal_node_id": "0.0-4.0-1.0-26.0"}}, {"uniqueid": "w61477552:a23514138", "current_trial": 36, "dateTime": 1691071977527, "trialdata": {"revealed_states": [], "clicked_states": ["16", "33"], "num_clicks_accrued": [0, 0, 0, 0, 0, 0, 0, 0, 0, 0, 0, 0, 0], "stateRewards": ["", -2, -3, -6, -7, 9, 16, 65, 5, -41, 20, -25, -1, -4, 1, -11, -49, -4, 71, 1, 39, -62, 52, -2, -3, 7, -9, -28, -70, 84, 8, 24, -58, 82], "withholdReward": false, "trial_id": "mdp_trial_28", "block": "test", "trialIndex": 29, "score": 89.2, "costs": -2.8, "simulationMode": [null, null, null, null, null], "rewards": [-2, -3, 7, 8, 82], "path": ["0", "0", "23", "24", "25", "30", "33"], "rt": [7835, 314, 401, 1063, 409], "actions": ["left", "left", "left", "down", "left"], "actionTimes": [12283, 13282, 14414, 16191, 17392], "queries": {"click": {"state": {"target": ["16", "33"], "time": [6439, 9135]}, "edge": {"target": [], "time": []}}, "mouseover": {"state": {"target": ["12", "16", "1", "33", "27"], "time": [5537, 6009, 6856, 7796, 10741]}, "edge": {"target": [], "time": []}}, "mouseout": {"state": {"target": ["15", "12", "16", "1", "33", "27", "28", "31"], "time": [2870, 5996, 6463, 7270, 10354, 18193, 18630, 18999]}, "edge": {"target": [], "time": []}}}, "displayed_time": "18.61", "trialTime": 19518, "trial_type": "mouselab-mdp", "trial_index": 36, "time_elapsed": 1083743, "internal_node_id": "0.0-4.0-1.0-27.0"}}, {"uniqueid": "w61477552:a23514138", "current_trial": 37, "dateTime": 1691072006412, "trialdata": {"revealed_states": [], "clicked_states": ["21", "27", "16", "32"], "num_clicks_accrued": [0, 0, 0, 0, 0, 0, 0, 0, 0, 0, 0, 0, 0], "stateRewards": ["", -2, -4, -8, 8, 63, -50, -19, -7, -17, -31, 31, 1, 3, -5, 12, -35, -63, -29, -4, -17, -75, -79, -2, -3, -2, 8, -3, -85, 10, -2, -82, -82, 56], "withholdReward": false, "trial_id": "mdp_trial_29", "block": "test", "trialIndex": 30, "score": -57.6, "costs": -5.6, "simulationMode": [null, null, null, null, null], "rewards": [1, 3, -5, 12, -63], "path": ["0", "0", "12", "13", "14", "15", "17"], "rt": [19095, 543, 350, 583, 379], "actions": ["right", "right", "right", "up", "right"], "actionTimes": [20654, 21960, 22996, 24393, 25570], "queries": {"click": {"state": {"target": ["21", "27", "16", "32"], "time": [3275, 6816, 10380, 12981]}, "edge": {"target": [], "time": []}}, "mouseover": {"state": {"target": ["0", "21", "27", "16", "32", "17"], "time": [2350, 2792, 6438, 8640, 11346, 16429]}, "edge": {"target": [], "time": []}}, "mouseout": {"state": {"target": ["0", "0", "21", "27", "16", "32"], "time": [506, 2786, 4421, 7262, 10803, 14257]}, "edge": {"target": [], "time": []}}}, "displayed_time": "26.36", "trialTime": 27787, "trial_type": "mouselab-mdp", "trial_index": 37, "time_elapsed": 1112628, "internal_node_id": "0.0-4.0-1.0-28.0"}}, {"uniqueid": "w61477552:a23514138", "current_trial": 38, "dateTime": 1691072029867, "trialdata": {"revealed_states": [], "clicked_states": ["3"], "num_clicks_accrued": [0, 0, 0, 0, 0, 0, 0, 0, 0, 0, 0, 0, 0], "stateRewards": ["", -1, 1, 3, -8, -23, -15, -14, -11, -23, 58, 68, 1, 3, 5, 12, -17, -41, -7, -10, -4, 82, 10, 1, 4, -4, 11, 73, 55, -55, -1, -86, -86, 54], "withholdReward": false, "trial_id": "mdp_trial_30", "block": "test", "trialIndex": 31, "score": -21.4, "costs": -1.4, "simulationMode": [null, null, null, null, null], "rewards": [-1, 1, 3, -8, -15], "path": ["0", "0", "1", "2", "3", "4", "6"], "rt": [9354, 368, 1133, 2514, 342], "actions": ["up", "up", "up", "right", "right"], "actionTimes": [12562, 13778, 15652, 19264, 20364], "queries": {"click": {"state": {"target": ["3"], "time": [5173]}, "edge": {"target": [], "time": []}}, "mouseover": {"state": {"target": ["3", "8", "11"], "time": [4728, 11311, 11747]}, "edge": {"target": [], "time": []}}, "mouseout": {"state": {"target": ["17", "3", "8"], "time": [1226, 5195, 11740]}, "edge": {"target": [], "time": []}}}, "displayed_time": "21.16", "trialTime": 22595, "trial_type": "mouselab-mdp", "trial_index": 38, "time_elapsed": 1136082, "internal_node_id": "0.0-4.0-1.0-29.0"}}, {"uniqueid": "w61477552:a23514138", "current_trial": 39, "dateTime": 1691072075545, "trialdata": {"revealed_states": [], "clicked_states": ["11", "6", "20", "32", "29", "27"], "num_clicks_accrued": [0, 0, 0, 0, 0, 0, 0, 0, 0, 0, 0, 0, 0], "stateRewards": ["", 2, 4, -6, -13, -75, -81, 30, 7, 5, 59, -65, -1, -1, 7, 14, -38, 36, -41, 1, -54, -5, 64, 2, -1, 5, 6, -19, 79, 11, 16, -33, -50, 58], "withholdReward": false, "trial_id": "mdp_trial_31", "block": "test", "trialIndex": 32, "score": 14.6, "costs": -8.4, "simulationMode": [null, null, null, null, null], "rewards": [2, -1, 5, 6, 11], "path": ["0", "0", "23", "24", "25", "26", "29"], "rt": [19163, 745, 465, 139, 345], "actions": ["left", "left", "left", "up", "left"], "actionTimes": [37499, 38658, 39802, 41130, 42287], "queries": {"click": {"state": {"target": ["11", "6", "20", "32", "29", "27"], "time": [21033, 24541, 26957, 29874, 32751, 35364]}, "edge": {"target": [], "time": []}}, "mouseover": {"state": {"target": ["1", "8", "11", "6", "14", "20", "21", "32", "29", "27", "28"], "time": [19487, 19941, 20394, 22704, 25598, 26935, 27912, 29285, 31273, 33265, 36659]}, "edge": {"target": [], "time": []}}, "mouseout": {"state": {"target": ["11", "8", "0", "0", "0", "1", "8", "11", "6", "14", "20", "21", "32", "29", "27", "28"], "time": [3058, 8954, 9362, 17043, 17387, 19935, 20378, 22694, 24957, 26929, 27890, 29279, 30719, 33256, 36645, 37495]}, "edge": {"target": [], "time": []}}}, "displayed_time": "43.10", "trialTime": 44653, "trial_type": "mouselab-mdp", "trial_index": 39, "time_elapsed": 1181761, "internal_node_id": "0.0-4.0-1.0-30.0"}}, {"uniqueid": "w61477552:a23514138", "current_trial": 40, "dateTime": 1691072100952, "trialdata": {"revealed_states": [], "clicked_states": [], "num_clicks_accrued": [0, 0, 0, 0, 0, 0, 0, 0, 0, 0, 0, 0, 0], "stateRewards": ["", 1, 3, 1, -13, 52, -28, 67, -14, 3, 63, -70, -1, -4, 7, -11, -10, 47, -18, 6, 69, -9, -61, 2, 3, -6, 10, 63, -34, 40, -6, -79, -35, -32], "withholdReward": false, "trial_id": "mdp_trial_32", "block": "test", "trialIndex": 33, "score": -19, "costs": 0, "simulationMode": [null, null, null, null, null], "rewards": [-1, -4, 7, -11, -10], "path": ["0", "0", "12", "13", "14", "15", "16"], "rt": [9955, 447, 361, 3485, 1125], "actions": ["right", "right", "right", "up", "up"], "actionTimes": [12173, 13434, 14643, 18984, 20949], "queries": {"click": {"state": {"target": [], "time": []}, "edge": {"target": [], "time": []}}, "mouseover": {"state": {"target": ["0", "15"], "time": [8112, 9710]}, "edge": {"target": [], "time": []}}, "mouseout": {"state": {"target": ["0", "0", "15"], "time": [1156, 8207, 10207]}, "edge": {"target": [], "time": []}}}, "displayed_time": "21.76", "trialTime": 24112, "trial_type": "mouselab-mdp", "trial_index": 40, "time_elapsed": 1207169, "internal_node_id": "0.0-4.0-1.0-31.0"}}, {"uniqueid": "w61477552:a23514138", "current_trial": 41, "dateTime": 1691072134180, "trialdata": {"revealed_states": [], "clicked_states": ["29", "16", "32", "11", "21"], "num_clicks_accrued": [0, 0, 0, 0, 0, 0, 0, 0, 0, 0, 0, 0, 0], "stateRewards": ["", 1, -1, 8, 4, 76, -33, -17, -3, -1, -54, -74, -2, 2, -5, 13, -51, 63, 83, 1, 84, 29, -36, 2, -1, 7, -12, -10, -44, -43, -14, 8, -69, 19], "withholdReward": false, "trial_id": "mdp_trial_33", "block": "test", "trialIndex": 34, "score": 18, "costs": -7, "simulationMode": [null, null, null, null, null], "rewards": [-2, 2, -5, 1, 29], "path": ["0", "0", "12", "13", "14", "19", "21"], "rt": [20438, 858, 760, 1783, 409], "actions": ["right", "right", "right", "down", "down"], "actionTimes": [22688, 24378, 25607, 28306, 29534], "queries": {"click": {"state": {"target": ["29", "16", "32", "11", "21"], "time": [4905, 8123, 11888, 15551, 18452]}, "edge": {"target": [], "time": []}}, "mouseover": {"state": {"target": ["23", "29", "16", "32", "23", "6", "3", "11", "21", "18", "6"], "time": [3919, 4453, 7679, 9572, 12415, 12979, 14613, 15163, 18419, 19433, 19993]}, "edge": {"target": [], "time": []}}, "mouseout": {"state": {"target": ["13", "23", "29", "16", "32", "23", "6", "3", "11", "21", "18"], "time": [1118, 4447, 6228, 9043, 12406, 12453, 14602, 15152, 16977, 19377, 19988]}, "edge": {"target": [], "time": []}}}, "displayed_time": "30.49", "trialTime": 32165, "trial_type": "mouselab-mdp", "trial_index": 41, "time_elapsed": 1240396, "internal_node_id": "0.0-4.0-1.0-32.0"}}, {"uniqueid": "w61477552:a23514138", "current_trial": 42, "dateTime": 1691072159124, "trialdata": {"revealed_states": [], "clicked_states": ["5", "9"], "num_clicks_accrued": [0, 0, 0, 0, 0, 0, 0, 0, 0, 0, 0, 0, 0], "stateRewards": ["", -2, 3, -1, 2, -72, 63, 20, -1, 62, -66, 39, -2, 3, -6, 14, 22, 47, 1, 8, -49, -1, -41, 2, 2, -6, -16, -64, -60, -34, 16, 54, 22, -7], "withholdReward": false, "trial_id": "mdp_trial_34", "block": "test", "trialIndex": 35, "score": 58.2, "costs": -2.8, "simulationMode": [null, null, null, null, null], "rewards": [-2, 3, -1, -1, 62], "path": ["0", "0", "1", "2", "3", "8", "9"], "rt": [10583, 427, 441, 1867, 1039], "actions": ["up", "up", "up", "left", "up"], "actionTimes": [13797, 15181, 16563, 19389, 21413], "queries": {"click": {"state": {"target": ["5", "9"], "time": [5362, 9873]}, "edge": {"target": [], "time": []}}, "mouseover": {"state": {"target": ["5", "9", "9", "29", "29", "26"], "time": [4835, 6818, 9361, 10708, 12172, 13310]}, "edge": {"target": [], "time": []}}, "mouseout": {"state": {"target": ["6", "7", "0", "5", "9", "9", "29", "29"], "time": [702, 2000, 4284, 6810, 8902, 10696, 11700, 12766]}, "edge": {"target": [], "time": []}}}, "displayed_time": "22.31", "trialTime": 23824, "trial_type": "mouselab-mdp", "trial_index": 42, "time_elapsed": 1265341, "internal_node_id": "0.0-4.0-1.0-33.0"}}, {"uniqueid": "w61477552:a23514138", "current_trial": 43, "dateTime": 1691072179958, "trialdata": {"revealed_states": [], "clicked_states": ["29", "17"], "num_clicks_accrued": [0, 0, 0, 0, 0, 0, 0, 0, 0, 0, 0, 0, 0], "stateRewards": ["", -1, -3, 3, 5, 56, 39, 50, -1, -80, 33, -46, 1, -2, -6, -8, 87, 48, 54, -11, -20, -64, -54, -2, 3, -7, -3, 12, 88, 35, -16, -46, -70, -3], "withholdReward": false, "trial_id": "mdp_trial_35", "block": "test", "trialIndex": 36, "score": 30.2, "costs": -2.8, "simulationMode": [null, null, null, null, null], "rewards": [1, -2, -6, -8, 48], "path": ["0", "0", "12", "13", "14", "15", "17"], "rt": [8870, 910, 1174, 643, 410], "actions": ["right", "right", "right", "up", "right"], "actionTimes": [11310, 13068, 14694, 16225, 17609], "queries": {"click": {"state": {"target": ["29", "17"], "time": [4642, 7160]}, "edge": {"target": [], "time": []}}, "mouseover": {"state": {"target": ["0", "29", "17", "21"], "time": [3088, 4186, 6214, 8691]}, "edge": {"target": [], "time": []}}, "mouseout": {"state": {"target": ["26", "0", "29", "17"], "time": [1068, 3623, 4662, 8158]}, "edge": {"target": [], "time": []}}}, "displayed_time": "18.51", "trialTime": 19900, "trial_type": "mouselab-mdp", "trial_index": 43, "time_elapsed": 1286174, "internal_node_id": "0.0-4.0-1.0-34.0"}}, {"uniqueid": "w61477552:a23514138", "current_trial": 44, "dateTime": 1691072199443, "trialdata": {"revealed_states": [], "clicked_states": ["29"], "num_clicks_accrued": [0, 0, 0, 0, 0, 0, 0, 0, 0, 0, 0, 0, 0], "stateRewards": ["", 2, -1, 4, -9, -43, 7, 54, -13, 38, -40, -83, -1, 2, -8, -10, 34, -33, 11, -14, -79, 65, 26, 1, 2, 4, 10, 21, 1, 86, 4, -53, 28, -29], "withholdReward": false, "trial_id": "mdp_trial_36", "block": "test", "trialIndex": 37, "score": 101.6, "costs": -1.4, "simulationMode": [null, null, null, null, null], "rewards": [1, 2, 4, 10, 86], "path": ["0", "0", "23", "24", "25", "26", "29"], "rt": [5943, 436, 431, 434, 507], "actions": ["left", "left", "left", "up", "left"], "actionTimes": [8515, 9824, 11184, 12536, 13971], "queries": {"click": {"state": {"target": ["29"], "time": [4752]}, "edge": {"target": [], "time": []}}, "mouseover": {"state": {"target": ["29", "5"], "time": [4264, 5347]}, "edge": {"target": [], "time": []}}, "mouseout": {"state": {"target": ["21", "0", "29"], "time": [1083, 3648, 5340]}, "edge": {"target": [], "time": []}}}, "displayed_time": "17.57", "trialTime": 18372, "trial_type": "mouselab-mdp", "trial_index": 44, "time_elapsed": 1305659, "internal_node_id": "0.0-4.0-1.0-35.0"}}, {"uniqueid": "w61477552:a23514138", "current_trial": 45, "dateTime": 1691072225970, "trialdata": {"revealed_states": [], "clicked_states": ["16", "27"], "num_clicks_accrued": [0, 0, 0, 0, 0, 0, 0, 0, 0, 0, 0, 0, 0], "stateRewards": ["", -2, -1, -6, -14, -55, 78, -13, 11, 14, -71, 59, 2, 2, 6, -6, 9, 38, 14, 7, 85, 11, 68, 1, -4, -1, -3, -63, -85, 9, -2, 63, -86, -10], "withholdReward": false, "trial_id": "mdp_trial_37", "block": "test", "trialIndex": 38, "score": -94.8, "costs": -2.8, "simulationMode": [null, null, null, null, null], "rewards": [1, -4, -1, -2, -86], "path": ["0", "0", "23", "24", "25", "30", "32"], "rt": [13175, 556, 964, 453, 788], "actions": ["left", "left", "left", "down", "down"], "actionTimes": [17050, 18501, 20381, 21788, 23161], "queries": {"click": {"state": {"target": ["16", "27"], "time": [6038, 10961]}, "edge": {"target": [], "time": []}}, "mouseover": {"state": {"target": ["16", "27", "27", "9", "32"], "time": [5421, 6896, 10436, 11578, 14962]}, "edge": {"target": [], "time": []}}, "mouseout": {"state": {"target": ["5", "4", "0", "16", "27", "27", "9", "32"], "time": [2397, 2906, 4863, 6883, 9934, 11571, 14377, 15652]}, "edge": {"target": [], "time": []}}}, "displayed_time": "24.04", "trialTime": 25612, "trial_type": "mouselab-mdp", "trial_index": 45, "time_elapsed": 1332185, "internal_node_id": "0.0-4.0-1.0-36.0"}}, {"uniqueid": "w61477552:a23514138", "current_trial": 46, "dateTime": 1691072248474, "trialdata": {"revealed_states": [], "clicked_states": ["5"], "num_clicks_accrued": [0, 0, 0, 0, 0, 0, 0, 0, 0, 0, 0, 0, 0], "stateRewards": ["", 2, -2, 7, -11, -76, -65, -23, 16, -58, 30, 81, 1, 2, 7, 14, 9, 55, -2, 6, 11, -15, 31, -1, -1, -3, 2, 15, 2, 46, 15, 18, 45, -34], "withholdReward": false, "trial_id": "mdp_trial_38", "block": "test", "trialIndex": 39, "score": 10.6, "costs": -1.4, "simulationMode": [null, null, null, null, null], "rewards": [-1, -1, -3, 2, 15], "path": ["0", "0", "23", "24", "25", "26", "27"], "rt": [10552, 490, 461, 1217, 452], "actions": ["left", "left", "left", "up", "up"], "actionTimes": [12759, 14196, 15654, 17410, 18838], "queries": {"click": {"state": {"target": ["5"], "time": [4367]}, "edge": {"target": [], "time": []}}, "mouseover": {"state": {"target": ["4", "5", "21", "21"], "time": [3289, 3861, 5970, 9715]}, "edge": {"target": [], "time": []}}, "mouseout": {"state": {"target": ["0", "4", "5", "21", "21"], "time": [974, 3853, 5360, 8310, 11892]}, "edge": {"target": [], "time": []}}}, "displayed_time": "19.79", "trialTime": 21456, "trial_type": "mouselab-mdp", "trial_index": 46, "time_elapsed": 1354690, "internal_node_id": "0.0-4.0-1.0-37.0"}}, {"uniqueid": "w61477552:a23514138", "current_trial": 47, "dateTime": 1691072284905, "trialdata": {"revealed_states": [], "clicked_states": ["6", "29", "32", "17", "20", "21"], "num_clicks_accrued": [0, 0, 0, 0, 0, 0, 0, 0, 0, 0, 0, 0, 0], "stateRewards": ["", -1, 2, -2, 13, -56, -28, 10, 14, 53, -80, -29, 1, -3, -3, -14, 14, 9, -40, -9, 18, 18, 48, 1, 1, 1, -9, 64, -39, -9, 7, -52, -78, 7], "withholdReward": false, "trial_id": "mdp_trial_39", "block": "test", "trialIndex": 40, "score": -4.399999999999999, "costs": -8.4, "simulationMode": [null, null, null, null, null, null], "rewards": [1, -3, -3, -9, 18], "path": ["0", "0", "12", "13", "14", "19", "21"], "rt": [21430, 936, 516, 1047, 1213, 813], "actions": ["right", "right", "right", "right", "down", "down"], "actionTimes": [23757, 24711, 25774, 27791, 30005, 31791], "queries": {"click": {"state": {"target": ["6", "29", "32", "17", "20", "21"], "time": [5005, 9072, 12768, 15453, 18662, 21301]}, "edge": {"target": [], "time": []}}, "mouseover": {"state": {"target": ["6", "26", "29", "33", "32", "17", "20", "21"], "time": [4480, 6583, 7182, 10198, 11950, 15433, 17604, 20825]}, "edge": {"target": [], "time": []}}, "mouseout": {"state": {"target": ["0", "6", "26", "29", "33", "32", "17", "20", "21"], "time": [3410, 6575, 7174, 10192, 11310, 14359, 16486, 20818, 27283]}, "edge": {"target": [], "time": []}}}, "displayed_time": "32.92", "trialTime": 35360, "trial_type": "mouselab-mdp", "trial_index": 47, "time_elapsed": 1391121, "internal_node_id": "0.0-4.0-1.0-38.0"}}, {"uniqueid": "w61477552:a23514138", "current_trial": 48, "dateTime": 1691072317925, "trialdata": {"revealed_states": [], "clicked_states": ["5", "32", "27", "16", "21", "17"], "num_clicks_accrued": [0, 0, 0, 0, 0, 0, 0, 0, 0, 0, 0, 0, 0], "stateRewards": ["", -1, -3, -5, -14, -13, -47, 79, 8, -60, -64, 41, -1, 2, 3, 13, -46, 61, -79, -11, -64, -65, 23, 1, -2, 6, -14, 46, 32, 21, 7, 75, -66, 15], "withholdReward": false, "trial_id": "mdp_trial_40", "block": "test", "trialIndex": 41, "score": 28.6, "costs": -8.4, "simulationMode": [null, null, null, null, null, null], "rewards": [1, -2, 6, -14, 46], "path": ["0", "0", "23", "24", "25", "26", "27"], "rt": [18998, 1480, 2195, 461, 914, 951], "actions": ["left", "left", "left", "left", "up", "up"], "actionTimes": [21239, 22732, 24972, 26519, 27982, 29464], "queries": {"click": {"state": {"target": ["5", "32", "27", "16", "21", "17"], "time": [4447, 7277, 9625, 12714, 15708, 20147]}, "edge": {"target": [], "time": []}}, "mouseover": {"state": {"target": ["5", "30", "32", "27", "16", "21", "20", "17"], "time": [3900, 5533, 6200, 9581, 11300, 15156, 16414, 19588]}, "edge": {"target": [], "time": []}}, "mouseout": {"state": {"target": ["19", "13", "0", "5", "30", "32", "27", "16", "21", "20", "17"], "time": [680, 1142, 3329, 5525, 6187, 8400, 11293, 13960, 16398, 19012, 20167]}, "edge": {"target": [], "time": []}}}, "displayed_time": "30.43", "trialTime": 31859, "trial_type": "mouselab-mdp", "trial_index": 48, "time_elapsed": 1424141, "internal_node_id": "0.0-4.0-1.0-39.0"}}, {"uniqueid": "w61477552:a23514138", "current_trial": 49, "dateTime": 1691072380870, "trialdata": {"rt": 62936, "response": {"Q0": "$-2 to $2", "Q1": "$-32 to $32", "Q2": "$-88 to $88", "Q3": "The cost for clicking on nodes varied between nodes.", "Q4": "Slightly motivated"}, "question_order": [0, 1, 2, 3, 4], "trial_id": "final_quiz_control", "trial_type": "survey-multi-choice", "trial_index": 49, "time_elapsed": 1487086, "internal_node_id": "0.0-4.0-2.0"}}, {"uniqueid": "w61477552:a23514138", "current_trial": 50, "dateTime": 1691072504164, "trialdata": {"rt": 123276, "response": {"Q0": "i played it one trying to guess the values, i also clicked the nodes quickly so i could see as much as possible. ", "Q1": "yes\nby being more strategic about what i'd press", "Q2": "it wasn't difficult "}, "trial_id": "self_report_control", "trial_type": "survey-text", "trial_index": 50, "time_elapsed": 1610379, "internal_node_id": "0.0-4.0-3.0"}}, {"uniqueid": "w61477552:a23514138", "current_trial": 51, "dateTime": 1691072549136, "trialdata": {"rt": 44962, "response": {"gender": "male", "age": "23", "colorblind": "0", "effort": "0"}, "trial_type": "survey-html-form", "trial_index": 51, "time_elapsed": 1655353, "internal_node_id": "0.0-4.0-4.0"}}, {"uniqueid": "w61477552:a23514138", "current_trial": 52, "dateTime": 1691072588092, "trialdata": {"rt": 38948, "response": {"Q0": "the instructions but once you play the practice round you get to understand ", "Q1": "no", "Q2": ""}, "trial_type": "survey-text", "trial_index": 52, "time_elapsed": 1694309, "internal_node_id": "0.0-4.0-5.0"}}, {"uniqueid": "w61477552:a23514138", "current_trial": 53, "dateTime": 1691072590030, "trialdata": {"rt": 1930, "stimulus": "Press 'Finish HIT' in order to reach the completion code. Once the data has been saved, you will receive the code either in this window or in the original browser window where you started the experiment.\n", "response": 0, "trial_type": "html-button-response", "trial_index": 53, "time_elapsed": 1696247, "internal_node_id": "0.0-5.0"}}, {"uniqueid": "w61477552:a23514138", "current_trial": 54, "dateTime": 1691072591037, "trialdata": {"success": true, "trial_type": "fullscreen", "trial_index": 54, "time_elapsed": 1697254, "internal_node_id": "0.0-6.0"}}], "questiondata": {"params": {"CODE": "C6DMOQA6", "MIN_TIME": 14, "inspectCost": 1, "startTime": "Thu Aug 03 2023 15:54:46 GMT+0200 (South Africa Standard Time)", "bonusRate": 0.002, "variance": "1_2_4_8_44", "branching": "31123"}, "final_score": 1294.6}, "eventdata": [{"eventtype": "initialized", "value": null, "timestamp": 1691070885123, "interval": 0}, {"eventtype": "window_resize", "value": [1440, 736], "timestamp": 1691070885123, "interval": 0}, {"eventtype": "window_resize", "value": [1440, 736], "timestamp": 1691070886101, "interval": 978}, {"eventtype": "focus", "value": "on", "timestamp": 1691070896477, "interval": 10376}, {"eventtype": "window_resize", "value": [1440, 788], "timestamp": 1691070896681, "interval": 204}, {"eventtype": "window_resize", "value": [1440, 900], "timestamp": 1691070900857, "interval": 4176}, {"eventtype": "window_resize", "value": [1440, 788], "timestamp": 1691072590269, "interval": 1689412}], "useragent": "Mozilla/5.0 (Macintosh; Intel Mac OS X 10_15_7) AppleWebKit/537.36 (KHTML, like Gecko) Chrome/90.0.4430.93 Safari/537.36", "mode": "live", "id": "w61477552:a23514138", "status": "user data saved", "Beginhit": "2023-08-03 13:54:36.288567", "Beginexp": "2023-08-03 13:55:02.163717", "Endhit": "2023-08-03 14:23:14.324482", "psiturkStatus": 3, "browser": "<redacted>", "platform": "macos", "language": "en-US"}