{"condition": 0, "counterbalance": 0, "assignmentId": "a73999018", "workerId": "w88820466", "hitId": "h49462733", "currenttrial": 55, "bonus": 0, "data": [{"uniqueid": "w88820466:a73999018", "current_trial": 0, "dateTime": 1693580164497, "trialdata": {"success": true, "trial_type": "fullscreen", "trial_index": 0, "time_elapsed": 421742, "internal_node_id": "0.0-0.0"}}, {"uniqueid": "w88820466:a73999018", "current_trial": 1, "dateTime": 1693580179745, "trialdata": {"view_history": [{"page_index": 0, "viewing_time": 15238}], "rt": 15238, "trial_id": "exp_instructions_control", "trial_type": "instructions", "trial_index": 1, "time_elapsed": 436991, "internal_node_id": "0.0-1.0"}}, {"uniqueid": "w88820466:a73999018", "current_trial": 2, "dateTime": 1693580384162, "trialdata": {"view_history": [{"page_index": 0, "viewing_time": 65818}, {"page_index": 1, "viewing_time": 78435}, {"page_index": 2, "viewing_time": 19047}, {"page_index": 3, "viewing_time": 41112}], "rt": 204412, "trial_id": "mouselab_instructions_1_control", "trial_type": "instructions", "trial_index": 2, "time_elapsed": 641408, "internal_node_id": "0.0-2.0-1.0"}}, {"uniqueid": "w88820466:a73999018", "current_trial": 3, "dateTime": 1693580435052, "trialdata": {"revealed_states": [], "clicked_states": ["12", "28", "23", "24", "30", "33"], "num_clicks_accrued": [0, 0, 0, 0, 0, 0, 0, 0, 0, 0, 0, 0, 0], "stateRewards": ["", -10, 10, 10, -10, -10, -10, 10, -10, 10, 10, 10, -10, 10, -10, 10, 10, -10, 10, -10, -10, 10, 10, 10, -10, 10, -10, -10, -10, -10, -10, 10, -10, -10], "withholdReward": false, "trial_id": "practice_1", "block": "test", "trialIndex": 0, "score": -29.5, "costs": -3, "simulationMode": [null, null, null, null, null], "rewards": [-10, 10, -10, -10, -10], "path": ["0", "0", "12", "13", "14", "19", "20"], "rt": [32570, 1054, 482, 462, 624], "actions": ["right", "right", "right", "down", "right"], "actionTimes": [35369, 36984, 38001, 39020, 40192], "queries": {"click": {"state": {"target": ["12", "28", "23", "24", "30", "33"], "time": [4885, 6683, 9062, 12282, 14216, 17266]}, "edge": {"target": [], "time": []}}, "mouseover": {"state": {"target": ["0", "12", "1", "28", "24", "23", "24", "0", "24", "24", "25", "30", "33", "32", "22", "20", "21", "0", "23", "24", "23", "23", "0", "0", "12", "0", "23"], "time": [4098, 4160, 5266, 6113, 7114, 7345, 9409, 10021, 10212, 11884, 12564, 13833, 14594, 23104, 23179, 23228, 25243, 27385, 28540, 29423, 29839, 30246, 31118, 31718, 31964, 32978, 33452]}, "edge": {"target": [], "time": []}}, "mouseout": {"state": {"target": ["0", "0", "12", "1", "28", "24", "23", "24", "0", "24", "23", "23", "24", "25", "30", "33", "32", "22", "20", "21", "0", "23", "24", "23", "23", "0", "0", "12", "0", "23", "0", "23", "22", "14", "15", "17", "21"], "time": [1969, 4132, 5169, 5890, 7043, 7244, 9329, 9780, 10131, 10446, 10647, 11248, 12518, 13531, 14421, 21187, 23145, 23212, 23259, 25284, 27650, 29101, 29790, 29878, 31002, 31185, 31813, 32696, 33372, 35645, 41731, 41794, 42909, 42974, 43357, 43424, 46930]}, "edge": {"target": [], "time": []}}}, "displayed_time": "40.77", "trialTime": 49880, "trial_type": "mouselab-mdp", "trial_index": 3, "time_elapsed": 692298, "internal_node_id": "0.0-2.0-2.0-0.0"}}, {"uniqueid": "w88820466:a73999018", "current_trial": 4, "dateTime": 1693580461844, "trialdata": {"revealed_states": [], "clicked_states": ["23", "1", "12"], "num_clicks_accrued": [0, 0, 0, 0, 0, 0, 0, 0, 0, 0, 0, 0, 0], "stateRewards": ["", 10, 10, -10, -10, 10, 10, -10, 10, -10, 10, 10, -10, 10, 10, -10, -10, 10, 10, 10, -10, 10, 10, 10, 10, 10, 10, 10, -10, 10, -10, -10, 10, -10], "withholdReward": false, "trial_id": "practice_2", "block": "test", "trialIndex": 1, "score": 32, "costs": -1.5, "simulationMode": [null, null, null, null, null], "rewards": [10, 10, 10, -10, 10], "path": ["0", "0", "23", "24", "25", "30", "32"], "rt": [10169, 433, 689, 473, 535], "actions": ["left", "left", "left", "down", "down"], "actionTimes": [12521, 13513, 14753, 15777, 16865], "queries": {"click": {"state": {"target": ["23", "1", "12"], "time": [4723, 6375, 8197]}, "edge": {"target": [], "time": []}}, "mouseover": {"state": {"target": ["23", "23", "1", "12", "0", "23", "24", "23"], "time": [3484, 3915, 6036, 6852, 8714, 9290, 10723, 11279]}, "edge": {"target": [], "time": []}}, "mouseout": {"state": {"target": ["31", "24", "23", "23", "23", "1", "12", "0", "23", "24", "23", "24", "12", "20"], "time": [694, 877, 941, 3682, 5422, 6657, 8635, 8827, 10488, 11127, 13215, 17390, 21382, 22936]}, "edge": {"target": [], "time": []}}}, "displayed_time": "17.41", "trialTime": 26008, "trial_type": "mouselab-mdp", "trial_index": 4, "time_elapsed": 719089, "internal_node_id": "0.0-2.0-2.0-1.0"}}, {"uniqueid": "w88820466:a73999018", "current_trial": 5, "dateTime": 1693580522917, "trialdata": {"view_history": [{"page_index": 0, "viewing_time": 49040}, {"page_index": 1, "viewing_time": 12030}], "rt": 61071, "trial_id": "mouselab_instructions_2_control", "trial_type": "instructions", "trial_index": 5, "time_elapsed": 780163, "internal_node_id": "0.0-2.0-3.0"}}, {"uniqueid": "w88820466:a73999018", "current_trial": 6, "dateTime": 1693580575761, "trialdata": {"rt": 52837, "response": {"Q0": "The cost for clicking on nodes may vary between nodes.", "Q1": "The better I perform the higher my bonus will be.", "Q2": "No, the amount of cash at each node of the web may be different each time.", "Q3": "To get the highest total score.", "Q4": "Only before moving the spider.", "Q5": "3 seconds"}, "question_order": [0, 1, 2, 3, 4, 5], "correct": {"Q0": "The cost for clicking on nodes may vary between nodes.", "Q1": "The better I perform the higher my bonus will be.", "Q2": "No, the amount of cash at each node of the web may be different each time.", "Q3": "To get the highest total score.", "Q4": "Only before moving the spider.", "Q5": "3 seconds"}, "trial_id": "mouselab_quiz_control", "trial_type": "survey-multi-choice", "trial_index": 6, "time_elapsed": 833007, "internal_node_id": "0.0-2.0-4.0"}}, {"uniqueid": "w88820466:a73999018", "current_trial": 7, "dateTime": 1693580586344, "trialdata": {"rt": 10577, "response": {"Q0": "Not sure"}, "question_order": [0], "trial_id": "repeat_check", "trial_type": "survey-multi-choice", "trial_index": 7, "time_elapsed": 843590, "internal_node_id": "0.0-4.0-0.0"}}, {"uniqueid": "w88820466:a73999018", "current_trial": 8, "dateTime": 1693580609239, "trialdata": {"rt": 22889, "stimulus": "\n<h1> Get ready to start the game! </h1>\n\nThank you for reading the instructions. Get ready start with the 40 rounds of this game.\n<br><br>\nIf you need to take a break, feel free to take one after the end of a round, before continuing to the next one.\n<br><br>\nRemember, the more money the spider gets, the bigger your bonus will be!\n<br><br>\n<div style='text-align: center;'>Press <code>space</code> to begin.</div>\n\n<br><br>\n(If, at any point, the <code>space</code> key does not take you to the next page, click once on the text and try again.)", "response": " ", "trial_id": "mdp_ready", "trial_type": "html-keyboard-response", "trial_index": 8, "time_elapsed": 866485, "internal_node_id": "0.0-6.0-0.0"}}, {"uniqueid": "w88820466:a73999018", "current_trial": 9, "dateTime": 1693580639887, "trialdata": {"revealed_states": [], "clicked_states": ["23", "12", "24"], "num_clicks_accrued": [0, 0, 0, 0, 0, 0, 0, 0, 0, 0, 0, 0, 0], "stateRewards": ["", 2, 4, -6, -13, -75, -81, 30, 7, 5, 59, -65, -1, -1, 7, 14, -38, 36, -41, 1, -54, -5, 64, 2, -1, 5, 6, -19, 79, 11, 16, -33, -50, 58], "withholdReward": false, "trial_id": "mdp_trial_1", "block": "test", "trialIndex": 2, "score": -32.2, "costs": -4.199999999999999, "simulationMode": [null, null, null, null, null], "rewards": [2, -1, 5, 16, -50], "path": ["0", "0", "23", "24", "25", "30", "32"], "rt": [8685, 267, 1290, 1040, 551], "actions": ["left", "left", "left", "down", "down"], "actionTimes": [15185, 16023, 17896, 19488, 20608], "queries": {"click": {"state": {"target": ["23", "12", "24"], "time": [7636, 9672, 13037]}, "edge": {"target": [], "time": []}}, "mouseover": {"state": {"target": ["23", "1", "12", "1", "1", "24", "23"], "time": [7212, 8051, 9236, 10170, 10506, 12284, 13503]}, "edge": {"target": [], "time": []}}, "mouseout": {"state": {"target": ["8", "11", "10", "23", "1", "12", "1", "1", "23", "24", "23", "24", "1", "0", "14"], "time": [60, 163, 1002, 7902, 8736, 10099, 10209, 11023, 12023, 13461, 14978, 15574, 23763, 23896, 24273]}, "edge": {"target": [], "time": []}}}, "displayed_time": "21.16", "trialTime": 29871, "trial_type": "mouselab-mdp", "trial_index": 9, "time_elapsed": 897133, "internal_node_id": "0.0-6.0-1.0-0.0"}}, {"uniqueid": "w88820466:a73999018", "current_trial": 10, "dateTime": 1693580674680, "trialdata": {"revealed_states": [], "clicked_states": ["1", "24", "30", "26", "2", "12", "13"], "num_clicks_accrued": [0, 0, 0, 0, 0, 0, 0, 0, 0, 0, 0, 0, 0], "stateRewards": ["", -2, -3, 1, -7, 39, -67, 16, 5, -20, 73, 66, -1, 4, 5, -3, 23, -68, -87, -8, 3, -3, 17, 1, -4, -2, -13, -32, 34, 61, -5, -11, -18, 12], "withholdReward": false, "trial_id": "mdp_trial_2", "block": "test", "trialIndex": 3, "score": -6.800000000000001, "costs": -9.8, "simulationMode": [null, null, null, null, null], "rewards": [-1, 4, 5, -8, 3], "path": ["0", "0", "12", "13", "14", "19", "20"], "rt": [17159, 241, 435, 1268, 457], "actions": ["right", "right", "right", "down", "right"], "actionTimes": [19843, 20651, 21636, 23452, 24460], "queries": {"click": {"state": {"target": ["1", "24", "30", "26", "2", "12", "13"], "time": [4197, 6482, 8411, 10444, 12191, 14280, 16700]}, "edge": {"target": [], "time": []}}, "mouseover": {"state": {"target": ["1", "23", "24", "25", "30", "32", "26", "27", "10", "2", "7", "2", "7", "18", "15", "14", "13", "12", "13", "13", "1", "28", "25", "24", "23"], "time": [3540, 4747, 5818, 7094, 8022, 9186, 10207, 10946, 11553, 11629, 11696, 11958, 12443, 12727, 12853, 13629, 13714, 14023, 14668, 16227, 17120, 17283, 17412, 17798, 17862]}, "edge": {"target": [], "time": []}}, "mouseout": {"state": {"target": ["28", "1", "23", "24", "25", "30", "32", "30", "26", "27", "10", "2", "7", "2", "7", "18", "15", "14", "13", "12", "13", "13", "1", "28", "25", "24", "23", "12", "13", "12", "18", "15", "18", "12", "19"], "time": [1047, 4510, 5585, 7023, 7804, 8723, 9704, 9776, 10614, 11536, 11609, 11680, 11878, 12394, 12490, 12774, 13354, 13673, 13841, 14564, 15697, 16976, 17204, 17332, 17717, 17847, 17910, 18159, 18537, 22396, 22662, 25729, 25831, 25930, 28606]}, "edge": {"target": [], "time": []}}}, "displayed_time": "25.02", "trialTime": 34037, "trial_type": "mouselab-mdp", "trial_index": 10, "time_elapsed": 931925, "internal_node_id": "0.0-6.0-1.0-1.0"}}, {"uniqueid": "w88820466:a73999018", "current_trial": 11, "dateTime": 1693580701662, "trialdata": {"revealed_states": [], "clicked_states": ["1", "3", "8", "26"], "num_clicks_accrued": [0, 0, 0, 0, 0, 0, 0, 0, 0, 0, 0, 0, 0], "stateRewards": ["", 1, -1, 1, 13, 31, -56, 72, 2, 41, 5, 63, -2, -3, -2, 3, -71, -26, 52, 13, -31, 24, -67, 2, -2, 5, 4, 66, 43, 72, 9, 86, -26, 44], "withholdReward": false, "trial_id": "mdp_trial_3", "block": "test", "trialIndex": 4, "score": 60.4, "costs": -5.6, "simulationMode": [null, null, null, null, null], "rewards": [1, -1, 1, 2, 63], "path": ["0", "0", "1", "2", "3", "8", "11"], "rt": [13240, 148, 221, 603, 233], "actions": ["up", "up", "up", "left", "left"], "actionTimes": [15793, 16498, 17289, 18430, 19249], "queries": {"click": {"state": {"target": ["1", "3", "8", "26"], "time": [4719, 7048, 9261, 11338]}, "edge": {"target": [], "time": []}}, "mouseover": {"state": {"target": ["1", "2", "3", "4", "8", "8", "9", "11", "26", "28", "10", "2", "1", "1"], "time": [3260, 5316, 6582, 7465, 8553, 9006, 9941, 10510, 10974, 12072, 12261, 12631, 13102, 15055]}, "edge": {"target": [], "time": []}}, "mouseout": {"state": {"target": ["0", "0", "1", "2", "3", "4", "3", "8", "8", "9", "11", "26", "28", "10", "2", "1", "1", "0", "21"], "time": [1025, 3160, 4990, 6092, 7390, 8462, 8538, 8639, 9605, 10494, 10558, 11808, 12118, 12462, 12933, 14014, 18408, 21472, 22965]}, "edge": {"target": [], "time": []}}}, "displayed_time": "19.81", "trialTime": 26217, "trial_type": "mouselab-mdp", "trial_index": 11, "time_elapsed": 958908, "internal_node_id": "0.0-6.0-1.0-2.0"}}, {"uniqueid": "w88820466:a73999018", "current_trial": 12, "dateTime": 1693580738532, "trialdata": {"revealed_states": [], "clicked_states": ["1", "13", "23", "25", "14", "2", "12"], "num_clicks_accrued": [0, 0, 0, 0, 0, 0, 0, 0, 0, 0, 0, 0, 0], "stateRewards": ["", -2, 2, 3, -7, -31, -33, 29, -8, -57, 50, -83, -1, -1, 5, 13, -23, -62, 25, 5, -66, -85, 14, 1, -2, -1, 16, 71, 33, -19, -14, 5, -43, 79], "withholdReward": false, "trial_id": "mdp_trial_4", "block": "test", "trialIndex": 5, "score": -86.8, "costs": -9.8, "simulationMode": [null, null, null, null, null, null], "rewards": [-1, -1, 5, 5, -85], "path": ["0", "0", "12", "13", "14", "19", "21"], "rt": [18135, 1563, 209, 339, 1177, 499], "actions": ["right", "right", "right", "right", "down", "down"], "actionTimes": [21605, 23199, 23976, 24879, 26623, 27687], "queries": {"click": {"state": {"target": ["1", "13", "23", "25", "14", "2", "12"], "time": [6243, 9267, 11722, 13879, 17055, 18695, 20653]}, "edge": {"target": [], "time": []}}, "mouseover": {"state": {"target": ["1", "2", "1", "15", "13", "12", "0", "12", "13", "12", "0", "23", "23", "10", "28", "25", "24", "28", "26", "24", "15", "17", "14", "18", "2", "18", "12"], "time": [4672, 5453, 5948, 6534, 6861, 6946, 8261, 8678, 8815, 9618, 9715, 9810, 10352, 12899, 13039, 13467, 14392, 14853, 14974, 15949, 16167, 16224, 16483, 17731, 18116, 19775, 20124]}, "edge": {"target": [], "time": []}}, "mouseout": {"state": {"target": ["0", "0", "1", "2", "1", "15", "13", "12", "0", "12", "13", "13", "12", "0", "23", "23", "10", "28", "25", "24", "28", "26", "24", "15", "17", "14", "18", "2", "18", "12", "12", "13", "22"], "time": [1556, 1824, 5239, 5885, 6458, 6786, 6904, 7958, 8614, 8728, 9430, 9572, 9699, 9761, 10051, 12031, 12970, 13083, 14223, 14745, 14897, 15705, 16049, 16207, 16254, 17584, 17778, 19672, 19848, 21589, 25958, 31222, 34949]}, "edge": {"target": [], "time": []}}}, "displayed_time": "28.25", "trialTime": 36047, "trial_type": "mouselab-mdp", "trial_index": 12, "time_elapsed": 995778, "internal_node_id": "0.0-6.0-1.0-3.0"}}, {"uniqueid": "w88820466:a73999018", "current_trial": 13, "dateTime": 1693580770949, "trialdata": {"revealed_states": [], "clicked_states": ["1", "8", "26", "14", "4", "30"], "num_clicks_accrued": [0, 0, 0, 0, 0, 0, 0, 0, 0, 0, 0, 0, 0], "stateRewards": ["", -2, 3, -1, 2, -72, 63, 20, -1, 62, -66, 39, -2, 3, -6, 14, 22, 47, 1, 8, -49, -1, -41, 2, 2, -6, -16, -64, -60, -34, 16, 54, 22, -7], "withholdReward": false, "trial_id": "mdp_trial_5", "block": "test", "trialIndex": 6, "score": -1.4000000000000004, "costs": -8.4, "simulationMode": [null, null, null, null, null], "rewards": [2, 2, -6, 16, -7], "path": ["0", "0", "23", "24", "25", "30", "33"], "rt": [21129, 207, 244, 375, 495], "actions": ["left", "left", "left", "down", "left"], "actionTimes": [23090, 23858, 24666, 25594, 26642], "queries": {"click": {"state": {"target": ["1", "8", "26", "14", "4", "30"], "time": [3614, 6890, 8652, 11224, 13092, 17719]}, "edge": {"target": [], "time": []}}, "mouseover": {"state": {"target": ["1", "2", "3", "8", "11", "27", "26", "27", "25", "30", "13", "14", "19", "4", "4", "3", "8", "8", "8", "10", "26", "25", "30", "31", "12", "7", "4", "3", "2", "2", "28", "25", "24", "23", "0"], "time": [3003, 4082, 4692, 5590, 7241, 8017, 8135, 9092, 9675, 9797, 10370, 10802, 11519, 12581, 12824, 13408, 13499, 13966, 15042, 16026, 16175, 16248, 16543, 17970, 18096, 18289, 18553, 19033, 19294, 20132, 20544, 20715, 20853, 21227, 21799]}, "edge": {"target": [], "time": []}}, "mouseout": {"state": {"target": ["0", "28", "26", "0", "1", "2", "3", "8", "11", "27", "26", "27", "26", "25", "30", "13", "14", "19", "14", "4", "4", "3", "8", "8", "8", "10", "26", "25", "30", "31", "12", "7", "4", "3", "2", "2", "28", "25", "24", "23", "0", "0", "17", "19", "22"], "time": [30, 117, 234, 1226, 3764, 4120, 5551, 7138, 7974, 8060, 8983, 9491, 9600, 9753, 10283, 10406, 11476, 12343, 12416, 12623, 13392, 13452, 13729, 14451, 15822, 16063, 16215, 16279, 17953, 18018, 18178, 18370, 18985, 19116, 19373, 20465, 20579, 20814, 21147, 21701, 23008, 28801, 28880, 30361, 30398]}, "edge": {"target": [], "time": []}}}, "displayed_time": "27.19", "trialTime": 31593, "trial_type": "mouselab-mdp", "trial_index": 13, "time_elapsed": 1028194, "internal_node_id": "0.0-6.0-1.0-4.0"}}, {"uniqueid": "w88820466:a73999018", "current_trial": 14, "dateTime": 1693580800667, "trialdata": {"revealed_states": [], "clicked_states": ["25", "4", "15", "19", "12"], "num_clicks_accrued": [0, 0, 0, 0, 0, 0, 0, 0, 0, 0, 0, 0, 0], "stateRewards": ["", 2, 4, 4, 9, -88, -10, 44, 16, -54, 64, 78, 1, 2, 5, 16, 80, 36, 7, -4, 9, -47, -70, -1, -3, 6, -16, 11, 80, 28, 8, -1, 34, -17], "withholdReward": false, "trial_id": "mdp_trial_6", "block": "test", "trialIndex": 7, "score": 97, "costs": -7, "simulationMode": [null, null, null, null, null], "rewards": [1, 2, 5, 16, 80], "path": ["0", "0", "12", "13", "14", "15", "16"], "rt": [14791, 254, 364, 584, 357], "actions": ["right", "right", "right", "up", "up"], "actionTimes": [16409, 17225, 18121, 19249, 20145], "queries": {"click": {"state": {"target": ["25", "4", "15", "19", "12"], "time": [3334, 7073, 9510, 11886, 13731]}, "edge": {"target": [], "time": []}}, "mouseover": {"state": {"target": ["23", "24", "25", "26", "27", "11", "8", "3", "4", "4", "16", "15", "18", "23", "30", "22", "19", "12", "13"], "time": [2402, 2511, 2765, 3639, 3717, 3797, 4267, 5189, 5248, 5709, 8296, 8541, 9975, 10202, 10521, 10650, 10975, 12578, 14430]}, "edge": {"target": [], "time": []}}, "mouseout": {"state": {"target": ["31", "23", "23", "24", "25", "26", "27", "11", "8", "3", "4", "4", "16", "15", "18", "23", "30", "22", "19", "12", "13", "12", "12", "13", "17"], "time": [92, 192, 2478, 2682, 3519, 3679, 3757, 3836, 5147, 5219, 5330, 7633, 8405, 9896, 10055, 10279, 10569, 10696, 12336, 14158, 15460, 22717, 23200, 23237, 23296]}, "edge": {"target": [], "time": []}}}, "displayed_time": "20.71", "trialTime": 28880, "trial_type": "mouselab-mdp", "trial_index": 14, "time_elapsed": 1057913, "internal_node_id": "0.0-6.0-1.0-5.0"}}, {"uniqueid": "w88820466:a73999018", "current_trial": 15, "dateTime": 1693580833018, "trialdata": {"revealed_states": [], "clicked_states": ["1", "4", "8", "14", "25", "32"], "num_clicks_accrued": [0, 0, 0, 0, 0, 0, 0, 0, 0, 0, 0, 0, 0], "stateRewards": ["", -1, 1, -6, -1, 80, 23, 2, -11, 73, -81, 59, 1, 3, 5, -1, -26, 28, -3, 16, -59, -13, -50, -2, -2, 2, 15, -50, 86, 17, -4, 37, 35, 44], "withholdReward": false, "trial_id": "mdp_trial_7", "block": "test", "trialIndex": 8, "score": 20.6, "costs": -8.4, "simulationMode": [null, null, null, null, null], "rewards": [-2, -2, 2, -4, 35], "path": ["0", "0", "23", "24", "25", "30", "32"], "rt": [20853, 127, 197, 299, 327], "actions": ["left", "left", "left", "down", "down"], "actionTimes": [22601, 23296, 24066, 24913, 25784], "queries": {"click": {"state": {"target": ["1", "4", "8", "14", "25", "32"], "time": [4262, 7062, 9816, 13997, 16142, 18957]}, "edge": {"target": [], "time": []}}, "mouseover": {"state": {"target": ["1", "1", "2", "3", "4", "4", "6", "2", "10", "8", "11", "14", "13", "14", "15", "26", "25", "26", "32", "19", "28", "23"], "time": [1844, 2477, 4487, 5386, 6064, 6616, 7516, 8661, 9194, 9541, 10290, 12941, 13161, 13790, 14385, 15217, 15642, 16636, 18154, 20042, 21601, 21951]}, "edge": {"target": [], "time": []}}, "mouseout": {"state": {"target": ["23", "1", "1", "2", "3", "4", "4", "6", "2", "10", "8", "11", "14", "13", "14", "15", "26", "25", "26", "32", "19", "28", "23", "18", "17", "15"], "time": [85, 1964, 4390, 5257, 6028, 6105, 7403, 8598, 8703, 9338, 10082, 11202, 12988, 13661, 14209, 14942, 15265, 16433, 17704, 19161, 20967, 21643, 28175, 28392, 30610, 30660]}, "edge": {"target": [], "time": []}}}, "displayed_time": "26.33", "trialTime": 31567, "trial_type": "mouselab-mdp", "trial_index": 15, "time_elapsed": 1090264, "internal_node_id": "0.0-6.0-1.0-6.0"}}, {"uniqueid": "w88820466:a73999018", "current_trial": 16, "dateTime": 1693580863065, "trialdata": {"revealed_states": [], "clicked_states": ["25", "30", "14", "4", "8"], "num_clicks_accrued": [0, 0, 0, 0, 0, 0, 0, 0, 0, 0, 0, 0, 0], "stateRewards": ["", -2, 2, 2, -6, 9, 37, 50, -13, -7, -18, -75, -2, -4, 4, 7, 23, -57, -66, -7, -81, -48, -76, 1, 1, -8, 1, 51, -2, 70, 14, 59, 71, -37], "withholdReward": false, "trial_id": "mdp_trial_8", "block": "test", "trialIndex": 9, "score": 72, "costs": -7, "simulationMode": [null, null, null, null, null], "rewards": [1, 1, -8, 14, 71], "path": ["0", "0", "23", "24", "25", "30", "32"], "rt": [20282, 135, 186, 282, 441], "actions": ["left", "left", "left", "down", "down"], "actionTimes": [22175, 22855, 23590, 24430, 25407], "queries": {"click": {"state": {"target": ["25", "30", "14", "4", "8"], "time": [3472, 6034, 9786, 12858, 15755]}, "edge": {"target": [], "time": []}}, "mouseover": {"state": {"target": ["23", "24", "25", "26", "30", "32", "30", "31", "13", "14", "15", "14", "15", "4", "3", "8", "11", "8", "3", "8", "7", "15", "13", "25", "30", "31", "23"], "time": [2613, 2667, 2763, 3824, 5081, 5402, 5665, 6331, 6479, 6961, 8757, 9241, 10081, 12120, 13402, 14233, 14876, 15163, 15233, 15494, 16072, 16430, 17137, 17718, 19265, 20014, 20464]}, "edge": {"target": [], "time": []}}, "mouseout": {"state": {"target": ["18", "1", "0", "0", "23", "24", "25", "26", "30", "32", "30", "31", "13", "14", "15", "14", "15", "4", "3", "8", "11", "8", "3", "8", "7", "15", "13", "25", "30", "31", "23", "23", "0", "18"], "time": [145, 194, 722, 1123, 2639, 2712, 3757, 4983, 5131, 5437, 6290, 6376, 6552, 8607, 9194, 10001, 11408, 13255, 14153, 14483, 15125, 15197, 15290, 15993, 16153, 17055, 17219, 19194, 19978, 20047, 22428, 27527, 27679, 27877]}, "edge": {"target": [], "time": []}}}, "displayed_time": "25.99", "trialTime": 29269, "trial_type": "mouselab-mdp", "trial_index": 16, "time_elapsed": 1120311, "internal_node_id": "0.0-6.0-1.0-7.0"}}, {"uniqueid": "w88820466:a73999018", "current_trial": 17, "dateTime": 1693580890586, "trialdata": {"revealed_states": [], "clicked_states": ["14", "25", "8", "4"], "num_clicks_accrued": [0, 0, 0, 0, 0, 0, 0, 0, 0, 0, 0, 0, 0], "stateRewards": ["", 2, -1, -3, 16, -3, -16, -62, -1, 13, -26, 43, -1, 4, 3, -9, -54, -37, -3, -12, -71, -68, -57, 1, -3, 2, -9, 2, -2, -9, -11, 84, -52, 55], "withholdReward": false, "trial_id": "mdp_trial_9", "block": "test", "trialIndex": 10, "score": 5.4, "costs": -5.6, "simulationMode": [null, null, null, null, null], "rewards": [2, -1, -3, 16, -3], "path": ["0", "0", "1", "2", "3", "4", "5"], "rt": [13648, 98, 125, 348, 1083], "actions": ["up", "up", "up", "right", "up"], "actionTimes": [19927, 20582, 21279, 22179, 23815], "queries": {"click": {"state": {"target": ["14", "25", "8", "4"], "time": [7884, 9468, 11442, 15622]}, "edge": {"target": [], "time": []}}, "mouseover": {"state": {"target": ["12", "13", "14", "13", "23", "24", "25", "25", "26", "8", "3", "4", "1", "0", "12", "18", "4", "7", "12", "13", "12", "12", "7", "2", "2", "1"], "time": [6980, 7039, 7272, 8260, 8395, 8475, 8637, 9193, 10213, 10856, 11810, 11924, 13425, 13968, 14755, 14991, 15304, 15831, 15948, 16338, 16877, 17455, 18799, 18858, 19149, 19219]}, "edge": {"target": [], "time": []}}, "mouseout": {"state": {"target": ["15", "1", "0", "12", "13", "14", "13", "23", "24", "25", "25", "26", "8", "3", "4", "1", "0", "12", "18", "4", "7", "12", "13", "12", "12", "7", "2", "2", "1", "12", "13", "14"], "time": [237, 739, 6940, 7012, 7066, 8220, 8300, 8435, 8514, 8932, 9808, 10419, 11741, 11880, 13225, 13834, 14009, 14891, 15034, 15816, 15874, 16139, 16802, 17132, 18615, 18841, 18889, 19186, 25153, 25320, 25366, 25415]}, "edge": {"target": [], "time": []}}}, "displayed_time": "24.37", "trialTime": 26727, "trial_type": "mouselab-mdp", "trial_index": 17, "time_elapsed": 1147832, "internal_node_id": "0.0-6.0-1.0-8.0"}}, {"uniqueid": "w88820466:a73999018", "current_trial": 18, "dateTime": 1693580913512, "trialdata": {"revealed_states": [], "clicked_states": ["4", "15", "19"], "num_clicks_accrued": [0, 0, 0, 0, 0, 0, 0, 0, 0, 0, 0, 0, 0], "stateRewards": ["", -2, -4, 2, 10, -17, 18, 73, 11, -32, 23, -13, -2, -4, 7, 12, -25, 66, -23, 15, 40, -76, -9, 1, 2, -7, -5, -20, 24, 3, -5, 16, -73, 70], "withholdReward": false, "trial_id": "mdp_trial_10", "block": "test", "trialIndex": 11, "score": -64.2, "costs": -4.199999999999999, "simulationMode": [null, null, null, null, null], "rewards": [-2, -4, 7, 15, -76], "path": ["0", "0", "12", "13", "14", "19", "21"], "rt": [12891, 115, 374, 488, 391], "actions": ["right", "right", "right", "down", "down"], "actionTimes": [14761, 15449, 16369, 17410, 18361], "queries": {"click": {"state": {"target": ["4", "15", "19"], "time": [3395, 5682, 7529]}, "edge": {"target": [], "time": []}}, "mouseover": {"state": {"target": ["10", "3", "4", "3", "8", "8", "2", "7", "15", "14", "19", "14", "13", "12", "23", "24", "24", "23", "12", "24", "25", "25", "24", "23"], "time": [2139, 2831, 3012, 3749, 3801, 4131, 4877, 4981, 5333, 6249, 6892, 8475, 9308, 9353, 9411, 9501, 9906, 10054, 10590, 12246, 12299, 12697, 13197, 13261]}, "edge": {"target": [], "time": []}}, "mouseout": {"state": {"target": ["13", "12", "23", "10", "3", "4", "3", "8", "8", "2", "7", "15", "15", "14", "19", "14", "13", "12", "23", "24", "24", "23", "12", "24", "25", "25", "24", "23", "0"], "time": [474, 508, 842, 2173, 2908, 3710, 3788, 3867, 4782, 4916, 5019, 5874, 6061, 6819, 7774, 9274, 9338, 9380, 9469, 9536, 10007, 10104, 12181, 12283, 12331, 13160, 13229, 13377, 15078]}, "edge": {"target": [], "time": []}}}, "displayed_time": "18.90", "trialTime": 22097, "trial_type": "mouselab-mdp", "trial_index": 18, "time_elapsed": 1170758, "internal_node_id": "0.0-6.0-1.0-9.0"}}, {"uniqueid": "w88820466:a73999018", "current_trial": 19, "dateTime": 1693580934313, "trialdata": {"revealed_states": [], "clicked_states": [], "num_clicks_accrued": [0, 0, 0, 0, 0, 0, 0, 0, 0, 0, 0, 0, 0], "stateRewards": ["", -1, -4, -3, 1, -45, -67, -24, 14, 32, 22, 22, -1, 1, -5, -7, 72, 84, -79, -5, 19, -40, -2, -1, -2, 8, -3, 84, -25, -28, 11, 64, -66, 77], "withholdReward": false, "trial_id": "mdp_trial_11", "block": "test", "trialIndex": 12, "score": 28, "costs": 0, "simulationMode": [null, null, null, null, null], "rewards": [-1, -4, -3, 14, 22], "path": ["0", "0", "1", "2", "3", "8", "11"], "rt": [1262, 138, 286, 436, 245], "actions": ["up", "up", "up", "left", "left"], "actionTimes": [2589, 3293, 4118, 5117, 5925], "queries": {"click": {"state": {"target": [], "time": []}, "edge": {"target": [], "time": []}}, "mouseover": {"state": {"target": [], "time": []}, "edge": {"target": [], "time": []}}, "mouseout": {"state": {"target": ["23", "0", "1", "0", "1", "0"], "time": [467, 9948, 10172, 11758, 12330, 15363]}, "edge": {"target": [], "time": []}}}, "displayed_time": "15.69", "trialTime": 19972, "trial_type": "mouselab-mdp", "trial_index": 19, "time_elapsed": 1191557, "internal_node_id": "0.0-6.0-1.0-10.0"}}, {"uniqueid": "w88820466:a73999018", "current_trial": 20, "dateTime": 1693580955816, "trialdata": {"revealed_states": [], "clicked_states": [], "num_clicks_accrued": [0, 0, 0, 0, 0, 0, 0, 0, 0, 0, 0, 0, 0], "stateRewards": ["", -2, -4, -6, 12, -58, -70, -80, 2, 16, -88, -62, 1, 2, -5, 11, 77, -35, -44, -5, 18, -83, 87, 1, -3, -5, 13, -44, -21, -86, 10, -52, 8, 29], "withholdReward": false, "trial_id": "mdp_trial_12", "block": "test", "trialIndex": 13, "score": -70, "costs": 0, "simulationMode": [null, null, null, null, null], "rewards": [-2, -4, -6, 12, -70], "path": ["0", "0", "1", "2", "3", "4", "6"], "rt": [2557, 558, 248, 367, 331], "actions": ["up", "up", "up", "right", "right"], "actionTimes": [5342, 6439, 7246, 8149, 9021], "queries": {"click": {"state": {"target": [], "time": []}, "edge": {"target": [], "time": []}}, "mouseover": {"state": {"target": [], "time": []}, "edge": {"target": [], "time": []}}, "mouseout": {"state": {"target": ["23", "25", "24", "23"], "time": [1634, 19187, 19247, 19401]}, "edge": {"target": [], "time": []}}}, "displayed_time": "16.91", "trialTime": 20668, "trial_type": "mouselab-mdp", "trial_index": 20, "time_elapsed": 1213062, "internal_node_id": "0.0-6.0-1.0-11.0"}}, {"uniqueid": "w88820466:a73999018", "current_trial": 21, "dateTime": 1693580984791, "trialdata": {"revealed_states": [], "clicked_states": ["25", "8", "15", "19", "18", "12"], "num_clicks_accrued": [0, 0, 0, 0, 0, 0, 0, 0, 0, 0, 0, 0, 0], "stateRewards": ["", -2, -4, -8, 8, 63, -50, -19, -7, -17, -31, 31, 1, 3, -5, 12, -35, -63, -29, -4, -17, -75, -79, -2, -3, -2, 8, -3, -85, 10, -2, -82, -82, 56], "withholdReward": false, "trial_id": "mdp_trial_13", "block": "test", "trialIndex": 14, "score": -32.4, "costs": -8.4, "simulationMode": [null, null, null, null, null, null], "rewards": [1, 3, -5, 12, -35], "path": ["0", "0", "12", "13", "14", "15", "16"], "rt": [15718, 987, 429, 395, 591, 360], "actions": ["right", "right", "right", "right", "up", "up"], "actionTimes": [18777, 19796, 20779, 21724, 22875, 23811], "queries": {"click": {"state": {"target": ["25", "8", "15", "19", "18", "12"], "time": [4433, 6596, 9190, 11030, 14246, 17600]}, "edge": {"target": [], "time": []}}, "mouseover": {"state": {"target": ["26", "24", "25", "26", "8", "3", "4", "4", "16", "15", "14", "19", "14", "18", "14", "13", "12", "0", "12"], "time": [3178, 3743, 4024, 4903, 6288, 6877, 6989, 7676, 8410, 8610, 9585, 10079, 11664, 14006, 14709, 15761, 15825, 15887, 16620]}, "edge": {"target": [], "time": []}}, "mouseout": {"state": {"target": ["0", "0", "26", "24", "25", "26", "8", "3", "4", "4", "16", "15", "14", "19", "14", "18", "14", "13", "12", "0", "12", "12"], "time": [1700, 3166, 3393, 3976, 4667, 5761, 6836, 6918, 7319, 8261, 8452, 9505, 9662, 11503, 13522, 14498, 15712, 15809, 15858, 16401, 18229, 18759]}, "edge": {"target": [], "time": []}}}, "displayed_time": "24.38", "trialTime": 28228, "trial_type": "mouselab-mdp", "trial_index": 21, "time_elapsed": 1242037, "internal_node_id": "0.0-6.0-1.0-12.0"}}, {"uniqueid": "w88820466:a73999018", "current_trial": 22, "dateTime": 1693581012687, "trialdata": {"revealed_states": [], "clicked_states": ["23", "12", "13", "14", "15", "16", "19"], "num_clicks_accrued": [0, 0, 0, 0, 0, 0, 0, 0, 0, 0, 0, 0, 0], "stateRewards": ["", -2, 4, -3, -13, 63, -36, 62, 11, 78, 34, -51, 2, -2, 8, -6, -40, -18, 31, 9, 64, 39, 79, 1, 4, -4, 15, -12, 76, 73, -10, -77, 86, -4], "withholdReward": false, "trial_id": "mdp_trial_14", "block": "test", "trialIndex": 15, "score": 46.2, "costs": -9.8, "simulationMode": [null, null, null, null, null], "rewards": [2, -2, 8, 9, 39], "path": ["0", "0", "12", "13", "14", "19", "21"], "rt": [17863, 57, 181, 408, 406], "actions": ["right", "right", "right", "down", "down"], "actionTimes": [19837, 20453, 21181, 22133, 23101], "queries": {"click": {"state": {"target": ["23", "12", "13", "14", "15", "16", "19"], "time": [3834, 5766, 7534, 9657, 11818, 14097, 16725]}, "edge": {"target": [], "time": []}}, "mouseover": {"state": {"target": ["23", "1", "12", "13", "14", "15", "16", "7", "2", "10", "18", "17", "14", "19", "22", "12"], "time": [3287, 4245, 5384, 6323, 8270, 10341, 13496, 14405, 14467, 14526, 15240, 15664, 16109, 16256, 17928, 19527]}, "edge": {"target": [], "time": []}}, "mouseout": {"state": {"target": ["0", "23", "1", "12", "12", "13", "14", "15", "16", "7", "2", "10", "18", "17", "14", "19", "22", "12", "0"], "time": [1155, 4066, 5119, 5954, 6282, 7953, 10195, 12424, 14272, 14452, 14512, 14684, 15310, 15958, 16209, 17447, 19028, 20086, 20169]}, "edge": {"target": [], "time": []}}}, "displayed_time": "23.66", "trialTime": 27204, "trial_type": "mouselab-mdp", "trial_index": 22, "time_elapsed": 1269932, "internal_node_id": "0.0-6.0-1.0-13.0"}}, {"uniqueid": "w88820466:a73999018", "current_trial": 23, "dateTime": 1693581050926, "trialdata": {"revealed_states": [], "clicked_states": ["12", "23", "24", "13", "1", "2", "8", "4", "6"], "num_clicks_accrued": [0, 0, 0, 0, 0, 0, 0, 0, 0, 0, 0, 0, 0], "stateRewards": ["", 2, 3, 8, 11, 25, -80, 6, -4, -56, 84, -23, -2, -4, -3, 4, -51, -9, -61, -15, -64, 67, -35, 1, -1, -7, -6, 83, 59, -15, 12, -79, 56, 41], "withholdReward": false, "trial_id": "mdp_trial_15", "block": "test", "trialIndex": 16, "score": 36.4, "costs": -12.600000000000001, "simulationMode": [null, null, null, null, null], "rewards": [2, 3, 8, 11, 25], "path": ["0", "0", "1", "2", "3", "4", "5"], "rt": [24808, 91, 2227, 341, 455], "actions": ["up", "up", "up", "right", "up"], "actionTimes": [28026, 28674, 31443, 32346, 33354], "queries": {"click": {"state": {"target": ["12", "23", "24", "13", "1", "2", "8", "4", "6"], "time": [5589, 7377, 10052, 12499, 14264, 16687, 20092, 23054, 24731]}, "edge": {"target": [], "time": []}}, "mouseover": {"state": {"target": ["1", "12", "13", "23", "1", "1", "24", "13", "18", "1", "18", "7", "2", "4", "3", "8", "8", "11", "2", "2", "4", "6", "2", "0", "0"], "time": [4069, 4834, 6008, 7148, 7753, 8011, 8677, 11380, 13073, 13938, 15637, 16141, 16213, 17021, 17405, 18634, 19163, 20472, 22251, 22535, 22856, 24069, 25311, 26209, 27266]}, "edge": {"target": [], "time": []}}, "mouseout": {"state": {"target": ["23", "26", "26", "28", "1", "12", "13", "23", "1", "1", "24", "13", "18", "1", "18", "7", "2", "4", "3", "8", "8", "11", "2", "2", "4", "4", "6", "4", "2", "0"], "time": [1526, 1572, 1888, 1954, 4686, 5770, 6824, 7591, 7793, 8576, 10401, 12799, 13857, 14478, 16059, 16180, 16911, 17132, 18597, 18666, 20390, 21882, 22314, 22573, 23426, 23987, 25188, 25265, 25359, 26868]}, "edge": {"target": [], "time": []}}}, "displayed_time": "33.90", "trialTime": 37554, "trial_type": "mouselab-mdp", "trial_index": 23, "time_elapsed": 1308172, "internal_node_id": "0.0-6.0-1.0-14.0"}}, {"uniqueid": "w88820466:a73999018", "current_trial": 24, "dateTime": 1693581079853, "trialdata": {"revealed_states": [], "clicked_states": ["12", "13", "14", "24", "1", "32"], "num_clicks_accrued": [0, 0, 0, 0, 0, 0, 0, 0, 0, 0, 0, 0, 0], "stateRewards": ["", 1, 2, -5, 14, 54, -14, -25, 16, -5, -87, 78, -1, 1, 3, -3, 52, 53, 53, -10, 73, -69, -48, 2, 3, 1, 8, -62, -7, 85, 7, 82, 52, -28], "withholdReward": false, "trial_id": "mdp_trial_16", "block": "test", "trialIndex": 17, "score": 56.6, "costs": -8.4, "simulationMode": [null, null, null, null, null], "rewards": [2, 3, 1, 7, 52], "path": ["0", "0", "23", "24", "25", "30", "32"], "rt": [17933, 219, 298, 354, 352], "actions": ["left", "left", "left", "down", "down"], "actionTimes": [20019, 20791, 21635, 22523, 23412], "queries": {"click": {"state": {"target": ["12", "13", "14", "24", "1", "32"], "time": [3464, 5181, 6920, 9285, 11982, 16196]}, "edge": {"target": [], "time": []}}, "mouseover": {"state": {"target": ["12", "0", "23", "13", "14", "14", "23", "24", "25", "1", "1", "2", "2", "2", "3", "24", "30", "32", "24", "3", "10", "25", "30", "24", "23"], "time": [3037, 4125, 4255, 4570, 5420, 6615, 7685, 8511, 9590, 10645, 10967, 12467, 12649, 14368, 14573, 15153, 15263, 15929, 16517, 16939, 18075, 18227, 18461, 19503, 19586]}, "edge": {"target": [], "time": []}}, "mouseout": {"state": {"target": ["0", "12", "12", "0", "23", "13", "14", "13", "14", "23", "24", "25", "24", "1", "1", "2", "2", "2", "3", "24", "30", "32", "24", "3", "10", "25", "30", "24"], "time": [2200, 3665, 3839, 4161, 4453, 5302, 6310, 6548, 7065, 8454, 9545, 10462, 10537, 10719, 12290, 12514, 14021, 14436, 14901, 15197, 15697, 16374, 16595, 17685, 18120, 18273, 19425, 19535]}, "edge": {"target": [], "time": []}}}, "displayed_time": "23.96", "trialTime": 28155, "trial_type": "mouselab-mdp", "trial_index": 24, "time_elapsed": 1337099, "internal_node_id": "0.0-6.0-1.0-15.0"}}, {"uniqueid": "w88820466:a73999018", "current_trial": 25, "dateTime": 1693581101076, "trialdata": {"revealed_states": [], "clicked_states": ["32", "16", "27", "11"], "num_clicks_accrued": [0, 0, 0, 0, 0, 0, 0, 0, 0, 0, 0, 0, 0], "stateRewards": ["", 2, -2, 7, -11, -76, -65, -23, 16, -58, 30, 81, 1, 2, 7, 14, 9, 55, -2, 6, 11, -15, 31, -1, -1, -3, 2, 15, 2, 46, 15, 18, 45, -34], "withholdReward": false, "trial_id": "mdp_trial_17", "block": "test", "trialIndex": 18, "score": 98.4, "costs": -5.6, "simulationMode": [null, null, null, null, null], "rewards": [2, -2, 7, 16, 81], "path": ["0", "0", "1", "2", "3", "8", "11"], "rt": [11494, 147, 152, 309, 226], "actions": ["up", "up", "up", "left", "left"], "actionTimes": [14319, 15025, 15752, 16623, 17431], "queries": {"click": {"state": {"target": ["32", "16", "27", "11"], "time": [4277, 6965, 8684, 10406]}, "edge": {"target": [], "time": []}}, "mouseover": {"state": {"target": ["23", "31", "30", "32", "21", "19", "14", "15", "16", "7", "27", "11", "8", "11", "8", "6", "7", "2"], "time": [2931, 3091, 3595, 3792, 5175, 5877, 5934, 6001, 6108, 7393, 8247, 9062, 9151, 9862, 10700, 11261, 11967, 12058]}, "edge": {"target": [], "time": []}}, "mouseout": {"state": {"target": ["23", "0", "23", "31", "30", "32", "21", "19", "14", "15", "16", "7", "27", "11", "8", "11", "8", "6", "7", "2"], "time": [655, 1930, 2958, 3475, 3636, 4539, 5836, 5906, 5973, 6030, 7147, 7436, 8872, 9107, 9224, 10596, 10746, 11890, 12028, 12255]}, "edge": {"target": [], "time": []}}}, "displayed_time": "18.00", "trialTime": 20391, "trial_type": "mouselab-mdp", "trial_index": 25, "time_elapsed": 1358322, "internal_node_id": "0.0-6.0-1.0-16.0"}}, {"uniqueid": "w88820466:a73999018", "current_trial": 26, "dateTime": 1693581124683, "trialdata": {"revealed_states": [], "clicked_states": [], "num_clicks_accrued": [0, 0, 0, 0, 0, 0, 0, 0, 0, 0, 0, 0, 0], "stateRewards": ["", 1, 3, -2, 15, 51, 15, -19, 11, 67, -45, -73, 2, 4, -2, -13, 36, 9, -28, 10, -30, 31, 16, 1, 2, -1, -16, 14, -22, 36, -1, 88, -5, 45], "withholdReward": false, "trial_id": "mdp_trial_18", "block": "test", "trialIndex": 19, "score": -60, "costs": 0, "simulationMode": [null, null, null, null, null], "rewards": [1, 3, -2, 11, -73], "path": ["0", "0", "1", "2", "3", "8", "11"], "rt": [13577, 661, 224, 218, 178], "actions": ["up", "up", "up", "left", "left"], "actionTimes": [15917, 17133, 17902, 18662, 19397], "queries": {"click": {"state": {"target": [], "time": []}, "edge": {"target": [], "time": []}}, "mouseover": {"state": {"target": ["26", "27", "11", "11", "10", "1", "10", "11", "9", "5", "5", "4", "2", "1", "0", "11", "10", "1", "28", "26"], "time": [3113, 3194, 4720, 5821, 6295, 6981, 7636, 7852, 8628, 9631, 9941, 10916, 10967, 11016, 11323, 12556, 14083, 14423, 15562, 15636]}, "edge": {"target": [], "time": []}}, "mouseout": {"state": {"target": ["12", "0", "26", "27", "11", "11", "10", "1", "10", "11", "9", "5", "5", "4", "2", "1", "0", "11", "10", "1", "28", "26", "24"], "time": [1151, 2443, 3147, 3698, 4755, 5993, 6332, 7555, 7672, 8510, 9584, 9698, 10873, 10950, 11000, 11048, 11937, 14023, 14172, 14463, 15603, 21341, 21459]}, "edge": {"target": [], "time": []}}}, "displayed_time": "19.97", "trialTime": 22749, "trial_type": "mouselab-mdp", "trial_index": 26, "time_elapsed": 1381929, "internal_node_id": "0.0-6.0-1.0-17.0"}}, {"uniqueid": "w88820466:a73999018", "current_trial": 27, "dateTime": 1693581145363, "trialdata": {"revealed_states": [], "clicked_states": [], "num_clicks_accrued": [0, 0, 0, 0, 0, 0, 0, 0, 0, 0, 0, 0, 0], "stateRewards": ["", -2, -3, -5, 8, 27, 11, 43, -6, -24, -87, 69, -2, 1, 1, 9, 19, 48, -37, 9, -14, 45, 62, 1, 2, 1, 16, -81, -41, 22, 4, -6, -63, 47], "withholdReward": false, "trial_id": "mdp_trial_19", "block": "test", "trialIndex": 20, "score": 53, "costs": 0, "simulationMode": [null, null, null, null, null], "rewards": [-2, -3, -5, -6, 69], "path": ["0", "0", "1", "2", "3", "8", "11"], "rt": [544, 82, 134, 2908, 114], "actions": ["up", "up", "up", "left", "left"], "actionTimes": [2173, 2805, 3477, 6941, 7597], "queries": {"click": {"state": {"target": [], "time": []}, "edge": {"target": [], "time": []}}, "mouseover": {"state": {"target": [], "time": []}, "edge": {"target": [], "time": []}}, "mouseout": {"state": {"target": ["23", "0", "31", "24", "11", "8", "1"], "time": [704, 1724, 3663, 3757, 4724, 5023, 11822]}, "edge": {"target": [], "time": []}}}, "displayed_time": "15.85", "trialTime": 19812, "trial_type": "mouselab-mdp", "trial_index": 27, "time_elapsed": 1402609, "internal_node_id": "0.0-6.0-1.0-18.0"}}, {"uniqueid": "w88820466:a73999018", "current_trial": 28, "dateTime": 1693581167644, "trialdata": {"revealed_states": [], "clicked_states": ["29", "5", "23"], "num_clicks_accrued": [0, 0, 0, 0, 0, 0, 0, 0, 0, 0, 0, 0, 0], "stateRewards": ["", 2, -1, -1, 7, 11, -40, -22, -2, 69, 37, 8, -2, 4, -8, -12, -2, -72, -3, -12, 17, 63, 12, 1, 3, -7, 6, 25, 61, 61, -9, 28, -17, 27], "withholdReward": false, "trial_id": "mdp_trial_20", "block": "test", "trialIndex": 21, "score": 59.8, "costs": -4.199999999999999, "simulationMode": [null, null, null, null, null, null], "rewards": [1, 3, -7, 6, 61], "path": ["0", "0", "23", "24", "25", "26", "29"], "rt": [9455, 1437, 161, 254, 354, 346], "actions": ["left", "left", "left", "left", "up", "left"], "actionTimes": [11140, 12592, 13305, 14105, 15016, 15913], "queries": {"click": {"state": {"target": ["29", "5", "23"], "time": [4052, 5907, 10361]}, "edge": {"target": [], "time": []}}, "mouseover": {"state": {"target": ["23", "29", "27", "11", "9", "5", "16", "17", "17", "15", "18", "12", "0", "23"], "time": [3536, 3618, 4306, 4388, 4530, 5345, 6941, 7837, 8119, 8899, 8964, 9029, 9277, 9540]}, "edge": {"target": [], "time": []}}, "mouseout": {"state": {"target": ["0", "0", "23", "29", "27", "11", "9", "5", "16", "17", "17", "15", "18", "12", "0", "23"], "time": [825, 2099, 3573, 4236, 4346, 4430, 5243, 6301, 7684, 7875, 8860, 8932, 8997, 9060, 9315, 11011]}, "edge": {"target": [], "time": []}}}, "displayed_time": "16.46", "trialTime": 21424, "trial_type": "mouselab-mdp", "trial_index": 28, "time_elapsed": 1424888, "internal_node_id": "0.0-6.0-1.0-19.0"}}, {"uniqueid": "w88820466:a73999018", "current_trial": 29, "dateTime": 1693581190810, "trialdata": {"revealed_states": [], "clicked_states": ["33", "32", "21"], "num_clicks_accrued": [0, 0, 0, 0, 0, 0, 0, 0, 0, 0, 0, 0, 0], "stateRewards": ["", 2, 3, -3, 12, -43, 81, -82, -15, 58, -7, -75, -1, -1, 3, -5, 50, -25, -8, 4, 66, 65, -66, 2, -4, 2, -1, -10, 10, 37, 11, 88, -37, 8], "withholdReward": false, "trial_id": "mdp_trial_21", "block": "test", "trialIndex": 22, "score": 65.8, "costs": -4.199999999999999, "simulationMode": [null, null, null, null, null], "rewards": [-1, -1, 3, 4, 65], "path": ["0", "0", "12", "13", "14", "19", "21"], "rt": [11832, 171, 145, 201, 307], "actions": ["right", "right", "right", "down", "down"], "actionTimes": [13545, 14289, 14985, 15737, 16593], "queries": {"click": {"state": {"target": ["33", "32", "21"], "time": [3162, 5463, 9447]}, "edge": {"target": [], "time": []}}, "mouseover": {"state": {"target": ["30", "33", "29", "32", "30", "25", "26", "27", "27", "28", "0", "12", "22", "21", "20", "17"], "time": [1820, 2492, 3727, 4975, 5803, 5884, 5965, 6077, 6358, 7348, 7628, 7682, 7741, 8422, 9987, 11038]}, "edge": {"target": [], "time": []}}, "mouseout": {"state": {"target": ["0", "30", "33", "29", "32", "30", "25", "26", "27", "27", "28", "0", "12", "22", "21", "20", "17"], "time": [1808, 2293, 3577, 4614, 5678, 5843, 5925, 6007, 6202, 7017, 7497, 7665, 7712, 7771, 9683, 10765, 20901]}, "edge": {"target": [], "time": []}}}, "displayed_time": "17.15", "trialTime": 22321, "trial_type": "mouselab-mdp", "trial_index": 29, "time_elapsed": 1448056, "internal_node_id": "0.0-6.0-1.0-20.0"}}, {"uniqueid": "w88820466:a73999018", "current_trial": 30, "dateTime": 1693581214874, "trialdata": {"revealed_states": [], "clicked_states": ["32", "33", "27", "9", "5", "16"], "num_clicks_accrued": [0, 0, 0, 0, 0, 0, 0, 0, 0, 0, 0, 0, 0], "stateRewards": ["", -1, 4, -5, 9, 29, -75, -42, -16, 24, -28, -41, 2, -3, 1, 10, 60, 47, 55, -1, -53, 22, -40, 2, -3, -6, 4, -26, 44, 54, 15, -76, 42, 14], "withholdReward": false, "trial_id": "mdp_trial_22", "block": "test", "trialIndex": 23, "score": 61.6, "costs": -8.4, "simulationMode": [null, null, null, null, null], "rewards": [2, -3, 1, 10, 60], "path": ["0", "0", "12", "13", "14", "15", "16"], "rt": [15121, 95, 168, 262, 155], "actions": ["right", "right", "right", "up", "up"], "actionTimes": [16942, 17607, 18319, 19127, 19830], "queries": {"click": {"state": {"target": ["32", "33", "27", "9", "5", "16"], "time": [3068, 4930, 6730, 9226, 12016, 13928]}, "edge": {"target": [], "time": []}}, "mouseover": {"state": {"target": ["30", "32", "21", "33", "29", "27", "11", "9", "11", "5", "6", "16", "18", "17", "20", "14", "13"], "time": [2461, 2595, 3869, 4682, 5356, 6140, 7208, 8545, 9637, 11434, 12376, 13431, 14520, 14645, 15960, 16419, 16735]}, "edge": {"target": [], "time": []}}, "mouseout": {"state": {"target": ["15", "30", "32", "21", "33", "29", "27", "11", "9", "11", "5", "6", "16", "18", "17", "20", "14", "13", "12", "31"], "time": [130, 2497, 3274, 4161, 5086, 6070, 6919, 8378, 9403, 10669, 12294, 13321, 14245, 14565, 15609, 16252, 16552, 17190, 17240, 17449]}, "edge": {"target": [], "time": []}}}, "displayed_time": "20.40", "trialTime": 23214, "trial_type": "mouselab-mdp", "trial_index": 30, "time_elapsed": 1472120, "internal_node_id": "0.0-6.0-1.0-21.0"}}, {"uniqueid": "w88820466:a73999018", "current_trial": 31, "dateTime": 1693581241193, "trialdata": {"revealed_states": [], "clicked_states": ["32", "29", "11", "5", "16", "20"], "num_clicks_accrued": [0, 0, 0, 0, 0, 0, 0, 0, 0, 0, 0, 0, 0], "stateRewards": ["", -1, -3, -3, 1, -38, 2, -53, -2, -1, -81, 70, -1, 1, -5, -9, 46, 15, 35, -1, -22, 38, 59, -2, 4, -8, 13, 1, -83, -43, 4, 76, 13, 48], "withholdReward": false, "trial_id": "mdp_trial_23", "block": "test", "trialIndex": 24, "score": 52.6, "costs": -8.4, "simulationMode": [null, null, null, null, null], "rewards": [-1, -3, -3, -2, 70], "path": ["0", "0", "1", "2", "3", "8", "11"], "rt": [16325, 523, 226, 175, 224], "actions": ["up", "up", "up", "left", "left"], "actionTimes": [18087, 19192, 19975, 20712, 21488], "queries": {"click": {"state": {"target": ["32", "29", "11", "5", "16", "20"], "time": [3890, 5869, 8721, 11935, 14072, 16358]}, "edge": {"target": [], "time": []}}, "mouseover": {"state": {"target": ["23", "30", "32", "33", "29", "27", "11", "9", "26", "25", "28", "2", "4", "5", "6", "16", "17", "20", "19", "22", "12", "11", "10"], "time": [2189, 2623, 3236, 4318, 5471, 6508, 7854, 9613, 10619, 11059, 11139, 11206, 11306, 11509, 12491, 13563, 14618, 15766, 16818, 17237, 17363, 17512, 17863]}, "edge": {"target": [], "time": []}}, "mouseout": {"state": {"target": ["31", "23", "0", "0", "23", "30", "32", "33", "29", "27", "11", "9", "11", "26", "25", "28", "2", "4", "5", "6", "16", "17", "20", "19", "22", "12", "11", "10"], "time": [427, 525, 818, 2055, 2457, 2892, 4129, 5082, 6200, 7767, 8929, 10455, 10529, 10679, 11106, 11173, 11256, 11393, 12188, 13245, 14407, 15399, 16580, 16868, 17317, 17410, 17791, 18176]}, "edge": {"target": [], "time": []}}}, "displayed_time": "22.07", "trialTime": 25463, "trial_type": "mouselab-mdp", "trial_index": 31, "time_elapsed": 1498439, "internal_node_id": "0.0-6.0-1.0-22.0"}}, {"uniqueid": "w88820466:a73999018", "current_trial": 32, "dateTime": 1693581261233, "trialdata": {"revealed_states": [], "clicked_states": ["21", "17", "20", "22"], "num_clicks_accrued": [0, 0, 0, 0, 0, 0, 0, 0, 0, 0, 0, 0, 0], "stateRewards": ["", 1, 4, -8, -13, -13, -87, -77, -10, -44, 54, 42, 2, -3, -4, 12, -9, -80, 52, 9, 84, -2, -65, 1, -4, -5, -6, 8, 80, 32, 13, -59, -5, -13], "withholdReward": false, "trial_id": "mdp_trial_24", "block": "test", "trialIndex": 25, "score": 82.4, "costs": -5.6, "simulationMode": [null, null, null, null, null, null], "rewards": [2, -3, -4, 9, 84], "path": ["0", "0", "12", "13", "14", "19", "20"], "rt": [9288, 917, 247, 229, 302, 355], "actions": ["right", "right", "right", "right", "down", "right"], "actionTimes": [11140, 12075, 12859, 13643, 14523, 15427], "queries": {"click": {"state": {"target": ["21", "17", "20", "22"], "time": [3291, 5064, 7372, 9699]}, "edge": {"target": [], "time": []}}, "mouseover": {"state": {"target": ["22", "21", "20", "17", "16", "20", "15", "16", "22"], "time": [2411, 2781, 3591, 4699, 5637, 6942, 7700, 7868, 9017]}, "edge": {"target": [], "time": []}}, "mouseout": {"state": {"target": ["0", "22", "21", "20", "17", "16", "20", "15", "16", "22"], "time": [1216, 2496, 3471, 4333, 5374, 6463, 7539, 7770, 8593, 10088]}, "edge": {"target": [], "time": []}}}, "displayed_time": "16.53", "trialTime": 19179, "trial_type": "mouselab-mdp", "trial_index": 32, "time_elapsed": 1518478, "internal_node_id": "0.0-6.0-1.0-23.0"}}, {"uniqueid": "w88820466:a73999018", "current_trial": 33, "dateTime": 1693581289457, "trialdata": {"revealed_states": [], "clicked_states": ["11", "9", "7", "6", "5", "17", "29"], "num_clicks_accrued": [0, 0, 0, 0, 0, 0, 0, 0, 0, 0, 0, 0, 0], "stateRewards": ["", -1, 2, -2, 13, -56, -28, 10, 14, 53, -80, -29, 1, -3, -3, -14, 14, 9, -40, -9, 18, 18, 48, 1, 1, 1, -9, 64, -39, -9, 7, -52, -78, 7], "withholdReward": false, "trial_id": "mdp_trial_25", "block": "test", "trialIndex": 26, "score": 56.2, "costs": -9.8, "simulationMode": [null, null, null, null, null], "rewards": [-1, 2, -2, 14, 53], "path": ["0", "0", "1", "2", "3", "8", "9"], "rt": [16815, 579, 827, 88, 171], "actions": ["up", "up", "up", "left", "up"], "actionTimes": [18508, 19659, 21041, 21675, 22394], "queries": {"click": {"state": {"target": ["11", "9", "7", "6", "5", "17", "29"], "time": [3023, 4655, 6729, 8788, 11152, 13492, 16461]}, "edge": {"target": [], "time": []}}, "mouseover": {"state": {"target": ["10", "11", "9", "8", "9", "8", "10", "2", "7", "4", "5", "6", "16", "16", "5", "16", "17", "17", "7", "3", "8", "8", "10", "28", "26", "25", "29", "27", "1", "1"], "time": [2477, 2624, 3537, 4212, 4396, 4947, 5158, 5915, 6046, 7141, 7330, 8193, 9185, 9765, 10440, 11607, 12652, 12914, 14043, 14140, 14295, 14824, 15116, 15216, 15587, 15919, 16150, 16717, 17596, 18076]}, "edge": {"target": [], "time": []}}, "mouseout": {"state": {"target": ["23", "10", "11", "9", "8", "9", "8", "10", "2", "7", "4", "5", "6", "16", "16", "5", "6", "16", "17", "17", "7", "3", "8", "8", "10", "28", "26", "25", "29", "27", "1", "1", "0"], "time": [683, 2522, 3166, 4147, 4303, 4880, 5065, 5822, 5981, 7016, 7235, 7959, 9115, 9282, 10337, 11392, 11468, 12543, 12699, 13965, 14092, 14189, 14337, 15038, 15145, 15503, 15629, 15983, 16638, 17384, 17931, 18725, 26129]}, "edge": {"target": [], "time": []}}}, "displayed_time": "22.95", "trialTime": 27338, "trial_type": "mouselab-mdp", "trial_index": 33, "time_elapsed": 1546702, "internal_node_id": "0.0-6.0-1.0-24.0"}}, {"uniqueid": "w88820466:a73999018", "current_trial": 34, "dateTime": 1693581321200, "trialdata": {"revealed_states": [], "clicked_states": ["11", "10", "9", "6", "5", "29", "33", "31"], "num_clicks_accrued": [0, 0, 0, 0, 0, 0, 0, 0, 0, 0, 0, 0, 0], "stateRewards": ["", 1, -2, -2, 10, -31, -77, 35, 9, -47, 8, 48, -2, 1, -4, -3, -26, -50, 43, -11, 76, -38, 17, 1, -1, 6, 10, 15, -9, 12, -8, 85, 11, -55], "withholdReward": false, "trial_id": "mdp_trial_26", "block": "test", "trialIndex": 27, "score": 71.8, "costs": -11.200000000000001, "simulationMode": [null, null, null, null, null], "rewards": [1, -1, 6, -8, 85], "path": ["0", "0", "23", "24", "25", "30", "31"], "rt": [22342, 227, 184, 107, 285], "actions": ["left", "left", "left", "down", "right"], "actionTimes": [24185, 24974, 25727, 26383, 27221], "queries": {"click": {"state": {"target": ["11", "10", "9", "6", "5", "29", "33", "31"], "time": [4054, 5995, 8317, 10722, 12888, 15071, 18752, 21055]}, "edge": {"target": [], "time": []}}, "mouseover": {"state": {"target": ["1", "8", "9", "11", "9", "8", "10", "3", "4", "5", "9", "5", "4", "6", "7", "4", "5", "4", "7", "26", "29", "26", "27", "26", "33", "30", "32", "31", "24", "26", "27", "28"], "time": [2786, 3052, 3219, 3653, 4393, 5276, 5530, 6350, 6497, 6646, 7660, 8904, 9829, 10174, 11376, 12128, 12303, 13191, 13535, 14366, 14485, 15321, 15737, 17805, 18151, 19005, 19461, 20510, 21470, 21632, 21756, 22846]}, "edge": {"target": [], "time": []}}, "mouseout": {"state": {"target": ["0", "1", "8", "9", "11", "9", "8", "10", "3", "4", "5", "9", "5", "4", "6", "7", "4", "5", "4", "7", "26", "29", "26", "27", "26", "33", "30", "32", "31", "24", "26", "27", "28"], "time": [2604, 2829, 3131, 3282, 4266, 5205, 5374, 6187, 6425, 6543, 7561, 8597, 9716, 10111, 11085, 12087, 12233, 13114, 13238, 14005, 14411, 15273, 15561, 17767, 17838, 18957, 19150, 20172, 21328, 21552, 21679, 22632, 23850]}, "edge": {"target": [], "time": []}}}, "displayed_time": "27.78", "trialTime": 30871, "trial_type": "mouselab-mdp", "trial_index": 34, "time_elapsed": 1578445, "internal_node_id": "0.0-6.0-1.0-25.0"}}, {"uniqueid": "w88820466:a73999018", "current_trial": 35, "dateTime": 1693581347576, "trialdata": {"revealed_states": [], "clicked_states": ["11", "10", "9", "6", "27", "33"], "num_clicks_accrued": [0, 0, 0, 0, 0, 0, 0, 0, 0, 0, 0, 0, 0], "stateRewards": ["", -1, 2, -6, 6, -82, -19, -39, -16, -83, 11, -33, -2, -2, 4, -6, -82, -1, -19, -6, -10, -67, -41, -2, 1, -7, 16, -23, -78, -52, 14, 31, -71, 74], "withholdReward": false, "trial_id": "mdp_trial_27", "block": "test", "trialIndex": 28, "score": 71.6, "costs": -8.4, "simulationMode": [null, null, null, null, null], "rewards": [-2, 1, -7, 14, 74], "path": ["0", "0", "23", "24", "25", "30", "33"], "rt": [16043, 868, 423, 176, 307], "actions": ["left", "left", "left", "down", "left"], "actionTimes": [17910, 19321, 20313, 21041, 21890], "queries": {"click": {"state": {"target": ["11", "10", "9", "6", "27", "33"], "time": [2976, 4722, 6942, 9178, 11595, 14512]}, "edge": {"target": [], "time": []}}, "mouseover": {"state": {"target": ["10", "11", "9", "8", "10", "2", "7", "4", "9", "5", "6", "7", "2", "10", "29", "27", "29", "25", "33", "33", "29", "25", "28"], "time": [2282, 2666, 3346, 4167, 4353, 5197, 5450, 6155, 6388, 7343, 8532, 9818, 9911, 9999, 10437, 11002, 11966, 13498, 13913, 14202, 15026, 16044, 16606]}, "edge": {"target": [], "time": []}}, "mouseout": {"state": {"target": ["28", "10", "11", "9", "8", "10", "2", "7", "4", "9", "5", "6", "7", "2", "10", "29", "27", "29", "25", "33", "33", "29", "25", "28", "28", "26", "28"], "time": [642, 2401, 3200, 4102, 4288, 5129, 5266, 6115, 6226, 7176, 8370, 9639, 9865, 9984, 10038, 10569, 11885, 13111, 13872, 13946, 14718, 15898, 16236, 17639, 18162, 23714, 23829]}, "edge": {"target": [], "time": []}}}, "displayed_time": "22.44", "trialTime": 25481, "trial_type": "mouselab-mdp", "trial_index": 35, "time_elapsed": 1604821, "internal_node_id": "0.0-6.0-1.0-26.0"}}, {"uniqueid": "w88820466:a73999018", "current_trial": 36, "dateTime": 1693581370326, "trialdata": {"revealed_states": [], "clicked_states": ["21", "22", "16", "30"], "num_clicks_accrued": [0, 0, 0, 0, 0, 0, 0, 0, 0, 0, 0, 0, 0], "stateRewards": ["", 1, -1, 4, 5, -32, 18, 20, 6, -88, -74, 9, -2, 1, -2, -14, 34, -77, -38, -1, 80, -36, 73, 2, 3, -8, 10, -48, -73, -71, -11, -22, 20, 54], "withholdReward": false, "trial_id": "mdp_trial_28", "block": "test", "trialIndex": 29, "score": 63.4, "costs": -5.6, "simulationMode": [null, null, null, null, null, null], "rewards": [-2, 1, -2, -1, 73], "path": ["0", "0", "12", "13", "14", "19", "22"], "rt": [9512, 1108, 145, 227, 278, 302], "actions": ["right", "right", "right", "right", "down", "left"], "actionTimes": [11711, 12835, 13539, 14315, 15139, 15978], "queries": {"click": {"state": {"target": ["21", "22", "16", "30"], "time": [3462, 5341, 8143, 10696]}, "edge": {"target": [], "time": []}}, "mouseover": {"state": {"target": ["0", "22", "19", "21", "20", "22", "19", "17", "16", "16", "1", "23", "30", "32", "30", "33", "31"], "time": [2580, 2746, 2928, 3111, 3810, 4845, 5736, 6188, 6970, 7824, 8679, 8745, 8841, 9315, 9992, 11138, 11945]}, "edge": {"target": [], "time": []}}, "mouseout": {"state": {"target": ["1", "0", "22", "19", "21", "20", "22", "19", "17", "16", "16", "1", "23", "30", "32", "30", "33", "31", "24", "28", "23"], "time": [595, 2626, 2808, 2966, 3636, 4477, 5669, 5776, 6855, 7002, 8432, 8729, 8793, 8890, 9927, 10967, 11339, 11990, 18617, 20039, 20304]}, "edge": {"target": [], "time": []}}}, "displayed_time": "16.86", "trialTime": 21858, "trial_type": "mouselab-mdp", "trial_index": 36, "time_elapsed": 1627572, "internal_node_id": "0.0-6.0-1.0-27.0"}}, {"uniqueid": "w88820466:a73999018", "current_trial": 37, "dateTime": 1693581398941, "trialdata": {"revealed_states": [], "clicked_states": ["5", "6", "10", "9", "11", "29", "33"], "num_clicks_accrued": [0, 0, 0, 0, 0, 0, 0, 0, 0, 0, 0, 0, 0], "stateRewards": ["", -2, -1, -1, 5, -54, -87, 35, 2, -8, 20, -22, 1, 3, 6, 13, -75, -32, -55, -3, 56, 62, -22, -1, -4, -1, -7, -51, 84, 70, 7, -15, 5, 55], "withholdReward": false, "trial_id": "mdp_trial_29", "block": "test", "trialIndex": 30, "score": 47.2, "costs": -9.8, "simulationMode": [null, null, null, null, null, null], "rewards": [-1, -4, -1, -7, 70], "path": ["0", "0", "23", "24", "25", "26", "29"], "rt": [18336, 1174, 19, 120, 208, 229], "actions": ["left", "left", "left", "left", "up", "left"], "actionTimes": [19792, 20983, 21567, 22239, 23006, 23815], "queries": {"click": {"state": {"target": ["5", "6", "10", "9", "11", "29", "33"], "time": [3043, 5676, 8600, 11499, 14332, 16702, 18826]}, "edge": {"target": [], "time": []}}, "mouseover": {"state": {"target": ["0", "1", "2", "5", "9", "4", "6", "4", "7", "2", "10", "11", "9", "11", "27", "11", "27", "29", "27", "26", "25", "33", "24", "30"], "time": [1553, 2335, 2418, 2606, 3593, 5031, 5216, 6002, 6243, 7619, 7852, 8919, 10844, 11818, 13419, 13934, 14713, 16224, 17022, 17788, 17918, 18293, 19505, 20685]}, "edge": {"target": [], "time": []}}, "mouseout": {"state": {"target": ["23", "0", "0", "1", "2", "5", "9", "4", "6", "4", "7", "2", "10", "11", "9", "11", "27", "11", "27", "29", "27", "26", "25", "33", "24", "30"], "time": [513, 596, 2203, 2385, 2453, 3272, 4581, 5095, 5958, 6077, 7570, 7678, 8776, 10527, 11771, 12955, 13870, 14540, 15818, 16940, 17739, 17869, 18035, 19102, 20418, 20723]}, "edge": {"target": [], "time": []}}}, "displayed_time": "24.39", "trialTime": 27766, "trial_type": "mouselab-mdp", "trial_index": 37, "time_elapsed": 1656187, "internal_node_id": "0.0-6.0-1.0-28.0"}}, {"uniqueid": "w88820466:a73999018", "current_trial": 38, "dateTime": 1693581438413, "trialdata": {"revealed_states": [], "clicked_states": ["9", "10", "29", "11", "27", "28", "33", "31"], "num_clicks_accrued": [0, 0, 0, 0, 0, 0, 0, 0, 0, 0, 0, 0, 0], "stateRewards": ["", 2, -1, 3, -12, -83, 6, -33, 9, 28, 24, -50, -2, -1, -2, -5, -87, 37, 82, 12, 80, -5, 10, -2, -3, -6, 9, 22, -1, 16, 9, 77, -62, 58], "withholdReward": false, "trial_id": "mdp_trial_30", "block": "test", "trialIndex": 31, "score": 63.8, "costs": -11.200000000000001, "simulationMode": [null, null, null, null, null], "rewards": [-2, -3, -6, 9, 77], "path": ["0", "0", "23", "24", "25", "30", "31"], "rt": [21754, 140, 1079, 60, 118], "actions": ["left", "left", "left", "down", "right"], "actionTimes": [24586, 25282, 26906, 27546, 28234], "queries": {"click": {"state": {"target": ["9", "10", "29", "11", "27", "28", "33", "31"], "time": [4679, 6780, 9449, 11576, 13558, 16812, 18607, 21789]}, "edge": {"target": [], "time": []}}, "mouseover": {"state": {"target": ["1", "8", "9", "11", "10", "27", "29", "27", "11", "11", "10", "27", "28", "10", "28", "25", "33", "30", "32", "32", "31", "23"], "time": [3738, 3990, 4224, 5078, 6270, 7297, 8487, 9856, 10657, 11065, 12634, 13083, 14487, 14678, 16168, 17200, 18264, 19102, 19358, 19624, 20657, 22593]}, "edge": {"target": [], "time": []}}, "mouseout": {"state": {"target": ["0", "1", "8", "9", "11", "10", "27", "29", "27", "11", "11", "10", "27", "28", "10", "28", "25", "33", "30", "32", "32", "31", "23", "23"], "time": [3525, 3855, 4058, 4924, 5895, 7076, 8376, 9708, 10577, 10707, 11883, 12970, 13896, 14600, 16092, 17120, 17313, 18798, 19342, 19406, 20371, 22448, 22676, 32758]}, "edge": {"target": [], "time": []}}}, "displayed_time": "28.78", "trialTime": 38618, "trial_type": "mouselab-mdp", "trial_index": 38, "time_elapsed": 1695658, "internal_node_id": "0.0-6.0-1.0-29.0"}}, {"uniqueid": "w88820466:a73999018", "current_trial": 39, "dateTime": 1693581484251, "trialdata": {"revealed_states": [], "clicked_states": ["9", "10", "6", "16", "20", "22", "32", "31", "27", "28", "11", "17", "5"], "num_clicks_accrued": [0, 0, 0, 0, 0, 0, 0, 0, 0, 0, 0, 0, 0], "stateRewards": ["", 1, 2, -3, -5, 66, -50, -47, -5, 1, 28, -27, 1, 1, -1, -6, 37, -25, 56, 1, -82, -66, -40, -1, -4, -7, 15, -61, -23, 26, 10, 14, -56, 29], "withholdReward": false, "trial_id": "mdp_trial_31", "block": "test", "trialIndex": 32, "score": 42.8, "costs": -18.2, "simulationMode": [null, null, null, null, null], "rewards": [1, 2, -3, -5, 66], "path": ["0", "0", "1", "2", "3", "4", "5"], "rt": [35347, 271, 1767, 668, 561], "actions": ["up", "up", "up", "right", "up"], "actionTimes": [36596, 37403, 39764, 40996, 42108], "queries": {"click": {"state": {"target": ["9", "10", "6", "16", "20", "22", "32", "31", "27", "28", "11", "17", "5"], "time": [2910, 4765, 7439, 9998, 13820, 15917, 17637, 19521, 22420, 24917, 28459, 30792, 33372]}, "edge": {"target": [], "time": []}}, "mouseover": {"state": {"target": ["0", "10", "8", "9", "11", "10", "2", "7", "6", "5", "4", "16", "17", "20", "17", "17", "20", "21", "21", "22", "32", "32", "33", "31", "25", "29", "27", "29", "25", "28", "24", "30", "33", "30", "23", "24", "33", "33", "26", "27", "11", "23", "0", "13", "14", "15", "17", "15", "18", "5", "5", "4"], "time": [1372, 2302, 2361, 2503, 3293, 4492, 5123, 5231, 6594, 7873, 8990, 9465, 10677, 12325, 12741, 13041, 13309, 14128, 14365, 15465, 16639, 17163, 18137, 19195, 19811, 19937, 22116, 22799, 24128, 24582, 25202, 25398, 25725, 26886, 27227, 27399, 27464, 27610, 27856, 27921, 28195, 28975, 29552, 29783, 29942, 30331, 30553, 31092, 31414, 32649, 33098, 34616]}, "edge": {"target": [], "time": []}}, "mouseout": {"state": {"target": ["0", "0", "10", "8", "9", "11", "10", "2", "7", "6", "5", "4", "16", "17", "20", "17", "17", "20", "20", "21", "21", "22", "32", "32", "33", "31", "25", "29", "27", "29", "25", "28", "24", "30", "33", "30", "23", "24", "33", "33", "26", "27", "11", "23", "0", "13", "14", "15", "17", "15", "18", "5", "5", "4", "4", "3"], "time": [454, 2186, 2334, 2400, 3198, 4196, 5054, 5191, 6474, 7611, 8883, 9151, 10337, 11827, 12659, 12786, 13104, 13971, 14083, 14174, 15256, 16217, 16778, 17928, 18855, 19730, 19889, 21899, 22686, 23870, 24229, 25118, 25284, 25479, 26845, 26918, 27361, 27432, 27497, 27810, 27888, 27956, 28701, 29536, 29600, 29895, 30286, 30364, 30912, 31139, 32227, 32700, 33829, 35918, 42966, 43082]}, "edge": {"target": [], "time": []}}}, "displayed_time": "42.67", "trialTime": 45019, "trial_type": "mouselab-mdp", "trial_index": 39, "time_elapsed": 1741497, "internal_node_id": "0.0-6.0-1.0-30.0"}}, {"uniqueid": "w88820466:a73999018", "current_trial": 40, "dateTime": 1693581515363, "trialdata": {"revealed_states": [], "clicked_states": ["9", "5", "29", "33", "17", "20", "16"], "num_clicks_accrued": [0, 0, 0, 0, 0, 0, 0, 0, 0, 0, 0, 0, 0], "stateRewards": ["", 1, 3, 3, -10, 52, 68, 59, 12, 7, 49, 21, -2, -3, -4, -2, -2, 63, 63, -4, 44, 43, -76, -2, -3, -6, 13, 48, 36, 12, -5, -36, -33, -11], "withholdReward": false, "trial_id": "mdp_trial_32", "block": "test", "trialIndex": 33, "score": 42.2, "costs": -9.8, "simulationMode": [null, null, null, null, null], "rewards": [-2, -3, -4, -2, 63], "path": ["0", "0", "12", "13", "14", "15", "17"], "rt": [16970, 188, 350, 515, 89], "actions": ["right", "right", "right", "up", "right"], "actionTimes": [18653, 19398, 20309, 21373, 22021], "queries": {"click": {"state": {"target": ["9", "5", "29", "33", "17", "20", "16"], "time": [3277, 5330, 7654, 9434, 11553, 13949, 16150]}, "edge": {"target": [], "time": []}}, "mouseover": {"state": {"target": ["28", "11", "9", "11", "5", "6", "7", "10", "26", "29", "33", "30", "31", "12", "15", "17", "20", "13", "16", "15", "12"], "time": [2570, 2664, 2983, 3940, 4667, 5723, 6004, 6198, 6308, 6417, 8318, 9967, 10032, 10211, 10385, 10530, 12329, 14950, 15370, 16462, 17170]}, "edge": {"target": [], "time": []}}, "mouseout": {"state": {"target": ["28", "11", "9", "11", "5", "6", "7", "10", "26", "29", "33", "30", "31", "12", "15", "17", "17", "20", "13", "16", "15", "12", "0", "0"], "time": [2605, 2698, 3816, 4568, 5598, 5792, 6073, 6240, 6378, 7995, 9918, 10016, 10079, 10253, 10487, 11719, 11978, 14317, 15031, 16354, 16511, 18839, 18919, 29528]}, "edge": {"target": [], "time": []}}}, "displayed_time": "22.57", "trialTime": 30317, "trial_type": "mouselab-mdp", "trial_index": 40, "time_elapsed": 1772609, "internal_node_id": "0.0-6.0-1.0-31.0"}}, {"uniqueid": "w88820466:a73999018", "current_trial": 41, "dateTime": 1693581538268, "trialdata": {"revealed_states": [], "clicked_states": ["9", "5", "11", "16"], "num_clicks_accrued": [0, 0, 0, 0, 0, 0, 0, 0, 0, 0, 0, 0, 0], "stateRewards": ["", -2, -4, -2, 10, -8, -15, -47, 7, -84, 53, 5, -1, 2, -7, 3, 83, 31, 47, -1, 30, -8, 69, 2, -4, -1, 8, -7, 12, -8, -8, -13, 30, -84], "withholdReward": false, "trial_id": "mdp_trial_33", "block": "test", "trialIndex": 34, "score": 74.4, "costs": -5.6, "simulationMode": [null, null, null, null, null], "rewards": [-1, 2, -7, 3, 83], "path": ["0", "0", "12", "13", "14", "15", "16"], "rt": [12163, 535, 96, 299, 20], "actions": ["right", "right", "right", "up", "up"], "actionTimes": [15514, 16611, 17259, 18106, 18674], "queries": {"click": {"state": {"target": ["9", "5", "11", "16"], "time": [4785, 6827, 9632, 12543]}, "edge": {"target": [], "time": []}}, "mouseover": {"state": {"target": ["2", "8", "9", "11", "5", "4", "6", "2", "10", "11", "4", "6", "16", "16", "17", "20"], "time": [4136, 4267, 4400, 5397, 6394, 7145, 7451, 8704, 8837, 9239, 10388, 10542, 11344, 12122, 13181, 14782]}, "edge": {"target": [], "time": []}}, "mouseout": {"state": {"target": ["0", "2", "8", "9", "11", "5", "4", "6", "2", "10", "11", "4", "6", "16", "16", "17", "20"], "time": [1354, 4182, 4317, 5214, 5912, 7106, 7297, 8523, 8802, 9007, 9903, 10464, 11240, 11490, 12843, 14232, 15163]}, "edge": {"target": [], "time": []}}}, "displayed_time": "19.25", "trialTime": 22052, "trial_type": "mouselab-mdp", "trial_index": 41, "time_elapsed": 1795514, "internal_node_id": "0.0-6.0-1.0-32.0"}}, {"uniqueid": "w88820466:a73999018", "current_trial": 42, "dateTime": 1693581559753, "trialdata": {"revealed_states": [], "clicked_states": ["21", "17", "16", "32"], "num_clicks_accrued": [0, 0, 0, 0, 0, 0, 0, 0, 0, 0, 0, 0, 0], "stateRewards": ["", -2, -4, -2, -13, -15, 87, -19, -6, -80, 30, 12, 1, 1, -8, 2, 55, 56, 15, 11, -68, -7, 55, -2, 3, -3, -3, 48, 62, 4, 1, -3, 69, -33], "withholdReward": false, "trial_id": "mdp_trial_34", "block": "test", "trialIndex": 35, "score": 62.4, "costs": -5.6, "simulationMode": [null, null, null, null, null], "rewards": [-2, 3, -3, 1, 69], "path": ["0", "0", "23", "24", "25", "30", "32"], "rt": [11103, 481, 99, 61, 219], "actions": ["left", "left", "left", "down", "down"], "actionTimes": [12814, 13854, 14500, 15125, 15909], "queries": {"click": {"state": {"target": ["21", "17", "16", "32"], "time": [2922, 5047, 7432, 9975]}, "edge": {"target": [], "time": []}}, "mouseover": {"state": {"target": ["12", "21", "20", "20", "17", "15", "16", "18", "1", "25", "33", "32", "30", "33"], "time": [2180, 2644, 3188, 3574, 4318, 5469, 6558, 7868, 8073, 8187, 8602, 8807, 10421, 10586]}, "edge": {"target": [], "time": []}}, "mouseout": {"state": {"target": ["0", "12", "21", "20", "20", "17", "15", "16", "18", "1", "25", "33", "32", "30", "33", "25", "24", "23"], "time": [923, 2226, 3097, 3228, 4058, 5425, 5509, 7795, 7912, 8114, 8231, 8644, 10181, 10505, 11754, 17691, 17858, 18023]}, "edge": {"target": [], "time": []}}}, "displayed_time": "16.46", "trialTime": 20669, "trial_type": "mouselab-mdp", "trial_index": 42, "time_elapsed": 1816999, "internal_node_id": "0.0-6.0-1.0-33.0"}}, {"uniqueid": "w88820466:a73999018", "current_trial": 43, "dateTime": 1693581596603, "trialdata": {"revealed_states": [], "clicked_states": ["9", "6", "11", "28", "29", "31", "33", "20", "17", "16"], "num_clicks_accrued": [0, 0, 0, 0, 0, 0, 0, 0, 0, 0, 0, 0, 0], "stateRewards": ["", -1, 4, -6, -5, -22, -38, -38, -2, -56, 88, 14, -1, -1, -7, -6, 61, -60, 21, 11, 57, 31, -30, -2, -2, 6, -9, -44, -70, -44, -15, 34, 16, -78], "withholdReward": false, "trial_id": "mdp_trial_35", "block": "test", "trialIndex": 36, "score": 32, "costs": -14.000000000000002, "simulationMode": [null, null, null, null, null], "rewards": [-1, -1, -7, -6, 61], "path": ["0", "0", "12", "13", "14", "15", "16"], "rt": [25090, 269, 362, 318, 678], "actions": ["right", "right", "right", "up", "up"], "actionTimes": [26576, 27407, 28351, 29239, 30471], "queries": {"click": {"state": {"target": ["9", "6", "11", "28", "29", "31", "33", "20", "17", "16"], "time": [2999, 5490, 7826, 10429, 12458, 14646, 16650, 19302, 21699, 23725]}, "edge": {"target": [], "time": []}}, "mouseover": {"state": {"target": ["8", "9", "5", "5", "4", "6", "5", "8", "11", "27", "28", "27", "29", "33", "30", "31", "32", "33", "30", "21", "20", "19", "13", "22", "14", "17", "16", "15", "14", "19", "21", "22", "12"], "time": [2439, 2606, 3580, 3874, 4601, 4938, 6014, 7033, 7527, 8412, 10103, 10846, 11807, 13254, 14044, 14108, 15036, 15895, 16940, 17678, 18543, 19691, 19787, 20108, 20494, 20811, 22241, 24097, 24320, 24416, 24889, 26274, 26358]}, "edge": {"target": [], "time": []}}, "mouseout": {"state": {"target": ["0", "0", "8", "9", "5", "5", "4", "6", "5", "8", "11", "27", "28", "27", "29", "33", "30", "31", "32", "33", "30", "21", "20", "19", "13", "22", "14", "17", "16", "15", "14", "19", "21", "22", "12"], "time": [444, 1599, 2535, 3289, 3644, 4536, 4629, 5825, 6873, 7358, 8115, 9711, 10700, 11695, 12784, 13964, 14076, 14923, 15787, 16923, 16989, 18291, 19674, 19739, 19865, 20445, 20542, 21971, 23983, 24240, 24400, 24463, 26201, 26307, 26744]}, "edge": {"target": [], "time": []}}}, "displayed_time": "31.05", "trialTime": 36001, "trial_type": "mouselab-mdp", "trial_index": 43, "time_elapsed": 1853849, "internal_node_id": "0.0-6.0-1.0-34.0"}}, {"uniqueid": "w88820466:a73999018", "current_trial": 44, "dateTime": 1693581617488, "trialdata": {"revealed_states": [], "clicked_states": ["27", "33", "29"], "num_clicks_accrued": [0, 0, 0, 0, 0, 0, 0, 0, 0, 0, 0, 0, 0], "stateRewards": ["", -1, -2, -8, 8, -27, -82, 19, -14, -62, 4, 1, -2, 2, 6, 10, 73, -51, -2, 2, 73, -48, 54, -1, 2, -4, 11, -25, 47, 86, 15, 33, 43, -42], "withholdReward": false, "trial_id": "mdp_trial_36", "block": "test", "trialIndex": 37, "score": 89.8, "costs": -4.199999999999999, "simulationMode": [null, null, null, null, null], "rewards": [-1, 2, -4, 11, 86], "path": ["0", "0", "23", "24", "25", "26", "29"], "rt": [9689, 234, 401, 162, 173], "actions": ["left", "left", "left", "up", "left"], "actionTimes": [11408, 12187, 13140, 13852, 14572], "queries": {"click": {"state": {"target": ["27", "33", "29"], "time": [4101, 6812, 8621]}, "edge": {"target": [], "time": []}}, "mouseover": {"state": {"target": ["25", "26", "27", "27", "29", "33", "33", "29", "26", "28", "30"], "time": [1837, 3186, 3236, 3630, 4443, 6102, 6427, 7186, 9009, 9231, 10729]}, "edge": {"target": [], "time": []}}, "mouseout": {"state": {"target": ["0", "25", "26", "27", "27", "29", "33", "33", "29", "26", "28", "30", "30"], "time": [1826, 3150, 3219, 3261, 4340, 5991, 6132, 7041, 8962, 9090, 10476, 10841, 17587]}, "edge": {"target": [], "time": []}}}, "displayed_time": "16.17", "trialTime": 20012, "trial_type": "mouselab-mdp", "trial_index": 44, "time_elapsed": 1874734, "internal_node_id": "0.0-6.0-1.0-35.0"}}, {"uniqueid": "w88820466:a73999018", "current_trial": 45, "dateTime": 1693581645495, "trialdata": {"revealed_states": [], "clicked_states": ["27", "33", "17", "21", "22"], "num_clicks_accrued": [0, 0, 0, 0, 0, 0, 0, 0, 0, 0, 0, 0, 0], "stateRewards": ["", -1, 2, -7, -12, -62, 12, -13, 5, 77, -71, 83, 1, -4, 7, 15, -42, -87, -4, 5, -25, 44, 88, -1, 4, -5, -8, 14, 51, 8, -5, 83, -24, -19], "withholdReward": false, "trial_id": "mdp_trial_37", "block": "test", "trialIndex": 38, "score": 46, "costs": -7, "simulationMode": [null, null, null, null, null], "rewards": [1, -4, 7, 5, 44], "path": ["0", "0", "12", "13", "14", "19", "21"], "rt": [15838, 278, 544, 304, 86], "actions": ["right", "right", "right", "down", "down"], "actionTimes": [17318, 18142, 19262, 20102, 20726], "queries": {"click": {"state": {"target": ["27", "33", "17", "21", "22"], "time": [3346, 6197, 9266, 11744, 14491]}, "edge": {"target": [], "time": []}}, "mouseover": {"state": {"target": ["27", "26", "29", "33", "30", "31", "19", "17", "17", "16", "15", "21", "20", "19", "22", "4", "5", "5", "3", "12", "0"], "time": [2942, 3747, 3857, 5573, 6538, 6628, 8250, 8584, 8884, 10011, 10806, 11214, 12169, 13469, 13594, 15090, 15188, 15544, 16840, 16975, 17280]}, "edge": {"target": [], "time": []}}, "mouseout": {"state": {"target": ["23", "0", "27", "26", "29", "33", "30", "31", "19", "17", "17", "16", "15", "21", "20", "19", "22", "4", "5", "5", "3", "12", "0", "23", "0", "31"], "time": [614, 2593, 3620, 3788, 5093, 6492, 6585, 7804, 8381, 8620, 9418, 10757, 10856, 11938, 13419, 13558, 14816, 15139, 15369, 16215, 16886, 17216, 17369, 23208, 23321, 25428]}, "edge": {"target": [], "time": []}}}, "displayed_time": "21.29", "trialTime": 27181, "trial_type": "mouselab-mdp", "trial_index": 45, "time_elapsed": 1902741, "internal_node_id": "0.0-6.0-1.0-36.0"}}, {"uniqueid": "w88820466:a73999018", "current_trial": 46, "dateTime": 1693581671926, "trialdata": {"revealed_states": [], "clicked_states": ["9", "11", "10", "6", "7", "16", "20"], "num_clicks_accrued": [0, 0, 0, 0, 0, 0, 0, 0, 0, 0, 0, 0, 0], "stateRewards": ["", -1, 3, -5, -2, -13, -9, -34, -7, -81, 32, 35, -2, -2, 1, -14, -32, 81, 7, 4, 82, 56, -8, -1, 3, -8, 6, -24, -24, -53, 2, 38, 61, 54], "withholdReward": false, "trial_id": "mdp_trial_38", "block": "test", "trialIndex": 39, "score": 73.2, "costs": -9.8, "simulationMode": [null, null, null, null, null], "rewards": [-2, -2, 1, 4, 82], "path": ["0", "0", "12", "13", "14", "19", "20"], "rt": [17668, 221, 57, 180, 262], "actions": ["right", "right", "right", "down", "right"], "actionTimes": [19479, 20287, 20902, 21615, 22430], "queries": {"click": {"state": {"target": ["9", "11", "10", "6", "7", "16", "20"], "time": [3815, 5410, 7041, 9842, 12118, 14628, 16589]}, "edge": {"target": [], "time": []}}, "mouseover": {"state": {"target": ["10", "8", "9", "8", "11", "11", "10", "2", "7", "6", "5", "4", "7", "5", "5", "16", "17", "20", "21", "22", "18", "13", "13"], "time": [2937, 3000, 3067, 4155, 4496, 4722, 5815, 7433, 7971, 9148, 10271, 11228, 11383, 12812, 13070, 14246, 15165, 16000, 17258, 18397, 18964, 19061, 19297]}, "edge": {"target": [], "time": []}}, "mouseout": {"state": {"target": ["1", "0", "10", "8", "9", "8", "11", "11", "10", "2", "7", "6", "5", "4", "7", "6", "5", "5", "16", "17", "20", "21", "22", "18", "13", "13", "32"], "time": [593, 1044, 2972, 3034, 4084, 4196, 4566, 5656, 7392, 7673, 8809, 10188, 11178, 11305, 12326, 12731, 12891, 13757, 14893, 15889, 16915, 18243, 18477, 19011, 19144, 19455, 23703]}, "edge": {"target": [], "time": []}}}, "displayed_time": "22.99", "trialTime": 25566, "trial_type": "mouselab-mdp", "trial_index": 46, "time_elapsed": 1929172, "internal_node_id": "0.0-6.0-1.0-37.0"}}, {"uniqueid": "w88820466:a73999018", "current_trial": 47, "dateTime": 1693581698469, "trialdata": {"revealed_states": [], "clicked_states": ["32", "31", "27", "29", "28", "11"], "num_clicks_accrued": [0, 0, 0, 0, 0, 0, 0, 0, 0, 0, 0, 0, 0], "stateRewards": ["", 1, 2, -3, 6, -88, 74, -45, 7, -46, 40, -77, 1, -4, 4, 3, 22, -25, -59, 8, -83, 19, -60, -1, -1, -1, -8, 26, -29, 64, -7, -88, -51, -55], "withholdReward": false, "trial_id": "mdp_trial_39", "block": "test", "trialIndex": 40, "score": 44.6, "costs": -8.4, "simulationMode": [null, null, null, null, null], "rewards": [-1, -1, -1, -8, 64], "path": ["0", "0", "23", "24", "25", "26", "29"], "rt": [16754, 36, 149, 291, 264], "actions": ["left", "left", "left", "up", "left"], "actionTimes": [18788, 19404, 20116, 20964, 21780], "queries": {"click": {"state": {"target": ["32", "31", "27", "29", "28", "11"], "time": [3141, 5473, 8378, 10974, 13830, 16684]}, "edge": {"target": [], "time": []}}, "mouseover": {"state": {"target": ["30", "32", "33", "31", "25", "29", "26", "27", "26", "28", "26", "29", "33", "28", "8", "9", "11", "8", "5", "8"], "time": [2561, 2727, 3565, 5013, 6001, 6140, 7198, 7619, 8663, 8792, 9949, 10044, 11584, 12886, 14645, 14874, 16080, 17007, 17421, 18378]}, "edge": {"target": [], "time": []}}, "mouseout": {"state": {"target": ["30", "24", "23", "0", "30", "32", "33", "31", "25", "29", "26", "27", "26", "28", "26", "29", "33", "28", "8", "9", "11", "8", "5"], "time": [363, 894, 930, 2130, 2639, 3337, 4543, 5652, 6069, 7149, 7431, 8614, 8710, 9902, 9981, 11311, 12394, 14276, 14728, 15638, 16958, 17054, 17944]}, "edge": {"target": [], "time": []}}}, "displayed_time": "22.35", "trialTime": 25668, "trial_type": "mouselab-mdp", "trial_index": 47, "time_elapsed": 1955715, "internal_node_id": "0.0-6.0-1.0-38.0"}}, {"uniqueid": "w88820466:a73999018", "current_trial": 48, "dateTime": 1693581729885, "trialdata": {"revealed_states": [], "clicked_states": ["9", "6", "17", "22", "16", "29", "33"], "num_clicks_accrued": [0, 0, 0, 0, 0, 0, 0, 0, 0, 0, 0, 0, 0], "stateRewards": ["", 2, -4, 7, 3, 23, -42, 4, 7, -81, -33, 7, -2, -4, 5, -1, 50, -57, -14, -13, -14, 44, 55, -2, -2, 5, -2, 33, 1, 57, -13, -7, 58, 87], "withholdReward": false, "trial_id": "mdp_trial_40", "block": "test", "trialIndex": 41, "score": 65.2, "costs": -9.8, "simulationMode": [null, null, null, null, null], "rewards": [-2, -2, 5, -13, 87], "path": ["0", "0", "23", "24", "25", "30", "33"], "rt": [19212, 386, 168, 105, 338], "actions": ["left", "left", "left", "down", "left"], "actionTimes": [20770, 21707, 22450, 23107, 23995], "queries": {"click": {"state": {"target": ["9", "6", "17", "22", "16", "29", "33"], "time": [3143, 5500, 7858, 10486, 13028, 14859, 17717]}, "edge": {"target": [], "time": []}}, "mouseover": {"state": {"target": ["10", "9", "5", "6", "16", "17", "20", "19", "22", "19", "21", "19", "14", "16", "16", "1", "29", "33", "33", "30", "31", "32", "32", "31"], "time": [2425, 2782, 3560, 4966, 6134, 7395, 8699, 9650, 10014, 10803, 10867, 11990, 12086, 12151, 12583, 13563, 14110, 15633, 15983, 18133, 18292, 18451, 18773, 19488]}, "edge": {"target": [], "time": []}}, "mouseout": {"state": {"target": ["8", "2", "1", "10", "9", "5", "6", "16", "17", "20", "19", "22", "19", "21", "19", "14", "16", "16", "1", "29", "33", "33", "30", "31", "32", "32"], "time": [192, 442, 584, 2461, 3439, 4641, 5854, 7079, 8195, 9362, 9897, 10755, 10851, 11909, 12070, 12118, 12184, 13421, 13612, 15360, 15712, 18050, 18214, 18372, 18500, 19338]}, "edge": {"target": [], "time": []}}}, "displayed_time": "24.55", "trialTime": 30571, "trial_type": "mouselab-mdp", "trial_index": 48, "time_elapsed": 1987131, "internal_node_id": "0.0-6.0-1.0-39.0"}}, {"uniqueid": "w88820466:a73999018", "current_trial": 49, "dateTime": 1693581800230, "trialdata": {"rt": 70337, "response": {"Q0": "$-16 to 16", "Q1": "$-32 to $32", "Q2": "$-88 to $88", "Q3": "The cost for clicking on nodes varied between nodes.", "Q4": "Very motivated"}, "question_order": [0, 1, 2, 3, 4], "trial_id": "final_quiz_control", "trial_type": "survey-multi-choice", "trial_index": 49, "time_elapsed": 2057476, "internal_node_id": "0.0-6.0-2.0"}}, {"uniqueid": "w88820466:a73999018", "current_trial": 50, "dateTime": 1693582182054, "trialdata": {"rt": 381758, "response": {"Q0": "At first I concentrated on the first couple of nodes. That was very unmotivating as there was huge losses due to heavy negative values in the outer nodes. I realised that the end nodes had the most money so I stuck to clicking on those. I did not concentrate on how many nodes I inspected - I had not remembered that point from the rules and only realised in the last couple of games that one was charged for that.", "Q1": "I tried to look for end nodes that had about 65 to 88 rewards. I stopped clicking when I found a big one.", "Q2": "I greatly improved my game after about 10 games but had a plateau after that as at the time I did not realise that I was penalised/charged  for using the node inspector. "}, "trial_id": "self_report_control", "trial_type": "survey-text", "trial_index": 50, "time_elapsed": 2439300, "internal_node_id": "0.0-6.0-3.0"}}, {"uniqueid": "w88820466:a73999018", "current_trial": 51, "dateTime": 1693582199956, "trialdata": {"rt": 17864, "response": {"gender": "female", "age": "67", "colorblind": "0", "effort": "0"}, "trial_type": "survey-html-form", "trial_index": 51, "time_elapsed": 2457202, "internal_node_id": "0.0-6.0-4.0"}}, {"uniqueid": "w88820466:a73999018", "current_trial": 52, "dateTime": 1693582330519, "trialdata": {"rt": 130550, "response": {"Q0": "The node inspector did not show a result for some.\nThe penalty for using the node inspector", "Q1": "No I have never played this game before", "Q2": "It was enjoyable"}, "trial_type": "survey-text", "trial_index": 52, "time_elapsed": 2587765, "internal_node_id": "0.0-6.0-5.0"}}, {"uniqueid": "w88820466:a73999018", "current_trial": 53, "dateTime": 1693582371073, "trialdata": {"rt": 40549, "stimulus": "<h1>Completion Code Instructions (1/2)</h1>\n<br><br><br><br>\nYou have reached the end of the experiment! The completion code consists of two parts: (1) a code with 2 characters (2) a code with 6 characters. On this page, you will receive the second part of the code. The first part of the completion code will be on the next page.\n<br><br>\nThe second part of your completion code is: <b>EWEK22</b>\n<br><br>\nPlease note this down. Then, press 'Next' in order to find the first part of your completion code. Once the data has been saved, you will receive this code either in this window or in the original browser window where you started the experiment.\n <br><br>\n<h2 style='color: red;'>Note: this is <strong>NOT</strong> the full completion code. Copy this down and click 'Next' to get the full completion code on the next page.</h2>", "response": 0, "trial_type": "html-button-response", "trial_index": 53, "time_elapsed": 2628319, "internal_node_id": "0.0-6.0-6.0"}}, {"uniqueid": "w88820466:a73999018", "current_trial": 54, "dateTime": 1693582372098, "trialdata": {"success": true, "trial_type": "fullscreen", "trial_index": 54, "time_elapsed": 2629344, "internal_node_id": "0.0-7.0"}}], "questiondata": {"params": {"CODE": "C6DMOQA6", "MIN_TIME": 14, "inspectCost": 1, "startTime": "Fri Sep 01 2023 16:49:00 GMT+0200 (South Africa Standard Time)", "bonusRate": 0.002, "variance": "1_2_4_8_44", "branching": "31123"}, "final_score": 1489}, "eventdata": [{"eventtype": "initialized", "value": null, "timestamp": 1693579739949, "interval": 0}, {"eventtype": "window_resize", "value": [1032, 649], "timestamp": 1693579739949, "interval": 0}, {"eventtype": "focus", "value": "on", "timestamp": 1693579740240, "interval": 291}, {"eventtype": "window_resize", "value": [1032, 649], "timestamp": 1693579740432, "interval": 192}, {"eventtype": "focus", "value": "off", "timestamp": 1693579747993, "interval": 7561}, {"eventtype": "focus", "value": "on", "timestamp": 1693579764709, "interval": 16716}, {"eventtype": "focus", "value": "off", "timestamp": 1693579766688, "interval": 1979}, {"eventtype": "focus", "value": "on", "timestamp": 1693580160692, "interval": 394004}, {"eventtype": "window_resize", "value": [1280, 768], "timestamp": 1693580163764, "interval": 3072}, {"eventtype": "window_resize", "value": [1032, 649], "timestamp": 1693582371357, "interval": 2207593}], "useragent": "Mozilla/5.0 (Windows NT 6.1; Win64; x64; rv:109.0) Gecko/20100101 Firefox/115.0", "mode": "live", "id": "w88820466:a73999018", "status": "user data saved", "Beginhit": "2023-09-01 14:49:00.582337", "Beginexp": "2023-09-01 14:56:09.337385", "Endhit": "2023-09-01 15:32:58.195852", "psiturkStatus": 3, "browser": "<redacted>", "platform": "windows", "language": "en-US"}