{"condition": 0, "counterbalance": 0, "assignmentId": "a75482487", "workerId": "w42787440", "hitId": "h36183551", "currenttrial": 55, "bonus": 0, "data": [{"uniqueid": "w42787440:a75482487", "current_trial": 0, "dateTime": 1693480746226, "trialdata": {"success": true, "trial_type": "fullscreen", "trial_index": 0, "time_elapsed": 6146, "internal_node_id": "0.0-0.0"}}, {"uniqueid": "w42787440:a75482487", "current_trial": 1, "dateTime": 1693480781973, "trialdata": {"view_history": [{"page_index": 0, "viewing_time": 35738}], "rt": 35739, "trial_id": "exp_instructions_control", "trial_type": "instructions", "trial_index": 1, "time_elapsed": 41894, "internal_node_id": "0.0-1.0"}}, {"uniqueid": "w42787440:a75482487", "current_trial": 2, "dateTime": 1693481025236, "trialdata": {"view_history": [{"page_index": 0, "viewing_time": 89146}, {"page_index": 1, "viewing_time": 91200}, {"page_index": 2, "viewing_time": 23056}, {"page_index": 3, "viewing_time": 39856}], "rt": 243258, "trial_id": "mouselab_instructions_1_control", "trial_type": "instructions", "trial_index": 2, "time_elapsed": 285157, "internal_node_id": "0.0-2.0-1.0"}}, {"uniqueid": "w42787440:a75482487", "current_trial": 3, "dateTime": 1693481052590, "trialdata": {"revealed_states": [], "clicked_states": ["23", "24", "25", "12"], "num_clicks_accrued": [0, 0, 0, 0, 0, 0, 0, 0, 0, 0, 0, 0, 0], "stateRewards": ["", -10, -10, 10, -10, -10, 10, -10, 10, 10, 10, 10, 10, 10, -10, 10, 10, -10, 10, -10, 10, 10, -10, -10, -10, 10, -10, 10, 10, 10, -10, 10, -10, -10], "withholdReward": false, "trial_id": "practice_1", "block": "test", "trialIndex": 0, "score": 11.5, "costs": -2, "simulationMode": [null, null, null, null, null], "rewards": [10, 10, -10, -10, 10], "path": ["0", "0", "12", "13", "14", "19", "21"], "rt": [12469, 1265, 1601, 215, 194], "actions": ["right", "right", "right", "down", "down"], "actionTimes": [15510, 17289, 19389, 20114, 20816], "queries": {"click": {"state": {"target": ["23", "24", "25", "12"], "time": [4778, 6183, 7655, 9958]}, "edge": {"target": [], "time": []}}, "mouseover": {"state": {"target": ["23", "24", "25", "0", "12", "12", "13", "0", "13", "14", "13", "12"], "time": [4524, 5876, 6980, 8122, 8170, 8424, 10726, 12055, 14055, 14227, 14526, 14593]}, "edge": {"target": [], "time": []}}, "mouseout": {"state": {"target": ["22", "21", "12", "0", "0", "23", "24", "25", "23", "0", "12", "12", "13", "12", "0", "12", "13", "14", "13", "12"], "time": [413, 1763, 2067, 2335, 4325, 5837, 6835, 8059, 8117, 8161, 8195, 10637, 11870, 11938, 13940, 14031, 14108, 14493, 14559, 14694]}, "edge": {"target": [], "time": []}}}, "displayed_time": "21.32", "trialTime": 26322, "trial_type": "mouselab-mdp", "trial_index": 3, "time_elapsed": 312511, "internal_node_id": "0.0-2.0-2.0-0.0"}}, {"uniqueid": "w42787440:a75482487", "current_trial": 4, "dateTime": 1693481071367, "trialdata": {"revealed_states": [], "clicked_states": ["1", "12", "24", "30", "32"], "num_clicks_accrued": [0, 0, 0, 0, 0, 0, 0, 0, 0, 0, 0, 0, 0], "stateRewards": ["", -10, 10, 10, 10, -10, 10, -10, 10, 10, 10, 10, -10, -10, -10, -10, 10, 10, 10, 10, -10, -10, 10, 10, -10, -10, -10, 10, -10, -10, -10, 10, 10, 10], "withholdReward": false, "trial_id": "practice_2", "block": "test", "trialIndex": 1, "score": -29, "costs": -2.5, "simulationMode": [null, null, null, null, null], "rewards": [-10, -10, -10, -10, 10], "path": ["0", "0", "12", "13", "14", "15", "16"], "rt": [10755, 153, 59, 38, 83], "actions": ["right", "right", "right", "up", "up"], "actionTimes": [12710, 13378, 13943, 14519, 15135], "queries": {"click": {"state": {"target": ["1", "12", "24", "30", "32"], "time": [2775, 4829, 6478, 7955, 9404]}, "edge": {"target": [], "time": []}}, "mouseover": {"state": {"target": ["1", "2", "7", "18", "13", "12", "13", "14", "23", "24", "24", "25", "30", "30", "32"], "time": [2383, 3329, 4202, 4304, 4471, 4654, 5605, 5736, 5939, 5967, 6323, 7123, 7324, 7859, 8497]}, "edge": {"target": [], "time": []}}, "mouseout": {"state": {"target": ["0", "1", "2", "7", "18", "13", "12", "13", "14", "12", "23", "24", "24", "25", "30", "30", "30", "32"], "time": [1243, 3161, 4169, 4254, 4421, 4496, 5534, 5698, 5898, 5936, 5964, 5991, 7083, 7287, 7558, 8114, 8437, 9947]}, "edge": {"target": [], "time": []}}}, "displayed_time": "15.65", "trialTime": 18393, "trial_type": "mouselab-mdp", "trial_index": 4, "time_elapsed": 331288, "internal_node_id": "0.0-2.0-2.0-1.0"}}, {"uniqueid": "w42787440:a75482487", "current_trial": 5, "dateTime": 1693481120276, "trialdata": {"view_history": [{"page_index": 0, "viewing_time": 36961}, {"page_index": 1, "viewing_time": 11943}], "rt": 48905, "trial_id": "mouselab_instructions_2_control", "trial_type": "instructions", "trial_index": 5, "time_elapsed": 380197, "internal_node_id": "0.0-2.0-3.0"}}, {"uniqueid": "w42787440:a75482487", "current_trial": 6, "dateTime": 1693481168183, "trialdata": {"rt": 47903, "response": {"Q0": "The cost for clicking on nodes may vary between nodes.", "Q1": "The better I perform the higher my bonus will be.", "Q2": "No, the amount of cash at each node of the web may be different each time.", "Q3": "To get the highest total score.", "Q4": "Only before moving the spider.", "Q5": "3 seconds"}, "question_order": [0, 1, 2, 3, 4, 5], "correct": {"Q0": "The cost for clicking on nodes may vary between nodes.", "Q1": "The better I perform the higher my bonus will be.", "Q2": "No, the amount of cash at each node of the web may be different each time.", "Q3": "To get the highest total score.", "Q4": "Only before moving the spider.", "Q5": "3 seconds"}, "trial_id": "mouselab_quiz_control", "trial_type": "survey-multi-choice", "trial_index": 6, "time_elapsed": 428104, "internal_node_id": "0.0-2.0-4.0"}}, {"uniqueid": "w42787440:a75482487", "current_trial": 7, "dateTime": 1693481174837, "trialdata": {"rt": 6644, "response": {"Q0": "No"}, "question_order": [0], "trial_id": "repeat_check", "trial_type": "survey-multi-choice", "trial_index": 7, "time_elapsed": 434757, "internal_node_id": "0.0-4.0-0.0"}}, {"uniqueid": "w42787440:a75482487", "current_trial": 8, "dateTime": 1693481191937, "trialdata": {"rt": 17094, "stimulus": "\n<h1> Get ready to start the game! </h1>\n\nThank you for reading the instructions. Get ready start with the 40 rounds of this game.\n<br><br>\nIf you need to take a break, feel free to take one after the end of a round, before continuing to the next one.\n<br><br>\nRemember, the more money the spider gets, the bigger your bonus will be!\n<br><br>\n<div style='text-align: center;'>Press <code>space</code> to begin.</div>\n\n<br><br>\n(If, at any point, the <code>space</code> key does not take you to the next page, click once on the text and try again.)", "response": " ", "trial_id": "mdp_ready", "trial_type": "html-keyboard-response", "trial_index": 8, "time_elapsed": 451858, "internal_node_id": "0.0-6.0-0.0"}}, {"uniqueid": "w42787440:a75482487", "current_trial": 9, "dateTime": 1693481224900, "trialdata": {"revealed_states": [], "clicked_states": ["23", "1", "12", "14", "16", "21", "19", "27"], "num_clicks_accrued": [0, 0, 0, 0, 0, 0, 0, 0, 0, 0, 0, 0, 0], "stateRewards": ["", 1, -2, 4, 7, -43, -83, -60, -5, -86, -80, 83, -1, -2, 6, 11, -15, 21, 13, 9, 29, -49, 11, -1, 4, -6, -11, 87, 40, 63, -8, -39, -11, 62], "withholdReward": false, "trial_id": "mdp_trial_1", "block": "test", "trialIndex": 2, "score": 61.8, "costs": -11.200000000000001, "simulationMode": [null, null, null, null, null], "rewards": [-1, 4, -6, -11, 87], "path": ["0", "0", "23", "24", "25", "26", "27"], "rt": [21407, 224, 234, 301, 241], "actions": ["left", "left", "left", "up", "up"], "actionTimes": [24555, 25295, 26031, 26837, 27590], "queries": {"click": {"state": {"target": ["23", "1", "12", "14", "16", "21", "19", "27"], "time": [3783, 5844, 7948, 10485, 13173, 15964, 18846, 21151]}, "edge": {"target": [], "time": []}}, "mouseover": {"state": {"target": ["23", "1", "1", "12", "13", "14", "15", "16", "15", "19", "21", "19", "21", "19", "0", "28", "27", "24", "23"], "time": [3558, 4325, 5363, 6517, 9296, 10238, 12312, 12443, 14156, 14464, 15155, 15620, 15819, 16676, 19370, 19581, 19779, 23533, 23650]}, "edge": {"target": [], "time": []}}, "mouseout": {"state": {"target": ["0", "23", "23", "1", "1", "12", "13", "14", "15", "16", "15", "19", "21", "19", "21", "19", "0", "28", "27", "24"], "time": [3187, 4152, 4251, 5053, 6427, 9195, 10205, 12244, 12379, 14091, 14227, 15117, 15567, 15769, 16611, 19289, 19397, 19732, 21901, 23584]}, "edge": {"target": [], "time": []}}}, "displayed_time": "28.13", "trialTime": 32606, "trial_type": "mouselab-mdp", "trial_index": 9, "time_elapsed": 484821, "internal_node_id": "0.0-6.0-1.0-0.0"}}, {"uniqueid": "w42787440:a75482487", "current_trial": 10, "dateTime": 1693481257726, "trialdata": {"revealed_states": [], "clicked_states": ["27", "25", "32", "14", "16", "17", "3", "5"], "num_clicks_accrued": [0, 0, 0, 0, 0, 0, 0, 0, 0, 0, 0, 0, 0], "stateRewards": ["", 2, -1, -3, 16, -3, -16, -62, -1, 13, -26, 43, -1, 4, 3, -9, -54, -37, -3, -12, -71, -68, -57, 1, -3, 2, -9, 2, -2, -9, -11, 84, -52, 55], "withholdReward": false, "trial_id": "mdp_trial_2", "block": "test", "trialIndex": 3, "score": -18.200000000000003, "costs": -11.200000000000001, "simulationMode": [null, null, null, null, null], "rewards": [1, -3, 2, -9, 2], "path": ["0", "0", "23", "24", "25", "26", "27"], "rt": [22676, 34, 106, 50, 82], "actions": ["left", "left", "left", "up", "up"], "actionTimes": [24948, 25506, 26134, 26716, 27326], "queries": {"click": {"state": {"target": ["27", "25", "32", "14", "16", "17", "3", "5"], "time": [3209, 6084, 8508, 11076, 13364, 16381, 19181, 21732]}, "edge": {"target": [], "time": []}}, "mouseover": {"state": {"target": ["27", "26", "25", "30", "32", "13", "14", "15", "16", "17", "7", "3", "5"], "time": [2998, 4952, 5119, 6828, 6919, 10665, 10748, 12554, 12672, 16124, 18762, 18981, 20328]}, "edge": {"target": [], "time": []}}, "mouseout": {"state": {"target": ["23", "0", "27", "26", "25", "30", "32", "13", "14", "14", "15", "16", "17", "7", "3", "5"], "time": [1125, 2630, 4868, 5035, 6822, 6883, 10530, 10698, 11182, 12500, 12596, 15874, 17429, 18790, 20252, 21851]}, "edge": {"target": [], "time": []}}}, "displayed_time": "27.84", "trialTime": 32440, "trial_type": "mouselab-mdp", "trial_index": 10, "time_elapsed": 517647, "internal_node_id": "0.0-6.0-1.0-1.0"}}, {"uniqueid": "w42787440:a75482487", "current_trial": 11, "dateTime": 1693481287853, "trialdata": {"revealed_states": [], "clicked_states": ["32", "33", "20", "17", "9"], "num_clicks_accrued": [0, 0, 0, 0, 0, 0, 0, 0, 0, 0, 0, 0, 0], "stateRewards": ["", 1, 3, -2, 15, 51, 15, -19, 11, 67, -45, -73, 2, 4, -2, -13, 36, 9, -28, 10, -30, 31, 16, 1, 2, -1, -16, 14, -22, 36, -1, 88, -5, 45], "withholdReward": false, "trial_id": "mdp_trial_3", "block": "test", "trialIndex": 4, "score": 73, "costs": -7, "simulationMode": [null, null, null, null, null], "rewards": [1, 3, -2, 11, 67], "path": ["0", "0", "1", "2", "3", "8", "9"], "rt": [17847, 100, 75, 106, 99], "actions": ["up", "up", "up", "left", "up"], "actionTimes": [19987, 20591, 21186, 21802, 22435], "queries": {"click": {"state": {"target": ["32", "33", "20", "17", "9"], "time": [3305, 5064, 9636, 12344, 15513]}, "edge": {"target": [], "time": []}}, "mouseover": {"state": {"target": ["0", "32", "30", "33", "29", "23", "0", "12", "13", "14", "14", "20", "17", "3", "9", "11", "10"], "time": [2589, 3095, 4215, 4359, 5871, 7438, 7654, 8183, 8225, 8276, 8575, 9063, 11172, 15086, 15221, 17558, 17828]}, "edge": {"target": [], "time": []}}, "mouseout": {"state": {"target": ["5", "4", "7", "0", "0", "32", "30", "33", "29", "23", "0", "12", "13", "14", "14", "20", "17", "3", "9", "11", "10"], "time": [1173, 1241, 1325, 1792, 2663, 4166, 4239, 5682, 7370, 7555, 8160, 8223, 8249, 8306, 8974, 10955, 14786, 15138, 17342, 17776, 17863]}, "edge": {"target": [], "time": []}}}, "displayed_time": "22.95", "trialTime": 29698, "trial_type": "mouselab-mdp", "trial_index": 11, "time_elapsed": 547773, "internal_node_id": "0.0-6.0-1.0-2.0"}}, {"uniqueid": "w42787440:a75482487", "current_trial": 12, "dateTime": 1693481317432, "trialdata": {"revealed_states": [], "clicked_states": ["23", "27", "29", "33"], "num_clicks_accrued": [0, 0, 0, 0, 0, 0, 0, 0, 0, 0, 0, 0, 0], "stateRewards": ["", 2, -4, -4, 13, -80, 62, 13, -11, 57, -13, -44, 1, 4, 3, -4, -29, -88, 15, 16, -58, 68, -45, -1, -3, -1, -9, -44, -86, -19, -7, -36, 59, 66], "withholdReward": false, "trial_id": "mdp_trial_4", "block": "test", "trialIndex": 5, "score": 48.4, "costs": -5.6, "simulationMode": [null, null, null, null, null], "rewards": [-1, -3, -1, -7, 66], "path": ["0", "0", "23", "24", "25", "30", "33"], "rt": [11318, 152, 142, 142, 173], "actions": ["left", "left", "left", "down", "left"], "actionTimes": [15365, 16043, 16699, 17344, 18046], "queries": {"click": {"state": {"target": ["23", "27", "29", "33"], "time": [5248, 7377, 9353, 11609]}, "edge": {"target": [], "time": []}}, "mouseover": {"state": {"target": ["23", "24", "26", "27", "29", "33", "33", "32"], "time": [5072, 6031, 6402, 6815, 8022, 9870, 10103, 12118]}, "edge": {"target": [], "time": []}}, "mouseout": {"state": {"target": ["0", "23", "24", "26", "27", "29", "33", "33", "32"], "time": [4986, 5885, 6373, 6445, 7921, 9811, 9908, 12045, 13871]}, "edge": {"target": [], "time": []}}}, "displayed_time": "18.58", "trialTime": 29190, "trial_type": "mouselab-mdp", "trial_index": 12, "time_elapsed": 577353, "internal_node_id": "0.0-6.0-1.0-3.0"}}, {"uniqueid": "w42787440:a75482487", "current_trial": 13, "dateTime": 1693481348517, "trialdata": {"revealed_states": [], "clicked_states": ["5", "6", "16", "17"], "num_clicks_accrued": [0, 0, 0, 0, 0, 0, 0, 0, 0, 0, 0, 0, 0], "stateRewards": ["", 1, 4, 5, 8, -55, -11, 8, 16, -37, 77, -22, -2, 3, -8, -10, 45, 87, -67, 4, 17, -33, -22, -1, -3, 7, 6, -39, -85, 75, -1, 7, -48, 45], "withholdReward": false, "trial_id": "mdp_trial_5", "block": "test", "trialIndex": 6, "score": 64.4, "costs": -5.6, "simulationMode": [null, null, null, null, null], "rewards": [-2, 3, -8, -10, 87], "path": ["0", "0", "12", "13", "14", "15", "17"], "rt": [11598, 151, 154, 112, 46], "actions": ["right", "right", "right", "up", "right"], "actionTimes": [13311, 14006, 14662, 15290, 15849], "queries": {"click": {"state": {"target": ["5", "6", "16", "17"], "time": [2696, 4829, 6828, 9436]}, "edge": {"target": [], "time": []}}, "mouseover": {"state": {"target": ["4", "5", "5", "6", "16", "6", "16", "17", "20", "19"], "time": [2107, 2138, 2491, 3258, 3488, 4511, 5274, 7327, 10584, 11758]}, "edge": {"target": [], "time": []}}, "mouseout": {"state": {"target": ["0", "4", "5", "5", "6", "16", "6", "16", "17", "20", "19", "12"], "time": [2038, 2135, 2224, 3223, 3340, 4376, 5173, 7261, 10008, 11724, 11826, 23619]}, "edge": {"target": [], "time": []}}}, "displayed_time": "16.41", "trialTime": 30639, "trial_type": "mouselab-mdp", "trial_index": 13, "time_elapsed": 608438, "internal_node_id": "0.0-6.0-1.0-4.0"}}, {"uniqueid": "w42787440:a75482487", "current_trial": 14, "dateTime": 1693481370839, "trialdata": {"revealed_states": [], "clicked_states": ["17", "16", "20", "21"], "num_clicks_accrued": [0, 0, 0, 0, 0, 0, 0, 0, 0, 0, 0, 0, 0], "stateRewards": ["", -1, -3, 1, -4, -48, -63, -49, -2, -84, -19, 65, 2, -2, -2, -12, -4, 59, 9, 6, 75, 69, -13, -1, -3, -3, -2, -37, -68, -36, 13, 32, 18, -14], "withholdReward": false, "trial_id": "mdp_trial_6", "block": "test", "trialIndex": 7, "score": 73.4, "costs": -5.6, "simulationMode": [null, null, null, null, null], "rewards": [2, -2, -2, 6, 75], "path": ["0", "0", "12", "13", "14", "19", "20"], "rt": [12237, 100, 187, 97, 154], "actions": ["right", "right", "right", "down", "right"], "actionTimes": [13720, 14324, 15026, 15659, 16333], "queries": {"click": {"state": {"target": ["17", "16", "20", "21"], "time": [3200, 5589, 7541, 10285]}, "edge": {"target": [], "time": []}}, "mouseover": {"state": {"target": ["14", "17", "16", "16", "20", "21", "22"], "time": [2556, 3072, 3795, 4126, 6304, 8508, 12441]}, "edge": {"target": [], "time": []}}, "mouseout": {"state": {"target": ["0", "14", "17", "16", "16", "20", "21", "22"], "time": [2485, 2605, 3706, 3964, 6077, 8359, 12111, 12643]}, "edge": {"target": [], "time": []}}}, "displayed_time": "16.84", "trialTime": 21913, "trial_type": "mouselab-mdp", "trial_index": 14, "time_elapsed": 630759, "internal_node_id": "0.0-6.0-1.0-5.0"}}, {"uniqueid": "w42787440:a75482487", "current_trial": 15, "dateTime": 1693481396931, "trialdata": {"revealed_states": [], "clicked_states": ["21", "32", "33", "31", "29", "27", "9"], "num_clicks_accrued": [0, 0, 0, 0, 0, 0, 0, 0, 0, 0, 0, 0, 0], "stateRewards": ["", -2, 3, -5, -7, 66, 43, -60, -4, -70, -75, 4, -1, 2, 2, -13, 54, 11, -40, -1, 77, 32, 15, -2, 3, -8, -9, -35, 83, -27, 6, -74, -34, 44], "withholdReward": false, "trial_id": "mdp_trial_7", "block": "test", "trialIndex": 8, "score": 33.2, "costs": -9.8, "simulationMode": [null, null, null, null, null], "rewards": [-2, 3, -8, 6, 44], "path": ["0", "0", "23", "24", "25", "30", "33"], "rt": [18110, 27, 117, 83, 122], "actions": ["left", "left", "left", "down", "left"], "actionTimes": [19646, 20177, 20809, 21420, 22041], "queries": {"click": {"state": {"target": ["21", "32", "33", "31", "29", "27", "9"], "time": [2818, 5329, 7594, 9768, 12099, 14106, 16676]}, "edge": {"target": [], "time": []}}, "mouseover": {"state": {"target": ["21", "32", "33", "30", "31", "24", "25", "29", "27", "11", "9"], "time": [2342, 5114, 7400, 9310, 9424, 10645, 11777, 11895, 13672, 16119, 16453]}, "edge": {"target": [], "time": []}}, "mouseout": {"state": {"target": ["0", "21", "32", "33", "30", "31", "24", "25", "29", "27", "27", "11", "9", "3", "2", "1"], "time": [2106, 4797, 7251, 9256, 9377, 10464, 11742, 11801, 13574, 14243, 16052, 16169, 24382, 24654, 24677, 24702]}, "edge": {"target": [], "time": []}}}, "displayed_time": "22.55", "trialTime": 25681, "trial_type": "mouselab-mdp", "trial_index": 15, "time_elapsed": 656851, "internal_node_id": "0.0-6.0-1.0-6.0"}}, {"uniqueid": "w42787440:a75482487", "current_trial": 16, "dateTime": 1693481418559, "trialdata": {"revealed_states": [], "clicked_states": ["21", "16", "17", "18"], "num_clicks_accrued": [0, 0, 0, 0, 0, 0, 0, 0, 0, 0, 0, 0, 0], "stateRewards": ["", 1, 4, 5, -5, 58, -80, 75, 6, 25, -39, 46, 2, -2, 4, 2, 59, 31, -22, -12, -61, 15, 72, 1, -2, -7, 8, 77, 76, -23, -7, 71, -15, -3], "withholdReward": false, "trial_id": "mdp_trial_8", "block": "test", "trialIndex": 9, "score": 59.4, "costs": -5.6, "simulationMode": [null, null, null, null, null], "rewards": [2, -2, 4, 2, 59], "path": ["0", "0", "12", "13", "14", "15", "16"], "rt": [10546, 53, 128, 115, 92], "actions": ["right", "right", "right", "up", "up"], "actionTimes": [12694, 13265, 13905, 14549, 15148], "queries": {"click": {"state": {"target": ["21", "16", "17", "18"], "time": [3494, 5717, 7988, 10149]}, "edge": {"target": [], "time": []}}, "mouseover": {"state": {"target": ["12", "22", "19", "21", "19", "14", "15", "16", "17", "20", "14", "18", "13"], "time": [2990, 3061, 3124, 3302, 4068, 4165, 4264, 4356, 6269, 9123, 9376, 9615, 10762]}, "edge": {"target": [], "time": []}}, "mouseout": {"state": {"target": ["0", "12", "22", "19", "21", "19", "14", "15", "16", "17", "20", "14", "18", "18", "13"], "time": [2968, 3027, 3101, 3153, 4034, 4123, 4199, 4299, 6203, 8972, 9324, 9450, 10269, 10727, 10792]}, "edge": {"target": [], "time": []}}}, "displayed_time": "16.15", "trialTime": 21265, "trial_type": "mouselab-mdp", "trial_index": 16, "time_elapsed": 678479, "internal_node_id": "0.0-6.0-1.0-7.0"}}, {"uniqueid": "w42787440:a75482487", "current_trial": 17, "dateTime": 1693481441902, "trialdata": {"revealed_states": [], "clicked_states": ["5", "6", "7", "9", "11"], "num_clicks_accrued": [0, 0, 0, 0, 0, 0, 0, 0, 0, 0, 0, 0, 0], "stateRewards": ["", -1, 1, -5, -6, -78, 47, -13, 12, 48, -88, 20, 2, -3, -2, 13, -20, 37, -57, 14, -38, 30, 31, -2, -2, 8, 2, -23, 78, 28, 12, -74, -88, 8], "withholdReward": false, "trial_id": "mdp_trial_9", "block": "test", "trialIndex": 10, "score": 48, "costs": -7, "simulationMode": [null, null, null, null, null], "rewards": [-1, 1, -5, 12, 48], "path": ["0", "0", "1", "2", "3", "8", "9"], "rt": [14053, 718, 132, 100, 102], "actions": ["up", "up", "up", "left", "up"], "actionTimes": [15037, 16290, 16963, 17580, 18209], "queries": {"click": {"state": {"target": ["5", "6", "7", "9", "11"], "time": [2131, 4403, 6647, 9162, 11807]}, "edge": {"target": [], "time": []}}, "mouseover": {"state": {"target": ["1", "4", "5", "6", "7", "4", "3", "9", "11", "10"], "time": [1693, 1776, 1894, 2907, 5145, 7431, 8756, 8990, 10260, 14050]}, "edge": {"target": [], "time": []}}, "mouseout": {"state": {"target": ["0", "1", "4", "5", "6", "7", "4", "3", "9", "11"], "time": [1659, 1724, 1825, 2806, 5032, 7339, 8723, 8787, 10036, 12556]}, "edge": {"target": [], "time": []}}}, "displayed_time": "18.72", "trialTime": 22892, "trial_type": "mouselab-mdp", "trial_index": 17, "time_elapsed": 701823, "internal_node_id": "0.0-6.0-1.0-8.0"}}, {"uniqueid": "w42787440:a75482487", "current_trial": 18, "dateTime": 1693481466799, "trialdata": {"revealed_states": [], "clicked_states": ["29", "27", "33", "32", "28"], "num_clicks_accrued": [0, 0, 0, 0, 0, 0, 0, 0, 0, 0, 0, 0, 0], "stateRewards": ["", -2, 2, 8, -6, -25, 3, 87, 2, -62, -2, 74, -2, -1, 2, -1, 79, 49, -37, -14, 5, 67, -9, -1, 2, -2, 5, 15, 38, 32, -14, -38, -38, 30], "withholdReward": false, "trial_id": "mdp_trial_10", "block": "test", "trialIndex": 11, "score": 35, "costs": -7, "simulationMode": [null, null, null, null, null], "rewards": [-1, 2, -2, 5, 38], "path": ["0", "0", "23", "24", "25", "26", "28"], "rt": [14926, 94, 107, 92, 62], "actions": ["left", "left", "left", "up", "right"], "actionTimes": [17780, 18378, 19000, 19600, 20164], "queries": {"click": {"state": {"target": ["29", "27", "33", "32", "28"], "time": [4320, 6456, 9198, 11886, 14385]}, "edge": {"target": [], "time": []}}, "mouseover": {"state": {"target": ["31", "25", "29", "27", "26", "33", "32", "24", "28"], "time": [3778, 3978, 4095, 4791, 8470, 8586, 11093, 14132, 14216]}, "edge": {"target": [], "time": []}}, "mouseout": {"state": {"target": ["10", "23", "0", "31", "25", "29", "27", "26", "33", "32", "24"], "time": [486, 755, 3659, 3901, 4006, 4724, 8436, 8498, 10769, 13930, 14169]}, "edge": {"target": [], "time": []}}}, "displayed_time": "20.68", "trialTime": 24490, "trial_type": "mouselab-mdp", "trial_index": 18, "time_elapsed": 726719, "internal_node_id": "0.0-6.0-1.0-9.0"}}, {"uniqueid": "w42787440:a75482487", "current_trial": 19, "dateTime": 1693481489776, "trialdata": {"revealed_states": [], "clicked_states": ["5", "6"], "num_clicks_accrued": [0, 0, 0, 0, 0, 0, 0, 0, 0, 0, 0, 0, 0], "stateRewards": ["", -1, -4, -1, -11, 43, 69, 39, 4, 17, -20, -82, -2, -1, 4, 8, -79, 24, -79, 11, 36, 64, 41, 2, 4, -1, 11, -79, -47, 75, -3, 63, -36, -19], "withholdReward": false, "trial_id": "mdp_trial_11", "block": "test", "trialIndex": 12, "score": 49.2, "costs": -2.8, "simulationMode": [null, null, null, null, null], "rewards": [-1, -4, -1, -11, 69], "path": ["0", "0", "1", "2", "3", "4", "6"], "rt": [8907, 49, 51, 33, 85], "actions": ["up", "up", "up", "right", "right"], "actionTimes": [10174, 10744, 11331, 11884, 12478], "queries": {"click": {"state": {"target": ["5", "6"], "time": [3062, 6302]}, "edge": {"target": [], "time": []}}, "mouseover": {"state": {"target": ["1", "2", "3", "5", "6", "17", "16", "6", "16"], "time": [2229, 2296, 2361, 2711, 3666, 3993, 4733, 5535, 6882]}, "edge": {"target": [], "time": []}}, "mouseout": {"state": {"target": ["28", "23", "0", "1", "2", "3", "5", "6", "17", "16", "6"], "time": [539, 608, 2176, 2259, 2333, 2595, 3662, 3698, 4651, 5468, 6770]}, "edge": {"target": [], "time": []}}}, "displayed_time": "15.27", "trialTime": 22555, "trial_type": "mouselab-mdp", "trial_index": 19, "time_elapsed": 749697, "internal_node_id": "0.0-6.0-1.0-10.0"}}, {"uniqueid": "w42787440:a75482487", "current_trial": 20, "dateTime": 1693481513296, "trialdata": {"revealed_states": [], "clicked_states": ["16", "17", "18", "20", "21", "22"], "num_clicks_accrued": [0, 0, 0, 0, 0, 0, 0, 0, 0, 0, 0, 0, 0], "stateRewards": ["", -1, 3, 2, 9, 41, 4, -46, -12, -54, -87, -25, 2, 3, -1, 11, -77, 12, -33, -9, -32, 35, 72, 1, 3, -7, 4, 37, 65, -73, 6, 77, -43, 8], "withholdReward": false, "trial_id": "mdp_trial_12", "block": "test", "trialIndex": 13, "score": 58.6, "costs": -8.4, "simulationMode": [null, null, null, null, null], "rewards": [2, 3, -1, -9, 72], "path": ["0", "0", "12", "13", "14", "19", "22"], "rt": [14577, 127, 127, 50, 91], "actions": ["right", "right", "right", "down", "left"], "actionTimes": [15848, 16475, 17115, 17673, 18313], "queries": {"click": {"state": {"target": ["16", "17", "18", "20", "21", "22"], "time": [2237, 4190, 6467, 8501, 10428, 12476]}, "edge": {"target": [], "time": []}}, "mouseover": {"state": {"target": ["12", "18", "16", "17", "20", "14", "18", "19", "20", "21", "22"], "time": [1863, 1925, 2113, 2730, 5332, 6139, 6256, 7121, 7330, 9195, 11053]}, "edge": {"target": [], "time": []}}, "mouseout": {"state": {"target": ["16", "18", "12", "0", "12", "18", "16", "17", "20", "14", "18", "19", "20", "21", "22"], "time": [510, 560, 611, 1829, 1891, 1947, 2671, 4906, 6072, 6188, 6951, 7199, 9091, 10830, 20497]}, "edge": {"target": [], "time": []}}}, "displayed_time": "18.83", "trialTime": 23065, "trial_type": "mouselab-mdp", "trial_index": 20, "time_elapsed": 773216, "internal_node_id": "0.0-6.0-1.0-11.0"}}, {"uniqueid": "w42787440:a75482487", "current_trial": 21, "dateTime": 1693481534860, "trialdata": {"revealed_states": [], "clicked_states": ["31", "32", "33", "29", "27"], "num_clicks_accrued": [0, 0, 0, 0, 0, 0, 0, 0, 0, 0, 0, 0, 0], "stateRewards": ["", 1, -4, -4, 8, 1, -79, 68, -10, -79, 8, -74, -1, -3, -6, 14, 43, 23, 9, 5, -51, 63, 61, -2, 4, 6, -10, 69, -32, 57, 15, -80, -80, -77], "withholdReward": false, "trial_id": "mdp_trial_13", "block": "test", "trialIndex": 14, "score": 60, "costs": -7, "simulationMode": [null, null, null, null, null], "rewards": [-2, 4, 6, -10, 69], "path": ["0", "0", "23", "24", "25", "26", "27"], "rt": [12986, 34, 44, 563, 130], "actions": ["left", "left", "left", "up", "up"], "actionTimes": [14430, 14978, 15527, 16633, 17279], "queries": {"click": {"state": {"target": ["31", "32", "33", "29", "27"], "time": [3196, 5174, 7125, 9237, 11581]}, "edge": {"target": [], "time": []}}, "mouseover": {"state": {"target": ["0", "32", "31", "32", "33", "29", "27", "27", "28", "28"], "time": [1890, 2700, 3072, 3727, 5830, 8025, 9713, 10053, 12008, 12273]}, "edge": {"target": [], "time": []}}, "mouseout": {"state": {"target": ["0", "0", "32", "31", "32", "33", "29", "27", "27", "28"], "time": [1094, 1950, 2935, 3678, 5698, 7929, 9662, 9773, 11968, 12086]}, "edge": {"target": [], "time": []}}}, "displayed_time": "17.80", "trialTime": 21119, "trial_type": "mouselab-mdp", "trial_index": 21, "time_elapsed": 794781, "internal_node_id": "0.0-6.0-1.0-12.0"}}, {"uniqueid": "w42787440:a75482487", "current_trial": 22, "dateTime": 1693481553005, "trialdata": {"revealed_states": [], "clicked_states": [], "num_clicks_accrued": [0, 0, 0, 0, 0, 0, 0, 0, 0, 0, 0, 0, 0], "stateRewards": ["", -1, -4, -1, -5, -28, -23, -15, -15, -38, 59, -87, 2, 2, -5, 9, -55, -39, -71, -6, 85, -85, -11, -1, -2, 5, -10, 1, 25, 41, -4, 69, -35, 86], "withholdReward": false, "trial_id": "mdp_trial_14", "block": "test", "trialIndex": 15, "score": -59, "costs": 0, "simulationMode": [null, null, null, null, null], "rewards": [-1, -4, -1, -15, -38], "path": ["0", "0", "1", "2", "3", "8", "9"], "rt": [7576, 15, 64, 61, 132], "actions": ["up", "up", "up", "left", "up"], "actionTimes": [9191, 9733, 10315, 10884, 11558], "queries": {"click": {"state": {"target": [], "time": []}, "edge": {"target": [], "time": []}}, "mouseover": {"state": {"target": ["1", "7"], "time": [2802, 3171]}, "edge": {"target": [], "time": []}}, "mouseout": {"state": {"target": ["28", "0", "1", "7"], "time": [928, 2349, 2870, 7538]}, "edge": {"target": [], "time": []}}}, "displayed_time": "15.62", "trialTime": 17686, "trial_type": "mouselab-mdp", "trial_index": 22, "time_elapsed": 812926, "internal_node_id": "0.0-6.0-1.0-13.0"}}, {"uniqueid": "w42787440:a75482487", "current_trial": 23, "dateTime": 1693481576526, "trialdata": {"revealed_states": [], "clicked_states": ["14", "16", "5", "6", "7", "9"], "num_clicks_accrued": [0, 0, 0, 0, 0, 0, 0, 0, 0, 0, 0, 0, 0], "stateRewards": ["", 2, -1, -1, 7, 11, -40, -22, -2, 69, 37, 8, -2, 4, -8, -12, -2, -72, -3, -12, 17, 63, 12, 1, 3, -7, 6, 25, 61, 61, -9, 28, -17, 27], "withholdReward": false, "trial_id": "mdp_trial_15", "block": "test", "trialIndex": 16, "score": 58.6, "costs": -8.4, "simulationMode": [null, null, null, null, null], "rewards": [2, -1, -1, -2, 69], "path": ["0", "0", "1", "2", "3", "8", "9"], "rt": [13889, 91, 80, 668, 122], "actions": ["up", "up", "up", "left", "up"], "actionTimes": [15063, 15672, 16254, 17430, 18070], "queries": {"click": {"state": {"target": ["14", "16", "5", "6", "7", "9"], "time": [1922, 3808, 5935, 8017, 9927, 11814]}, "edge": {"target": [], "time": []}}, "mouseover": {"state": {"target": ["12", "13", "14", "17", "16", "6", "5", "6", "7", "3", "9", "11"], "time": [1333, 1584, 1702, 2470, 3356, 4571, 4699, 6539, 8661, 10398, 10518, 12384]}, "edge": {"target": [], "time": []}}, "mouseout": {"state": {"target": ["0", "0", "12", "13", "14", "17", "16", "6", "5", "5", "6", "7", "3", "9", "9", "11"], "time": [297, 1229, 1535, 1667, 2299, 3321, 4465, 4599, 6069, 6475, 8562, 10329, 10429, 11928, 12334, 21067]}, "edge": {"target": [], "time": []}}}, "displayed_time": "18.59", "trialTime": 23073, "trial_type": "mouselab-mdp", "trial_index": 23, "time_elapsed": 836446, "internal_node_id": "0.0-6.0-1.0-14.0"}}, {"uniqueid": "w42787440:a75482487", "current_trial": 24, "dateTime": 1693481597849, "trialdata": {"revealed_states": [], "clicked_states": ["29", "27", "28", "33"], "num_clicks_accrued": [0, 0, 0, 0, 0, 0, 0, 0, 0, 0, 0, 0, 0], "stateRewards": ["", 2, -3, -5, 5, 11, -9, -33, 6, 67, 6, -30, -1, -2, -6, 13, 55, 13, 72, -14, 75, 21, -66, -2, -4, 6, 15, -1, -35, 60, 2, 51, -73, 12], "withholdReward": false, "trial_id": "mdp_trial_16", "block": "test", "trialIndex": 17, "score": 69.4, "costs": -5.6, "simulationMode": [null, null, null, null, null], "rewards": [-2, -4, 6, 15, 60], "path": ["0", "0", "23", "24", "25", "26", "29"], "rt": [9762, 76, 63, 108, 69], "actions": ["left", "left", "left", "up", "left"], "actionTimes": [11518, 12109, 12680, 13314, 13879], "queries": {"click": {"state": {"target": ["29", "27", "28", "33"], "time": [2789, 5061, 7003, 9021]}, "edge": {"target": [], "time": []}}, "mouseover": {"state": {"target": ["29", "27", "28", "25", "33"], "time": [2700, 3409, 5663, 7783, 8216]}, "edge": {"target": [], "time": []}}, "mouseout": {"state": {"target": ["0", "29", "27", "28", "25", "33"], "time": [578, 3320, 5586, 7480, 7814, 16659]}, "edge": {"target": [], "time": []}}}, "displayed_time": "15.76", "trialTime": 20897, "trial_type": "mouselab-mdp", "trial_index": 24, "time_elapsed": 857769, "internal_node_id": "0.0-6.0-1.0-15.0"}}, {"uniqueid": "w42787440:a75482487", "current_trial": 25, "dateTime": 1693481619300, "trialdata": {"revealed_states": [], "clicked_states": ["21", "22", "20"], "num_clicks_accrued": [0, 0, 0, 0, 0, 0, 0, 0, 0, 0, 0, 0, 0], "stateRewards": ["", 1, 1, -3, 7, 49, 78, 26, -5, 26, 48, -43, -1, -3, 2, -5, 4, -1, -60, 10, -35, 51, 81, -2, 1, -7, -5, -39, -86, -54, 4, -3, 74, 77], "withholdReward": false, "trial_id": "mdp_trial_17", "block": "test", "trialIndex": 18, "score": 84.8, "costs": -4.199999999999999, "simulationMode": [null, null, null, null, null], "rewards": [-1, -3, 2, 10, 81], "path": ["0", "0", "12", "13", "14", "19", "22"], "rt": [7806, 31, 69, 16, 137], "actions": ["right", "right", "right", "down", "left"], "actionTimes": [10986, 11522, 12104, 12649, 13285], "queries": {"click": {"state": {"target": ["21", "22", "20"], "time": [4240, 6511, 8935]}, "edge": {"target": [], "time": []}}, "mouseover": {"state": {"target": ["0", "21", "32", "32", "22", "19", "20"], "time": [3620, 4003, 4894, 5149, 5891, 6941, 7001]}, "edge": {"target": [], "time": []}}, "mouseout": {"state": {"target": ["0", "0", "21", "32", "32", "21", "22", "19", "20", "19"], "time": [2211, 3643, 4756, 4986, 5367, 5598, 6913, 6970, 18280, 18349]}, "edge": {"target": [], "time": []}}}, "displayed_time": "17.18", "trialTime": 21023, "trial_type": "mouselab-mdp", "trial_index": 25, "time_elapsed": 879220, "internal_node_id": "0.0-6.0-1.0-16.0"}}, {"uniqueid": "w42787440:a75482487", "current_trial": 26, "dateTime": 1693481640635, "trialdata": {"revealed_states": [], "clicked_states": ["25", "29", "27"], "num_clicks_accrued": [0, 0, 0, 0, 0, 0, 0, 0, 0, 0, 0, 0, 0], "stateRewards": ["", -2, -3, -7, 7, -54, -69, -4, -14, -77, 22, 40, -2, -1, 5, 6, -35, 50, -60, 10, -28, 75, 57, 1, -4, -2, 2, 68, 34, -18, 12, 3, -21, -43], "withholdReward": false, "trial_id": "mdp_trial_18", "block": "test", "trialIndex": 19, "score": 60.8, "costs": -4.199999999999999, "simulationMode": [null, null, null, null, null], "rewards": [1, -4, -2, 2, 68], "path": ["0", "0", "23", "24", "25", "26", "27"], "rt": [8180, 79, 46, 15, 57], "actions": ["left", "left", "left", "up", "up"], "actionTimes": [9083, 9682, 10234, 10761, 11331], "queries": {"click": {"state": {"target": ["25", "29", "27"], "time": [2074, 4019, 5996]}, "edge": {"target": [], "time": []}}, "mouseover": {"state": {"target": ["0", "24", "25", "29", "27", "28"], "time": [1479, 1746, 1930, 2465, 4713, 6552]}, "edge": {"target": [], "time": []}}, "mouseout": {"state": {"target": ["0", "0", "24", "25", "29", "27", "27", "28"], "time": [411, 1498, 1848, 2407, 4503, 6116, 6486, 17123]}, "edge": {"target": [], "time": []}}}, "displayed_time": "14.90", "trialTime": 20947, "trial_type": "mouselab-mdp", "trial_index": 26, "time_elapsed": 900556, "internal_node_id": "0.0-6.0-1.0-17.0"}}, {"uniqueid": "w42787440:a75482487", "current_trial": 27, "dateTime": 1693481665127, "trialdata": {"revealed_states": [], "clicked_states": ["5", "6", "9", "29", "27", "28"], "num_clicks_accrued": [0, 0, 0, 0, 0, 0, 0, 0, 0, 0, 0, 0, 0], "stateRewards": ["", 2, 4, 4, 9, -88, -10, 44, 16, -54, 64, 78, 1, 2, 5, 16, 80, 36, 7, -4, 9, -47, -70, -1, -3, 6, -16, 11, 80, 28, 8, -1, 34, -17], "withholdReward": false, "trial_id": "mdp_trial_19", "block": "test", "trialIndex": 20, "score": 57.6, "costs": -8.4, "simulationMode": [null, null, null, null, null], "rewards": [-1, -3, 6, -16, 80], "path": ["0", "0", "23", "24", "25", "26", "28"], "rt": [15056, 189, 92, 90, 81], "actions": ["left", "left", "left", "up", "right"], "actionTimes": [16405, 17094, 17711, 18310, 18909], "queries": {"click": {"state": {"target": ["5", "6", "9", "29", "27", "28"], "time": [2093, 4116, 6550, 9167, 11365, 13573]}, "edge": {"target": [], "time": []}}, "mouseover": {"state": {"target": ["12", "5", "6", "7", "3", "9", "11", "27", "29", "27", "28", "25", "33"], "time": [1451, 2000, 2621, 5199, 6210, 6378, 7258, 8767, 9049, 9630, 11950, 14297, 14412]}, "edge": {"target": [], "time": []}}, "mouseout": {"state": {"target": ["0", "12", "5", "5", "6", "7", "3", "9", "9", "11", "27", "29", "27", "28", "25", "33", "32"], "time": [1418, 1484, 2163, 2513, 5023, 6159, 6260, 6640, 7129, 8734, 8816, 9533, 11905, 14208, 14336, 20803, 20857]}, "edge": {"target": [], "time": []}}}, "displayed_time": "19.43", "trialTime": 24033, "trial_type": "mouselab-mdp", "trial_index": 27, "time_elapsed": 925047, "internal_node_id": "0.0-6.0-1.0-18.0"}}, {"uniqueid": "w42787440:a75482487", "current_trial": 28, "dateTime": 1693481686411, "trialdata": {"revealed_states": [], "clicked_states": ["32", "33", "31"], "num_clicks_accrued": [0, 0, 0, 0, 0, 0, 0, 0, 0, 0, 0, 0, 0], "stateRewards": ["", 1, -2, -8, -13, 4, 34, -84, -4, -49, 88, -70, -1, 3, -4, 10, -77, 13, -34, 15, -21, -16, 27, 1, -2, 8, -8, -6, 38, -26, 6, -15, 66, -3], "withholdReward": false, "trial_id": "mdp_trial_20", "block": "test", "trialIndex": 21, "score": 74.8, "costs": -4.199999999999999, "simulationMode": [null, null, null, null, null], "rewards": [1, -2, 8, 6, 66], "path": ["0", "0", "23", "24", "25", "30", "32"], "rt": [7974, 29, 32, 605, 159], "actions": ["left", "left", "left", "down", "down"], "actionTimes": [8866, 9402, 9945, 11069, 11742], "queries": {"click": {"state": {"target": ["32", "33", "31"], "time": [2593, 4865, 6937]}, "edge": {"target": [], "time": []}}, "mouseover": {"state": {"target": ["21", "32", "32", "33", "30", "31"], "time": [1725, 2175, 2476, 3234, 5327, 5397]}, "edge": {"target": [], "time": []}}, "mouseout": {"state": {"target": ["0", "0", "21", "32", "32", "33", "30", "31"], "time": [172, 1514, 1993, 2242, 2962, 5296, 5363, 18601]}, "edge": {"target": [], "time": []}}}, "displayed_time": "14.89", "trialTime": 20792, "trial_type": "mouselab-mdp", "trial_index": 28, "time_elapsed": 946331, "internal_node_id": "0.0-6.0-1.0-19.0"}}, {"uniqueid": "w42787440:a75482487", "current_trial": 29, "dateTime": 1693481706763, "trialdata": {"revealed_states": [], "clicked_states": ["5", "6", "7"], "num_clicks_accrued": [0, 0, 0, 0, 0, 0, 0, 0, 0, 0, 0, 0, 0], "stateRewards": ["", -2, 2, 5, -14, -56, 64, 84, -5, 52, 39, 85, -2, 1, 7, 8, 21, 29, -78, -9, -10, -69, 10, -2, -1, -7, 15, 72, 20, 41, -2, 52, 80, 22], "withholdReward": false, "trial_id": "mdp_trial_21", "block": "test", "trialIndex": 22, "score": 70.8, "costs": -4.199999999999999, "simulationMode": [null, null, null, null, null], "rewards": [-2, 2, 5, -14, 84], "path": ["0", "0", "1", "2", "3", "4", "7"], "rt": [8888, 194, 117, 83, 137], "actions": ["up", "up", "up", "right", "down"], "actionTimes": [10005, 10717, 11345, 11938, 12589], "queries": {"click": {"state": {"target": ["5", "6", "7"], "time": [2354, 4321, 6496]}, "edge": {"target": [], "time": []}}, "mouseover": {"state": {"target": ["1", "2", "4", "5", "6", "7"], "time": [1726, 1895, 2063, 2128, 2922, 4964]}, "edge": {"target": [], "time": []}}, "mouseout": {"state": {"target": ["0", "1", "2", "4", "5", "5", "6"], "time": [605, 1748, 1996, 2088, 2505, 2805, 4876]}, "edge": {"target": [], "time": []}}}, "displayed_time": "15.12", "trialTime": 19921, "trial_type": "mouselab-mdp", "trial_index": 29, "time_elapsed": 966684, "internal_node_id": "0.0-6.0-1.0-20.0"}}, {"uniqueid": "w42787440:a75482487", "current_trial": 30, "dateTime": 1693481730702, "trialdata": {"revealed_states": [], "clicked_states": ["32", "33", "31", "29", "27", "28"], "num_clicks_accrued": [0, 0, 0, 0, 0, 0, 0, 0, 0, 0, 0, 0, 0], "stateRewards": ["", 1, 1, 7, -11, 80, -20, -53, -14, 3, 31, 27, 2, -1, -8, -10, 33, 41, 86, 9, 78, -37, -13, -1, -2, -6, -8, -80, 75, 4, -16, -49, -74, 24], "withholdReward": false, "trial_id": "mdp_trial_22", "block": "test", "trialIndex": 23, "score": 49.6, "costs": -8.4, "simulationMode": [null, null, null, null, null], "rewards": [-1, -2, -6, -8, 75], "path": ["0", "0", "23", "24", "25", "26", "28"], "rt": [15173, 47, 69, 49, 42], "actions": ["left", "left", "left", "up", "right"], "actionTimes": [17885, 18454, 19054, 19665, 20241], "queries": {"click": {"state": {"target": ["32", "33", "31", "29", "27", "28"], "time": [4248, 6184, 8466, 10433, 12610, 15014]}, "edge": {"target": [], "time": []}}, "mouseover": {"state": {"target": ["21", "32", "33", "30", "31", "31", "25", "29", "27", "28"], "time": [3636, 4136, 4770, 6853, 6885, 7271, 9033, 9110, 11128, 14840]}, "edge": {"target": [], "time": []}}, "mouseout": {"state": {"target": ["1", "0", "0", "21", "32", "33", "30", "31", "31", "25", "29", "27", "28", "23"], "time": [94, 296, 3384, 3770, 4363, 6851, 6881, 6914, 8991, 9060, 11035, 14574, 21837, 21924]}, "edge": {"target": [], "time": []}}}, "displayed_time": "20.76", "trialTime": 23524, "trial_type": "mouselab-mdp", "trial_index": 30, "time_elapsed": 990622, "internal_node_id": "0.0-6.0-1.0-21.0"}}, {"uniqueid": "w42787440:a75482487", "current_trial": 31, "dateTime": 1693481751892, "trialdata": {"revealed_states": [], "clicked_states": ["21", "22"], "num_clicks_accrued": [0, 0, 0, 0, 0, 0, 0, 0, 0, 0, 0, 0, 0], "stateRewards": ["", -2, 2, -2, -7, -50, -62, -45, 7, 36, -24, -72, -1, -1, 8, -1, -67, 20, -52, 2, 35, -50, 80, -1, 1, 6, -6, -70, 6, 88, 8, -47, 74, -19], "withholdReward": false, "trial_id": "mdp_trial_23", "block": "test", "trialIndex": 24, "score": 85.2, "costs": -2.8, "simulationMode": [null, null, null, null, null], "rewards": [-1, -1, 8, 2, 80], "path": ["0", "0", "12", "13", "14", "19", "22"], "rt": [6849, 208, 154, 139, 180], "actions": ["right", "right", "right", "down", "left"], "actionTimes": [9568, 10276, 10965, 11621, 12300], "queries": {"click": {"state": {"target": ["21", "22"], "time": [3939, 5914]}, "edge": {"target": [], "time": []}}, "mouseover": {"state": {"target": ["21", "21", "22", "19", "20", "19"], "time": [3529, 3746, 4506, 6326, 6438, 8154]}, "edge": {"target": [], "time": []}}, "mouseout": {"state": {"target": ["0", "21", "21", "22", "19", "20", "19"], "time": [3344, 3578, 4318, 6303, 6387, 8120, 8205]}, "edge": {"target": [], "time": []}}}, "displayed_time": "16.72", "trialTime": 20661, "trial_type": "mouselab-mdp", "trial_index": 31, "time_elapsed": 1011813, "internal_node_id": "0.0-6.0-1.0-22.0"}}, {"uniqueid": "w42787440:a75482487", "current_trial": 32, "dateTime": 1693481774851, "trialdata": {"revealed_states": [], "clicked_states": ["5", "6", "7", "9"], "num_clicks_accrued": [0, 0, 0, 0, 0, 0, 0, 0, 0, 0, 0, 0, 0], "stateRewards": ["", -2, 4, -3, -13, 63, -36, 62, 11, 78, 34, -51, 2, -2, 8, -6, -40, -18, 31, 9, 64, 39, 79, 1, 4, -4, 15, -12, 76, 73, -10, -77, 86, -4], "withholdReward": false, "trial_id": "mdp_trial_24", "block": "test", "trialIndex": 25, "score": 82.4, "costs": -5.6, "simulationMode": [null, null, null, null, null], "rewards": [-2, 4, -3, 11, 78], "path": ["0", "0", "1", "2", "3", "8", "9"], "rt": [11552, 161, 85, 34, 105], "actions": ["up", "up", "up", "left", "up"], "actionTimes": [15102, 15776, 16363, 16918, 17568], "queries": {"click": {"state": {"target": ["5", "6", "7", "9"], "time": [4870, 7005, 9732, 12846]}, "edge": {"target": [], "time": []}}, "mouseover": {"state": {"target": ["10", "5", "6", "7", "2", "3", "9", "3"], "time": [4291, 4692, 5286, 7590, 12325, 12379, 12541, 13562]}, "edge": {"target": [], "time": []}}, "mouseout": {"state": {"target": ["0", "10", "5", "6", "6", "7", "7", "2", "3", "9", "9", "3"], "time": [4190, 4343, 5256, 7140, 7476, 9884, 11806, 12347, 12459, 12994, 13532, 13594]}, "edge": {"target": [], "time": []}}}, "displayed_time": "18.10", "trialTime": 22423, "trial_type": "mouselab-mdp", "trial_index": 32, "time_elapsed": 1034772, "internal_node_id": "0.0-6.0-1.0-23.0"}}, {"uniqueid": "w42787440:a75482487", "current_trial": 33, "dateTime": 1693481798089, "trialdata": {"revealed_states": [], "clicked_states": ["9", "11", "10", "5", "6", "16"], "num_clicks_accrued": [0, 0, 0, 0, 0, 0, 0, 0, 0, 0, 0, 0, 0], "stateRewards": ["", 2, -1, 3, -12, -83, 6, -33, 9, 28, 24, -50, -2, -1, -2, -5, -87, 37, 82, 12, 80, -5, 10, -2, -3, -6, 9, 22, -1, 16, 9, 77, -62, 58], "withholdReward": false, "trial_id": "mdp_trial_25", "block": "test", "trialIndex": 26, "score": 32.6, "costs": -8.4, "simulationMode": [null, null, null, null, null], "rewards": [2, -1, 3, 9, 28], "path": ["0", "0", "1", "2", "3", "8", "9"], "rt": [14700, 614, 198, 108, 146], "actions": ["up", "up", "up", "left", "up"], "actionTimes": [16097, 17221, 17940, 18557, 19207], "queries": {"click": {"state": {"target": ["9", "11", "10", "5", "6", "16"], "time": [2359, 4594, 6859, 9331, 11299, 13427]}, "edge": {"target": [], "time": []}}, "mouseover": {"state": {"target": ["10", "8", "9", "11", "10", "5", "6", "7", "15", "17", "16"], "time": [2000, 2055, 2182, 2997, 5367, 7744, 9838, 12008, 12350, 12637, 13086]}, "edge": {"target": [], "time": []}}, "mouseout": {"state": {"target": ["0", "10", "8", "9", "11", "10", "5", "5", "6", "7", "15", "17", "16", "22"], "time": [1863, 2029, 2102, 2760, 5136, 7241, 9470, 9790, 11646, 12230, 12379, 12701, 21033, 21205]}, "edge": {"target": [], "time": []}}}, "displayed_time": "19.71", "trialTime": 22826, "trial_type": "mouselab-mdp", "trial_index": 33, "time_elapsed": 1058010, "internal_node_id": "0.0-6.0-1.0-24.0"}}, {"uniqueid": "w42787440:a75482487", "current_trial": 34, "dateTime": 1693481820324, "trialdata": {"revealed_states": [], "clicked_states": ["32", "33", "31", "29", "27", "9"], "num_clicks_accrued": [0, 0, 0, 0, 0, 0, 0, 0, 0, 0, 0, 0, 0], "stateRewards": ["", 2, -1, -2, -5, -47, -57, -33, -11, 31, -18, -72, -2, 1, -4, -8, -46, -53, -50, 15, -85, -9, 39, -2, -2, 1, 14, -1, -8, 53, -12, -41, -74, 62], "withholdReward": false, "trial_id": "mdp_trial_26", "block": "test", "trialIndex": 27, "score": 38.6, "costs": -8.4, "simulationMode": [null, null, null, null, null], "rewards": [-2, -2, 1, -12, 62], "path": ["0", "0", "23", "24", "25", "30", "33"], "rt": [15245, 147, 108, 25, 143], "actions": ["left", "left", "left", "down", "left"], "actionTimes": [16173, 16829, 17456, 18011, 18677], "queries": {"click": {"state": {"target": ["32", "33", "31", "29", "27", "9"], "time": [2602, 4793, 7346, 9305, 11491, 14016]}, "edge": {"target": [], "time": []}}, "mouseover": {"state": {"target": ["0", "32", "33", "29", "25", "31", "25", "26", "29", "27", "11", "9", "8", "10", "23"], "time": [1431, 2463, 3274, 5447, 6891, 6991, 7940, 8023, 8377, 9958, 13553, 13823, 14469, 14564, 14707]}, "edge": {"target": [], "time": []}}, "mouseout": {"state": {"target": ["0", "0", "32", "33", "29", "25", "31", "25", "26", "29", "27", "11", "9", "8", "10", "23", "12"], "time": [526, 1497, 3114, 5335, 6856, 6918, 7885, 7992, 8175, 9844, 13503, 13605, 14430, 14532, 14620, 20099, 20468]}, "edge": {"target": [], "time": []}}}, "displayed_time": "19.20", "trialTime": 21764, "trial_type": "mouselab-mdp", "trial_index": 34, "time_elapsed": 1080245, "internal_node_id": "0.0-6.0-1.0-25.0"}}, {"uniqueid": "w42787440:a75482487", "current_trial": 35, "dateTime": 1693481841665, "trialdata": {"revealed_states": [], "clicked_states": ["16", "6", "5", "9", "11"], "num_clicks_accrued": [0, 0, 0, 0, 0, 0, 0, 0, 0, 0, 0, 0, 0], "stateRewards": ["", -1, -3, 1, 13, -64, -29, 12, -4, -33, 50, 56, 2, -3, 4, 11, -64, -58, -55, 12, 47, 38, -25, -2, 2, 5, -15, 85, 7, 84, 10, 8, 57, 26], "withholdReward": false, "trial_id": "mdp_trial_27", "block": "test", "trialIndex": 28, "score": 42, "costs": -7, "simulationMode": [null, null, null, null, null], "rewards": [-1, -3, 1, -4, 56], "path": ["0", "0", "1", "2", "3", "8", "11"], "rt": [12749, 84, 109, 81, 145], "actions": ["up", "up", "up", "left", "left"], "actionTimes": [14004, 14620, 15237, 15819, 16463], "queries": {"click": {"state": {"target": ["16", "6", "5", "9", "11"], "time": [2709, 4685, 6620, 8671, 10927]}, "edge": {"target": [], "time": []}}, "mouseover": {"state": {"target": ["22", "19", "21", "14", "15", "16", "16", "17", "6", "5", "9", "11", "10", "1"], "time": [1782, 1850, 2032, 2283, 2309, 2342, 2566, 3170, 3899, 5083, 7255, 9588, 11784, 13122]}, "edge": {"target": [], "time": []}}, "mouseout": {"state": {"target": ["0", "22", "19", "21", "14", "15", "16", "16", "17", "6", "5", "9", "9", "11", "10", "1", "0"], "time": [1731, 1808, 1917, 2232, 2307, 2340, 2366, 3078, 3730, 5012, 7185, 8810, 9459, 11618, 13070, 13175, 18262]}, "edge": {"target": [], "time": []}}}, "displayed_time": "16.97", "trialTime": 20845, "trial_type": "mouselab-mdp", "trial_index": 35, "time_elapsed": 1101586, "internal_node_id": "0.0-6.0-1.0-26.0"}}, {"uniqueid": "w42787440:a75482487", "current_trial": 36, "dateTime": 1693481868090, "trialdata": {"revealed_states": [], "clicked_states": ["32", "33", "29", "27", "11", "9", "5"], "num_clicks_accrued": [0, 0, 0, 0, 0, 0, 0, 0, 0, 0, 0, 0, 0], "stateRewards": ["", -2, -3, 7, -13, 60, 9, 37, -6, 37, 20, 1, 2, -2, -8, 6, -80, -31, -10, -7, 70, -65, -44, -1, 1, 7, 6, -11, 73, -85, 16, -21, 47, 34], "withholdReward": false, "trial_id": "mdp_trial_28", "block": "test", "trialIndex": 29, "score": 39.2, "costs": -9.8, "simulationMode": [null, null, null, null, null], "rewards": [-2, -3, 7, -13, 60], "path": ["0", "0", "1", "2", "3", "4", "5"], "rt": [18189, 82, 54, 555, 140], "actions": ["up", "up", "up", "right", "up"], "actionTimes": [19026, 19619, 20184, 21281, 21953], "queries": {"click": {"state": {"target": ["32", "33", "29", "27", "11", "9", "5"], "time": [2011, 4137, 6650, 9443, 11802, 13960, 16891]}, "edge": {"target": [], "time": []}}, "mouseover": {"state": {"target": ["32", "33", "30", "31", "25", "29", "26", "28", "27", "11", "9", "5", "4", "7"], "time": [1893, 2587, 4672, 4745, 5112, 5289, 7848, 8405, 9206, 11578, 12326, 16770, 17384, 17472]}, "edge": {"target": [], "time": []}}, "mouseout": {"state": {"target": ["0", "32", "33", "30", "31", "25", "29", "26", "28", "27", "11", "9", "5", "4", "7", "12"], "time": [1422, 2435, 4646, 4712, 4984, 5195, 7731, 8113, 9121, 11528, 12243, 16504, 17352, 17447, 17521, 23732]}, "edge": {"target": [], "time": []}}}, "displayed_time": "22.46", "trialTime": 25953, "trial_type": "mouselab-mdp", "trial_index": 36, "time_elapsed": 1128011, "internal_node_id": "0.0-6.0-1.0-27.0"}}, {"uniqueid": "w42787440:a75482487", "current_trial": 37, "dateTime": 1693481939759, "trialdata": {"revealed_states": [], "clicked_states": ["16", "17", "20", "21"], "num_clicks_accrued": [0, 0, 0, 0, 0, 0, 0, 0, 0, 0, 0, 0, 0], "stateRewards": ["", 1, -1, -7, -7, -22, 15, -13, 13, 26, -32, 38, -1, 1, -7, -4, 16, -62, 86, 12, -54, 56, 64, -2, -1, 6, 14, -57, 37, 62, -6, -25, 50, -70], "withholdReward": false, "trial_id": "mdp_trial_29", "block": "test", "trialIndex": 30, "score": 55.4, "costs": -5.6, "simulationMode": [null, null, null, null, null], "rewards": [-1, 1, -7, 12, 56], "path": ["0", "0", "12", "13", "14", "19", "21"], "rt": [10929, 67, 71, 59, 127], "actions": ["right", "right", "right", "down", "down"], "actionTimes": [13193, 13775, 14374, 14968, 15618], "queries": {"click": {"state": {"target": ["16", "17", "20", "21"], "time": [3514, 5601, 8051, 10290]}, "edge": {"target": [], "time": []}}, "mouseover": {"state": {"target": ["12", "13", "14", "17", "16", "17", "20", "14", "18", "19", "20", "21", "22"], "time": [3005, 3069, 3128, 3238, 3356, 4078, 6290, 6775, 6978, 7640, 7915, 8683, 11417]}, "edge": {"target": [], "time": []}}, "mouseout": {"state": {"target": ["0", "12", "13", "14", "17", "16", "17", "20", "14", "18", "19", "20", "21", "22"], "time": [2970, 3038, 3106, 3165, 3305, 3989, 6139, 6737, 6812, 7614, 7680, 8564, 10439, 17246]}, "edge": {"target": [], "time": []}}}, "displayed_time": "16.27", "trialTime": 71229, "trial_type": "mouselab-mdp", "trial_index": 37, "time_elapsed": 1199679, "internal_node_id": "0.0-6.0-1.0-28.0"}}, {"uniqueid": "w42787440:a75482487", "current_trial": 38, "dateTime": 1693481958086, "trialdata": {"revealed_states": [], "clicked_states": ["29", "27", "11", "9", "5"], "num_clicks_accrued": [0, 0, 0, 0, 0, 0, 0, 0, 0, 0, 0, 0, 0], "stateRewards": ["", -1, 3, 1, -7, 56, 76, 57, 3, 11, -9, 14, 1, -2, 2, 8, -77, -3, 79, -5, 88, 24, -66, -2, -1, 7, -7, -30, 14, -76, 11, -36, 28, -6], "withholdReward": false, "trial_id": "mdp_trial_30", "block": "test", "trialIndex": 31, "score": 45, "costs": -7, "simulationMode": [null, null, null, null, null], "rewards": [-1, 3, 1, -7, 56], "path": ["0", "0", "1", "2", "3", "4", "5"], "rt": [12355, 117, 80, 53, 52], "actions": ["up", "up", "up", "right", "up"], "actionTimes": [13171, 13805, 14398, 14982, 15551], "queries": {"click": {"state": {"target": ["29", "27", "11", "9", "5"], "time": [1789, 3872, 5839, 7957, 10037]}, "edge": {"target": [], "time": []}}, "mouseover": {"state": {"target": ["0", "23", "24", "25", "26", "29", "27", "11", "9", "5", "6"], "time": [1228, 1302, 1366, 1444, 1518, 1645, 2400, 4475, 6318, 8414, 10694]}, "edge": {"target": [], "time": []}}, "mouseout": {"state": {"target": ["0", "23", "24", "25", "26", "29", "27", "11", "9", "5", "6"], "time": [1276, 1335, 1410, 1480, 1561, 2218, 4001, 6250, 8316, 10637, 12231]}, "edge": {"target": [], "time": []}}}, "displayed_time": "16.05", "trialTime": 17873, "trial_type": "mouselab-mdp", "trial_index": 38, "time_elapsed": 1218007, "internal_node_id": "0.0-6.0-1.0-29.0"}}, {"uniqueid": "w42787440:a75482487", "current_trial": 39, "dateTime": 1693481977921, "trialdata": {"revealed_states": [], "clicked_states": ["21", "20"], "num_clicks_accrued": [0, 0, 0, 0, 0, 0, 0, 0, 0, 0, 0, 0, 0], "stateRewards": ["", 2, 4, 7, -6, -76, -81, 2, 5, -66, -3, 36, -2, -4, 6, -2, -69, 4, -49, -6, 67, 38, -67, 2, 1, 1, 6, -68, -21, 52, -16, -16, 6, -70], "withholdReward": false, "trial_id": "mdp_trial_31", "block": "test", "trialIndex": 32, "score": 58.2, "costs": -2.8, "simulationMode": [null, null, null, null, null], "rewards": [-2, -4, 6, -6, 67], "path": ["0", "0", "12", "13", "14", "19", "20"], "rt": [6673, 221, 96, 37, 144], "actions": ["right", "right", "right", "down", "right"], "actionTimes": [9631, 10361, 10966, 11554, 12227], "queries": {"click": {"state": {"target": ["21", "20"], "time": [4112, 6399]}, "edge": {"target": [], "time": []}}, "mouseover": {"state": {"target": ["22", "19", "21", "20", "17"], "time": [3713, 3775, 3932, 4584, 7113]}, "edge": {"target": [], "time": []}}, "mouseout": {"state": {"target": ["0", "22", "19", "21", "20", "17"], "time": [3647, 3741, 3828, 4510, 6864, 8655]}, "edge": {"target": [], "time": []}}}, "displayed_time": "16.96", "trialTime": 19303, "trial_type": "mouselab-mdp", "trial_index": 39, "time_elapsed": 1237841, "internal_node_id": "0.0-6.0-1.0-30.0"}}, {"uniqueid": "w42787440:a75482487", "current_trial": 40, "dateTime": 1693481998192, "trialdata": {"revealed_states": [], "clicked_states": ["32", "33", "29", "27"], "num_clicks_accrued": [0, 0, 0, 0, 0, 0, 0, 0, 0, 0, 0, 0, 0], "stateRewards": ["", -2, 4, 3, 5, -61, 4, 30, 1, -47, 83, 10, 1, 4, 7, -14, 19, -74, -83, 6, -2, -2, -65, -1, -2, 4, -11, 12, -1, -68, 11, -38, -28, 66], "withholdReward": false, "trial_id": "mdp_trial_32", "block": "test", "trialIndex": 33, "score": 72.4, "costs": -5.6, "simulationMode": [null, null, null, null, null], "rewards": [-1, -2, 4, 11, 66], "path": ["0", "0", "23", "24", "25", "30", "33"], "rt": [13438, 137, 144, 23, 173], "actions": ["left", "left", "left", "down", "left"], "actionTimes": [14242, 14909, 15572, 16129, 16804], "queries": {"click": {"state": {"target": ["32", "33", "29", "27"], "time": [2044, 4043, 8539, 10517]}, "edge": {"target": [], "time": []}}, "mouseover": {"state": {"target": ["32", "33", "29", "27", "28", "24"], "time": [1913, 2554, 4624, 9938, 11047, 13234]}, "edge": {"target": [], "time": []}}, "mouseout": {"state": {"target": ["1", "0", "32", "33", "29", "27", "28", "24"], "time": [208, 1376, 2443, 4475, 9729, 10951, 13183, 18741]}, "edge": {"target": [], "time": []}}}, "displayed_time": "17.35", "trialTime": 19771, "trial_type": "mouselab-mdp", "trial_index": 40, "time_elapsed": 1258113, "internal_node_id": "0.0-6.0-1.0-31.0"}}, {"uniqueid": "w42787440:a75482487", "current_trial": 41, "dateTime": 1693482028459, "trialdata": {"revealed_states": [], "clicked_states": ["14", "16", "20", "21", "18", "22", "5", "6"], "num_clicks_accrued": [0, 0, 0, 0, 0, 0, 0, 0, 0, 0, 0, 0, 0], "stateRewards": ["", 2, -1, 1, 10, -52, 86, -22, -2, -14, -63, 38, 1, 3, 7, -8, 11, -32, -27, 9, -71, 40, -87, -2, -1, 5, -7, 12, 31, -57, 13, 86, -58, 29], "withholdReward": false, "trial_id": "mdp_trial_33", "block": "test", "trialIndex": 34, "score": 86.8, "costs": -11.200000000000001, "simulationMode": [null, null, null, null, null], "rewards": [2, -1, 1, 10, 86], "path": ["0", "0", "1", "2", "3", "4", "6"], "rt": [20037, 90, 31, 32, 112], "actions": ["up", "up", "up", "right", "right"], "actionTimes": [21944, 22571, 23149, 23685, 24300], "queries": {"click": {"state": {"target": ["14", "16", "20", "21", "18", "22", "5", "6"], "time": [3310, 5549, 7924, 10054, 12558, 14717, 16846, 19177]}, "edge": {"target": [], "time": []}}, "mouseover": {"state": {"target": ["13", "14", "16", "17", "20", "21", "22", "13", "18", "13", "22", "7", "5", "5", "6", "4", "3", "9"], "time": [3017, 3100, 4020, 6073, 6525, 8541, 10652, 12286, 12421, 13016, 13148, 15358, 15651, 15784, 19014, 19632, 19666, 19975]}, "edge": {"target": [], "time": []}}, "mouseout": {"state": {"target": ["0", "13", "14", "16", "17", "20", "21", "22", "13", "18", "13", "22", "7", "5", "5", "6", "4", "3", "9", "8", "10", "23"], "time": [2916, 3061, 3793, 5999, 6112, 8396, 10486, 12235, 12371, 12972, 13102, 15163, 15402, 15728, 17556, 19593, 19662, 19701, 26744, 26816, 26900, 27033]}, "edge": {"target": [], "time": []}}}, "displayed_time": "24.82", "trialTime": 29750, "trial_type": "mouselab-mdp", "trial_index": 41, "time_elapsed": 1288379, "internal_node_id": "0.0-6.0-1.0-32.0"}}, {"uniqueid": "w42787440:a75482487", "current_trial": 42, "dateTime": 1693482051159, "trialdata": {"revealed_states": [], "clicked_states": ["29", "27", "11", "9"], "num_clicks_accrued": [0, 0, 0, 0, 0, 0, 0, 0, 0, 0, 0, 0, 0], "stateRewards": ["", 1, -1, 4, -2, -75, -75, 84, -9, -60, -79, 59, 2, -4, 8, 9, -17, -82, 80, 14, -4, 49, 49, -1, 3, 6, -11, -33, 34, 55, 9, -57, 5, 59], "withholdReward": false, "trial_id": "mdp_trial_34", "block": "test", "trialIndex": 35, "score": 48.4, "costs": -5.6, "simulationMode": [null, null, null, null, null], "rewards": [1, -1, 4, -9, 59], "path": ["0", "0", "1", "2", "3", "8", "11"], "rt": [11957, 543, 99, 58, 106], "actions": ["up", "up", "up", "left", "left"], "actionTimes": [16180, 17264, 17898, 18468, 19119], "queries": {"click": {"state": {"target": ["29", "27", "11", "9"], "time": [6004, 8616, 10645, 13533]}, "edge": {"target": [], "time": []}}, "mouseover": {"state": {"target": ["23", "24", "25", "29", "27", "11", "9", "11", "9"], "time": [5154, 5276, 5359, 5908, 6409, 9099, 9207, 9815, 11089]}, "edge": {"target": [], "time": []}}, "mouseout": {"state": {"target": ["0", "23", "24", "25", "29", "27", "11", "9", "11", "9", "8", "10", "0"], "time": [5121, 5225, 5315, 5690, 6368, 9055, 9128, 9727, 10940, 20885, 20939, 20965, 21157]}, "edge": {"target": [], "time": []}}}, "displayed_time": "19.64", "trialTime": 22257, "trial_type": "mouselab-mdp", "trial_index": 42, "time_elapsed": 1311079, "internal_node_id": "0.0-6.0-1.0-33.0"}}, {"uniqueid": "w42787440:a75482487", "current_trial": 43, "dateTime": 1693482076080, "trialdata": {"revealed_states": [], "clicked_states": ["17", "16", "6", "5", "9", "11", "20"], "num_clicks_accrued": [0, 0, 0, 0, 0, 0, 0, 0, 0, 0, 0, 0, 0], "stateRewards": ["", -1, -2, 4, 9, 10, -75, 39, 16, -43, 88, -19, -1, 1, 2, 4, -31, 10, 73, 12, 41, -64, -81, -2, 2, -6, 1, -81, -1, -26, 3, -59, -3, -20], "withholdReward": false, "trial_id": "mdp_trial_35", "block": "test", "trialIndex": 36, "score": 45.2, "costs": -9.8, "simulationMode": [null, null, null, null, null], "rewards": [-1, 1, 2, 12, 41], "path": ["0", "0", "12", "13", "14", "19", "20"], "rt": [17490, 45, 47, 19, 86], "actions": ["right", "right", "right", "down", "right"], "actionTimes": [18762, 19322, 19904, 20459, 21091], "queries": {"click": {"state": {"target": ["17", "16", "6", "5", "9", "11", "20"], "time": [2625, 4679, 6752, 8767, 11056, 13149, 16151]}, "edge": {"target": [], "time": []}}, "mouseover": {"state": {"target": ["14", "17", "16", "6", "5", "9", "11", "10", "14", "20"], "time": [2118, 2470, 3119, 5430, 7275, 9413, 11931, 13633, 15595, 16012]}, "edge": {"target": [], "time": []}}, "mouseout": {"state": {"target": ["0", "14", "17", "16", "6", "5", "9", "11", "10", "14", "20"], "time": [1851, 2353, 3001, 5368, 7094, 9345, 11789, 13548, 15361, 15655, 16897]}, "edge": {"target": [], "time": []}}}, "displayed_time": "21.60", "trialTime": 24452, "trial_type": "mouselab-mdp", "trial_index": 43, "time_elapsed": 1336001, "internal_node_id": "0.0-6.0-1.0-34.0"}}, {"uniqueid": "w42787440:a75482487", "current_trial": 44, "dateTime": 1693482094087, "trialdata": {"revealed_states": [], "clicked_states": ["32", "33"], "num_clicks_accrued": [0, 0, 0, 0, 0, 0, 0, 0, 0, 0, 0, 0, 0], "stateRewards": ["", -2, 2, -1, -6, 22, 6, 6, -5, 70, -42, 65, 1, 3, 5, -6, -67, -9, 3, 14, 7, -62, -13, -2, 4, 1, 16, 42, -21, -52, -8, 32, 53, 81], "withholdReward": false, "trial_id": "mdp_trial_36", "block": "test", "trialIndex": 37, "score": 73.2, "costs": -2.8, "simulationMode": [null, null, null, null, null], "rewards": [-2, 4, 1, -8, 81], "path": ["0", "0", "23", "24", "25", "30", "33"], "rt": [5997, 280, 100, 137, 1453], "actions": ["left", "left", "left", "down", "left"], "actionTimes": [7207, 8012, 8645, 9289, 11264], "queries": {"click": {"state": {"target": ["32", "33"], "time": [1935, 4207]}, "edge": {"target": [], "time": []}}, "mouseover": {"state": {"target": ["0", "32", "33", "31"], "time": [1365, 1730, 2539, 4706]}, "edge": {"target": [], "time": []}}, "mouseout": {"state": {"target": ["0", "0", "32", "33"], "time": [661, 1418, 2462, 4631]}, "edge": {"target": [], "time": []}}}, "displayed_time": "15.21", "trialTime": 17522, "trial_type": "mouselab-mdp", "trial_index": 44, "time_elapsed": 1354007, "internal_node_id": "0.0-6.0-1.0-35.0"}}, {"uniqueid": "w42787440:a75482487", "current_trial": 45, "dateTime": 1693482112261, "trialdata": {"revealed_states": [], "clicked_states": ["16", "17", "20"], "num_clicks_accrued": [0, 0, 0, 0, 0, 0, 0, 0, 0, 0, 0, 0, 0], "stateRewards": ["", -1, 2, 6, 11, 21, -21, -21, -6, 48, -71, 88, -1, -3, 3, 7, 64, 2, 9, -4, 37, -67, 72, 2, 2, -8, -8, -10, 71, -40, -3, 73, 80, 47], "withholdReward": false, "trial_id": "mdp_trial_37", "block": "test", "trialIndex": 38, "score": 65.8, "costs": -4.199999999999999, "simulationMode": [null, null, null, null, null], "rewards": [-1, -3, 3, 7, 64], "path": ["0", "0", "12", "13", "14", "15", "16"], "rt": [8476, 52, 87, 33, 38], "actions": ["right", "right", "right", "up", "up"], "actionTimes": [9835, 10411, 11044, 11593, 12163], "queries": {"click": {"state": {"target": ["16", "17", "20"], "time": [2439, 4645, 6700]}, "edge": {"target": [], "time": []}}, "mouseover": {"state": {"target": ["22", "13", "16", "17", "20"], "time": [1864, 2027, 2265, 3503, 5553]}, "edge": {"target": [], "time": []}}, "mouseout": {"state": {"target": ["31", "0", "22", "13", "16", "16", "17", "20"], "time": [476, 1747, 1999, 2067, 2937, 3236, 5114, 16226]}, "edge": {"target": [], "time": []}}}, "displayed_time": "15.36", "trialTime": 17743, "trial_type": "mouselab-mdp", "trial_index": 45, "time_elapsed": 1372181, "internal_node_id": "0.0-6.0-1.0-36.0"}}, {"uniqueid": "w42787440:a75482487", "current_trial": 46, "dateTime": 1693482134789, "trialdata": {"revealed_states": [], "clicked_states": ["29", "27", "33"], "num_clicks_accrued": [0, 0, 0, 0, 0, 0, 0, 0, 0, 0, 0, 0, 0], "stateRewards": ["", 2, -1, -4, -13, 74, 77, 3, 2, -43, -2, -11, 2, 3, 7, 11, -26, -29, -33, -3, -3, -13, -3, 1, 3, -7, 14, -59, 33, 9, -5, 34, 79, 68], "withholdReward": false, "trial_id": "mdp_trial_38", "block": "test", "trialIndex": 39, "score": 55.8, "costs": -4.199999999999999, "simulationMode": [null, null, null, null, null], "rewards": [1, 3, -7, -5, 68], "path": ["0", "0", "23", "24", "25", "30", "33"], "rt": [9426, 149, 118, 21, 132], "actions": ["left", "left", "left", "down", "left"], "actionTimes": [10781, 11437, 12076, 12609, 13240], "queries": {"click": {"state": {"target": ["29", "27", "33"], "time": [2780, 4741, 6898]}, "edge": {"target": [], "time": []}}, "mouseover": {"state": {"target": ["23", "25", "25", "26", "29", "27", "33", "32"], "time": [1851, 2113, 2329, 2448, 2663, 3282, 5638, 7703]}, "edge": {"target": [], "time": []}}, "mouseout": {"state": {"target": ["0", "23", "25", "25", "26", "29", "27", "33"], "time": [1827, 1897, 2197, 2353, 2478, 2880, 5400, 7580]}, "edge": {"target": [], "time": []}}}, "displayed_time": "15.36", "trialTime": 21982, "trial_type": "mouselab-mdp", "trial_index": 46, "time_elapsed": 1394710, "internal_node_id": "0.0-6.0-1.0-37.0"}}, {"uniqueid": "w42787440:a75482487", "current_trial": 47, "dateTime": 1693482152361, "trialdata": {"revealed_states": [], "clicked_states": ["9", "11", "27", "29"], "num_clicks_accrued": [0, 0, 0, 0, 0, 0, 0, 0, 0, 0, 0, 0, 0], "stateRewards": ["", -1, -3, 4, -10, -5, 79, -87, -2, 53, 29, -20, -2, -1, -5, 10, 27, 86, 46, -16, -29, 40, 3, 2, 4, -1, -6, 37, 79, -29, 7, 86, -62, 29], "withholdReward": false, "trial_id": "mdp_trial_39", "block": "test", "trialIndex": 40, "score": 45.4, "costs": -5.6, "simulationMode": [null, null, null, null, null], "rewards": [-1, -3, 4, -2, 53], "path": ["0", "0", "1", "2", "3", "8", "9"], "rt": [9796, 17, 49, 541, 142], "actions": ["up", "up", "up", "left", "up"], "actionTimes": [10798, 11340, 11906, 12995, 13645], "queries": {"click": {"state": {"target": ["9", "11", "27", "29"], "time": [1812, 3980, 5907, 8588]}, "edge": {"target": [], "time": []}}, "mouseover": {"state": {"target": ["10", "8", "9", "11", "27", "29"], "time": [1367, 1422, 1719, 2335, 5165, 6489]}, "edge": {"target": [], "time": []}}, "mouseout": {"state": {"target": ["32", "0", "10", "8", "9", "11", "27", "29", "30"], "time": [214, 1235, 1391, 1485, 2161, 4797, 6355, 16744, 16836]}, "edge": {"target": [], "time": []}}}, "displayed_time": "15.00", "trialTime": 17066, "trial_type": "mouselab-mdp", "trial_index": 47, "time_elapsed": 1412281, "internal_node_id": "0.0-6.0-1.0-38.0"}}, {"uniqueid": "w42787440:a75482487", "current_trial": 48, "dateTime": 1693482176377, "trialdata": {"revealed_states": [], "clicked_states": ["5", "6", "16", "17", "21", "20", "32"], "num_clicks_accrued": [0, 0, 0, 0, 0, 0, 0, 0, 0, 0, 0, 0, 0], "stateRewards": ["", 1, -4, -6, -1, -21, 17, -72, 10, 77, 67, -46, -1, 4, -2, 14, -66, -49, -45, -15, -52, 23, -67, 2, -2, -2, 15, -3, 45, -64, 5, -44, 83, 61], "withholdReward": false, "trial_id": "mdp_trial_40", "block": "test", "trialIndex": 41, "score": 76.2, "costs": -9.8, "simulationMode": [null, null, null, null, null], "rewards": [2, -2, -2, 5, 83], "path": ["0", "0", "23", "24", "25", "30", "32"], "rt": [17173, 105, 89, 22, 54], "actions": ["left", "left", "left", "down", "down"], "actionTimes": [18083, 18710, 19327, 19874, 20478], "queries": {"click": {"state": {"target": ["5", "6", "16", "17", "21", "20", "32"], "time": [1641, 4034, 6232, 8425, 10803, 12994, 15665]}, "edge": {"target": [], "time": []}}, "mouseover": {"state": {"target": ["7", "4", "5", "9", "4", "6", "16", "17", "20", "21", "20", "19", "31", "32"], "time": [1245, 1303, 1446, 2743, 3749, 3950, 4522, 8192, 10446, 10631, 11352, 14975, 15239, 15574]}, "edge": {"target": [], "time": []}}, "mouseout": {"state": {"target": ["0", "7", "4", "5", "9", "4", "6", "6", "16", "17", "20", "21", "20", "19", "31", "32"], "time": [1144, 1276, 1329, 2223, 3548, 3800, 4151, 4495, 8057, 10297, 10531, 11229, 14954, 15006, 15265, 21901]}, "edge": {"target": [], "time": []}}}, "displayed_time": "21.00", "trialTime": 23424, "trial_type": "mouselab-mdp", "trial_index": 48, "time_elapsed": 1436297, "internal_node_id": "0.0-6.0-1.0-39.0"}}, {"uniqueid": "w42787440:a75482487", "current_trial": 49, "dateTime": 1693482243716, "trialdata": {"rt": 67335, "response": {"Q0": "$-2 to $2", "Q1": "$-4 to $4", "Q2": "$-88 to $88", "Q3": "The cost was always $1.4.", "Q4": "Very motivated"}, "question_order": [0, 1, 2, 3, 4], "trial_id": "final_quiz_control", "trial_type": "survey-multi-choice", "trial_index": 49, "time_elapsed": 1503637, "internal_node_id": "0.0-6.0-2.0"}}, {"uniqueid": "w42787440:a75482487", "current_trial": 50, "dateTime": 1693482394982, "trialdata": {"rt": 151252, "response": {"Q0": "I used the node inspector to inspect the nodes at the end point. I'd go for the highest value in green that I saw within 5-8 clicks of using the node inspector.", "Q1": "Not really. I figured there would be no strategy since everything is randomized. But I'm not super clever, so perhaps that's why I couldn't figure out a strategy.", "Q2": "What made it difficult was the time limit."}, "trial_id": "self_report_control", "trial_type": "survey-text", "trial_index": 50, "time_elapsed": 1654902, "internal_node_id": "0.0-6.0-3.0"}}, {"uniqueid": "w42787440:a75482487", "current_trial": 51, "dateTime": 1693482427500, "trialdata": {"rt": 32513, "response": {"gender": "female", "age": "43", "colorblind": "0", "effort": "0"}, "trial_type": "survey-html-form", "trial_index": 51, "time_elapsed": 1687420, "internal_node_id": "0.0-6.0-4.0"}}, {"uniqueid": "w42787440:a75482487", "current_trial": 52, "dateTime": 1693482464635, "trialdata": {"rt": 37126, "response": {"Q0": "Nothing was confusing or hard to understand.", "Q1": "I have never completed in this before.", "Q2": "This was fun."}, "trial_type": "survey-text", "trial_index": 52, "time_elapsed": 1724556, "internal_node_id": "0.0-6.0-5.0"}}, {"uniqueid": "w42787440:a75482487", "current_trial": 53, "dateTime": 1693482492763, "trialdata": {"rt": 28123, "stimulus": "<h1>Completion Code Instructions (1/2)</h1>\n<br><br><br><br>\nYou have reached the end of the experiment! The completion code consists of two parts: (1) a code with 2 characters (2) a code with 6 characters. On this page, you will receive the second part of the code. The first part of the completion code will be on the next page.\n<br><br>\nThe second part of your completion code is: <b>EWEK22</b>\n<br><br>\nPlease note this down. Then, press 'Finish HIT' in order to find the first part of your completion code. Once the data has been saved, you will receive this code either in this window or in the original browser window where you started the experiment.\n", "response": 0, "trial_type": "html-button-response", "trial_index": 53, "time_elapsed": 1752684, "internal_node_id": "0.0-6.0-6.0"}}, {"uniqueid": "w42787440:a75482487", "current_trial": 54, "dateTime": 1693482493769, "trialdata": {"success": true, "trial_type": "fullscreen", "trial_index": 54, "time_elapsed": 1753690, "internal_node_id": "0.0-7.0"}}], "questiondata": {"params": {"CODE": "C6DMOQA6", "MIN_TIME": 14, "inspectCost": 1, "startTime": "Thu Aug 31 2023 13:18:58 GMT+0200 (South Africa Standard Time)", "bonusRate": 0.002, "variance": "1_2_4_8_44", "branching": "31123"}, "final_score": 2161.4}, "eventdata": [{"eventtype": "initialized", "value": null, "timestamp": 1693480737865, "interval": 0}, {"eventtype": "window_resize", "value": [1024, 767], "timestamp": 1693480737865, "interval": 0}, {"eventtype": "window_resize", "value": [1024, 767], "timestamp": 1693480738336, "interval": 471}, {"eventtype": "window_resize", "value": [1680, 1050], "timestamp": 1693480745437, "interval": 7101}, {"eventtype": "focus", "value": "off", "timestamp": 1693482487777, "interval": 1742340}, {"eventtype": "focus", "value": "on", "timestamp": 1693482492649, "interval": 4872}, {"eventtype": "window_resize", "value": [1024, 767], "timestamp": 1693482493005, "interval": 356}], "useragent": "Mozilla/5.0 (Windows NT 10.0; Win64; x64) AppleWebKit/537.36 (KHTML, like Gecko) Chrome/116.0.0.0 Safari/537.36", "mode": "live", "id": "w42787440:a75482487", "status": "user data saved", "Beginhit": "2023-08-31 11:18:58.523051", "Beginexp": "2023-08-31 11:19:09.774884", "Endhit": "2023-08-31 11:48:18.671446", "psiturkStatus": 3, "browser": "<redacted>", "platform": "windows", "language": "en-US"}