{"condition": 1, "counterbalance": 0, "assignmentId": "a46884916", "workerId": "w49794839", "hitId": "h15602943", "currenttrial": 56, "bonus": 0, "data": [{"uniqueid": "w49794839:a46884916", "current_trial": 0, "dateTime": 1693582510555, "trialdata": {"success": true, "trial_type": "fullscreen", "trial_index": 0, "time_elapsed": 6069, "internal_node_id": "0.0-0.0"}}, {"uniqueid": "w49794839:a46884916", "current_trial": 1, "dateTime": 1693582529394, "trialdata": {"view_history": [{"page_index": 0, "viewing_time": 18835}], "rt": 18835, "trial_id": "exp_instructions_misaligned", "trial_type": "instructions", "trial_index": 1, "time_elapsed": 24908, "internal_node_id": "0.0-1.0"}}, {"uniqueid": "w49794839:a46884916", "current_trial": 2, "dateTime": 1693582780770, "trialdata": {"view_history": [{"page_index": 0, "viewing_time": 100183}, {"page_index": 1, "viewing_time": 106902}, {"page_index": 2, "viewing_time": 10909}, {"page_index": 3, "viewing_time": 33390}], "rt": 251385, "trial_id": "mouselab_instructions_1_misaligned", "trial_type": "instructions", "trial_index": 2, "time_elapsed": 276284, "internal_node_id": "0.0-2.0-1.0"}}, {"uniqueid": "w49794839:a46884916", "current_trial": 3, "dateTime": 1693582828806, "trialdata": {"revealed_states": [], "clicked_states": ["1", "2", "8"], "num_clicks_accrued": [0, 0, 0, 0, 0, 0, 0, 0, 0, 0, 0, 0, 0], "stateRewards": ["", 10, 10, -10, -10, 10, -10, -10, 10, -10, -10, -10, 10, 10, 10, -10, 10, -10, -10, -10, -10, 10, 10, 10, -10, 10, 10, -10, -10, -10, -10, -10, -10, -10], "withholdReward": false, "trial_id": "practice_1", "block": "test", "trialIndex": 0, "score": 12, "costs": -1.5, "simulationMode": [null, null, null, null, null], "rewards": [10, 10, -10, 10, -10], "path": ["0", "0", "1", "2", "3", "8", "11"], "rt": [21362, 1206, 392, 360, 5135], "actions": ["up", "up", "up", "left", "left"], "actionTimes": [24333, 26056, 26971, 27841, 33497], "queries": {"click": {"state": {"target": ["1", "2", "8"], "time": [7258, 14124, 16538]}, "edge": {"target": [], "time": []}}, "mouseover": {"state": {"target": ["0", "1", "1", "2", "3", "8", "3"], "time": [3212, 6144, 11911, 13978, 15177, 16428, 17027]}, "edge": {"target": [], "time": []}}, "mouseout": {"state": {"target": ["1", "2", "8", "8", "1", "0", "1", "1", "1", "2", "3", "8", "3", "1", "2", "2", "1", "0", "1", "2", "1", "0", "1", "2", "8", "10", "10"], "time": [526, 612, 661, 1725, 2093, 5777, 8115, 10893, 13660, 15142, 16211, 16828, 17527, 25963, 26013, 36929, 37093, 39777, 40478, 41576, 41627, 41960, 42895, 43926, 45177, 45243, 46059]}, "edge": {"target": [], "time": []}}}, "displayed_time": "34.01", "trialTime": 47342, "trial_type": "mouselab-mdp", "trial_index": 3, "time_elapsed": 324320, "internal_node_id": "0.0-2.0-2.0-0.0"}}, {"uniqueid": "w49794839:a46884916", "current_trial": 4, "dateTime": 1693582858161, "trialdata": {"revealed_states": [], "clicked_states": ["12", "20", "21"], "num_clicks_accrued": [0, 0, 0, 0, 0, 0, 0, 0, 0, 0, 0, 0, 0], "stateRewards": ["", 10, -10, -10, 10, -10, -10, -10, -10, 10, -10, 10, 10, 10, -10, 10, 10, 10, -10, -10, -10, 10, -10, 10, 10, -10, 10, -10, -10, -10, 10, -10, 10, -10], "withholdReward": false, "trial_id": "practice_2", "block": "test", "trialIndex": 1, "score": 12, "costs": -1.5, "simulationMode": [null, null, null, null, null], "rewards": [10, 10, -10, -10, 10], "path": ["0", "0", "12", "13", "14", "19", "21"], "rt": [15250, 152, 204, 164, 4972], "actions": ["right", "right", "right", "down", "down"], "actionTimes": [17170, 17845, 18566, 19240, 24730], "queries": {"click": {"state": {"target": ["12", "20", "21"], "time": [6319, 12030, 13903]}, "edge": {"target": [], "time": []}}, "mouseover": {"state": {"target": ["1", "1", "12", "13", "14", "19", "20", "21", "19"], "time": [4939, 5541, 6091, 7166, 10292, 11406, 11806, 12573, 14256]}, "edge": {"target": [], "time": []}}, "mouseout": {"state": {"target": ["10", "1", "1", "1", "12", "13", "14", "19", "20", "21", "19", "19"], "time": [821, 1189, 5008, 5756, 6740, 10091, 11356, 11625, 12289, 14208, 20136, 23239]}, "edge": {"target": [], "time": []}}}, "displayed_time": "25.24", "trialTime": 28810, "trial_type": "mouselab-mdp", "trial_index": 4, "time_elapsed": 353675, "internal_node_id": "0.0-2.0-2.0-1.0"}}, {"uniqueid": "w49794839:a46884916", "current_trial": 5, "dateTime": 1693582955235, "trialdata": {"view_history": [{"page_index": 0, "viewing_time": 89638}, {"page_index": 1, "viewing_time": 7436}], "rt": 97075, "trial_id": "mouselab_instructions_2_misaligned", "trial_type": "instructions", "trial_index": 5, "time_elapsed": 450748, "internal_node_id": "0.0-2.0-3.0"}}, {"uniqueid": "w49794839:a46884916", "current_trial": 6, "dateTime": 1693582992658, "trialdata": {"rt": 37420, "response": {"Q0": "The cost for clicking on nodes may vary between nodes.", "Q1": "The better I perform the higher my bonus will be.", "Q2": "No, the amount of cash at each node of the web may be different each time.", "Q3": "To get the highest total score.", "Q4": "Only before moving the spider.", "Q5": "3 seconds"}, "question_order": [0, 1, 2, 3, 4, 5], "correct": {"Q0": "The cost for clicking on nodes may vary between nodes.", "Q1": "The better I perform the higher my bonus will be.", "Q2": "No, the amount of cash at each node of the web may be different each time.", "Q3": "To get the highest total score.", "Q4": "Only before moving the spider.", "Q5": "3 seconds"}, "trial_id": "mouselab_quiz_misaligned", "trial_type": "survey-multi-choice", "trial_index": 6, "time_elapsed": 488172, "internal_node_id": "0.0-2.0-4.0"}}, {"uniqueid": "w49794839:a46884916", "current_trial": 7, "dateTime": 1693583014655, "trialdata": {"rt": 21993, "response": {"Q0": "No"}, "question_order": [0], "trial_id": "repeat_check", "trial_type": "survey-multi-choice", "trial_index": 7, "time_elapsed": 510169, "internal_node_id": "0.0-4.0-0.0"}}, {"uniqueid": "w49794839:a46884916", "current_trial": 8, "dateTime": 1693583023822, "trialdata": {"rt": 9162, "stimulus": "\n<h1> Get ready to start the game! </h1>\n\nThank you for reading the instructions. Get ready start with the 40 rounds of this game.\n<br><br>\nIf you need to take a break, feel free to take one after the end of a round, before continuing to the next one.\n<br><br>\nRemember, the more money the spider gets, the bigger your bonus will be!\n<br><br>\n<div style='text-align: center;'>Press <code>space</code> to begin.</div>\n\n<br><br>\n(If, at any point, the <code>space</code> key does not take you to the next page, click once on the text and try again.)", "response": " ", "trial_id": "mdp_ready", "trial_type": "html-keyboard-response", "trial_index": 8, "time_elapsed": 519336, "internal_node_id": "0.0-6.0-0.0"}}, {"uniqueid": "w49794839:a46884916", "current_trial": 9, "dateTime": 1693583043504, "trialdata": {"revealed_states": [], "clicked_states": ["19"], "num_clicks_accrued": [0, 0, 0, 0, 0, 0, 0, 0, 0, 0, 0, 0, 0], "stateRewards": ["", 2, -3, -2, 14, -4, 85, 46, 15, -28, 41, 31, -1, -1, -1, 5, 62, 79, 57, 12, -73, -64, 86, -1, 1, -3, -5, 68, 11, -32, 8, -80, -21, -56], "withholdReward": false, "trial_id": "mdp_trial_1", "block": "test", "trialIndex": 2, "score": -65.55, "costs": -1.55, "simulationMode": [null, null, null, null, null], "rewards": [-1, -1, -1, 12, -73], "path": ["0", "0", "12", "13", "14", "19", "20"], "rt": [6721, 160, 464, 2213, 964], "actions": ["right", "right", "right", "down", "right"], "actionTimes": [9226, 9886, 10860, 13590, 15075], "queries": {"click": {"state": {"target": ["19"], "time": [3869]}, "edge": {"target": [], "time": []}}, "mouseover": {"state": {"target": ["12", "13", "14", "14", "14", "19"], "time": [2941, 2974, 2992, 3141, 3292, 3691]}, "edge": {"target": [], "time": []}}, "mouseout": {"state": {"target": ["12", "0", "12", "13", "14", "14", "14", "19", "19"], "time": [1090, 2925, 2957, 2990, 3041, 3175, 3558, 3973, 5209]}, "edge": {"target": [], "time": []}}}, "displayed_time": "16.51", "trialTime": 19005, "trial_type": "mouselab-mdp", "trial_index": 9, "time_elapsed": 539017, "internal_node_id": "0.0-6.0-1.0-0.0"}}, {"uniqueid": "w49794839:a46884916", "current_trial": 10, "dateTime": 1693583065149, "trialdata": {"revealed_states": [], "clicked_states": ["8", "4"], "num_clicks_accrued": [0, 0, 0, 0, 0, 0, 0, 0, 0, 0, 0, 0, 0], "stateRewards": ["", -1, -3, 1, -4, -48, -63, -49, -2, -84, -19, 65, 2, -2, -2, -12, -4, 59, 9, 6, 75, 69, -13, -1, -3, -3, -2, -37, -68, -36, 13, 32, 18, -14], "withholdReward": false, "trial_id": "mdp_trial_2", "block": "test", "trialIndex": 3, "score": -11.1, "costs": -3.1, "simulationMode": [null, null, null, null, null], "rewards": [-1, -3, -3, 13, -14], "path": ["0", "0", "23", "24", "25", "30", "33"], "rt": [6656, 215, 247, 231, 155], "actions": ["left", "left", "left", "down", "left"], "actionTimes": [9665, 10384, 11149, 11899, 12574], "queries": {"click": {"state": {"target": ["8", "4"], "time": [4762, 7226]}, "edge": {"target": [], "time": []}}, "mouseover": {"state": {"target": ["1", "2", "3", "8", "2", "4", "4", "7", "12"], "time": [3651, 3953, 4252, 4550, 5832, 6016, 6350, 8532, 8767]}, "edge": {"target": [], "time": []}}, "mouseout": {"state": {"target": ["0", "1", "2", "3", "8", "2", "4", "4", "7", "12", "31"], "time": [3399, 3915, 4016, 4436, 5105, 5965, 6134, 7514, 8548, 8816, 18299]}, "edge": {"target": [], "time": []}}}, "displayed_time": "17.01", "trialTime": 21109, "trial_type": "mouselab-mdp", "trial_index": 10, "time_elapsed": 560662, "internal_node_id": "0.0-6.0-1.0-1.0"}}, {"uniqueid": "w49794839:a46884916", "current_trial": 11, "dateTime": 1693583099844, "trialdata": {"revealed_states": [], "clicked_states": ["15", "19", "21"], "num_clicks_accrued": [0, 0, 0, 0, 0, 0, 0, 0, 0, 0, 0, 0, 0], "stateRewards": ["", -1, 1, 8, -3, -24, 11, -65, -6, -77, 48, 44, -2, 1, -2, -7, -55, -35, 33, 8, -28, 19, -53, -1, -1, -5, -5, -70, 10, 44, 8, -58, -70, 51], "withholdReward": false, "trial_id": "mdp_trial_3", "block": "test", "trialIndex": 4, "score": 18.75, "costs": -5.25, "simulationMode": [null, null, null, null, null], "rewards": [-2, 1, -2, 8, 19], "path": ["0", "0", "12", "13", "14", "19", "21"], "rt": [10725, 264, 215, 128, 181], "actions": ["right", "right", "right", "down", "down"], "actionTimes": [12198, 12977, 13712, 14357, 15062], "queries": {"click": {"state": {"target": ["15", "19", "21"], "time": [2910, 4649, 7214]}, "edge": {"target": [], "time": []}}, "mouseover": {"state": {"target": ["12", "13", "14", "15", "14", "19", "13", "1", "1", "12", "22", "21", "22"], "time": [2092, 2132, 2162, 2759, 3892, 4294, 6108, 6241, 6391, 6492, 6660, 7110, 8226]}, "edge": {"target": [], "time": []}}, "mouseout": {"state": {"target": ["12", "13", "14", "15", "14", "19", "19", "13", "1", "1", "12", "22", "21", "22", "21", "21", "22", "22", "13", "12", "0", "23", "0", "23", "24", "25", "26", "28", "23", "2", "7", "0", "2", "7", "4", "2", "10", "1", "1", "2", "8", "10", "0"], "time": [2130, 2148, 2627, 3833, 4110, 4983, 6092, 6125, 6275, 6443, 6509, 6875, 7526, 8258, 8777, 10511, 16726, 17391, 22442, 22578, 23291, 24629, 24942, 25393, 25892, 26392, 26713, 27641, 27725, 28859, 29211, 29476, 29876, 30145, 30591, 30907, 31191, 31308, 31525, 31659, 32727, 32876, 32994]}, "edge": {"target": [], "time": []}}}, "displayed_time": "15.58", "trialTime": 34097, "trial_type": "mouselab-mdp", "trial_index": 11, "time_elapsed": 595357, "internal_node_id": "0.0-6.0-1.0-2.0"}}, {"uniqueid": "w49794839:a46884916", "current_trial": 12, "dateTime": 1693583136339, "trialdata": {"revealed_states": [], "clicked_states": ["28", "31", "11", "6", "16"], "num_clicks_accrued": [0, 0, 0, 0, 0, 0, 0, 0, 0, 0, 0, 0, 0], "stateRewards": ["", -2, -4, -6, 12, -58, -70, -80, 2, 16, -88, -62, 1, 2, -5, 11, 77, -35, -44, -5, 18, -83, 87, 1, -3, -5, 13, -44, -21, -86, 10, -52, 8, 29], "withholdReward": false, "trial_id": "mdp_trial_4", "block": "test", "trialIndex": 5, "score": 75.25, "costs": -10.75, "simulationMode": [null, null, null, null, null], "rewards": [1, 2, -5, 11, 77], "path": ["0", "0", "12", "13", "14", "15", "16"], "rt": [21804, 219, 222, 194, 165], "actions": ["right", "right", "right", "up", "up"], "actionTimes": [23427, 24162, 24896, 25601, 26291], "queries": {"click": {"state": {"target": ["28", "31", "11", "6", "16"], "time": [2960, 7273, 11449, 14800, 18507]}, "edge": {"target": [], "time": []}}, "mouseover": {"state": {"target": ["23", "28", "24", "31", "23", "10", "8", "11", "8", "3", "4", "4", "6", "18", "16", "15", "18", "15", "17"], "time": [2255, 2839, 3572, 3689, 9392, 9455, 9507, 11189, 13788, 13826, 13867, 14477, 14670, 15324, 18272, 19039, 19591, 20207, 20673]}, "edge": {"target": [], "time": []}}, "mouseout": {"state": {"target": ["0", "23", "28", "24", "31", "23", "10", "8", "11", "11", "8", "3", "4", "4", "6", "18", "16", "15", "18", "15", "17", "15", "13", "0"], "time": [2024, 2437, 3423, 3591, 7706, 9409, 9490, 10904, 12122, 13772, 13823, 13844, 13895, 14621, 15124, 15425, 18791, 19225, 20172, 20357, 21988, 27806, 27838, 28990]}, "edge": {"target": [], "time": []}}}, "displayed_time": "26.81", "trialTime": 35906, "trial_type": "mouselab-mdp", "trial_index": 12, "time_elapsed": 631853, "internal_node_id": "0.0-6.0-1.0-3.0"}}, {"uniqueid": "w49794839:a46884916", "current_trial": 13, "dateTime": 1693583159725, "trialdata": {"revealed_states": [], "clicked_states": ["22"], "num_clicks_accrued": [0, 0, 0, 0, 0, 0, 0, 0, 0, 0, 0, 0, 0], "stateRewards": ["", 2, -2, 7, -11, -76, -65, -23, 16, -58, 30, 81, 1, 2, 7, 14, 9, 55, -2, 6, 11, -15, 31, -1, -1, -3, 2, 15, 2, 46, 15, 18, 45, -34], "withholdReward": false, "trial_id": "mdp_trial_5", "block": "test", "trialIndex": 6, "score": 44.85, "costs": -2.15, "simulationMode": [null, null, null, null, null], "rewards": [1, 2, 7, 6, 31], "path": ["0", "0", "12", "13", "14", "19", "22"], "rt": [5510, 185, 146, 110, 137], "actions": ["right", "right", "right", "down", "left"], "actionTimes": [7348, 8052, 8712, 9342, 10002], "queries": {"click": {"state": {"target": ["22"], "time": [2968]}, "edge": {"target": [], "time": []}}, "mouseover": {"state": {"target": ["0", "19", "20", "22", "13", "16", "15", "14", "19"], "time": [2195, 2398, 2481, 2729, 3980, 4097, 4663, 4747, 4847]}, "edge": {"target": [], "time": []}}, "mouseout": {"state": {"target": ["5", "4", "7", "12", "0", "0", "19", "20", "22", "13", "16", "15", "14", "19", "22"], "time": [62, 96, 111, 163, 810, 2212, 2413, 2513, 3947, 4014, 4631, 4698, 4786, 4864, 11498]}, "edge": {"target": [], "time": []}}}, "displayed_time": "15.84", "trialTime": 22782, "trial_type": "mouselab-mdp", "trial_index": 13, "time_elapsed": 655238, "internal_node_id": "0.0-6.0-1.0-4.0"}}, {"uniqueid": "w49794839:a46884916", "current_trial": 14, "dateTime": 1693583181535, "trialdata": {"revealed_states": [], "clicked_states": ["22", "18"], "num_clicks_accrued": [0, 0, 0, 0, 0, 0, 0, 0, 0, 0, 0, 0, 0], "stateRewards": ["", 1, -2, 4, 7, -43, -83, -60, -5, -86, -80, 83, -1, -2, 6, 11, -15, 21, 13, 9, 29, -49, 11, -1, 4, -6, -11, 87, 40, 63, -8, -39, -11, 62], "withholdReward": false, "trial_id": "mdp_trial_6", "block": "test", "trialIndex": 7, "score": 22.7, "costs": -4.3, "simulationMode": [null, null, null, null, null], "rewards": [-1, -2, 6, 11, 13], "path": ["0", "0", "12", "13", "14", "15", "18"], "rt": [8702, 90, 103, 193, 90], "actions": ["right", "right", "right", "up", "left"], "actionTimes": [11751, 12364, 12979, 13684, 14299], "queries": {"click": {"state": {"target": ["22", "18"], "time": [4081, 7749]}, "edge": {"target": [], "time": []}}, "mouseover": {"state": {"target": ["12", "13", "22", "13", "18"], "time": [3421, 3689, 4006, 4406, 4490]}, "edge": {"target": [], "time": []}}, "mouseout": {"state": {"target": ["0", "12", "13", "22", "13", "18", "18", "1"], "time": [3403, 3436, 3836, 4187, 4455, 7867, 19471, 20074]}, "edge": {"target": [], "time": []}}}, "displayed_time": "17.06", "trialTime": 21184, "trial_type": "mouselab-mdp", "trial_index": 14, "time_elapsed": 677048, "internal_node_id": "0.0-6.0-1.0-5.0"}}, {"uniqueid": "w49794839:a46884916", "current_trial": 15, "dateTime": 1693583201695, "trialdata": {"revealed_states": [], "clicked_states": ["9", "5"], "num_clicks_accrued": [0, 0, 0, 0, 0, 0, 0, 0, 0, 0, 0, 0, 0], "stateRewards": ["", -1, 3, -4, -14, 78, 67, 2, 13, -32, 28, 39, -2, 1, -4, -4, -4, -42, -86, 11, 64, -29, -32, -1, -4, 2, -7, 5, 68, -61, 2, -21, 85, 50], "withholdReward": false, "trial_id": "mdp_trial_7", "block": "test", "trialIndex": 8, "score": 57.7, "costs": -4.3, "simulationMode": [null, null, null, null, null], "rewards": [-1, 3, -4, -14, 78], "path": ["0", "0", "1", "2", "3", "4", "5"], "rt": [9070, 360, 287, 239, 280], "actions": ["up", "up", "up", "right", "up"], "actionTimes": [10793, 11678, 12487, 13237, 14033], "queries": {"click": {"state": {"target": ["9", "5"], "time": [3064, 6570]}, "edge": {"target": [], "time": []}}, "mouseover": {"state": {"target": ["1", "10", "8", "9", "5", "6", "15", "17", "16"], "time": [2046, 2481, 2665, 2880, 3786, 7149, 7547, 7915, 9750]}, "edge": {"target": [], "time": []}}, "mouseout": {"state": {"target": ["0", "1", "10", "8", "9", "5", "6", "15", "17", "16", "15", "18", "12"], "time": [1771, 2083, 2650, 2697, 3390, 7012, 7264, 7571, 8015, 15330, 15348, 15365, 15381]}, "edge": {"target": [], "time": []}}}, "displayed_time": "15.73", "trialTime": 19538, "trial_type": "mouselab-mdp", "trial_index": 15, "time_elapsed": 697209, "internal_node_id": "0.0-6.0-1.0-6.0"}}, {"uniqueid": "w49794839:a46884916", "current_trial": 16, "dateTime": 1693583228996, "trialdata": {"revealed_states": [], "clicked_states": ["22", "18"], "num_clicks_accrued": [0, 0, 0, 0, 0, 0, 0, 0, 0, 0, 0, 0, 0], "stateRewards": ["", -1, -3, 3, 5, 56, 39, 50, -1, -80, 33, -46, 1, -2, -6, -8, 87, 48, 54, -11, -20, -64, -54, -2, 3, -7, -3, 12, 88, 35, -16, -46, -70, -3], "withholdReward": false, "trial_id": "mdp_trial_8", "block": "test", "trialIndex": 9, "score": 34.7, "costs": -4.3, "simulationMode": [null, null, null, null, null], "rewards": [1, -2, -6, -8, 54], "path": ["0", "0", "12", "13", "14", "15", "18"], "rt": [9221, 98, 141, 132, 80], "actions": ["right", "right", "right", "up", "left"], "actionTimes": [11527, 12157, 12817, 13477, 14077], "queries": {"click": {"state": {"target": ["22", "18"], "time": [3535, 7610]}, "edge": {"target": [], "time": []}}, "mouseover": {"state": {"target": ["0", "22", "13", "18"], "time": [2633, 3167, 4324, 4783]}, "edge": {"target": [], "time": []}}, "mouseout": {"state": {"target": ["0", "0", "22", "13", "18"], "time": [1251, 3084, 4302, 4350, 8800]}, "edge": {"target": [], "time": []}}}, "displayed_time": "16.32", "trialTime": 26708, "trial_type": "mouselab-mdp", "trial_index": 16, "time_elapsed": 724510, "internal_node_id": "0.0-6.0-1.0-7.0"}}, {"uniqueid": "w49794839:a46884916", "current_trial": 17, "dateTime": 1693583262731, "trialdata": {"revealed_states": [], "clicked_states": ["9", "5", "15", "20", "33"], "num_clicks_accrued": [0, 0, 0, 0, 0, 0, 0, 0, 0, 0, 0, 0, 0], "stateRewards": ["", -2, -4, 6, 14, -34, 49, 36, -8, -3, 32, -4, 1, -2, 1, -8, -20, -71, -57, -7, -86, -62, -16, -2, -3, -5, 11, 23, -21, 53, 5, -5, 85, 73], "withholdReward": false, "trial_id": "mdp_trial_9", "block": "test", "trialIndex": 10, "score": 57.85, "costs": -10.15, "simulationMode": [null, null, null, null, null], "rewards": [-2, -3, -5, 5, 73], "path": ["0", "0", "23", "24", "25", "30", "33"], "rt": [16148, 209, 181, 128, 153], "actions": ["left", "left", "left", "down", "left"], "actionTimes": [17948, 18667, 19372, 20002, 20677], "queries": {"click": {"state": {"target": ["9", "5", "15", "20", "33"], "time": [2618, 5853, 9519, 10755, 14240]}, "edge": {"target": [], "time": []}}, "mouseover": {"state": {"target": ["10", "8", "9", "5", "4", "15", "15", "14", "20", "17", "13", "12", "31", "30", "33", "25", "30", "32"], "time": [2174, 2223, 2391, 3174, 6274, 6608, 6931, 10107, 10622, 11790, 12907, 13067, 13789, 13972, 14022, 14839, 15573, 15691]}, "edge": {"target": [], "time": []}}, "mouseout": {"state": {"target": ["7", "10", "10", "8", "9", "5", "4", "15", "15", "14", "20", "17", "13", "12", "31", "30", "33", "25", "30", "32", "22", "24", "28", "1", "23", "24", "29", "25", "24", "28", "8", "9", "10", "2", "7", "2", "8", "3", "2", "1", "1", "2", "3", "8", "11", "23"], "time": [19, 55, 2190, 2308, 2907, 6225, 6473, 6695, 10009, 10209, 11291, 12858, 12956, 13111, 13939, 14007, 14629, 15539, 15623, 22339, 22506, 23189, 23272, 24938, 25054, 25207, 25805, 25989, 26041, 26073, 26173, 26689, 26939, 26989, 27607, 27639, 27707, 28472, 28606, 28907, 29724, 30124, 30956, 31206, 31288, 31638]}, "edge": {"target": [], "time": []}}}, "displayed_time": "21.19", "trialTime": 33082, "trial_type": "mouselab-mdp", "trial_index": 17, "time_elapsed": 758244, "internal_node_id": "0.0-6.0-1.0-8.0"}}, {"uniqueid": "w49794839:a46884916", "current_trial": 18, "dateTime": 1693583282215, "trialdata": {"revealed_states": [], "clicked_states": ["32", "28"], "num_clicks_accrued": [0, 0, 0, 0, 0, 0, 0, 0, 0, 0, 0, 0, 0], "stateRewards": ["", -2, -3, -7, 7, -54, -69, -4, -14, -77, 22, 40, -2, -1, 5, 6, -35, 50, -60, 10, -28, 75, 57, 1, -4, -2, 2, 68, 34, -18, 12, 3, -21, -43], "withholdReward": false, "trial_id": "mdp_trial_10", "block": "test", "trialIndex": 11, "score": 26.7, "costs": -4.3, "simulationMode": [null, null, null, null, null], "rewards": [1, -4, -2, 2, 34], "path": ["0", "0", "23", "24", "25", "26", "28"], "rt": [9427, 37, 150, 127, 108], "actions": ["left", "left", "left", "up", "right"], "actionTimes": [11389, 11942, 12602, 13247, 13878], "queries": {"click": {"state": {"target": ["32", "28"], "time": [2861, 7052]}, "edge": {"target": [], "time": []}}, "mouseover": {"state": {"target": ["32", "31", "24", "28"], "time": [2765, 6286, 6669, 6933]}, "edge": {"target": [], "time": []}}, "mouseout": {"state": {"target": ["0", "32", "31", "24", "28", "1", "15", "7", "12", "0", "1"], "time": [2350, 3153, 6635, 6751, 7402, 15249, 15899, 16383, 16502, 17067, 17451]}, "edge": {"target": [], "time": []}}}, "displayed_time": "15.96", "trialTime": 18812, "trial_type": "mouselab-mdp", "trial_index": 18, "time_elapsed": 777729, "internal_node_id": "0.0-6.0-1.0-9.0"}}, {"uniqueid": "w49794839:a46884916", "current_trial": 19, "dateTime": 1693583322176, "trialdata": {"revealed_states": [], "clicked_states": ["17", "20", "22", "5", "9", "11", "28", "31"], "num_clicks_accrued": [0, 0, 0, 0, 0, 0, 0, 0, 0, 0, 0, 0, 0], "stateRewards": ["", -1, -4, 8, 8, -68, 47, 24, -7, -61, 49, -69, -1, -1, 8, -7, 42, 1, -45, -11, 10, -63, -6, 1, 4, 6, -16, 79, -37, -58, -12, 81, 18, -53], "withholdReward": false, "trial_id": "mdp_trial_11", "block": "test", "trialIndex": 12, "score": 62.8, "costs": -17.2, "simulationMode": [null, null, null, null, null], "rewards": [1, 4, 6, -12, 81], "path": ["0", "0", "23", "24", "25", "30", "31"], "rt": [30162, 74, 196, 122, 120], "actions": ["left", "left", "left", "down", "right"], "actionTimes": [31805, 32389, 33094, 33739, 34369], "queries": {"click": {"state": {"target": ["17", "20", "22", "5", "9", "11", "28", "31"], "time": [3254, 6869, 10258, 13515, 17067, 20836, 24400, 28147]}, "edge": {"target": [], "time": []}}, "mouseover": {"state": {"target": ["12", "13", "14", "17", "20", "19", "22", "22", "7", "4", "5", "5", "6", "15", "4", "9", "11", "28", "24", "31"], "time": [2613, 2650, 2696, 3162, 4098, 8616, 8670, 9045, 10865, 10904, 10957, 11346, 14781, 14949, 15389, 16982, 17998, 24265, 27714, 28032]}, "edge": {"target": [], "time": []}}, "mouseout": {"state": {"target": ["12", "13", "14", "17", "20", "19", "22", "22", "7", "4", "5", "5", "6", "15", "4", "9", "9", "11", "28", "24", "31", "31", "21", "14", "15", "3", "9", "8", "10", "0"], "time": [2629, 2681, 2745, 3830, 8598, 8650, 8719, 10731, 10885, 10938, 11215, 14664, 14799, 15130, 15439, 17431, 17813, 22283, 25396, 27946, 28166, 28430, 37079, 37130, 37280, 37497, 37729, 38113, 38146, 38214]}, "edge": {"target": [], "time": []}}}, "displayed_time": "34.88", "trialTime": 39318, "trial_type": "mouselab-mdp", "trial_index": 19, "time_elapsed": 817689, "internal_node_id": "0.0-6.0-1.0-10.0"}}, {"uniqueid": "w49794839:a46884916", "current_trial": 20, "dateTime": 1693583340686, "trialdata": {"revealed_states": [], "clicked_states": ["27", "6"], "num_clicks_accrued": [0, 0, 0, 0, 0, 0, 0, 0, 0, 0, 0, 0, 0], "stateRewards": ["", -2, 4, -7, -3, -76, 39, -28, 10, 14, 12, 60, 2, -3, 6, -10, 88, -34, -41, -3, 72, -13, -56, 1, 3, 2, 8, -51, 23, -57, 1, 14, -46, -16], "withholdReward": false, "trial_id": "mdp_trial_12", "block": "test", "trialIndex": 13, "score": 26.7, "costs": -4.3, "simulationMode": [null, null, null, null, null], "rewards": [-2, 4, -7, -3, 39], "path": ["0", "0", "1", "2", "3", "4", "6"], "rt": [9552, 76, 138, 70, 43], "actions": ["up", "up", "up", "right", "right"], "actionTimes": [11992, 12576, 13221, 13806, 14376], "queries": {"click": {"state": {"target": ["27", "6"], "time": [3994, 7953]}, "edge": {"target": [], "time": []}}, "mouseover": {"state": {"target": ["0", "23", "24", "27", "7", "4", "6"], "time": [2881, 3169, 3281, 3881, 7549, 7582, 7617]}, "edge": {"target": [], "time": []}}, "mouseout": {"state": {"target": ["0", "0", "23", "24", "27", "7", "4", "6", "6", "7", "24", "33"], "time": [632, 3132, 3233, 3564, 7398, 7565, 7600, 7973, 8350, 15764, 15830, 15930]}, "edge": {"target": [], "time": []}}}, "displayed_time": "16.44", "trialTime": 17930, "trial_type": "mouselab-mdp", "trial_index": 20, "time_elapsed": 836199, "internal_node_id": "0.0-6.0-1.0-11.0"}}, {"uniqueid": "w49794839:a46884916", "current_trial": 21, "dateTime": 1693583362827, "trialdata": {"revealed_states": [], "clicked_states": ["21"], "num_clicks_accrued": [0, 0, 0, 0, 0, 0, 0, 0, 0, 0, 0, 0, 0], "stateRewards": ["", -1, 1, -5, -6, -78, 47, -13, 12, 48, -88, 20, 2, -3, -2, 13, -20, 37, -57, 14, -38, 30, 31, -2, -2, 8, 2, -23, 78, 28, 12, -74, -88, 8], "withholdReward": false, "trial_id": "mdp_trial_13", "block": "test", "trialIndex": 14, "score": 38.85, "costs": -2.15, "simulationMode": [null, null, null, null, null], "rewards": [2, -3, -2, 14, 30], "path": ["0", "0", "12", "13", "14", "19", "21"], "rt": [4904, 31, 83, 652, 177], "actions": ["right", "right", "right", "down", "down"], "actionTimes": [8316, 8855, 9440, 10610, 11300], "queries": {"click": {"state": {"target": ["21"], "time": [4611]}, "edge": {"target": [], "time": []}}, "mouseover": {"state": {"target": ["12", "13", "19", "21", "22", "12"], "time": [4021, 4055, 4305, 4507, 4974, 5044]}, "edge": {"target": [], "time": []}}, "mouseout": {"state": {"target": ["23", "0", "12", "13", "19", "21", "22", "12", "11", "28"], "time": [1106, 3924, 4038, 4172, 4357, 4703, 4993, 5097, 20988, 21038]}, "edge": {"target": [], "time": []}}}, "displayed_time": "17.42", "trialTime": 21546, "trial_type": "mouselab-mdp", "trial_index": 21, "time_elapsed": 858340, "internal_node_id": "0.0-6.0-1.0-12.0"}}, {"uniqueid": "w49794839:a46884916", "current_trial": 22, "dateTime": 1693583380631, "trialdata": {"revealed_states": [], "clicked_states": ["10"], "num_clicks_accrued": [0, 0, 0, 0, 0, 0, 0, 0, 0, 0, 0, 0, 0], "stateRewards": ["", 1, -1, 8, -3, 38, 85, -20, -4, 8, 23, 73, 2, -4, 6, -13, 44, 7, -28, -11, -77, 45, -69, 1, -1, -7, -11, 75, -51, -87, 7, 36, -53, -26], "withholdReward": false, "trial_id": "mdp_trial_14", "block": "test", "trialIndex": 15, "score": 24.85, "costs": -2.15, "simulationMode": [null, null, null, null, null], "rewards": [1, -1, 8, -4, 23], "path": ["0", "0", "1", "2", "3", "8", "10"], "rt": [7810, 59, 122, 13, 62], "actions": ["up", "up", "up", "left", "down"], "actionTimes": [9211, 9766, 10410, 10940, 11535], "queries": {"click": {"state": {"target": ["10"], "time": [3483]}, "edge": {"target": [], "time": []}}, "mouseover": {"state": {"target": ["0", "12", "1", "10", "10", "2", "7"], "time": [1737, 1904, 2670, 3255, 3403, 7221, 7504]}, "edge": {"target": [], "time": []}}, "mouseout": {"state": {"target": ["0", "0", "12", "1", "10", "10", "10", "2", "7", "7"], "time": [870, 1853, 2287, 3039, 3273, 3504, 7204, 7471, 12719, 13537]}, "edge": {"target": [], "time": []}}}, "displayed_time": "15.41", "trialTime": 17115, "trial_type": "mouselab-mdp", "trial_index": 22, "time_elapsed": 876144, "internal_node_id": "0.0-6.0-1.0-13.0"}}, {"uniqueid": "w49794839:a46884916", "current_trial": 23, "dateTime": 1693583400027, "trialdata": {"revealed_states": [], "clicked_states": ["18"], "num_clicks_accrued": [0, 0, 0, 0, 0, 0, 0, 0, 0, 0, 0, 0, 0], "stateRewards": ["", -1, 1, -1, 2, 19, 85, -18, 2, -3, -26, 36, 2, 4, 7, -9, -18, 70, 72, -5, 35, -20, -28, 1, -2, -4, -3, -59, -11, -63, -2, -72, 59, -69], "withholdReward": false, "trial_id": "mdp_trial_15", "block": "test", "trialIndex": 16, "score": 73.85, "costs": -2.15, "simulationMode": [null, null, null, null, null], "rewards": [2, 4, 7, -9, 72], "path": ["0", "0", "12", "13", "14", "15", "18"], "rt": [4765, 62, 93, 90, 76], "actions": ["right", "right", "right", "up", "left"], "actionTimes": [6452, 7022, 7652, 8251, 8837], "queries": {"click": {"state": {"target": ["18"], "time": [2820]}, "edge": {"target": [], "time": []}}, "mouseover": {"state": {"target": ["12", "15", "18"], "time": [2130, 2391, 2676]}, "edge": {"target": [], "time": []}}, "mouseout": {"state": {"target": ["18", "0", "12", "15", "18", "18", "18", "13"], "time": [573, 2093, 2224, 2542, 13940, 14476, 17689, 17759]}, "edge": {"target": [], "time": []}}}, "displayed_time": "15.70", "trialTime": 18631, "trial_type": "mouselab-mdp", "trial_index": 23, "time_elapsed": 895540, "internal_node_id": "0.0-6.0-1.0-14.0"}}, {"uniqueid": "w49794839:a46884916", "current_trial": 24, "dateTime": 1693583427987, "trialdata": {"revealed_states": [], "clicked_states": ["28", "27", "9", "11"], "num_clicks_accrued": [0, 0, 0, 0, 0, 0, 0, 0, 0, 0, 0, 0, 0], "stateRewards": ["", 1, -4, 6, -3, 40, 76, -51, 5, -24, -63, 44, -2, -2, 8, 1, 76, -85, -58, 10, 59, 20, 11, -2, 3, -3, 3, -82, -10, 54, -7, -57, -6, -32], "withholdReward": false, "trial_id": "mdp_trial_16", "block": "test", "trialIndex": 17, "score": 43.4, "costs": -8.6, "simulationMode": [null, null, null, null, null], "rewards": [1, -4, 6, 5, 44], "path": ["0", "0", "1", "2", "3", "8", "11"], "rt": [16540, 102, 189, 31, 156], "actions": ["up", "up", "up", "left", "left"], "actionTimes": [20628, 21242, 21947, 22487, 23147], "queries": {"click": {"state": {"target": ["28", "27", "9", "11"], "time": [6066, 9847, 13087, 16366]}, "edge": {"target": [], "time": []}}, "mouseover": {"state": {"target": ["23", "24", "25", "25", "28", "27", "11", "9", "11", "8", "5", "6", "16", "15", "17", "18"], "time": [4560, 4596, 4631, 4821, 5556, 9671, 10960, 11605, 14096, 16624, 16711, 17151, 17410, 17450, 17772, 19772]}, "edge": {"target": [], "time": []}}, "mouseout": {"state": {"target": ["12", "0", "23", "24", "25", "25", "28", "27", "11", "9", "11", "8", "5", "6", "16", "15", "17", "18", "7", "16", "15"], "time": [971, 4557, 4593, 4614, 4687, 5121, 9355, 10922, 10979, 13658, 16605, 16658, 16766, 17373, 17430, 17469, 19737, 19789, 24505, 24572, 26688]}, "edge": {"target": [], "time": []}}}, "displayed_time": "23.66", "trialTime": 27271, "trial_type": "mouselab-mdp", "trial_index": 24, "time_elapsed": 923500, "internal_node_id": "0.0-6.0-1.0-15.0"}}, {"uniqueid": "w49794839:a46884916", "current_trial": 25, "dateTime": 1693583453203, "trialdata": {"revealed_states": [], "clicked_states": ["17"], "num_clicks_accrued": [0, 0, 0, 0, 0, 0, 0, 0, 0, 0, 0, 0, 0], "stateRewards": ["", -2, -4, -2, 10, -8, -15, -47, 7, -84, 53, 5, -1, 2, -7, 3, 83, 31, 47, -1, 30, -8, 69, 2, -4, -1, 8, -7, 12, -8, -8, -13, 30, -84], "withholdReward": false, "trial_id": "mdp_trial_17", "block": "test", "trialIndex": 18, "score": 25.85, "costs": -2.15, "simulationMode": [null, null, null, null, null], "rewards": [-1, 2, -7, 3, 31], "path": ["0", "0", "12", "13", "14", "15", "17"], "rt": [5708, 42, 137, 102, 86], "actions": ["right", "right", "right", "up", "right"], "actionTimes": [10099, 10668, 11328, 11943, 12543], "queries": {"click": {"state": {"target": ["17"], "time": [6325]}, "edge": {"target": [], "time": []}}, "mouseover": {"state": {"target": ["12", "14", "17", "20"], "time": [4465, 5855, 6156, 6935]}, "edge": {"target": [], "time": []}}, "mouseout": {"state": {"target": ["12", "12", "0", "12", "14", "17", "20", "19", "30", "33", "14", "13", "12"], "time": [16, 3186, 4462, 5790, 5889, 6695, 22838, 22877, 22987, 23054, 23953, 24005, 24070]}, "edge": {"target": [], "time": []}}}, "displayed_time": "18.40", "trialTime": 24438, "trial_type": "mouselab-mdp", "trial_index": 25, "time_elapsed": 948716, "internal_node_id": "0.0-6.0-1.0-16.0"}}, {"uniqueid": "w49794839:a46884916", "current_trial": 26, "dateTime": 1693583474067, "trialdata": {"revealed_states": [], "clicked_states": [], "num_clicks_accrued": [0, 0, 0, 0, 0, 0, 0, 0, 0, 0, 0, 0, 0], "stateRewards": ["", -1, -3, -6, -2, -7, 80, -45, -3, -38, -72, 76, 2, 1, 7, 4, -62, 14, -74, 14, -87, -21, -88, -2, 1, -7, -10, 66, 56, -76, 10, -29, -72, -70], "withholdReward": false, "trial_id": "mdp_trial_18", "block": "test", "trialIndex": 19, "score": -63, "costs": 0, "simulationMode": [null, null, null, null, null], "rewards": [2, 1, 7, 14, -87], "path": ["0", "0", "12", "13", "14", "19", "20"], "rt": [7407, 93, 211, 19, 68], "actions": ["right", "right", "right", "down", "right"], "actionTimes": [9717, 10301, 11021, 11561, 12161], "queries": {"click": {"state": {"target": [], "time": []}, "edge": {"target": [], "time": []}}, "mouseover": {"state": {"target": ["0", "13", "19", "20"], "time": [5239, 5757, 6788, 8207]}, "edge": {"target": [], "time": []}}, "mouseout": {"state": {"target": ["0", "13", "19", "20"], "time": [5705, 6706, 7873, 19140]}, "edge": {"target": [], "time": []}}}, "displayed_time": "16.32", "trialTime": 20171, "trial_type": "mouselab-mdp", "trial_index": 26, "time_elapsed": 969581, "internal_node_id": "0.0-6.0-1.0-17.0"}}, {"uniqueid": "w49794839:a46884916", "current_trial": 27, "dateTime": 1693583508644, "trialdata": {"revealed_states": [], "clicked_states": ["5", "9"], "num_clicks_accrued": [0, 0, 0, 0, 0, 0, 0, 0, 0, 0, 0, 0, 0], "stateRewards": ["", 2, -1, -1, 7, 11, -40, -22, -2, 69, 37, 8, -2, 4, -8, -12, -2, -72, -3, -12, 17, 63, 12, 1, 3, -7, 6, 25, 61, 61, -9, 28, -17, 27], "withholdReward": false, "trial_id": "mdp_trial_19", "block": "test", "trialIndex": 20, "score": 62.7, "costs": -4.3, "simulationMode": [null, null, null, null, null], "rewards": [2, -1, -1, -2, 69], "path": ["0", "0", "1", "2", "3", "8", "9"], "rt": [8426, 59, 136, 55, 132], "actions": ["up", "up", "up", "left", "up"], "actionTimes": [9914, 10498, 11159, 11729, 12389], "queries": {"click": {"state": {"target": ["5", "9"], "time": [2597, 6108]}, "edge": {"target": [], "time": []}}, "mouseover": {"state": {"target": ["1", "3", "5", "9", "10"], "time": [1888, 1928, 2487, 3743, 7326]}, "edge": {"target": [], "time": []}}, "mouseout": {"state": {"target": ["12", "1", "3", "5", "9", "10", "2", "6", "18", "13"], "time": [622, 1925, 1947, 3639, 6606, 32152, 32204, 32288, 32871, 32922]}, "edge": {"target": [], "time": []}}}, "displayed_time": "15.49", "trialTime": 33795, "trial_type": "mouselab-mdp", "trial_index": 27, "time_elapsed": 1004158, "internal_node_id": "0.0-6.0-1.0-18.0"}}, {"uniqueid": "w49794839:a46884916", "current_trial": 28, "dateTime": 1693583559388, "trialdata": {"revealed_states": [], "clicked_states": ["17", "20"], "num_clicks_accrued": [0, 0, 0, 0, 0, 0, 0, 0, 0, 0, 0, 0, 0], "stateRewards": ["", -2, -3, -6, -7, 9, 16, 65, 5, -41, 20, -25, -1, -4, 1, -11, -49, -4, 71, 1, 39, -62, 52, -2, -3, 7, -9, -28, -70, 84, 8, 24, -58, 82], "withholdReward": false, "trial_id": "mdp_trial_20", "block": "test", "trialIndex": 21, "score": 31.7, "costs": -4.3, "simulationMode": [null, null, null, null, null], "rewards": [-1, -4, 1, 1, 39], "path": ["0", "0", "12", "13", "14", "19", "20"], "rt": [10038, 95, 93, 75, 75], "actions": ["right", "right", "right", "down", "right"], "actionTimes": [43777, 44406, 45021, 45621, 46221], "queries": {"click": {"state": {"target": ["17", "20"], "time": [36657, 40275]}, "edge": {"target": [], "time": []}}, "mouseover": {"state": {"target": ["1", "12", "13", "17", "20", "20", "31", "30", "33", "24", "26", "29", "24"], "time": [34378, 35811, 35894, 36525, 39893, 40175, 41029, 41089, 41146, 41455, 41674, 41715, 43647]}, "edge": {"target": [], "time": []}}, "mouseout": {"state": {"target": ["12", "0", "0", "23", "10", "8", "1", "0", "1", "12", "13", "17", "20", "20", "31", "30", "33", "24", "26", "29", "24"], "time": [9693, 9844, 30329, 30361, 30494, 30642, 31026, 33975, 34493, 35848, 35926, 37133, 39927, 40584, 41068, 41109, 41183, 41547, 41694, 43629, 43665]}, "edge": {"target": [], "time": []}}}, "displayed_time": "47.74", "trialTime": 50046, "trial_type": "mouselab-mdp", "trial_index": 28, "time_elapsed": 1054902, "internal_node_id": "0.0-6.0-1.0-19.0"}}, {"uniqueid": "w49794839:a46884916", "current_trial": 29, "dateTime": 1693583584799, "trialdata": {"revealed_states": [], "clicked_states": ["29", "9", "17", "20"], "num_clicks_accrued": [0, 0, 0, 0, 0, 0, 0, 0, 0, 0, 0, 0, 0], "stateRewards": ["", 2, 3, 8, 14, 69, -27, 17, 2, -71, -65, -10, 2, -3, 7, 8, 65, -10, 65, -12, 73, -12, 13, -2, -2, 6, 10, -79, -69, -18, 10, -85, 67, 74], "withholdReward": false, "trial_id": "mdp_trial_21", "block": "test", "trialIndex": 22, "score": 58.4, "costs": -8.6, "simulationMode": [null, null, null, null, null], "rewards": [2, -3, 7, -12, 73], "path": ["0", "0", "12", "13", "14", "19", "20"], "rt": [15463, 73, 122, 34, 76], "actions": ["right", "right", "right", "down", "right"], "actionTimes": [20062, 20647, 21277, 21838, 22432], "queries": {"click": {"state": {"target": ["29", "9", "17", "20"], "time": [5908, 9902, 13170, 16777]}, "edge": {"target": [], "time": []}}, "mouseover": {"state": {"target": ["23", "24", "25", "29", "26", "28", "8", "9", "4", "16", "17", "20", "19", "22"], "time": [5003, 5039, 5237, 5818, 7604, 9286, 9568, 9770, 10266, 10306, 11175, 16652, 17475, 17604]}, "edge": {"target": [], "time": []}}, "mouseout": {"state": {"target": ["0", "23", "24", "25", "29", "26", "28", "8", "9", "9", "4", "16", "17", "20", "20", "19", "22"], "time": [4971, 5020, 5056, 5402, 7364, 7660, 9306, 9705, 9923, 10225, 10287, 10328, 16401, 16800, 17293, 17513, 17730]}, "edge": {"target": [], "time": []}}}, "displayed_time": "22.96", "trialTime": 24667, "trial_type": "mouselab-mdp", "trial_index": 29, "time_elapsed": 1080312, "internal_node_id": "0.0-6.0-1.0-20.0"}}, {"uniqueid": "w49794839:a46884916", "current_trial": 30, "dateTime": 1693583602049, "trialdata": {"revealed_states": [], "clicked_states": ["21", "32"], "num_clicks_accrued": [0, 0, 0, 0, 0, 0, 0, 0, 0, 0, 0, 0, 0], "stateRewards": ["", -2, -1, -3, -1, -78, -6, 2, -1, 22, -88, 32, 2, 2, -7, -8, -51, -17, 54, 2, -44, 54, 75, 2, -2, -8, -15, -29, 12, -67, 15, -1, -47, -47], "withholdReward": false, "trial_id": "mdp_trial_22", "block": "test", "trialIndex": 23, "score": 48.7, "costs": -4.3, "simulationMode": [null, null, null, null, null], "rewards": [2, 2, -7, 2, 54], "path": ["0", "0", "12", "13", "14", "19", "21"], "rt": [8217, 60, 90, 47, 78], "actions": ["right", "right", "right", "down", "down"], "actionTimes": [9528, 10098, 10712, 11268, 11882], "queries": {"click": {"state": {"target": ["21", "32"], "time": [3135, 6327]}, "edge": {"target": [], "time": []}}, "mouseover": {"state": {"target": ["0", "12", "13", "14", "19", "21", "31", "30", "33", "32"], "time": [2322, 2385, 2453, 2552, 2753, 2984, 3553, 3594, 3688, 3819]}, "edge": {"target": [], "time": []}}, "mouseout": {"state": {"target": ["0", "0", "12", "13", "14", "19", "21", "31", "30", "33", "32", "21"], "time": [898, 2357, 2403, 2517, 2667, 2903, 3157, 3573, 3614, 3782, 7171, 13870]}, "edge": {"target": [], "time": []}}}, "displayed_time": "15.32", "trialTime": 16533, "trial_type": "mouselab-mdp", "trial_index": 30, "time_elapsed": 1097563, "internal_node_id": "0.0-6.0-1.0-21.0"}}, {"uniqueid": "w49794839:a46884916", "current_trial": 31, "dateTime": 1693583619899, "trialdata": {"revealed_states": [], "clicked_states": ["16"], "num_clicks_accrued": [0, 0, 0, 0, 0, 0, 0, 0, 0, 0, 0, 0, 0], "stateRewards": ["", -2, -1, -5, 10, -36, -70, 68, -9, 86, 71, -10, 2, -4, 7, -7, 66, 44, -66, -13, -69, 43, 15, -2, 2, 6, -13, 62, 57, 50, -10, -69, 42, -72], "withholdReward": false, "trial_id": "mdp_trial_23", "block": "test", "trialIndex": 24, "score": 61.85, "costs": -2.15, "simulationMode": [null, null, null, null, null], "rewards": [2, -4, 7, -7, 66], "path": ["0", "0", "12", "13", "14", "15", "16"], "rt": [5085, 61, 124, 210, 136], "actions": ["right", "right", "right", "up", "up"], "actionTimes": [7033, 7602, 8247, 8967, 9627], "queries": {"click": {"state": {"target": ["16"], "time": [3743]}, "edge": {"target": [], "time": []}}, "mouseover": {"state": {"target": ["12", "22", "19", "14", "15", "16", "6"], "time": [2520, 2988, 3271, 3307, 3405, 3605, 4955]}, "edge": {"target": [], "time": []}}, "mouseout": {"state": {"target": ["0", "12", "22", "19", "14", "15", "16", "16"], "time": [2471, 2954, 3006, 3288, 3354, 3472, 3766, 4116]}, "edge": {"target": [], "time": []}}}, "displayed_time": "15.95", "trialTime": 17052, "trial_type": "mouselab-mdp", "trial_index": 31, "time_elapsed": 1115413, "internal_node_id": "0.0-6.0-1.0-22.0"}}, {"uniqueid": "w49794839:a46884916", "current_trial": 32, "dateTime": 1693583642520, "trialdata": {"revealed_states": [], "clicked_states": ["11", "10"], "num_clicks_accrued": [0, 0, 0, 0, 0, 0, 0, 0, 0, 0, 0, 0, 0], "stateRewards": ["", -1, -1, 4, -16, -75, 81, -51, -7, -84, 73, -30, -2, 1, -3, -16, -77, 33, 14, 1, 45, 87, -66, 2, 2, -5, -7, -19, -17, 79, -3, 8, 49, 47], "withholdReward": false, "trial_id": "mdp_trial_24", "block": "test", "trialIndex": 25, "score": 63.7, "costs": -4.3, "simulationMode": [null, null, null, null, null], "rewards": [-1, -1, 4, -7, 73], "path": ["0", "0", "1", "2", "3", "8", "10"], "rt": [7765, 63, 114, 576, 129], "actions": ["up", "up", "up", "left", "down"], "actionTimes": [10097, 10681, 11311, 12421, 13066], "queries": {"click": {"state": {"target": ["11", "10"], "time": [3168, 6457]}, "edge": {"target": [], "time": []}}, "mouseover": {"state": {"target": ["10", "11", "10", "28", "26", "27", "2"], "time": [2694, 3012, 3896, 6936, 7181, 7314, 9980]}, "edge": {"target": [], "time": []}}, "mouseout": {"state": {"target": ["7", "0", "10", "11", "10", "28", "26", "27", "10"], "time": [896, 2385, 2928, 3576, 6847, 6958, 7201, 9894, 9944]}, "edge": {"target": [], "time": []}}}, "displayed_time": "16.34", "trialTime": 21796, "trial_type": "mouselab-mdp", "trial_index": 32, "time_elapsed": 1138033, "internal_node_id": "0.0-6.0-1.0-23.0"}}, {"uniqueid": "w49794839:a46884916", "current_trial": 33, "dateTime": 1693583664197, "trialdata": {"revealed_states": [], "clicked_states": ["6", "7"], "num_clicks_accrued": [0, 0, 0, 0, 0, 0, 0, 0, 0, 0, 0, 0, 0], "stateRewards": ["", 1, -4, -4, 8, 1, -79, 68, -10, -79, 8, -74, -1, -3, -6, 14, 43, 23, 9, 5, -51, 63, 61, -2, 4, 6, -10, 69, -32, 57, 15, -80, -80, -77], "withholdReward": false, "trial_id": "mdp_trial_25", "block": "test", "trialIndex": 26, "score": 64.7, "costs": -4.3, "simulationMode": [null, null, null, null, null], "rewards": [1, -4, -4, 8, 68], "path": ["0", "0", "1", "2", "3", "4", "7"], "rt": [8730, 135, 101, 113, 94], "actions": ["up", "up", "up", "right", "down"], "actionTimes": [14264, 14908, 15524, 16153, 16768], "queries": {"click": {"state": {"target": ["6", "7"], "time": [7301, 10904]}, "edge": {"target": [], "time": []}}, "mouseover": {"state": {"target": ["4", "6", "7", "13", "14", "14", "17"], "time": [6186, 7153, 10737, 11360, 11403, 11749, 12347]}, "edge": {"target": [], "time": []}}, "mouseout": {"state": {"target": ["3", "2", "7", "0", "4", "6", "7", "13", "14", "14"], "time": [238, 421, 4502, 5582, 6968, 8029, 11188, 11382, 11424, 12100]}, "edge": {"target": [], "time": []}}}, "displayed_time": "19.54", "trialTime": 20865, "trial_type": "mouselab-mdp", "trial_index": 33, "time_elapsed": 1159710, "internal_node_id": "0.0-6.0-1.0-24.0"}}, {"uniqueid": "w49794839:a46884916", "current_trial": 34, "dateTime": 1693583686170, "trialdata": {"revealed_states": [], "clicked_states": ["33", "31", "28"], "num_clicks_accrued": [0, 0, 0, 0, 0, 0, 0, 0, 0, 0, 0, 0, 0], "stateRewards": ["", -2, 1, -7, -8, -37, -76, -87, 11, 30, -63, 80, -1, 4, 2, -1, 42, 17, 52, -3, -75, -80, -68, 2, -3, -5, -15, -48, 82, 24, -7, 5, -22, -71], "withholdReward": false, "trial_id": "mdp_trial_26", "block": "test", "trialIndex": 27, "score": 54.55, "costs": -6.449999999999999, "simulationMode": [null, null, null, null, null], "rewards": [2, -3, -5, -15, 82], "path": ["0", "0", "23", "24", "25", "26", "28"], "rt": [10805, 56, 89, 134, 120], "actions": ["left", "left", "left", "up", "right"], "actionTimes": [12388, 12972, 13587, 14232, 14868], "queries": {"click": {"state": {"target": ["33", "31", "28"], "time": [2302, 5624, 9165]}, "edge": {"target": [], "time": []}}, "mouseover": {"state": {"target": ["32", "33", "32", "31", "24", "28", "26"], "time": [1759, 2094, 2920, 3680, 6133, 6520, 10733]}, "edge": {"target": [], "time": []}}, "mouseout": {"state": {"target": ["17", "15", "18", "12", "32", "33", "32", "31", "24", "28", "28", "26"], "time": [376, 475, 559, 792, 1777, 2620, 3437, 6093, 6297, 10149, 10618, 10774]}, "edge": {"target": [], "time": []}}}, "displayed_time": "15.59", "trialTime": 21162, "trial_type": "mouselab-mdp", "trial_index": 34, "time_elapsed": 1181684, "internal_node_id": "0.0-6.0-1.0-25.0"}}, {"uniqueid": "w49794839:a46884916", "current_trial": 35, "dateTime": 1693583705985, "trialdata": {"revealed_states": [], "clicked_states": ["18", "5"], "num_clicks_accrued": [0, 0, 0, 0, 0, 0, 0, 0, 0, 0, 0, 0, 0], "stateRewards": ["", -2, -3, 7, -13, 60, 9, 37, -6, 37, 20, 1, 2, -2, -8, 6, -80, -31, -10, -7, 70, -65, -44, -1, 1, 7, 6, -11, 73, -85, 16, -21, 47, 34], "withholdReward": false, "trial_id": "mdp_trial_27", "block": "test", "trialIndex": 28, "score": 44.7, "costs": -4.3, "simulationMode": [null, null, null, null, null], "rewards": [-2, -3, 7, -13, 60], "path": ["0", "0", "1", "2", "3", "4", "5"], "rt": [9967, 103, 61, 47, 47], "actions": ["up", "up", "up", "right", "up"], "actionTimes": [12567, 13197, 13781, 14351, 14936], "queries": {"click": {"state": {"target": ["18", "5"], "time": [4686, 8927]}, "edge": {"target": [], "time": []}}, "mouseover": {"state": {"target": ["0", "18", "15", "18", "16", "7", "3", "5", "4", "8", "9"], "time": [2752, 3869, 3969, 4550, 8101, 8401, 8439, 8737, 9421, 10030, 10227]}, "edge": {"target": [], "time": []}}, "mouseout": {"state": {"target": ["27", "1", "1", "0", "18", "15", "18", "16", "7", "3", "5", "5", "4", "8"], "time": [1184, 1266, 1484, 3683, 3901, 4220, 8018, 8318, 8420, 8518, 8950, 9381, 9444, 10149]}, "edge": {"target": [], "time": []}}}, "displayed_time": "16.61", "trialTime": 18986, "trial_type": "mouselab-mdp", "trial_index": 35, "time_elapsed": 1201499, "internal_node_id": "0.0-6.0-1.0-26.0"}}, {"uniqueid": "w49794839:a46884916", "current_trial": 36, "dateTime": 1693583732430, "trialdata": {"revealed_states": [], "clicked_states": ["28", "32", "16", "17"], "num_clicks_accrued": [0, 0, 0, 0, 0, 0, 0, 0, 0, 0, 0, 0, 0], "stateRewards": ["", -2, -1, -6, -14, -55, 78, -13, 11, 14, -71, 59, 2, 2, 6, -6, 9, 38, 14, 7, 85, 11, 68, 1, -4, -1, -3, -63, -85, 9, -2, 63, -86, -10], "withholdReward": false, "trial_id": "mdp_trial_28", "block": "test", "trialIndex": 29, "score": 33.4, "costs": -8.6, "simulationMode": [null, null, null, null, null], "rewards": [2, 2, 6, -6, 38], "path": ["0", "0", "12", "13", "14", "15", "17"], "rt": [17517, 80, 19, 55, 26], "actions": ["right", "right", "right", "up", "right"], "actionTimes": [19826, 20410, 20950, 21535, 22090], "queries": {"click": {"state": {"target": ["28", "32", "16", "17"], "time": [3499, 8567, 12768, 16394]}, "edge": {"target": [], "time": []}}, "mouseover": {"state": {"target": ["23", "28", "24", "31", "32", "30", "25", "24", "23", "12", "13", "14", "17", "16", "17", "20", "21"], "time": [3111, 3309, 7193, 7344, 8280, 9771, 11944, 11982, 12004, 12042, 12080, 12177, 12377, 12595, 16210, 16844, 17339]}, "edge": {"target": [], "time": []}}, "mouseout": {"state": {"target": ["9", "2", "0", "23", "28", "28", "24", "31", "32", "30", "25", "24", "23", "12", "13", "14", "17", "16", "16", "16", "17", "20", "21"], "time": [462, 628, 2463, 3149, 4146, 7143, 7294, 7527, 8834, 9831, 11964, 12001, 12023, 12061, 12110, 12228, 12410, 12790, 14795, 15568, 16686, 17114, 23526]}, "edge": {"target": [], "time": []}}}, "displayed_time": "22.63", "trialTime": 25690, "trial_type": "mouselab-mdp", "trial_index": 36, "time_elapsed": 1227944, "internal_node_id": "0.0-6.0-1.0-27.0"}}, {"uniqueid": "w49794839:a46884916", "current_trial": 37, "dateTime": 1693583750521, "trialdata": {"revealed_states": [], "clicked_states": ["9"], "num_clicks_accrued": [0, 0, 0, 0, 0, 0, 0, 0, 0, 0, 0, 0, 0], "stateRewards": ["", -2, 2, -2, -7, -50, -62, -45, 7, 36, -24, -72, -1, -1, 8, -1, -67, 20, -52, 2, 35, -50, 80, -1, 1, 6, -6, -70, 6, 88, 8, -47, 74, -19], "withholdReward": false, "trial_id": "mdp_trial_29", "block": "test", "trialIndex": 30, "score": 38.85, "costs": -2.15, "simulationMode": [null, null, null, null, null], "rewards": [-2, 2, -2, 7, 36], "path": ["0", "0", "1", "2", "3", "8", "9"], "rt": [5397, 56, 101, 57, 168], "actions": ["up", "up", "up", "left", "up"], "actionTimes": [7195, 7781, 8409, 8994, 9699], "queries": {"click": {"state": {"target": ["9"], "time": [3664]}, "edge": {"target": [], "time": []}}, "mouseover": {"state": {"target": ["1", "8", "9", "9", "8", "11", "10"], "time": [2789, 2953, 3189, 3555, 4258, 4569, 5039]}, "edge": {"target": [], "time": []}}, "mouseout": {"state": {"target": ["0", "1", "8", "9", "9", "9", "8", "11"], "time": [919, 2810, 3156, 3237, 3689, 3985, 4412, 4884]}, "edge": {"target": [], "time": []}}}, "displayed_time": "15.81", "trialTime": 17274, "trial_type": "mouselab-mdp", "trial_index": 37, "time_elapsed": 1246034, "internal_node_id": "0.0-6.0-1.0-28.0"}}, {"uniqueid": "w49794839:a46884916", "current_trial": 38, "dateTime": 1693583769751, "trialdata": {"revealed_states": [], "clicked_states": ["18"], "num_clicks_accrued": [0, 0, 0, 0, 0, 0, 0, 0, 0, 0, 0, 0, 0], "stateRewards": ["", 1, 1, 7, -11, 80, -20, -53, -14, 3, 31, 27, 2, -1, -8, -10, 33, 41, 86, 9, 78, -37, -13, -1, -2, -6, -8, -80, 75, 4, -16, -49, -74, 24], "withholdReward": false, "trial_id": "mdp_trial_30", "block": "test", "trialIndex": 31, "score": 66.85, "costs": -2.15, "simulationMode": [null, null, null, null, null], "rewards": [2, -1, -8, -10, 86], "path": ["0", "0", "12", "13", "14", "15", "18"], "rt": [4478, 75, 92, 70, 16], "actions": ["right", "right", "right", "up", "left"], "actionTimes": [6300, 6885, 7515, 8100, 8640], "queries": {"click": {"state": {"target": ["18"], "time": [2912]}, "edge": {"target": [], "time": []}}, "mouseover": {"state": {"target": ["12", "18", "18"], "time": [2188, 2371, 2703]}, "edge": {"target": [], "time": []}}, "mouseout": {"state": {"target": ["10", "0", "12", "18", "18"], "time": [821, 1899, 2226, 2487, 9787]}, "edge": {"target": [], "time": []}}}, "displayed_time": "15.83", "trialTime": 18405, "trial_type": "mouselab-mdp", "trial_index": 38, "time_elapsed": 1265265, "internal_node_id": "0.0-6.0-1.0-29.0"}}, {"uniqueid": "w49794839:a46884916", "current_trial": 39, "dateTime": 1693583790331, "trialdata": {"revealed_states": [], "clicked_states": ["21", "22", "29"], "num_clicks_accrued": [0, 0, 0, 0, 0, 0, 0, 0, 0, 0, 0, 0, 0], "stateRewards": ["", 2, -1, -4, -13, 74, 77, 3, 2, -43, -2, -11, 2, 3, 7, 11, -26, -29, -33, -3, -3, -13, -3, 1, 3, -7, 14, -59, 33, 9, -5, 34, 79, 68], "withholdReward": false, "trial_id": "mdp_trial_31", "block": "test", "trialIndex": 32, "score": 13.55, "costs": -6.449999999999999, "simulationMode": [null, null, null, null, null], "rewards": [1, 3, -7, 14, 9], "path": ["0", "0", "23", "24", "25", "26", "29"], "rt": [11873, 596, 116, 53, 52], "actions": ["left", "left", "left", "up", "left"], "actionTimes": [14636, 15775, 16405, 16975, 17560], "queries": {"click": {"state": {"target": ["21", "22", "29"], "time": [4481, 8042, 11347]}, "edge": {"target": [], "time": []}}, "mouseover": {"state": {"target": ["12", "13", "14", "19", "21", "22", "12", "0", "23", "24", "25", "26", "29", "27"], "time": [3736, 3778, 3835, 4154, 4404, 7968, 8697, 8741, 8784, 8850, 9488, 9771, 10128, 11801]}, "edge": {"target": [], "time": []}}, "mouseout": {"state": {"target": ["12", "0", "12", "13", "14", "19", "21", "22", "12", "0", "23", "24", "25", "26", "29"], "time": [1419, 3703, 3756, 3800, 4084, 4235, 4504, 8588, 8719, 8763, 8806, 9032, 9708, 9987, 11718]}, "edge": {"target": [], "time": []}}}, "displayed_time": "18.10", "trialTime": 19599, "trial_type": "mouselab-mdp", "trial_index": 39, "time_elapsed": 1285844, "internal_node_id": "0.0-6.0-1.0-30.0"}}, {"uniqueid": "w49794839:a46884916", "current_trial": 40, "dateTime": 1693583810311, "trialdata": {"revealed_states": [], "clicked_states": ["9"], "num_clicks_accrued": [0, 0, 0, 0, 0, 0, 0, 0, 0, 0, 0, 0, 0], "stateRewards": ["", 1, -4, -6, -1, -21, 17, -72, 10, 77, 67, -46, -1, 4, -2, 14, -66, -49, -45, -15, -52, 23, -67, 2, -2, -2, 15, -3, 45, -64, 5, -44, 83, 61], "withholdReward": false, "trial_id": "mdp_trial_32", "block": "test", "trialIndex": 33, "score": 75.85, "costs": -2.15, "simulationMode": [null, null, null, null, null], "rewards": [1, -4, -6, 10, 77], "path": ["0", "0", "1", "2", "3", "8", "9"], "rt": [4231, 697, 155, 278, 968], "actions": ["up", "up", "up", "left", "up"], "actionTimes": [7230, 8459, 9134, 9929, 11414], "queries": {"click": {"state": {"target": ["9"], "time": [3896]}, "edge": {"target": [], "time": []}}, "mouseover": {"state": {"target": ["0", "10", "8", "9"], "time": [3044, 3418, 3458, 3583]}, "edge": {"target": [], "time": []}}, "mouseout": {"state": {"target": ["27", "28", "23", "0", "10", "8", "9"], "time": [468, 517, 2185, 3351, 3437, 3517, 4206]}, "edge": {"target": [], "time": []}}}, "displayed_time": "17.01", "trialTime": 19079, "trial_type": "mouselab-mdp", "trial_index": 40, "time_elapsed": 1305824, "internal_node_id": "0.0-6.0-1.0-31.0"}}, {"uniqueid": "w49794839:a46884916", "current_trial": 41, "dateTime": 1693583830486, "trialdata": {"revealed_states": [], "clicked_states": ["16", "17", "33"], "num_clicks_accrued": [0, 0, 0, 0, 0, 0, 0, 0, 0, 0, 0, 0, 0], "stateRewards": ["", 2, -1, -3, 16, -3, -16, -62, -1, 13, -26, 43, -1, 4, 3, -9, -54, -37, -3, -12, -71, -68, -57, 1, -3, 2, -9, 2, -2, -9, -11, 84, -52, 55], "withholdReward": false, "trial_id": "mdp_trial_33", "block": "test", "trialIndex": 34, "score": 37.55, "costs": -6.449999999999999, "simulationMode": [null, null, null, null, null], "rewards": [1, -3, 2, -11, 55], "path": ["0", "0", "23", "24", "25", "30", "33"], "rt": [12386, 128, 109, 76, 78], "actions": ["left", "left", "left", "down", "left"], "actionTimes": [14297, 14941, 15572, 16171, 16801], "queries": {"click": {"state": {"target": ["16", "17", "33"], "time": [3373, 6673, 10885]}, "edge": {"target": [], "time": []}}, "mouseover": {"state": {"target": ["7", "16", "17", "20", "20", "19", "0", "23", "24", "33", "32"], "time": [2837, 3223, 4004, 7154, 7499, 10142, 10238, 10277, 10316, 10772, 11694]}, "edge": {"target": [], "time": []}}, "mouseout": {"state": {"target": ["1", "0", "7", "16", "17", "20", "20", "19", "0", "23", "24", "33", "32"], "time": [1020, 2001, 2888, 3719, 7050, 7178, 10122, 10162, 10258, 10297, 10337, 11316, 18572]}, "edge": {"target": [], "time": []}}}, "displayed_time": "17.33", "trialTime": 19290, "trial_type": "mouselab-mdp", "trial_index": 41, "time_elapsed": 1326000, "internal_node_id": "0.0-6.0-1.0-32.0"}}, {"uniqueid": "w49794839:a46884916", "current_trial": 42, "dateTime": 1693583856841, "trialdata": {"revealed_states": [], "clicked_states": ["10", "6", "16", "21"], "num_clicks_accrued": [0, 0, 0, 0, 0, 0, 0, 0, 0, 0, 0, 0, 0], "stateRewards": ["", -2, 1, -8, 12, -65, -79, 16, 7, -80, -17, -45, -2, 2, -5, -2, -85, 23, -4, -7, 48, 27, -76, 2, 3, 5, 2, 43, 71, -13, 7, -49, 59, -31], "withholdReward": false, "trial_id": "mdp_trial_34", "block": "test", "trialIndex": 35, "score": 6.399999999999999, "costs": -8.6, "simulationMode": [null, null, null, null, null], "rewards": [-2, 2, -5, -7, 27], "path": ["0", "0", "12", "13", "14", "19", "21"], "rt": [17630, 26, 772, 134, 110], "actions": ["right", "right", "right", "down", "down"], "actionTimes": [19919, 20474, 21779, 22440, 23060], "queries": {"click": {"state": {"target": ["10", "6", "16", "21"], "time": [3922, 8239, 12052, 16641]}, "edge": {"target": [], "time": []}}, "mouseover": {"state": {"target": ["1", "2", "10", "11", "8", "5", "4", "6", "16", "16", "15", "21"], "time": [3269, 3488, 3721, 7519, 7673, 7802, 7853, 8102, 11622, 11919, 15487, 16487]}, "edge": {"target": [], "time": []}}, "mouseout": {"state": {"target": ["8", "7", "18", "1", "2", "10", "11", "8", "5", "4", "6", "16", "16", "15", "21"], "time": [1036, 1086, 1236, 3388, 3508, 7337, 7652, 7693, 7821, 7887, 11552, 11641, 15435, 15507, 24503]}, "edge": {"target": [], "time": []}}}, "displayed_time": "23.59", "trialTime": 25378, "trial_type": "mouselab-mdp", "trial_index": 42, "time_elapsed": 1352355, "internal_node_id": "0.0-6.0-1.0-33.0"}}, {"uniqueid": "w49794839:a46884916", "current_trial": 43, "dateTime": 1693583884007, "trialdata": {"revealed_states": [], "clicked_states": ["28", "22", "16", "20"], "num_clicks_accrued": [0, 0, 0, 0, 0, 0, 0, 0, 0, 0, 0, 0, 0], "stateRewards": ["", 1, -2, -2, 10, -31, -77, 35, 9, -47, 8, 48, -2, 1, -4, -3, -26, -50, 43, -11, 76, -38, 17, 1, -1, 6, 10, 15, -9, 12, -8, 85, 11, -55], "withholdReward": false, "trial_id": "mdp_trial_35", "block": "test", "trialIndex": 36, "score": 51.4, "costs": -8.6, "simulationMode": [null, null, null, null, null], "rewards": [-2, 1, -4, -11, 76], "path": ["0", "0", "12", "13", "14", "19", "20"], "rt": [18133, 60, 163, 139, 102], "actions": ["right", "right", "right", "down", "right"], "actionTimes": [20885, 21483, 22173, 22847, 23463], "queries": {"click": {"state": {"target": ["28", "22", "16", "20"], "time": [4265, 9423, 13508, 17516]}, "edge": {"target": [], "time": []}}, "mouseover": {"state": {"target": ["0", "23", "24", "28", "2", "7", "18", "14", "19", "22", "15", "16", "16", "15", "20", "19", "12", "11", "8", "5", "6"], "time": [3273, 3372, 3472, 3990, 7838, 8007, 8571, 8738, 8821, 9306, 12972, 13011, 13457, 16989, 17273, 18093, 18162, 18392, 18503, 19049, 20842]}, "edge": {"target": [], "time": []}}, "mouseout": {"state": {"target": ["0", "0", "23", "24", "28", "2", "7", "18", "14", "19", "22", "22", "15", "16", "16", "16", "15", "20", "19", "12", "11", "8", "5", "6"], "time": [2924, 3339, 3407, 3605, 4789, 7955, 8057, 8674, 8759, 9121, 9998, 12938, 12991, 13056, 13532, 13842, 17039, 18050, 18117, 18184, 18458, 18548, 20822, 20861]}, "edge": {"target": [], "time": []}}}, "displayed_time": "23.98", "trialTime": 26313, "trial_type": "mouselab-mdp", "trial_index": 43, "time_elapsed": 1379521, "internal_node_id": "0.0-6.0-1.0-34.0"}}, {"uniqueid": "w49794839:a46884916", "current_trial": 44, "dateTime": 1693583903042, "trialdata": {"revealed_states": [], "clicked_states": ["28"], "num_clicks_accrued": [0, 0, 0, 0, 0, 0, 0, 0, 0, 0, 0, 0, 0], "stateRewards": ["", -1, -2, 8, -6, -79, -6, 87, 9, -5, -66, -38, 2, 2, 5, -6, -82, 74, 85, -8, 67, -30, -15, 1, -2, -2, -2, 87, 64, 49, 7, 2, -38, -9], "withholdReward": false, "trial_id": "mdp_trial_36", "block": "test", "trialIndex": 37, "score": 56.85, "costs": -2.15, "simulationMode": [null, null, null, null, null], "rewards": [1, -2, -2, -2, 64], "path": ["0", "0", "23", "24", "25", "26", "28"], "rt": [5778, 552, 173, 178, 102], "actions": ["left", "left", "left", "up", "right"], "actionTimes": [7543, 8608, 9313, 10017, 10633], "queries": {"click": {"state": {"target": ["28"], "time": [4215]}, "edge": {"target": [], "time": []}}, "mouseover": {"state": {"target": ["23", "26", "28"], "time": [3401, 3468, 4187]}, "edge": {"target": [], "time": []}}, "mouseout": {"state": {"target": ["14", "12", "0", "23", "26", "28"], "time": [752, 1134, 2636, 3421, 3851, 4722]}, "edge": {"target": [], "time": []}}}, "displayed_time": "15.77", "trialTime": 18178, "trial_type": "mouselab-mdp", "trial_index": 44, "time_elapsed": 1398556, "internal_node_id": "0.0-6.0-1.0-35.0"}}, {"uniqueid": "w49794839:a46884916", "current_trial": 45, "dateTime": 1693583921628, "trialdata": {"revealed_states": [], "clicked_states": ["21"], "num_clicks_accrued": [0, 0, 0, 0, 0, 0, 0, 0, 0, 0, 0, 0, 0], "stateRewards": ["", -2, -3, 8, -4, -30, 31, 69, 9, 66, 87, 64, -2, 2, 8, 5, 47, 16, -39, -8, -54, 51, -19, 1, -2, -2, -11, -25, -26, 43, -9, 19, -84, 86], "withholdReward": false, "trial_id": "mdp_trial_37", "block": "test", "trialIndex": 38, "score": 48.85, "costs": -2.15, "simulationMode": [null, null, null, null, null], "rewards": [-2, 2, 8, -8, 51], "path": ["0", "0", "12", "13", "14", "19", "21"], "rt": [4652, 61, 92, 155, 103], "actions": ["right", "right", "right", "down", "down"], "actionTimes": [6808, 7392, 8007, 8667, 9285], "queries": {"click": {"state": {"target": ["21"], "time": [3479]}, "edge": {"target": [], "time": []}}, "mouseover": {"state": {"target": ["1", "18", "15", "20", "21"], "time": [2623, 2707, 2731, 3024, 3389]}, "edge": {"target": [], "time": []}}, "mouseout": {"state": {"target": ["1", "18", "15", "20", "21"], "time": [2644, 2728, 2752, 3055, 3914]}, "edge": {"target": [], "time": []}}}, "displayed_time": "16.16", "trialTime": 17667, "trial_type": "mouselab-mdp", "trial_index": 45, "time_elapsed": 1417141, "internal_node_id": "0.0-6.0-1.0-36.0"}}, {"uniqueid": "w49794839:a46884916", "current_trial": 46, "dateTime": 1693583944038, "trialdata": {"revealed_states": [], "clicked_states": ["31", "9"], "num_clicks_accrued": [0, 0, 0, 0, 0, 0, 0, 0, 0, 0, 0, 0, 0], "stateRewards": ["", 1, 4, -4, 14, 35, 51, 19, -13, 54, 78, -74, -2, -1, -3, 13, -11, -42, -73, -15, -24, -3, -69, 2, -1, 5, 16, -27, 73, 58, 9, -60, 5, -60], "withholdReward": false, "trial_id": "mdp_trial_38", "block": "test", "trialIndex": 39, "score": 75.7, "costs": -4.3, "simulationMode": [null, null, null, null, null], "rewards": [2, -1, 5, 16, 58], "path": ["0", "0", "23", "24", "25", "26", "29"], "rt": [9321, 3845, 210, 95, 123], "actions": ["left", "left", "left", "up", "left"], "actionTimes": [11342, 15706, 16458, 17117, 17776], "queries": {"click": {"state": {"target": ["31", "9"], "time": [3981, 7951]}, "edge": {"target": [], "time": []}}, "mouseover": {"state": {"target": ["31", "1", "8", "9", "5"], "time": [3518, 7351, 7401, 7717, 9103]}, "edge": {"target": [], "time": []}}, "mouseout": {"state": {"target": ["0", "31", "1", "8", "9", "5", "4"], "time": [2484, 4565, 7371, 7484, 8263, 9169, 15518]}, "edge": {"target": [], "time": []}}}, "displayed_time": "18.30", "trialTime": 21406, "trial_type": "mouselab-mdp", "trial_index": 46, "time_elapsed": 1439551, "internal_node_id": "0.0-6.0-1.0-37.0"}}, {"uniqueid": "w49794839:a46884916", "current_trial": 47, "dateTime": 1693583995488, "trialdata": {"revealed_states": [], "clicked_states": ["16", "21", "18", "9", "31", "27", "28", "33", "19", "22"], "num_clicks_accrued": [0, 0, 0, 0, 0, 0, 0, 0, 0, 0, 0, 0, 0], "stateRewards": ["", 2, -3, -4, -1, 25, -16, 16, 10, -71, -20, -55, 1, 3, -4, -9, 1, 32, 11, -6, 32, -50, -41, -1, 4, 4, -8, 7, -81, 70, 2, -52, 45, -10], "withholdReward": false, "trial_id": "mdp_trial_39", "block": "test", "trialIndex": 40, "score": -10.899999999999999, "costs": -20.9, "simulationMode": [null, null, null, null, null], "rewards": [2, -3, -4, -1, 16], "path": ["0", "0", "1", "2", "3", "4", "7"], "rt": [42702, 90, 137, 151, 42], "actions": ["up", "up", "up", "right", "down"], "actionTimes": [45576, 46191, 46851, 47526, 48096], "queries": {"click": {"state": {"target": ["16", "21", "18", "9", "31", "27", "28", "33", "19", "22"], "time": [3689, 8148, 11587, 15962, 20572, 24888, 28786, 32479, 37021, 38111]}, "edge": {"target": [], "time": []}}, "mouseover": {"state": {"target": ["15", "16", "20", "21", "22", "13", "18", "1", "3", "9", "8", "10", "11", "5", "4", "24", "31", "32", "30", "27", "27", "28", "25", "33", "25", "24", "1", "12", "19", "22", "18"], "time": [3202, 3483, 7385, 7899, 8727, 9351, 9887, 12317, 15350, 15834, 16288, 16832, 17049, 19651, 19801, 19916, 20316, 24167, 24372, 24600, 24817, 28649, 32083, 32433, 35883, 35925, 36017, 36317, 36748, 37863, 39402]}, "edge": {"target": [], "time": []}}, "mouseout": {"state": {"target": ["7", "1", "0", "0", "15", "16", "16", "20", "21", "22", "13", "18", "1", "3", "9", "8", "10", "11", "9", "5", "4", "24", "31", "32", "30", "27", "27", "27", "28", "28", "25", "33", "25", "24", "1", "12", "19", "22", "18"], "time": [1366, 1832, 1950, 2925, 3252, 4028, 7235, 7598, 8570, 8771, 9734, 12271, 12342, 15400, 16263, 16312, 16856, 17073, 19517, 19767, 19822, 19950, 23818, 24350, 24394, 24684, 25211, 28350, 29329, 32016, 32103, 32845, 35904, 35947, 36266, 36338, 37668, 38979, 45349]}, "edge": {"target": [], "time": []}}}, "displayed_time": "48.62", "trialTime": 50555, "trial_type": "mouselab-mdp", "trial_index": 47, "time_elapsed": 1491001, "internal_node_id": "0.0-6.0-1.0-38.0"}}, {"uniqueid": "w49794839:a46884916", "current_trial": 48, "dateTime": 1693584015515, "trialdata": {"revealed_states": [], "clicked_states": ["21"], "num_clicks_accrued": [0, 0, 0, 0, 0, 0, 0, 0, 0, 0, 0, 0, 0], "stateRewards": ["", 2, -4, 4, 9, 69, 9, -75, 12, -86, 66, 25, -1, 3, 2, -13, -88, -3, 1, 4, -69, 49, -84, 2, -1, 4, 2, -18, -81, -52, -15, -69, -54, 25], "withholdReward": false, "trial_id": "mdp_trial_40", "block": "test", "trialIndex": 41, "score": 54.85, "costs": -2.15, "simulationMode": [null, null, null, null, null], "rewards": [-1, 3, 2, 4, 49], "path": ["0", "0", "12", "13", "14", "19", "21"], "rt": [4665, 61, 32, 104, 125], "actions": ["right", "right", "right", "down", "down"], "actionTimes": [6822, 7406, 7976, 8606, 9252], "queries": {"click": {"state": {"target": ["21"], "time": [3565]}, "edge": {"target": [], "time": []}}, "mouseover": {"state": {"target": ["12", "13", "19", "21"], "time": [2693, 2781, 3160, 3311]}, "edge": {"target": [], "time": []}}, "mouseout": {"state": {"target": ["12", "0", "12", "13", "19", "21", "21", "21"], "time": [1225, 2359, 2759, 2827, 3193, 4170, 4591, 10543]}, "edge": {"target": [], "time": []}}}, "displayed_time": "16.16", "trialTime": 19092, "trial_type": "mouselab-mdp", "trial_index": 48, "time_elapsed": 1511028, "internal_node_id": "0.0-6.0-1.0-39.0"}}, {"uniqueid": "w49794839:a46884916", "current_trial": 49, "dateTime": 1693584068734, "trialdata": {"rt": 53217, "response": {"Q0": "$-2 to $2", "Q1": "$-32 to $32", "Q2": "$-88 to $88", "Q3": "The cost for clicking on nodes varied between nodes.", "Q4": "Very motivated"}, "question_order": [0, 1, 2, 3, 4], "trial_id": "final_quiz_control", "trial_type": "survey-multi-choice", "trial_index": 49, "time_elapsed": 1564248, "internal_node_id": "0.0-6.0-2.0"}}, {"uniqueid": "w49794839:a46884916", "current_trial": 50, "dateTime": 1693584172902, "trialdata": {"rt": 104166, "response": {"Q0": "pick a node that was on the edge (5 moves away) and if red pick another. Pick until a good profit green.", "Q1": "Just made sure I got a green.", "Q2": "Nothing really. I didnt pay attention on one and lost the node identifier."}, "trial_id": "self_report_control", "trial_type": "survey-text", "trial_index": 50, "time_elapsed": 1668416, "internal_node_id": "0.0-6.0-3.0"}}, {"uniqueid": "w49794839:a46884916", "current_trial": 51, "dateTime": 1693584204958, "trialdata": {"rt": 32053, "response": {"Q0": "Strongly disagree", "Q1": "Neither disagree nor agree", "Q2": "Neither disagree nor agree", "Q3": "Neither disagree nor agree", "Q4": "Neither disagree nor agree", "Q5": "Neither disagree nor agree", "Q6": "Neither disagree nor agree"}, "question_order": [0, 1, 2, 3, 4, 5, 6], "trial_id": "self_report_2", "trial_type": "survey-multi-choice", "trial_index": 51, "time_elapsed": 1700472, "internal_node_id": "0.0-6.0-4.0"}}, {"uniqueid": "w49794839:a46884916", "current_trial": 52, "dateTime": 1693584221304, "trialdata": {"rt": 16341, "response": {"gender": "male", "age": "40", "colorblind": "0", "effort": "0"}, "trial_type": "survey-html-form", "trial_index": 52, "time_elapsed": 1716818, "internal_node_id": "0.0-6.0-5.0"}}, {"uniqueid": "w49794839:a46884916", "current_trial": 53, "dateTime": 1693584273802, "trialdata": {"rt": 52495, "response": {"Q0": "No", "Q1": "No never done it before", "Q2": ""}, "trial_type": "survey-text", "trial_index": 53, "time_elapsed": 1769316, "internal_node_id": "0.0-6.0-6.0"}}, {"uniqueid": "w49794839:a46884916", "current_trial": 54, "dateTime": 1693584328576, "trialdata": {"rt": 54771, "stimulus": "<h1>Completion Code Instructions (1/2)</h1>\n<br><br><br><br>\nYou have reached the end of the experiment! The completion code consists of two parts: (1) a code with 2 characters (2) a code with 6 characters. On this page, you will receive the second part of the code. The first part of the completion code will be on the next page.\n<br><br>\nThe second part of your completion code is: <b>EWEK22</b>\n<br><br>\nPlease note this down. Then, press 'Next' in order to find the first part of your completion code. Once the data has been saved, you will receive this code either in this window or in the original browser window where you started the experiment.\n <br><br>\n<h2 style='color: red;'>Note: this is <strong>NOT</strong> the full completion code. Copy this down and click 'Next' to get the full completion code on the next page.</h2>", "response": 0, "trial_type": "html-button-response", "trial_index": 54, "time_elapsed": 1824090, "internal_node_id": "0.0-6.0-7.0"}}, {"uniqueid": "w49794839:a46884916", "current_trial": 55, "dateTime": 1693584329581, "trialdata": {"success": true, "trial_type": "fullscreen", "trial_index": 55, "time_elapsed": 1825095, "internal_node_id": "0.0-7.0"}}], "questiondata": {"params": {"CODE": "C6DMOQA6", "MIN_TIME": 14, "inspectCost": 1, "startTime": "Fri Sep 01 2023 16:35:03 GMT+0100 (British Summer Time)", "bonusRate": 0.002, "variance": "1_2_4_8_44", "branching": "31123"}, "final_score": 1535.35}, "eventdata": [{"eventtype": "initialized", "value": null, "timestamp": 1693582503515, "interval": 0}, {"eventtype": "window_resize", "value": [1024, 767], "timestamp": 1693582503516, "interval": 1}, {"eventtype": "window_resize", "value": [1024, 767], "timestamp": 1693582503824, "interval": 308}, {"eventtype": "window_resize", "value": [1920, 1080], "timestamp": 1693582509781, "interval": 5957}, {"eventtype": "window_resize", "value": [1024, 767], "timestamp": 1693584328826, "interval": 1819045}], "useragent": "Mozilla/5.0 (Macintosh; Intel Mac OS X 10_15_7) AppleWebKit/537.36 (KHTML, like Gecko) Chrome/116.0.0.0 Safari/537.36", "mode": "live", "id": "w49794839:a46884916", "status": "user data saved", "Beginhit": "2023-09-01 15:35:02.59429", "Beginexp": "2023-09-01 15:35:10.611687", "Endhit": "2023-09-01 16:05:29.999027", "psiturkStatus": 3, "browser": "<redacted>", "platform": "macos", "language": "en-US"}