{"condition": 1, "counterbalance": 0, "assignmentId": "a49319988", "workerId": "w37570436", "hitId": "h18341442", "currenttrial": 56, "bonus": 0, "data": [{"uniqueid": "w37570436:a49319988", "current_trial": 0, "dateTime": 1693567111705, "trialdata": {"success": true, "trial_type": "fullscreen", "trial_index": 0, "time_elapsed": 4229, "internal_node_id": "0.0-0.0"}}, {"uniqueid": "w37570436:a49319988", "current_trial": 1, "dateTime": 1693567148352, "trialdata": {"view_history": [{"page_index": 0, "viewing_time": 36642}], "rt": 36642, "trial_id": "exp_instructions_misaligned", "trial_type": "instructions", "trial_index": 1, "time_elapsed": 40875, "internal_node_id": "0.0-1.0"}}, {"uniqueid": "w37570436:a49319988", "current_trial": 2, "dateTime": 1693567677423, "trialdata": {"view_history": [{"page_index": 0, "viewing_time": 334569}, {"page_index": 1, "viewing_time": 111493}, {"page_index": 2, "viewing_time": 20835}, {"page_index": 3, "viewing_time": 62169}], "rt": 529067, "trial_id": "mouselab_instructions_1_misaligned", "trial_type": "instructions", "trial_index": 2, "time_elapsed": 569947, "internal_node_id": "0.0-2.0-1.0"}}, {"uniqueid": "w37570436:a49319988", "current_trial": 3, "dateTime": 1693567740208, "trialdata": {"revealed_states": [], "clicked_states": ["12", "13", "14", "1", "2", "23", "3", "8", "4", "5", "6"], "num_clicks_accrued": [0, 0, 0, 0, 0, 0, 0, 0, 0, 0, 0, 0, 0], "stateRewards": ["", 10, 10, -10, 10, 10, 10, 10, 10, 10, -10, -10, -10, 10, 10, 10, 10, 10, -10, 10, 10, 10, 10, 10, -10, 10, -10, 10, -10, 10, -10, -10, -10, 10], "withholdReward": false, "trial_id": "practice_1", "block": "test", "trialIndex": 0, "score": 28, "costs": -5.5, "simulationMode": [null, null, null, null, null], "rewards": [10, 10, -10, 10, 10], "path": ["0", "0", "1", "2", "3", "4", "5"], "rt": [46368, 184, 223, 402, 90], "actions": ["up", "up", "up", "right", "up"], "actionTimes": [54952, 55647, 56385, 57282, 57885], "queries": {"click": {"state": {"target": ["12", "13", "14", "1", "2", "23", "3", "8", "4", "5", "6"], "time": [10582, 12029, 14501, 16168, 18378, 19958, 21552, 23658, 25144, 26438, 29430]}, "edge": {"target": [], "time": []}}, "mouseover": {"state": {"target": ["12", "13", "12", "13", "14", "12", "1", "2", "23", "3", "10", "8", "4", "5", "6", "4", "2", "1", "2", "1", "1", "2", "1", "1", "1", "2", "3", "4", "4", "5"], "time": [9565, 9697, 10097, 11480, 14134, 15148, 15519, 17547, 19330, 21097, 22598, 23180, 24679, 25980, 28800, 30147, 30280, 30456, 32544, 33480, 35424, 37196, 37780, 38448, 47726, 49049, 49794, 50610, 51015, 51415]}, "edge": {"target": [], "time": []}}, "mouseout": {"state": {"target": ["0", "1", "10", "1", "23", "23", "0", "12", "13", "12", "13", "14", "13", "12", "1", "2", "23", "3", "3", "10", "8", "3", "4", "5", "6", "4", "2", "1", "2", "1", "1", "2", "1", "1", "1", "2", "3", "4", "4", "5"], "time": [1415, 1850, 3035, 4303, 4932, 5649, 9514, 9614, 10053, 11130, 13113, 15099, 15131, 15165, 17470, 19280, 20697, 21634, 22396, 23003, 24345, 24429, 25947, 28145, 29646, 30166, 30314, 32514, 33264, 33801, 36917, 37645, 38216, 45581, 48249, 49766, 50586, 50898, 51029, 52332]}, "edge": {"target": [], "time": []}}}, "displayed_time": "58.40", "trialTime": 62318, "trial_type": "mouselab-mdp", "trial_index": 3, "time_elapsed": 632730, "internal_node_id": "0.0-2.0-2.0-0.0"}}, {"uniqueid": "w37570436:a49319988", "current_trial": 4, "dateTime": 1693567763177, "trialdata": {"revealed_states": [], "clicked_states": ["23", "24", "25", "30", "32"], "num_clicks_accrued": [0, 0, 0, 0, 0, 0, 0, 0, 0, 0, 0, 0, 0], "stateRewards": ["", -10, -10, 10, 10, -10, 10, -10, -10, -10, 10, 10, -10, 10, 10, 10, 10, -10, 10, -10, -10, 10, -10, 10, 10, 10, -10, 10, -10, -10, 10, 10, -10, 10], "withholdReward": false, "trial_id": "practice_2", "block": "test", "trialIndex": 1, "score": 31, "costs": -2.5, "simulationMode": [null, null, null, null, null], "rewards": [10, 10, 10, 10, -10], "path": ["0", "0", "23", "24", "25", "30", "32"], "rt": [10673, 92, 103, 120, 61], "actions": ["left", "left", "left", "down", "down"], "actionTimes": [14253, 14858, 15453, 16088, 16661], "queries": {"click": {"state": {"target": ["23", "24", "25", "30", "32"], "time": [5055, 6183, 7296, 8666, 10396]}, "edge": {"target": [], "time": []}}, "mouseover": {"state": {"target": ["23", "24", "23", "24", "25", "30", "32", "23", "0", "23"], "time": [4165, 4248, 4698, 5799, 6883, 8234, 9897, 12130, 12504, 12839]}, "edge": {"target": [], "time": []}}, "mouseout": {"state": {"target": ["0", "23", "24", "23", "24", "25", "30", "32", "32", "23", "0", "23"], "time": [4121, 4215, 4570, 5650, 6849, 8198, 9781, 11630, 12069, 12165, 12517, 21750]}, "edge": {"target": [], "time": []}}}, "displayed_time": "17.18", "trialTime": 22710, "trial_type": "mouselab-mdp", "trial_index": 4, "time_elapsed": 655700, "internal_node_id": "0.0-2.0-2.0-1.0"}}, {"uniqueid": "w37570436:a49319988", "current_trial": 5, "dateTime": 1693567786779, "trialdata": {"view_history": [{"page_index": 0, "viewing_time": 11807}, {"page_index": 1, "viewing_time": 11787}], "rt": 23595, "trial_id": "mouselab_instructions_2_misaligned", "trial_type": "instructions", "trial_index": 5, "time_elapsed": 679302, "internal_node_id": "0.0-2.0-3.0"}}, {"uniqueid": "w37570436:a49319988", "current_trial": 6, "dateTime": 1693567838188, "trialdata": {"rt": 51399, "response": {"Q0": "The cost for clicking on nodes may vary between nodes.", "Q1": "The better I perform the higher my bonus will be.", "Q2": "No, the amount of cash at each node of the web may be different each time.", "Q3": "To get the highest total score.", "Q4": "Only before moving the spider.", "Q5": "3 seconds"}, "question_order": [0, 1, 2, 3, 4, 5], "correct": {"Q0": "The cost for clicking on nodes may vary between nodes.", "Q1": "The better I perform the higher my bonus will be.", "Q2": "No, the amount of cash at each node of the web may be different each time.", "Q3": "To get the highest total score.", "Q4": "Only before moving the spider.", "Q5": "3 seconds"}, "trial_id": "mouselab_quiz_misaligned", "trial_type": "survey-multi-choice", "trial_index": 6, "time_elapsed": 730712, "internal_node_id": "0.0-2.0-4.0"}}, {"uniqueid": "w37570436:a49319988", "current_trial": 7, "dateTime": 1693567846390, "trialdata": {"rt": 8185, "response": {"Q0": "No"}, "question_order": [0], "trial_id": "repeat_check", "trial_type": "survey-multi-choice", "trial_index": 7, "time_elapsed": 738913, "internal_node_id": "0.0-4.0-0.0"}}, {"uniqueid": "w37570436:a49319988", "current_trial": 8, "dateTime": 1693567876294, "trialdata": {"rt": 29891, "stimulus": "\n<h1> Get ready to start the game! </h1>\n\nThank you for reading the instructions. Get ready start with the 40 rounds of this game.\n<br><br>\nIf you need to take a break, feel free to take one after the end of a round, before continuing to the next one.\n<br><br>\nRemember, the more money the spider gets, the bigger your bonus will be!\n<br><br>\n<div style='text-align: center;'>Press <code>space</code> to begin.</div>\n\n<br><br>\n(If, at any point, the <code>space</code> key does not take you to the next page, click once on the text and try again.)", "response": " ", "trial_id": "mdp_ready", "trial_type": "html-keyboard-response", "trial_index": 8, "time_elapsed": 768818, "internal_node_id": "0.0-6.0-0.0"}}, {"uniqueid": "w37570436:a49319988", "current_trial": 9, "dateTime": 1693567917885, "trialdata": {"revealed_states": [], "clicked_states": ["12", "13", "14", "1", "2", "3", "23", "24", "25", "30", "33", "31", "32", "26", "27"], "num_clicks_accrued": [0, 0, 0, 0, 0, 0, 0, 0, 0, 0, 0, 0, 0], "stateRewards": ["", 1, -2, -8, -13, 4, 34, -84, -4, -49, 88, -70, -1, 3, -4, 10, -77, 13, -34, 15, -21, -16, 27, 1, -2, 8, -8, -6, 38, -26, 6, -15, 66, -3], "withholdReward": false, "trial_id": "mdp_trial_1", "block": "test", "trialIndex": 2, "score": 64.15, "costs": -14.850000000000001, "simulationMode": [null, null, null, null, null], "rewards": [1, -2, 8, 6, 66], "path": ["0", "0", "23", "24", "25", "30", "32"], "rt": [30702, 67, 212, 52, 154], "actions": ["left", "left", "left", "down", "down"], "actionTimes": [33916, 34514, 35227, 35799, 36468], "queries": {"click": {"state": {"target": ["12", "13", "14", "1", "2", "3", "23", "24", "25", "30", "33", "31", "32", "26", "27"], "time": [4056, 4793, 5816, 7243, 8119, 9637, 10884, 11696, 12969, 14111, 15249, 19751, 23091, 26558, 28100]}, "edge": {"target": [], "time": []}}, "mouseover": {"state": {"target": ["0", "12", "13", "14", "1", "2", "3", "23", "24", "25", "30", "33", "32", "24", "23", "31", "31", "32", "30", "25", "26", "27", "29", "26"], "time": [3385, 3821, 4383, 5500, 6999, 7802, 9099, 10668, 11417, 12568, 13832, 14865, 16215, 17781, 17931, 18897, 19285, 20181, 25581, 25948, 26287, 27763, 28848, 31312]}, "edge": {"target": [], "time": []}}, "mouseout": {"state": {"target": ["0", "0", "12", "13", "13", "14", "1", "2", "3", "23", "24", "25", "30", "33", "30", "32", "24", "23", "31", "31", "32", "32", "30", "25", "26", "27", "29", "26"], "time": [1609, 3591, 4349, 5266, 5316, 6449, 7549, 8753, 10184, 11382, 12517, 13715, 14815, 16084, 16149, 17749, 17799, 18865, 18913, 20117, 24783, 25314, 25614, 25997, 27347, 28683, 31265, 31346]}, "edge": {"target": [], "time": []}}}, "displayed_time": "36.98", "trialTime": 41317, "trial_type": "mouselab-mdp", "trial_index": 9, "time_elapsed": 810408, "internal_node_id": "0.0-6.0-1.0-0.0"}}, {"uniqueid": "w37570436:a49319988", "current_trial": 10, "dateTime": 1693567950983, "trialdata": {"revealed_states": [], "clicked_states": ["1", "2", "10", "12", "13", "23", "24", "25", "26", "29", "30"], "num_clicks_accrued": [0, 0, 0, 0, 0, 0, 0, 0, 0, 0, 0, 0, 0], "stateRewards": ["", 1, 2, -6, -13, -51, 22, -4, -12, -44, -12, 6, -2, -2, -2, -14, -46, -4, -77, -2, 36, -79, 41, 2, -4, 2, -6, -55, 59, 70, -5, 39, -19, 24], "withholdReward": false, "trial_id": "mdp_trial_2", "block": "test", "trialIndex": 3, "score": 55.35, "costs": -8.65, "simulationMode": [null, null, null, null, null], "rewards": [2, -4, 2, -6, 70], "path": ["0", "0", "23", "24", "25", "26", "29"], "rt": [24572, 105, 30, 34, 484], "actions": ["left", "left", "left", "up", "left"], "actionTimes": [26621, 27240, 27781, 28332, 29331], "queries": {"click": {"state": {"target": ["1", "2", "10", "12", "13", "23", "24", "25", "26", "29", "30"], "time": [3549, 4632, 6055, 10975, 12542, 14613, 15506, 17251, 19460, 20483, 24897]}, "edge": {"target": [], "time": []}}, "mouseover": {"state": {"target": ["1", "2", "10", "8", "3", "4", "16", "12", "12", "13", "14", "24", "23", "24", "25", "30", "28", "26", "29", "30", "25", "30", "24", "23"], "time": [3168, 4099, 5314, 6999, 9667, 9682, 9731, 10197, 10619, 11715, 13215, 13963, 14263, 15131, 16886, 17931, 18580, 19033, 20014, 21148, 23113, 23662, 25480, 25963]}, "edge": {"target": [], "time": []}}, "mouseout": {"state": {"target": ["23", "0", "1", "2", "10", "8", "3", "4", "16", "12", "12", "13", "14", "12", "24", "23", "24", "25", "30", "28", "26", "26", "29", "30", "25", "30", "24"], "time": [914, 2376, 3914, 5264, 6932, 9653, 9681, 9698, 9947, 10364, 11649, 13182, 13482, 13532, 14168, 15080, 16347, 17898, 18546, 18598, 19535, 19998, 21047, 23047, 23629, 25463, 25496]}, "edge": {"target": [], "time": []}}}, "displayed_time": "29.85", "trialTime": 32833, "trial_type": "mouselab-mdp", "trial_index": 10, "time_elapsed": 843506, "internal_node_id": "0.0-6.0-1.0-1.0"}}, {"uniqueid": "w37570436:a49319988", "current_trial": 11, "dateTime": 1693567983356, "trialdata": {"revealed_states": [], "clicked_states": ["1", "2", "3", "4", "6", "12", "13", "14", "23", "24", "25", "30", "31"], "num_clicks_accrued": [0, 0, 0, 0, 0, 0, 0, 0, 0, 0, 0, 0, 0], "stateRewards": ["", 1, -3, -4, -11, -56, 61, -47, -16, -28, -9, 69, -2, -3, -4, -8, 40, -86, 59, -4, 80, 27, 54, -1, 3, -1, 8, 67, 23, 50, 6, 83, -43, -29], "withholdReward": false, "trial_id": "mdp_trial_3", "block": "test", "trialIndex": 4, "score": 79.45, "costs": -10.55, "simulationMode": [null, null, null, null, null], "rewards": [-1, 3, -1, 6, 83], "path": ["0", "0", "23", "24", "25", "30", "31"], "rt": [24006, 18, 357, 527, 695], "actions": ["left", "left", "left", "down", "right"], "actionTimes": [25518, 26056, 26912, 27957, 29167], "queries": {"click": {"state": {"target": ["1", "2", "3", "4", "6", "12", "13", "14", "23", "24", "25", "30", "31"], "time": [2725, 3630, 4903, 6393, 7405, 10945, 12109, 13262, 14973, 16078, 17766, 19699, 20917]}, "edge": {"target": [], "time": []}}, "mouseover": {"state": {"target": ["1", "2", "3", "4", "6", "7", "12", "13", "14", "25", "24", "23", "24", "25", "25", "30", "31", "32", "23"], "time": [2293, 3122, 4388, 5956, 7040, 7941, 8090, 11606, 12756, 13856, 14238, 14488, 15456, 16805, 17280, 19005, 20355, 21855, 24571]}, "edge": {"target": [], "time": []}}, "mouseout": {"state": {"target": ["23", "22", "12", "0", "1", "2", "3", "4", "6", "7", "12", "13", "14", "13", "25", "24", "23", "24", "25", "25", "25", "30", "31", "32", "23"], "time": [389, 492, 725, 1071, 3072, 4322, 5889, 6990, 7889, 7973, 11523, 12689, 13756, 13789, 14206, 14387, 15085, 16755, 17088, 18588, 18990, 20338, 21805, 24476, 24912]}, "edge": {"target": [], "time": []}}}, "displayed_time": "29.68", "trialTime": 32100, "trial_type": "mouselab-mdp", "trial_index": 11, "time_elapsed": 875879, "internal_node_id": "0.0-6.0-1.0-2.0"}}, {"uniqueid": "w37570436:a49319988", "current_trial": 12, "dateTime": 1693568008306, "trialdata": {"revealed_states": [], "clicked_states": ["12", "13", "14", "19", "22", "21", "20"], "num_clicks_accrued": [0, 0, 0, 0, 0, 0, 0, 0, 0, 0, 0, 0, 0], "stateRewards": ["", 2, 3, 8, 14, 69, -27, 17, 2, -71, -65, -10, 2, -3, 7, 8, 65, -10, 65, -12, 73, -12, 13, -2, -2, 6, 10, -79, -69, -18, 10, -85, 67, 74], "withholdReward": false, "trial_id": "mdp_trial_4", "block": "test", "trialIndex": 5, "score": 57.95, "costs": -9.05, "simulationMode": [null, null, null, null, null], "rewards": [2, -3, 7, -12, 73], "path": ["0", "0", "12", "13", "14", "19", "20"], "rt": [17869, 304, 117, 579, 87], "actions": ["right", "right", "right", "down", "right"], "actionTimes": [19719, 20538, 21168, 22265, 22870], "queries": {"click": {"state": {"target": ["12", "13", "14", "19", "22", "21", "20"], "time": [3065, 3959, 4886, 7261, 8556, 11926, 15295]}, "edge": {"target": [], "time": []}}, "mouseover": {"state": {"target": ["12", "13", "14", "19", "22", "21", "20", "12", "0", "23", "0", "12"], "time": [2668, 3552, 4518, 5684, 7952, 9150, 12734, 15967, 16358, 16434, 18898, 18983]}, "edge": {"target": [], "time": []}}, "mouseout": {"state": {"target": ["0", "12", "13", "14", "19", "22", "21", "20", "20", "12", "0", "23", "0"], "time": [919, 3517, 4435, 5402, 7918, 9066, 12483, 15415, 15867, 16333, 16383, 18866, 18932]}, "edge": {"target": [], "time": []}}}, "displayed_time": "23.39", "trialTime": 24681, "trial_type": "mouselab-mdp", "trial_index": 12, "time_elapsed": 900828, "internal_node_id": "0.0-6.0-1.0-3.0"}}, {"uniqueid": "w37570436:a49319988", "current_trial": 13, "dateTime": 1693568030831, "trialdata": {"revealed_states": [], "clicked_states": ["23", "24", "25", "30", "33", "31"], "num_clicks_accrued": [0, 0, 0, 0, 0, 0, 0, 0, 0, 0, 0, 0, 0], "stateRewards": ["", 1, -2, -2, 10, -31, -77, 35, 9, -47, 8, 48, -2, 1, -4, -3, -26, -50, 43, -11, 76, -38, 17, 1, -1, 6, 10, 15, -9, 12, -8, 85, 11, -55], "withholdReward": false, "trial_id": "mdp_trial_5", "block": "test", "trialIndex": 6, "score": 76.1, "costs": -6.9, "simulationMode": [null, null, null, null, null], "rewards": [1, -1, 6, -8, 85], "path": ["0", "0", "23", "24", "25", "30", "31"], "rt": [14832, 86, 116, 68, 567], "actions": ["left", "left", "left", "down", "right"], "actionTimes": [16888, 17472, 18101, 18686, 19768], "queries": {"click": {"state": {"target": ["23", "24", "25", "30", "33", "31"], "time": [3125, 4476, 5768, 7250, 8626, 11914]}, "edge": {"target": [], "time": []}}, "mouseover": {"state": {"target": ["23", "23", "24", "25", "30", "33", "31", "32", "24"], "time": [2483, 2767, 4057, 5084, 6503, 8051, 9251, 12417, 15900]}, "edge": {"target": [], "time": []}}, "mouseout": {"state": {"target": ["12", "0", "23", "23", "24", "25", "25", "30", "33", "31", "32", "24"], "time": [1099, 2456, 2555, 3551, 5050, 5801, 6452, 8034, 9167, 12401, 15851, 15915]}, "edge": {"target": [], "time": []}}}, "displayed_time": "20.28", "trialTime": 22226, "trial_type": "mouselab-mdp", "trial_index": 13, "time_elapsed": 923354, "internal_node_id": "0.0-6.0-1.0-4.0"}}, {"uniqueid": "w37570436:a49319988", "current_trial": 14, "dateTime": 1693568057050, "trialdata": {"revealed_states": [], "clicked_states": ["1", "2", "3", "4", "5", "6", "7"], "num_clicks_accrued": [0, 0, 0, 0, 0, 0, 0, 0, 0, 0, 0, 0, 0], "stateRewards": ["", 1, 4, -4, 14, 35, 51, 19, -13, 54, 78, -74, -2, -1, -3, 13, -11, -42, -73, -15, -24, -3, -69, 2, -1, 5, 16, -27, 73, 58, 9, -60, 5, -60], "withholdReward": false, "trial_id": "mdp_trial_6", "block": "test", "trialIndex": 7, "score": 56.95, "costs": -9.05, "simulationMode": [null, null, null, null, null], "rewards": [1, 4, -4, 14, 51], "path": ["0", "0", "1", "2", "3", "4", "6"], "rt": [19059, 157, 352, 477, 123], "actions": ["up", "up", "up", "right", "right"], "actionTimes": [20765, 21443, 22305, 23298, 23942], "queries": {"click": {"state": {"target": ["1", "2", "3", "4", "5", "6", "7"], "time": [3758, 5067, 6967, 8782, 10337, 13884, 17580]}, "edge": {"target": [], "time": []}}, "mouseover": {"state": {"target": ["1", "2", "2", "3", "4", "5", "6", "7"], "time": [3236, 4237, 4620, 6301, 8034, 9703, 11536, 14618]}, "edge": {"target": [], "time": []}}, "mouseout": {"state": {"target": ["1", "2", "2", "2", "3", "4", "4", "5", "6", "7"], "time": [4188, 4253, 5175, 6257, 7986, 9352, 9669, 11203, 14485, 18101]}, "edge": {"target": [], "time": []}}}, "displayed_time": "24.45", "trialTime": 25931, "trial_type": "mouselab-mdp", "trial_index": 14, "time_elapsed": 949573, "internal_node_id": "0.0-6.0-1.0-5.0"}}, {"uniqueid": "w37570436:a49319988", "current_trial": 15, "dateTime": 1693568081053, "trialdata": {"revealed_states": [], "clicked_states": ["23", "24", "25", "30", "31", "32"], "num_clicks_accrued": [0, 0, 0, 0, 0, 0, 0, 0, 0, 0, 0, 0, 0], "stateRewards": ["", -2, -4, -2, -13, -15, 87, -19, -6, -80, 30, 12, 1, 1, -8, 2, 55, 56, 15, 11, -68, -7, 55, -2, 3, -3, -3, 48, 62, 4, 1, -3, 69, -33], "withholdReward": false, "trial_id": "mdp_trial_7", "block": "test", "trialIndex": 8, "score": 61.1, "costs": -6.9, "simulationMode": [null, null, null, null, null], "rewards": [-2, 3, -3, 1, 69], "path": ["0", "0", "23", "24", "25", "30", "32"], "rt": [16160, 108, 151, 28, 48], "actions": ["left", "left", "left", "down", "down"], "actionTimes": [19441, 20072, 20731, 21257, 21811], "queries": {"click": {"state": {"target": ["23", "24", "25", "30", "31", "32"], "time": [5017, 6034, 7251, 8824, 10229, 14465]}, "edge": {"target": [], "time": []}}, "mouseover": {"state": {"target": ["1", "23", "24", "25", "30", "31", "31", "32", "33", "33", "31", "30", "24", "23", "0"], "time": [3885, 4578, 5563, 6763, 8113, 9513, 9846, 13845, 16245, 17452, 17894, 17978, 18316, 18332, 18377]}, "edge": {"target": [], "time": []}}, "mouseout": {"state": {"target": ["1", "1", "23", "23", "24", "25", "30", "31", "31", "32", "31", "33", "33", "31", "30", "24", "23"], "time": [1199, 4302, 5091, 5496, 6580, 8029, 9496, 9614, 13728, 15263, 15312, 16312, 17463, 17945, 18044, 18329, 18361]}, "edge": {"target": [], "time": []}}}, "displayed_time": "22.34", "trialTime": 23696, "trial_type": "mouselab-mdp", "trial_index": 15, "time_elapsed": 973575, "internal_node_id": "0.0-6.0-1.0-6.0"}}, {"uniqueid": "w37570436:a49319988", "current_trial": 16, "dateTime": 1693568106017, "trialdata": {"revealed_states": [], "clicked_states": ["12", "13", "14", "15", "18", "16", "17"], "num_clicks_accrued": [0, 0, 0, 0, 0, 0, 0, 0, 0, 0, 0, 0, 0], "stateRewards": ["", 2, -2, -3, 10, -4, -1, -11, -8, -9, -36, -78, 2, 1, 7, -7, 44, -1, -31, -1, 26, 47, 83, 2, -4, -4, -6, -52, -76, -81, -1, -59, 45, 67], "withholdReward": false, "trial_id": "mdp_trial_8", "block": "test", "trialIndex": 9, "score": 37.95, "costs": -9.05, "simulationMode": [null, null, null, null, null], "rewards": [2, 1, 7, -7, 44], "path": ["0", "0", "12", "13", "14", "15", "16"], "rt": [17970, 117, 205, 71, 88], "actions": ["right", "right", "right", "up", "up"], "actionTimes": [20041, 20676, 21379, 21962, 22563], "queries": {"click": {"state": {"target": ["12", "13", "14", "15", "18", "16", "17"], "time": [4446, 5415, 6457, 7825, 9224, 12497, 15913]}, "edge": {"target": [], "time": []}}, "mouseover": {"state": {"target": ["12", "1", "1", "12", "13", "14", "15", "18", "16", "17", "15", "14"], "time": [2673, 3073, 3379, 4075, 4990, 6024, 7322, 8639, 10106, 13040, 16656, 16908]}, "edge": {"target": [], "time": []}}, "mouseout": {"state": {"target": ["0", "12", "1", "1", "12", "13", "14", "15", "18", "16", "17", "17", "15"], "time": [1442, 3041, 3105, 3672, 4908, 5973, 7206, 8606, 9723, 12939, 15963, 16539, 16772]}, "edge": {"target": [], "time": []}}}, "displayed_time": "23.07", "trialTime": 24658, "trial_type": "mouselab-mdp", "trial_index": 16, "time_elapsed": 998540, "internal_node_id": "0.0-6.0-1.0-7.0"}}, {"uniqueid": "w37570436:a49319988", "current_trial": 17, "dateTime": 1693568125521, "trialdata": {"revealed_states": [], "clicked_states": ["23", "24", "25", "26", "30", "32"], "num_clicks_accrued": [0, 0, 0, 0, 0, 0, 0, 0, 0, 0, 0, 0, 0], "stateRewards": ["", 1, 1, -5, 10, -31, 73, 14, -8, -23, 63, -70, -1, 2, 8, 7, 25, -59, 27, -10, -40, -71, -15, -2, 3, -8, -5, -19, 77, -34, 7, 67, 63, 19], "withholdReward": false, "trial_id": "mdp_trial_9", "block": "test", "trialIndex": 10, "score": 56.7, "costs": -6.299999999999999, "simulationMode": [null, null, null, null, null], "rewards": [-2, 3, -8, 7, 63], "path": ["0", "0", "23", "24", "25", "30", "32"], "rt": [12897, 124, 356, 47, 690], "actions": ["left", "left", "left", "down", "down"], "actionTimes": [14465, 15094, 15960, 16517, 17745], "queries": {"click": {"state": {"target": ["23", "24", "25", "26", "30", "32"], "time": [2608, 3512, 4537, 6083, 8250, 9643]}, "edge": {"target": [], "time": []}}, "mouseover": {"state": {"target": ["0", "23", "24", "25", "26", "29", "29", "32", "30", "32", "32", "31", "31", "23", "0"], "time": [2056, 2270, 3102, 4085, 5667, 6835, 7206, 7769, 7801, 8769, 9119, 10318, 10601, 13768, 13884]}, "edge": {"target": [], "time": []}}, "mouseout": {"state": {"target": ["14", "12", "0", "23", "24", "25", "26", "29", "29", "32", "30", "30", "32", "32", "31", "31", "23"], "time": [690, 736, 2118, 3068, 4068, 5618, 6818, 6934, 7302, 7784, 8307, 8752, 8786, 10252, 10369, 13690, 13834]}, "edge": {"target": [], "time": []}}}, "displayed_time": "18.25", "trialTime": 19194, "trial_type": "mouselab-mdp", "trial_index": 17, "time_elapsed": 1018044, "internal_node_id": "0.0-6.0-1.0-8.0"}}, {"uniqueid": "w37570436:a49319988", "current_trial": 18, "dateTime": 1693568143538, "trialdata": {"revealed_states": [], "clicked_states": ["12", "13", "14", "19", "22"], "num_clicks_accrued": [0, 0, 0, 0, 0, 0, 0, 0, 0, 0, 0, 0, 0], "stateRewards": ["", 1, -1, 4, 5, -32, 18, 20, 6, -88, -74, 9, -2, 1, -2, -14, 34, -77, -38, -1, 80, -36, 73, 2, 3, -8, 10, -48, -73, -71, -11, -22, 20, 54], "withholdReward": false, "trial_id": "mdp_trial_10", "block": "test", "trialIndex": 11, "score": 64.25, "costs": -4.75, "simulationMode": [null, null, null, null, null], "rewards": [-2, 1, -2, -1, 73], "path": ["0", "0", "12", "13", "14", "19", "22"], "rt": [11092, 145, 120, 712, 81], "actions": ["right", "right", "right", "down", "left"], "actionTimes": [12559, 13226, 13867, 15094, 15693], "queries": {"click": {"state": {"target": ["12", "13", "14", "19", "22"], "time": [2623, 4329, 5571, 6850, 7851]}, "edge": {"target": [], "time": []}}, "mouseover": {"state": {"target": ["12", "13", "14", "19", "22", "0", "1", "12"], "time": [1952, 3263, 4913, 6497, 7496, 8480, 8530, 11761]}, "edge": {"target": [], "time": []}}, "mouseout": {"state": {"target": ["0", "12", "13", "14", "14", "19", "22", "0", "1", "12"], "time": [678, 3146, 4863, 5604, 6264, 7463, 8430, 8497, 11668, 11778]}, "edge": {"target": [], "time": []}}}, "displayed_time": "16.21", "trialTime": 17705, "trial_type": "mouselab-mdp", "trial_index": 18, "time_elapsed": 1036060, "internal_node_id": "0.0-6.0-1.0-9.0"}}, {"uniqueid": "w37570436:a49319988", "current_trial": 19, "dateTime": 1693568167205, "trialdata": {"revealed_states": [], "clicked_states": ["23", "24", "25", "30", "31", "32", "33"], "num_clicks_accrued": [0, 0, 0, 0, 0, 0, 0, 0, 0, 0, 0, 0, 0], "stateRewards": ["", 2, -3, 5, 11, -79, 54, 11, -9, -78, 33, 22, -2, -1, 2, 14, 43, 34, 1, 10, 49, -65, 39, -1, 1, -1, 3, -16, -2, 11, 2, 12, 48, -65], "withholdReward": false, "trial_id": "mdp_trial_11", "block": "test", "trialIndex": 12, "score": 39.95, "costs": -9.05, "simulationMode": [null, null, null, null, null], "rewards": [-1, 1, -1, 2, 48], "path": ["0", "0", "23", "24", "25", "30", "32"], "rt": [16993, 437, 217, 310, 23], "actions": ["left", "left", "left", "down", "down"], "actionTimes": [18878, 19819, 20549, 21375, 21906], "queries": {"click": {"state": {"target": ["23", "24", "25", "30", "31", "32", "33"], "time": [3695, 4627, 5659, 7348, 8496, 11750, 15107]}, "edge": {"target": [], "time": []}}, "mouseover": {"state": {"target": ["0", "23", "24", "25", "30", "30", "31", "32", "33"], "time": [2375, 2881, 4198, 5199, 6714, 6985, 7868, 9180, 12297]}, "edge": {"target": [], "time": []}}, "mouseout": {"state": {"target": ["12", "0", "0", "23", "24", "25", "30", "30", "31", "32", "33"], "time": [1116, 1432, 2836, 4165, 5166, 6649, 6764, 7848, 8964, 12247, 17731]}, "edge": {"target": [], "time": []}}}, "displayed_time": "22.41", "trialTime": 23359, "trial_type": "mouselab-mdp", "trial_index": 19, "time_elapsed": 1059728, "internal_node_id": "0.0-6.0-1.0-10.0"}}, {"uniqueid": "w37570436:a49319988", "current_trial": 20, "dateTime": 1693568185768, "trialdata": {"revealed_states": [], "clicked_states": ["1", "2", "3", "8", "9"], "num_clicks_accrued": [0, 0, 0, 0, 0, 0, 0, 0, 0, 0, 0, 0, 0], "stateRewards": ["", 2, -1, -1, -9, -81, -30, 55, -6, 78, 25, 62, 2, 4, -1, 9, -85, 1, -19, 1, -60, 12, -34, 1, 4, -1, -13, -24, -16, -83, -8, 16, 43, 9], "withholdReward": false, "trial_id": "mdp_trial_12", "block": "test", "trialIndex": 13, "score": 67.25, "costs": -4.75, "simulationMode": [null, null, null, null, null], "rewards": [2, -1, -1, -6, 78], "path": ["0", "0", "1", "2", "3", "8", "9"], "rt": [11793, 302, 140, 516, 79], "actions": ["up", "up", "up", "left", "up"], "actionTimes": [13370, 14181, 14833, 15858, 16453], "queries": {"click": {"state": {"target": ["1", "2", "3", "8", "9"], "time": [2384, 3443, 4579, 6222, 8742]}, "edge": {"target": [], "time": []}}, "mouseover": {"state": {"target": ["1", "2", "3", "8", "8", "9", "11"], "time": [1993, 2975, 4108, 5492, 5843, 8025, 9492]}, "edge": {"target": [], "time": []}}, "mouseout": {"state": {"target": ["30", "31", "0", "1", "2", "3", "8", "8", "9"], "time": [533, 559, 1847, 2876, 3516, 5476, 5509, 7382, 9341]}, "edge": {"target": [], "time": []}}}, "displayed_time": "16.99", "trialTime": 18251, "trial_type": "mouselab-mdp", "trial_index": 20, "time_elapsed": 1078291, "internal_node_id": "0.0-6.0-1.0-11.0"}}, {"uniqueid": "w37570436:a49319988", "current_trial": 21, "dateTime": 1693568206125, "trialdata": {"revealed_states": [], "clicked_states": ["12", "13", "14", "15", "16"], "num_clicks_accrued": [0, 0, 0, 0, 0, 0, 0, 0, 0, 0, 0, 0, 0], "stateRewards": ["", -1, 2, 7, 8, 75, 67, -11, 6, 52, -17, 38, -1, 4, -8, 14, 74, -37, -17, -12, 52, 55, 71, -2, -1, -5, 2, 21, 6, -88, -14, 64, -61, -47], "withholdReward": false, "trial_id": "mdp_trial_13", "block": "test", "trialIndex": 14, "score": 78.25, "costs": -4.75, "simulationMode": [null, null, null, null, null], "rewards": [-1, 4, -8, 14, 74], "path": ["0", "0", "12", "13", "14", "15", "16"], "rt": [12863, 81, 218, 283, 139], "actions": ["right", "right", "right", "up", "up"], "actionTimes": [14562, 15166, 15903, 16717, 17372], "queries": {"click": {"state": {"target": ["12", "13", "14", "15", "16"], "time": [4477, 5409, 6429, 8583, 10131]}, "edge": {"target": [], "time": []}}, "mouseover": {"state": {"target": ["12", "13", "14", "15", "16", "16", "17"], "time": [4066, 5018, 5968, 8016, 9473, 9783, 10667]}, "edge": {"target": [], "time": []}}, "mouseout": {"state": {"target": ["11", "10", "0", "12", "13", "14", "14", "15", "16", "16"], "time": [704, 736, 4023, 4918, 5917, 7254, 7954, 9438, 9517, 10599]}, "edge": {"target": [], "time": []}}}, "displayed_time": "17.88", "trialTime": 20053, "trial_type": "mouselab-mdp", "trial_index": 21, "time_elapsed": 1098648, "internal_node_id": "0.0-6.0-1.0-12.0"}}, {"uniqueid": "w37570436:a49319988", "current_trial": 22, "dateTime": 1693568229941, "trialdata": {"revealed_states": [], "clicked_states": ["1", "2", "3", "4", "8"], "num_clicks_accrued": [0, 0, 0, 0, 0, 0, 0, 0, 0, 0, 0, 0, 0], "stateRewards": ["", -2, -3, 7, -13, 60, 9, 37, -6, 37, 20, 1, 2, -2, -8, 6, -80, -31, -10, -7, 70, -65, -44, -1, 1, 7, 6, -11, 73, -85, 16, -21, 47, 34], "withholdReward": false, "trial_id": "mdp_trial_14", "block": "test", "trialIndex": 15, "score": -7.149999999999999, "costs": -4.1499999999999995, "simulationMode": [null, null, null, null, null], "rewards": [-2, -3, 7, -6, 1], "path": ["0", "0", "1", "2", "3", "8", "11"], "rt": [15740, 154, 148, 509, 287], "actions": ["up", "up", "up", "left", "left"], "actionTimes": [17716, 18385, 19045, 20073, 20867], "queries": {"click": {"state": {"target": ["1", "2", "3", "4", "8"], "time": [3027, 4117, 5181, 6615, 9103]}, "edge": {"target": [], "time": []}}, "mouseover": {"state": {"target": ["1", "2", "3", "4", "6", "6", "8", "8", "3", "4", "3", "10"], "time": [2596, 3680, 4762, 6013, 7712, 7956, 8462, 8812, 9762, 9812, 9997, 10045]}, "edge": {"target": [], "time": []}}, "mouseout": {"state": {"target": ["17", "1", "0", "1", "2", "3", "4", "6", "6", "4", "8", "8", "3", "4", "3"], "time": [816, 1181, 2450, 3447, 4696, 5962, 7678, 7795, 8378, 8413, 8479, 9745, 9795, 9995, 10012]}, "edge": {"target": [], "time": []}}}, "displayed_time": "21.38", "trialTime": 23483, "trial_type": "mouselab-mdp", "trial_index": 22, "time_elapsed": 1122464, "internal_node_id": "0.0-6.0-1.0-13.0"}}, {"uniqueid": "w37570436:a49319988", "current_trial": 23, "dateTime": 1693568250335, "trialdata": {"revealed_states": [], "clicked_states": ["12", "13", "19", "21"], "num_clicks_accrued": [0, 0, 0, 0, 0, 0, 0, 0, 0, 0, 0, 0, 0], "stateRewards": ["", 1, 2, -3, -6, 50, -7, 7, -7, -80, 21, -1, 2, 2, 4, -1, 33, 84, 1, 14, -53, 81, 6, -2, -2, -3, -9, -87, -38, -59, -5, -74, -3, -71], "withholdReward": false, "trial_id": "mdp_trial_15", "block": "test", "trialIndex": 16, "score": 99.2, "costs": -3.8, "simulationMode": [null, null, null, null, null], "rewards": [2, 2, 4, 14, 81], "path": ["0", "0", "12", "13", "14", "19", "21"], "rt": [8485, 150, 180, 645, 111], "actions": ["right", "right", "right", "down", "down"], "actionTimes": [12698, 13369, 14065, 15213, 15828], "queries": {"click": {"state": {"target": ["12", "13", "19", "21"], "time": [5561, 6588, 7612, 8292]}, "edge": {"target": [], "time": []}}, "mouseover": {"state": {"target": ["12", "13", "14", "19", "21", "22", "12"], "time": [5224, 6151, 6986, 7284, 7984, 9001, 11832]}, "edge": {"target": [], "time": []}}, "mouseout": {"state": {"target": ["10", "1", "0", "12", "13", "14", "19", "21", "22", "12"], "time": [454, 553, 4662, 6117, 6884, 7251, 7951, 8968, 11769, 12074]}, "edge": {"target": [], "time": []}}}, "displayed_time": "18.21", "trialTime": 20034, "trial_type": "mouselab-mdp", "trial_index": 23, "time_elapsed": 1142859, "internal_node_id": "0.0-6.0-1.0-14.0"}}, {"uniqueid": "w37570436:a49319988", "current_trial": 24, "dateTime": 1693568272468, "trialdata": {"revealed_states": [], "clicked_states": ["23", "24", "25", "30", "32", "31", "33"], "num_clicks_accrued": [0, 0, 0, 0, 0, 0, 0, 0, 0, 0, 0, 0, 0], "stateRewards": ["", 2, 4, 7, 7, -79, -2, -21, -5, -53, 47, -21, 1, -3, -1, 7, 83, 7, 84, -7, 80, -37, 69, 2, -4, 5, 2, 4, -20, -30, 7, 71, 44, -81], "withholdReward": false, "trial_id": "mdp_trial_16", "block": "test", "trialIndex": 17, "score": 71.95, "costs": -9.05, "simulationMode": [null, null, null, null, null], "rewards": [2, -4, 5, 7, 71], "path": ["0", "0", "23", "24", "25", "30", "31"], "rt": [14509, 41, 70, 529, 646], "actions": ["left", "left", "left", "down", "right"], "actionTimes": [16927, 17480, 18076, 19120, 20284], "queries": {"click": {"state": {"target": ["23", "24", "25", "30", "32", "31", "33"], "time": [3258, 4150, 4980, 5763, 6823, 10181, 13694]}, "edge": {"target": [], "time": []}}, "mouseover": {"state": {"target": ["23", "24", "25", "30", "32", "32", "31", "31", "30", "33"], "time": [2988, 3723, 4660, 5439, 6255, 6489, 7505, 7840, 10640, 10722]}, "edge": {"target": [], "time": []}}, "mouseout": {"state": {"target": ["12", "0", "0", "23", "24", "25", "30", "32", "32", "31", "31", "30", "33"], "time": [1288, 1354, 2954, 3673, 4640, 5389, 6241, 6306, 7405, 7639, 10605, 10672, 14205]}, "edge": {"target": [], "time": []}}}, "displayed_time": "20.80", "trialTime": 21790, "trial_type": "mouselab-mdp", "trial_index": 24, "time_elapsed": 1164992, "internal_node_id": "0.0-6.0-1.0-15.0"}}, {"uniqueid": "w37570436:a49319988", "current_trial": 25, "dateTime": 1693568296005, "trialdata": {"revealed_states": [], "clicked_states": ["12", "13", "14", "19", "15", "18", "16", "17"], "num_clicks_accrued": [0, 0, 0, 0, 0, 0, 0, 0, 0, 0, 0, 0, 0], "stateRewards": ["", 1, 2, 2, -15, -84, 28, -26, 13, 31, 86, 30, -2, 1, -1, -8, 66, -40, -1, -10, -32, 57, -17, 1, 2, -2, 9, -23, 77, 85, 12, -32, -62, -35], "withholdReward": false, "trial_id": "mdp_trial_17", "block": "test", "trialIndex": 18, "score": 45.4, "costs": -10.6, "simulationMode": [null, null, null, null, null], "rewards": [-2, 1, -1, -8, 66], "path": ["0", "0", "12", "13", "14", "15", "16"], "rt": [17565, 284, 125, 224, 82], "actions": ["right", "right", "right", "up", "up"], "actionTimes": [19021, 19822, 20455, 21189, 21779], "queries": {"click": {"state": {"target": ["12", "13", "14", "19", "15", "18", "16", "17"], "time": [2176, 2956, 3938, 4992, 7897, 9180, 12592, 15912]}, "edge": {"target": [], "time": []}}, "mouseover": {"state": {"target": ["12", "13", "14", "19", "15", "18", "16", "16", "17", "13"], "time": [1884, 2548, 3497, 4564, 5752, 8614, 9930, 10696, 13263, 16730]}, "edge": {"target": [], "time": []}}, "mouseout": {"state": {"target": ["23", "0", "12", "13", "14", "19", "14", "15", "18", "16", "16", "17"], "time": [579, 1652, 2514, 3448, 4531, 5699, 5729, 8580, 9713, 10096, 13196, 16513]}, "edge": {"target": [], "time": []}}}, "displayed_time": "22.28", "trialTime": 23188, "trial_type": "mouselab-mdp", "trial_index": 25, "time_elapsed": 1188528, "internal_node_id": "0.0-6.0-1.0-16.0"}}, {"uniqueid": "w37570436:a49319988", "current_trial": 26, "dateTime": 1693568322832, "trialdata": {"revealed_states": [], "clicked_states": ["1", "2", "3", "8", "4", "10", "11", "9", "5"], "num_clicks_accrued": [0, 0, 0, 0, 0, 0, 0, 0, 0, 0, 0, 0, 0], "stateRewards": ["", 2, -1, -4, -13, 74, 77, 3, 2, -43, -2, -11, 2, 3, 7, 11, -26, -29, -33, -3, -3, -13, -3, 1, 3, -7, 14, -59, 33, 9, -5, 34, 79, 68], "withholdReward": false, "trial_id": "mdp_trial_18", "block": "test", "trialIndex": 19, "score": 45.25, "costs": -12.75, "simulationMode": [null, null, null, null, null], "rewards": [2, -1, -4, -13, 74], "path": ["0", "0", "1", "2", "3", "4", "5"], "rt": [20238, 2, 134, 29, 100], "actions": ["up", "up", "up", "right", "up"], "actionTimes": [21750, 22271, 22920, 23464, 24084], "queries": {"click": {"state": {"target": ["1", "2", "3", "8", "4", "10", "11", "9", "5"], "time": [2301, 3063, 4143, 5197, 6410, 7403, 10513, 13768, 16992]}, "edge": {"target": [], "time": []}}, "mouseover": {"state": {"target": ["1", "2", "3", "8", "4", "4", "10", "11", "11", "9", "5", "4", "7", "7"], "time": [2003, 2686, 3801, 4884, 5868, 6119, 7136, 8018, 8373, 10951, 15968, 17541, 17668, 18100]}, "edge": {"target": [], "time": []}}, "mouseout": {"state": {"target": ["13", "12", "0", "1", "2", "3", "8", "3", "4", "4", "10", "11", "11", "9", "5", "4", "7", "7"], "time": [856, 883, 1889, 2585, 3735, 4834, 5801, 5852, 5918, 6919, 7968, 8052, 10902, 15184, 17467, 17583, 17817, 20368]}, "edge": {"target": [], "time": []}}}, "displayed_time": "24.60", "trialTime": 26469, "trial_type": "mouselab-mdp", "trial_index": 26, "time_elapsed": 1215354, "internal_node_id": "0.0-6.0-1.0-17.0"}}, {"uniqueid": "w37570436:a49319988", "current_trial": 27, "dateTime": 1693568350167, "trialdata": {"revealed_states": [], "clicked_states": ["23", "24", "25", "30", "32", "26", "29", "28", "27"], "num_clicks_accrued": [0, 0, 0, 0, 0, 0, 0, 0, 0, 0, 0, 0, 0], "stateRewards": ["", -1, -4, -6, -15, 21, -67, -63, 9, 51, 69, -14, -1, 3, 8, -8, 39, 72, 63, 15, 19, 47, 15, 1, 4, 5, 16, -18, 34, 35, -14, -80, 40, 1], "withholdReward": false, "trial_id": "mdp_trial_19", "block": "test", "trialIndex": 20, "score": 48.25, "costs": -12.75, "simulationMode": [null, null, null, null, null], "rewards": [1, 4, 5, 16, 35], "path": ["0", "0", "23", "24", "25", "26", "29"], "rt": [20787, 212, 304, 67, 210], "actions": ["left", "left", "left", "up", "left"], "actionTimes": [22064, 22799, 23625, 24205, 24915], "queries": {"click": {"state": {"target": ["23", "24", "25", "30", "32", "26", "29", "28", "27"], "time": [2169, 3047, 4383, 6846, 7960, 10797, 12126, 15040, 18699]}, "edge": {"target": [], "time": []}}, "mouseover": {"state": {"target": ["23", "24", "25", "30", "30", "32", "31", "26", "25", "29", "28", "27"], "time": [1636, 2619, 4053, 5054, 5337, 7571, 8555, 9586, 11270, 11620, 13069, 15819]}, "edge": {"target": [], "time": []}}, "mouseout": {"state": {"target": ["1", "0", "0", "23", "24", "25", "30", "30", "32", "31", "26", "26", "25", "29", "26", "28"], "time": [357, 456, 1574, 2586, 3603, 5037, 5087, 7520, 8059, 9236, 10992, 11236, 11536, 12753, 12854, 15753]}, "edge": {"target": [], "time": []}}}, "displayed_time": "25.44", "trialTime": 26976, "trial_type": "mouselab-mdp", "trial_index": 27, "time_elapsed": 1242689, "internal_node_id": "0.0-6.0-1.0-18.0"}}, {"uniqueid": "w37570436:a49319988", "current_trial": 28, "dateTime": 1693568377168, "trialdata": {"revealed_states": [], "clicked_states": ["12", "13", "14", "19", "15", "18", "17", "16"], "num_clicks_accrued": [0, 0, 0, 0, 0, 0, 0, 0, 0, 0, 0, 0, 0], "stateRewards": ["", 1, 1, -7, -9, -44, 24, -83, -15, 44, -24, 72, -2, -3, 4, -5, 57, 55, 29, -11, 22, 12, -25, -1, 2, 7, 12, 33, -8, 47, -4, 8, 50, -4], "withholdReward": false, "trial_id": "mdp_trial_20", "block": "test", "trialIndex": 21, "score": 40.4, "costs": -10.6, "simulationMode": [null, null, null, null, null], "rewards": [-2, -3, 4, -5, 57], "path": ["0", "0", "12", "13", "14", "15", "16"], "rt": [17423, 236, 384, 452, 170], "actions": ["right", "right", "right", "up", "up"], "actionTimes": [19993, 20739, 21636, 22588, 23272], "queries": {"click": {"state": {"target": ["12", "13", "14", "19", "15", "18", "17", "16"], "time": [3667, 4596, 5741, 6863, 8928, 10459, 13615, 16846]}, "edge": {"target": [], "time": []}}, "mouseover": {"state": {"target": ["12", "12", "13", "14", "19", "22", "22", "15", "21", "18", "17", "16", "15", "14"], "time": [3033, 3387, 4133, 5451, 6250, 7604, 7850, 8607, 9667, 10186, 11085, 14284, 17467, 17935]}, "edge": {"target": [], "time": []}}, "mouseout": {"state": {"target": ["27", "28", "23", "0", "12", "12", "13", "14", "19", "22", "22", "15", "19", "21", "18", "17", "16", "15"], "time": [700, 1271, 1655, 2973, 3252, 4067, 5385, 6218, 7550, 7634, 8237, 9567, 9634, 9800, 10578, 14101, 17434, 17533]}, "edge": {"target": [], "time": []}}}, "displayed_time": "23.77", "trialTime": 26644, "trial_type": "mouselab-mdp", "trial_index": 28, "time_elapsed": 1269691, "internal_node_id": "0.0-6.0-1.0-19.0"}}, {"uniqueid": "w37570436:a49319988", "current_trial": 29, "dateTime": 1693568399481, "trialdata": {"revealed_states": [], "clicked_states": ["1", "2", "3", "8", "4", "7", "6", "5"], "num_clicks_accrued": [0, 0, 0, 0, 0, 0, 0, 0, 0, 0, 0, 0, 0], "stateRewards": ["", -2, -1, -5, 10, -36, -70, 68, -9, 86, 71, -10, 2, -4, 7, -7, 66, 44, -66, -13, -69, 43, 15, -2, 2, 6, -13, 62, 57, 50, -10, -69, 42, -72], "withholdReward": false, "trial_id": "mdp_trial_21", "block": "test", "trialIndex": 22, "score": 59.4, "costs": -10.6, "simulationMode": [null, null, null, null, null], "rewards": [-2, -1, -5, 10, 68], "path": ["0", "0", "1", "2", "3", "4", "7"], "rt": [16221, 259, 169, 29, 30], "actions": ["up", "up", "up", "right", "down"], "actionTimes": [17670, 18421, 19097, 19640, 20189], "queries": {"click": {"state": {"target": ["1", "2", "3", "8", "4", "7", "6", "5"], "time": [2384, 3643, 4537, 5472, 6875, 7901, 11419, 14614]}, "edge": {"target": [], "time": []}}, "mouseover": {"state": {"target": ["1", "2", "2", "3", "8", "4", "7", "6", "5"], "time": [2076, 2828, 3287, 4215, 5179, 6195, 7428, 8483, 12027]}, "edge": {"target": [], "time": []}}, "mouseout": {"state": {"target": ["14", "0", "1", "2", "2", "3", "8", "3", "4", "7", "6", "5"], "time": [696, 1978, 2795, 2861, 3771, 5111, 5605, 6028, 7378, 8427, 11950, 15359]}, "edge": {"target": [], "time": []}}}, "displayed_time": "20.73", "trialTime": 21939, "trial_type": "mouselab-mdp", "trial_index": 29, "time_elapsed": 1292004, "internal_node_id": "0.0-6.0-1.0-20.0"}}, {"uniqueid": "w37570436:a49319988", "current_trial": 30, "dateTime": 1693568422230, "trialdata": {"revealed_states": [], "clicked_states": ["23", "24", "25", "26", "30", "28", "27", "29"], "num_clicks_accrued": [0, 0, 0, 0, 0, 0, 0, 0, 0, 0, 0, 0, 0], "stateRewards": ["", 2, -1, -1, 7, 11, -40, -22, -2, 69, 37, 8, -2, 4, -8, -12, -2, -72, -3, -12, 17, 63, 12, 1, 3, -7, 6, 25, 61, 61, -9, 28, -17, 27], "withholdReward": false, "trial_id": "mdp_trial_22", "block": "test", "trialIndex": 23, "score": 53.4, "costs": -10.6, "simulationMode": [null, null, null, null, null, null], "rewards": [1, 3, -7, 6, 61], "path": ["0", "0", "23", "24", "25", "26", "29"], "rt": [14786, 1243, 94, 343, 128, 424], "actions": ["left", "left", "left", "left", "up", "left"], "actionTimes": [16740, 17986, 18599, 19480, 20100, 21047], "queries": {"click": {"state": {"target": ["23", "24", "25", "26", "30", "28", "27", "29"], "time": [2707, 3599, 4488, 5474, 6633, 8286, 11527, 14906]}, "edge": {"target": [], "time": []}}, "mouseover": {"state": {"target": ["0", "23", "24", "25", "26", "30", "28", "27", "29"], "time": [2288, 2322, 3177, 4110, 5073, 6276, 7942, 8788, 12038]}, "edge": {"target": [], "time": []}}, "mouseout": {"state": {"target": ["4", "2", "1", "0", "23", "24", "25", "26", "25", "30", "25", "28", "27"], "time": [725, 790, 1088, 2306, 3139, 4076, 4955, 5972, 6038, 7222, 7421, 8726, 11972]}, "edge": {"target": [], "time": []}}}, "displayed_time": "21.55", "trialTime": 22400, "trial_type": "mouselab-mdp", "trial_index": 30, "time_elapsed": 1314754, "internal_node_id": "0.0-6.0-1.0-21.0"}}, {"uniqueid": "w37570436:a49319988", "current_trial": 31, "dateTime": 1693568461474, "trialdata": {"revealed_states": [], "clicked_states": ["12", "13", "14", "19", "15", "18", "16", "17", "20", "22", "21"], "num_clicks_accrued": [0, 0, 0, 0, 0, 0, 0, 0, 0, 0, 0, 0, 0], "stateRewards": ["", -1, 1, 3, -8, -23, -15, -14, -11, -23, 58, 68, 1, 3, 5, 12, -17, -41, -7, -10, -4, 82, 10, 1, 4, -4, 11, 73, 55, -55, -1, -86, -86, 54], "withholdReward": false, "trial_id": "mdp_trial_23", "block": "test", "trialIndex": 24, "score": 63.95, "costs": -17.05, "simulationMode": [null, null, null, null, null], "rewards": [1, 3, 5, -10, 82], "path": ["0", "0", "12", "13", "14", "19", "21"], "rt": [27919, 315, 142, 26, 112], "actions": ["right", "right", "right", "down", "down"], "actionTimes": [29688, 30523, 31182, 31700, 32320], "queries": {"click": {"state": {"target": ["12", "13", "14", "19", "15", "18", "16", "17", "20", "22", "21"], "time": [3429, 4572, 5385, 6705, 7689, 8646, 11997, 15184, 18566, 22614, 25755]}, "edge": {"target": [], "time": []}}, "mouseover": {"state": {"target": ["12", "13", "14", "19", "19", "15", "18", "16", "16", "17", "20", "19", "22", "22", "21", "21"], "time": [3167, 4227, 5024, 5875, 6208, 7374, 8327, 9091, 9462, 12541, 16978, 19188, 19441, 22312, 23140, 23458]}, "edge": {"target": [], "time": []}}, "mouseout": {"state": {"target": ["29", "24", "23", "0", "12", "13", "14", "19", "19", "14", "15", "18", "16", "16", "17", "17", "20", "19", "22", "22", "21", "21"], "time": [629, 692, 740, 2695, 4208, 4992, 5858, 6041, 7308, 7358, 8277, 9074, 9125, 12458, 15286, 16707, 19164, 19215, 21327, 23106, 23174, 29156]}, "edge": {"target": [], "time": []}}}, "displayed_time": "32.84", "trialTime": 38881, "trial_type": "mouselab-mdp", "trial_index": 31, "time_elapsed": 1353996, "internal_node_id": "0.0-6.0-1.0-22.0"}}, {"uniqueid": "w37570436:a49319988", "current_trial": 32, "dateTime": 1693568507476, "trialdata": {"revealed_states": [], "clicked_states": ["32", "31", "33", "29", "27", "11", "9", "5", "6", "7", "16"], "num_clicks_accrued": [0, 0, 0, 0, 0, 0, 0, 0, 0, 0, 0, 0, 0], "stateRewards": ["", -2, -4, -6, 12, -58, -70, -80, 2, 16, -88, -62, 1, 2, -5, 11, 77, -35, -44, -5, 18, -83, 87, 1, -3, -5, 13, -44, -21, -86, 10, -52, 8, 29], "withholdReward": false, "trial_id": "mdp_trial_24", "block": "test", "trialIndex": 25, "score": 62.35000000000001, "costs": -23.649999999999995, "simulationMode": [null, null, null, null, null], "rewards": [1, 2, -5, 11, 77], "path": ["0", "0", "12", "13", "14", "15", "16"], "rt": [38711, 349, 123, 412, 149], "actions": ["right", "right", "right", "up", "up"], "actionTimes": [41183, 42036, 42677, 43601, 44269], "queries": {"click": {"state": {"target": ["32", "31", "33", "29", "27", "11", "9", "5", "6", "7", "16"], "time": [3443, 6721, 9911, 13100, 16328, 19605, 22791, 26191, 29406, 33943, 37176]}, "edge": {"target": [], "time": []}}, "mouseover": {"state": {"target": ["0", "31", "32", "31", "30", "33", "29", "27", "11", "9", "5", "6", "7", "16", "17"], "time": [2878, 2954, 3037, 3856, 7189, 7256, 10456, 13705, 17005, 20571, 23388, 27837, 30221, 34621, 37736]}, "edge": {"target": [], "time": []}}, "mouseout": {"state": {"target": ["12", "0", "0", "31", "32", "31", "30", "33", "29", "27", "11", "9", "5", "6", "7", "16"], "time": [1011, 1803, 2904, 2971, 3563, 7156, 7205, 10355, 13655, 16436, 20504, 23321, 27254, 29988, 34540, 37670]}, "edge": {"target": [], "time": []}}}, "displayed_time": "44.79", "trialTime": 45586, "trial_type": "mouselab-mdp", "trial_index": 32, "time_elapsed": 1399999, "internal_node_id": "0.0-6.0-1.0-23.0"}}, {"uniqueid": "w37570436:a49319988", "current_trial": 33, "dateTime": 1693568527518, "trialdata": {"revealed_states": [], "clicked_states": ["22", "21", "20"], "num_clicks_accrued": [0, 0, 0, 0, 0, 0, 0, 0, 0, 0, 0, 0, 0], "stateRewards": ["", 1, 2, 8, -2, 23, -69, -18, -16, 54, -21, 71, -1, -4, 7, 11, 43, -6, 88, 6, -55, 72, 43, 1, -3, -2, -1, 68, -31, -54, 4, -8, 25, -2], "withholdReward": false, "trial_id": "mdp_trial_25", "block": "test", "trialIndex": 26, "score": 73.55, "costs": -6.449999999999999, "simulationMode": [null, null, null, null, null], "rewards": [-1, -4, 7, 6, 72], "path": ["0", "0", "12", "13", "14", "19", "21"], "rt": [12621, 141, 204, 915, 142], "actions": ["right", "right", "right", "down", "down"], "actionTimes": [14605, 15257, 15972, 17398, 18057], "queries": {"click": {"state": {"target": ["22", "21", "20"], "time": [4142, 7462, 11295]}, "edge": {"target": [], "time": []}}, "mouseover": {"state": {"target": ["12", "22", "21", "20", "17"], "time": [2217, 2381, 4867, 7980, 12351]}, "edge": {"target": [], "time": []}}, "mouseout": {"state": {"target": ["17", "13", "12", "0", "12", "22", "21", "20"], "time": [948, 1015, 1030, 1499, 2264, 4799, 7897, 11935]}, "edge": {"target": [], "time": []}}}, "displayed_time": "18.57", "trialTime": 19655, "trial_type": "mouselab-mdp", "trial_index": 33, "time_elapsed": 1420040, "internal_node_id": "0.0-6.0-1.0-24.0"}}, {"uniqueid": "w37570436:a49319988", "current_trial": 34, "dateTime": 1693568558900, "trialdata": {"revealed_states": [], "clicked_states": ["17", "16", "6", "5", "7", "9"], "num_clicks_accrued": [0, 0, 0, 0, 0, 0, 0, 0, 0, 0, 0, 0, 0], "stateRewards": ["", 1, 3, 1, -13, 52, -28, 67, -14, 3, 63, -70, -1, -4, 7, -11, -10, 47, -18, 6, 69, -9, -61, 2, 3, -6, 10, 63, -34, 40, -6, -79, -35, -32], "withholdReward": false, "trial_id": "mdp_trial_26", "block": "test", "trialIndex": 27, "score": 46.1, "costs": -12.9, "simulationMode": [null, null, null, null, null, null], "rewards": [1, 3, 1, -13, 67], "path": ["0", "0", "1", "2", "3", "4", "7"], "rt": [21530, 327, 85, 615, 9, 191], "actions": ["up", "up", "up", "up", "right", "down"], "actionTimes": [26090, 26420, 27039, 28186, 28727, 29426], "queries": {"click": {"state": {"target": ["17", "16", "6", "5", "7", "9"], "time": [5907, 9380, 14137, 17308, 21431, 25810]}, "edge": {"target": [], "time": []}}, "mouseover": {"state": {"target": ["15", "17", "16", "18", "6", "5", "5", "9", "4", "7", "3", "9"], "time": [5200, 5250, 6518, 10018, 13802, 14934, 15251, 17901, 20766, 20817, 21921, 22267]}, "edge": {"target": [], "time": []}}, "mouseout": {"state": {"target": ["17", "15", "12", "0", "15", "17", "16", "18", "6", "5", "5", "9", "4", "7", "3"], "time": [787, 3570, 3734, 5073, 5234, 6468, 9868, 13338, 14901, 14984, 17835, 20583, 20782, 21508, 21934]}, "edge": {"target": [], "time": []}}}, "displayed_time": "29.92", "trialTime": 30992, "trial_type": "mouselab-mdp", "trial_index": 34, "time_elapsed": 1451422, "internal_node_id": "0.0-6.0-1.0-25.0"}}, {"uniqueid": "w37570436:a49319988", "current_trial": 35, "dateTime": 1693568577513, "trialdata": {"revealed_states": [], "clicked_states": ["27", "29", "32"], "num_clicks_accrued": [0, 0, 0, 0, 0, 0, 0, 0, 0, 0, 0, 0, 0], "stateRewards": ["", -2, 2, -5, 1, 42, -63, -58, -6, 2, 16, 81, -2, 4, 7, -10, 33, 3, -33, -2, -52, -84, -27, 2, -3, -3, 15, -74, -14, -5, -5, -84, 79, -31], "withholdReward": false, "trial_id": "mdp_trial_27", "block": "test", "trialIndex": 28, "score": 63.55, "costs": -6.449999999999999, "simulationMode": [null, null, null, null, null], "rewards": [2, -3, -3, -5, 79], "path": ["0", "0", "23", "24", "25", "30", "32"], "rt": [11866, 280, 64, 18, 67], "actions": ["left", "left", "left", "down", "down"], "actionTimes": [13834, 14636, 15203, 15740, 16307], "queries": {"click": {"state": {"target": ["27", "29", "32"], "time": [3083, 6557, 9784]}, "edge": {"target": [], "time": []}}, "mouseover": {"state": {"target": ["28", "27", "29", "29", "30", "32", "31"], "time": [2387, 2771, 3555, 3857, 7288, 7704, 10388]}, "edge": {"target": [], "time": []}}, "mouseout": {"state": {"target": ["9", "8", "0", "28", "27", "29", "29", "30", "32"], "time": [673, 720, 2361, 2404, 3521, 3588, 7104, 7587, 10272]}, "edge": {"target": [], "time": []}}}, "displayed_time": "16.81", "trialTime": 18229, "trial_type": "mouselab-mdp", "trial_index": 35, "time_elapsed": 1470036, "internal_node_id": "0.0-6.0-1.0-26.0"}}, {"uniqueid": "w37570436:a49319988", "current_trial": 36, "dateTime": 1693568612614, "trialdata": {"revealed_states": [], "clicked_states": ["22", "21", "20", "17", "16", "6", "7", "5"], "num_clicks_accrued": [0, 0, 0, 0, 0, 0, 0, 0, 0, 0, 0, 0, 0], "stateRewards": ["", -2, 4, -5, -12, 85, -24, -18, -15, -78, -22, 26, -1, -1, 2, 14, -45, 52, -23, 7, -33, 24, -6, -2, -4, 5, -7, -16, 36, -39, 5, 71, -87, -23], "withholdReward": false, "trial_id": "mdp_trial_28", "block": "test", "trialIndex": 29, "score": 52.8, "costs": -17.2, "simulationMode": [null, null, null, null, null], "rewards": [-2, 4, -5, -12, 85], "path": ["0", "0", "1", "2", "3", "4", "5"], "rt": [28606, 235, 211, 73, 59], "actions": ["up", "up", "up", "right", "up"], "actionTimes": [30657, 31407, 32132, 32726, 33298], "queries": {"click": {"state": {"target": ["22", "21", "20", "17", "16", "6", "7", "5"], "time": [3022, 6281, 9584, 12816, 16509, 19717, 23218, 26522]}, "edge": {"target": [], "time": []}}, "mouseover": {"state": {"target": ["12", "22", "19", "22", "21", "20", "20", "17", "16", "6", "5", "5", "4", "7", "4", "5", "9", "9"], "time": [2274, 2354, 2456, 2704, 3571, 6827, 7122, 10554, 13388, 17237, 20254, 20437, 21386, 21437, 23987, 24020, 27136, 27602]}, "edge": {"target": [], "time": []}}, "mouseout": {"state": {"target": ["31", "0", "12", "22", "19", "22", "21", "20", "20", "20", "17", "16", "6", "5", "5", "4", "7", "4", "5", "9"], "time": [721, 2238, 2290, 2404, 2611, 3538, 6772, 6896, 9694, 10123, 13338, 17137, 20170, 20271, 21370, 21420, 23953, 24003, 26985, 27318]}, "edge": {"target": [], "time": []}}}, "displayed_time": "33.82", "trialTime": 34715, "trial_type": "mouselab-mdp", "trial_index": 36, "time_elapsed": 1505137, "internal_node_id": "0.0-6.0-1.0-27.0"}}, {"uniqueid": "w37570436:a49319988", "current_trial": 37, "dateTime": 1693568641986, "trialdata": {"revealed_states": [], "clicked_states": ["29", "27", "11", "9", "10", "6"], "num_clicks_accrued": [0, 0, 0, 0, 0, 0, 0, 0, 0, 0, 0, 0, 0], "stateRewards": ["", -1, 1, -1, 2, 19, 85, -18, 2, -3, -26, 36, 2, 4, 7, -9, -18, 70, 72, -5, 35, -20, -28, 1, -2, -4, -3, -59, -11, -63, -2, -72, 59, -69], "withholdReward": false, "trial_id": "mdp_trial_29", "block": "test", "trialIndex": 30, "score": 73.1, "costs": -12.9, "simulationMode": [null, null, null, null, null], "rewards": [-1, 1, -1, 2, 85], "path": ["0", "0", "1", "2", "3", "4", "6"], "rt": [22658, 319, 141, 3, 52], "actions": ["up", "up", "up", "right", "right"], "actionTimes": [24614, 25427, 26082, 26594, 27158], "queries": {"click": {"state": {"target": ["29", "27", "11", "9", "10", "6"], "time": [3541, 6826, 10011, 13605, 16832, 20304]}, "edge": {"target": [], "time": []}}, "mouseover": {"state": {"target": ["23", "24", "29", "27", "11", "11", "11", "9", "9", "8", "10", "6", "7"], "time": [2662, 2691, 3143, 4057, 7309, 7690, 8007, 10557, 10891, 14123, 14174, 17822, 21040]}, "edge": {"target": [], "time": []}}, "mouseout": {"state": {"target": ["9", "8", "10", "23", "24", "29", "27", "11", "11", "11", "9", "9", "8", "10", "6"], "time": [628, 676, 706, 2674, 2707, 4023, 7274, 7340, 7740, 10506, 10591, 14107, 14157, 17339, 20874]}, "edge": {"target": [], "time": []}}}, "displayed_time": "27.67", "trialTime": 28996, "trial_type": "mouselab-mdp", "trial_index": 37, "time_elapsed": 1534510, "internal_node_id": "0.0-6.0-1.0-28.0"}}, {"uniqueid": "w37570436:a49319988", "current_trial": 38, "dateTime": 1693568659955, "trialdata": {"revealed_states": [], "clicked_states": [], "num_clicks_accrued": [0, 0, 0, 0, 0, 0, 0, 0, 0, 0, 0, 0, 0], "stateRewards": ["", -1, -3, -6, 14, 41, 18, 63, -14, 80, 21, 17, -2, -4, -2, -5, 13, 70, 8, -4, -64, -10, -20, 2, -1, 4, -1, -17, -55, 42, -7, 47, 54, 15], "withholdReward": false, "trial_id": "mdp_trial_30", "block": "test", "trialIndex": 31, "score": -76, "costs": 0, "simulationMode": [null, null, null, null, null], "rewards": [-2, -4, -2, -4, -64], "path": ["0", "0", "12", "13", "14", "19", "20"], "rt": [9184, 95, 172, 26, 119], "actions": ["right", "right", "right", "down", "right"], "actionTimes": [11473, 12086, 12780, 13300, 13926], "queries": {"click": {"state": {"target": [], "time": []}, "edge": {"target": [], "time": []}}, "mouseover": {"state": {"target": ["12", "13", "14", "20", "21"], "time": [2789, 2855, 2906, 3307, 7672]}, "edge": {"target": [], "time": []}}, "mouseout": {"state": {"target": ["7", "13", "0", "12", "13", "14", "20"], "time": [761, 924, 2762, 2839, 2891, 2940, 7438]}, "edge": {"target": [], "time": []}}}, "displayed_time": "16.29", "trialTime": 17564, "trial_type": "mouselab-mdp", "trial_index": 38, "time_elapsed": 1552478, "internal_node_id": "0.0-6.0-1.0-29.0"}}, {"uniqueid": "w37570436:a49319988", "current_trial": 39, "dateTime": 1693568684920, "trialdata": {"revealed_states": [], "clicked_states": ["17"], "num_clicks_accrued": [0, 0, 0, 0, 0, 0, 0, 0, 0, 0, 0, 0, 0], "stateRewards": ["", -2, -1, -2, -15, 87, 57, 29, -10, 77, -80, -7, 1, -3, 6, 14, -11, 87, -59, 4, -71, 16, -11, 2, 2, -7, 2, -47, 61, 50, 14, -20, 17, 81], "withholdReward": false, "trial_id": "mdp_trial_31", "block": "test", "trialIndex": 32, "score": 102.85, "costs": -2.15, "simulationMode": [null, null, null, null, null], "rewards": [1, -3, 6, 14, 87], "path": ["0", "0", "12", "13", "14", "15", "17"], "rt": [5921, 48, 122, 571, 90], "actions": ["right", "right", "right", "up", "right"], "actionTimes": [7947, 8517, 9153, 10237, 10845], "queries": {"click": {"state": {"target": ["17"], "time": [3407]}, "edge": {"target": [], "time": []}}, "mouseover": {"state": {"target": ["15", "17", "16", "16"], "time": [2813, 3114, 3931, 4264]}, "edge": {"target": [], "time": []}}, "mouseout": {"state": {"target": ["21", "0", "15", "17", "16", "16", "17"], "time": [601, 2747, 2829, 3880, 3947, 14866, 23838]}, "edge": {"target": [], "time": []}}}, "displayed_time": "16.03", "trialTime": 24553, "trial_type": "mouselab-mdp", "trial_index": 39, "time_elapsed": 1577443, "internal_node_id": "0.0-6.0-1.0-30.0"}}, {"uniqueid": "w37570436:a49319988", "current_trial": 40, "dateTime": 1693568707072, "trialdata": {"revealed_states": [], "clicked_states": ["27", "29", "28", "31"], "num_clicks_accrued": [0, 0, 0, 0, 0, 0, 0, 0, 0, 0, 0, 0, 0], "stateRewards": ["", -2, -3, 4, 1, 33, -53, 15, 9, -12, 61, -6, -2, 4, 6, -11, 47, -43, -7, -11, 46, 23, -28, -1, -1, 3, -10, 11, 76, -76, 10, 18, -38, 87], "withholdReward": false, "trial_id": "mdp_trial_32", "block": "test", "trialIndex": 33, "score": 58.4, "costs": -8.6, "simulationMode": [null, null, null, null, null], "rewards": [-1, -1, 3, -10, 76], "path": ["0", "0", "23", "24", "25", "26", "28"], "rt": [14397, 25, 639, 16, 638], "actions": ["left", "left", "left", "up", "right"], "actionTimes": [16592, 17117, 18263, 18791, 19961], "queries": {"click": {"state": {"target": ["27", "29", "28", "31"], "time": [3620, 6813, 10228, 13475]}, "edge": {"target": [], "time": []}}, "mouseover": {"state": {"target": ["23", "24", "25", "26", "27", "29", "26", "28", "24", "31"], "time": [2722, 2756, 2806, 2873, 3290, 4174, 7373, 7440, 11107, 11173]}, "edge": {"target": [], "time": []}}, "mouseout": {"state": {"target": ["19", "13", "0", "23", "24", "25", "26", "27", "27", "29", "26", "28", "28", "24"], "time": [710, 975, 2689, 2739, 2789, 2839, 3206, 3747, 4141, 6946, 7390, 10364, 11091, 11141]}, "edge": {"target": [], "time": []}}}, "displayed_time": "20.46", "trialTime": 21685, "trial_type": "mouselab-mdp", "trial_index": 40, "time_elapsed": 1599595, "internal_node_id": "0.0-6.0-1.0-31.0"}}, {"uniqueid": "w37570436:a49319988", "current_trial": 41, "dateTime": 1693568746449, "trialdata": {"revealed_states": [], "clicked_states": ["5", "6", "7", "10", "11", "9", "27", "28", "29"], "num_clicks_accrued": [0, 0, 0, 0, 0, 0, 0, 0, 0, 0, 0, 0, 0], "stateRewards": ["", -1, -3, -7, -7, -76, 30, -49, 11, -70, 56, 2, 1, 4, -3, -14, -59, -83, -25, -9, -21, -67, -73, -2, 4, 4, -9, -11, -32, 60, 9, -87, 22, -64], "withholdReward": false, "trial_id": "mdp_trial_33", "block": "test", "trialIndex": 34, "score": 37.650000000000006, "costs": -19.349999999999998, "simulationMode": [null, null, null, null, null], "rewards": [-2, 4, 4, -9, 60], "path": ["0", "0", "23", "24", "25", "26", "29"], "rt": [32843, 397, 105, 5, 474], "actions": ["left", "left", "left", "up", "left"], "actionTimes": [34687, 35596, 36220, 36737, 37740], "queries": {"click": {"state": {"target": ["5", "6", "7", "10", "11", "9", "27", "28", "29"], "time": [3055, 6215, 9765, 13034, 16841, 20178, 23523, 26832, 30379]}, "edge": {"target": [], "time": []}}, "mouseover": {"state": {"target": ["1", "3", "5", "6", "6", "7", "10", "10", "11", "11", "9", "9", "27", "27", "28", "28", "29", "33"], "time": [2316, 2349, 2703, 3651, 3941, 7034, 10800, 11136, 13567, 13934, 19182, 19481, 20698, 20783, 24365, 24620, 27780, 30982]}, "edge": {"target": [], "time": []}}, "mouseout": {"state": {"target": ["31", "0", "1", "3", "5", "6", "6", "7", "10", "10", "11", "11", "9", "9", "11", "27", "27", "27", "28", "28", "29", "29"], "time": [784, 2289, 2333, 2366, 3567, 3834, 6716, 9924, 10933, 13516, 13583, 18415, 19199, 20649, 20682, 20748, 23660, 24282, 24449, 27663, 30455, 30865]}, "edge": {"target": [], "time": []}}}, "displayed_time": "38.23", "trialTime": 38956, "trial_type": "mouselab-mdp", "trial_index": 41, "time_elapsed": 1638971, "internal_node_id": "0.0-6.0-1.0-32.0"}}, {"uniqueid": "w37570436:a49319988", "current_trial": 42, "dateTime": 1693568764107, "trialdata": {"revealed_states": [], "clicked_states": ["23", "13", "22", "21"], "num_clicks_accrued": [0, 0, 0, 0, 0, 0, 0, 0, 0, 0, 0, 0, 0], "stateRewards": ["", 1, 4, 5, -5, 58, -80, 75, 6, 25, -39, 46, 2, -2, 4, 2, 59, 31, -22, -12, -61, 15, 72, 1, -2, -7, 8, 77, 76, -23, -7, 71, -15, -3], "withholdReward": false, "trial_id": "mdp_trial_34", "block": "test", "trialIndex": 35, "score": 59.6, "costs": -4.4, "simulationMode": [null, null, null, null, null], "rewards": [2, -2, 4, -12, 72], "path": ["0", "0", "12", "13", "14", "19", "22"], "rt": [10118, 190, 73, 513, 154], "actions": ["right", "right", "right", "down", "left"], "actionTimes": [12299, 13008, 13577, 14583, 15255], "queries": {"click": {"state": {"target": ["23", "13", "22", "21"], "time": [2299, 4574, 6134, 9301]}, "edge": {"target": [], "time": []}}, "mouseover": {"state": {"target": ["23", "13", "13", "22", "22", "21", "21"], "time": [2199, 3968, 4322, 5453, 5853, 6653, 6935]}, "edge": {"target": [], "time": []}}, "mouseout": {"state": {"target": ["33", "32", "0", "23", "13", "13", "22", "22", "21"], "time": [789, 834, 2196, 2753, 4067, 5402, 5468, 6607, 6668]}, "edge": {"target": [], "time": []}}}, "displayed_time": "16.18", "trialTime": 17237, "trial_type": "mouselab-mdp", "trial_index": 42, "time_elapsed": 1656630, "internal_node_id": "0.0-6.0-1.0-33.0"}}, {"uniqueid": "w37570436:a49319988", "current_trial": 43, "dateTime": 1693568828674, "trialdata": {"revealed_states": [], "clicked_states": ["17", "16", "18", "20", "21", "32", "31", "33", "29", "27", "28", "11", "9", "5", "6", "7", "10"], "num_clicks_accrued": [0, 0, 0, 0, 0, 0, 0, 0, 0, 0, 0, 0, 0], "stateRewards": ["", 1, 4, -8, -5, -15, -7, 21, 13, -30, 40, -65, 1, 1, 5, -14, 35, 27, -38, -11, 36, -58, -47, -2, 4, -3, 13, -16, -49, 22, 15, -56, -44, -10], "withholdReward": false, "trial_id": "mdp_trial_35", "block": "test", "trialIndex": 36, "score": 13.45000000000001, "costs": -36.54999999999999, "simulationMode": [null, null, null, null, null], "rewards": [1, 4, -8, 13, 40], "path": ["0", "0", "1", "2", "3", "8", "10"], "rt": [57353, 192, 78, 546, 101], "actions": ["up", "up", "up", "left", "down"], "actionTimes": [59537, 60246, 60847, 61897, 62501], "queries": {"click": {"state": {"target": ["17", "16", "18", "20", "21", "32", "31", "33", "29", "27", "28", "11", "9", "5", "6", "7", "10"], "time": [3492, 6790, 10153, 13367, 16760, 19949, 23206, 26380, 29589, 32817, 35995, 39199, 42456, 45643, 48823, 52049, 56066]}, "edge": {"target": [], "time": []}}, "mouseover": {"state": {"target": ["18", "17", "15", "16", "16", "14", "18", "18", "20", "21", "32", "31", "30", "33", "33", "29", "27", "28", "11", "28", "11", "11", "9", "9", "5", "6", "7", "1", "1", "10"], "time": [2874, 3238, 4059, 4143, 4388, 8474, 8520, 8807, 11022, 13920, 18204, 20487, 23937, 23970, 24286, 27186, 30170, 33519, 33852, 34585, 36469, 36802, 39818, 40019, 43520, 46234, 49418, 52717, 53501, 53551]}, "edge": {"target": [], "time": []}}, "mouseout": {"state": {"target": ["21", "12", "0", "18", "17", "15", "16", "16", "16", "14", "18", "18", "20", "20", "21", "32", "31", "30", "33", "33", "29", "27", "27", "28", "11", "28", "11", "11", "9", "9", "5", "6", "7", "1", "1"], "time": [641, 1120, 1739, 2889, 3988, 4087, 4177, 6822, 7354, 8503, 8545, 10622, 13478, 13888, 17754, 20436, 23920, 23953, 24037, 26869, 30121, 32911, 33452, 33719, 33902, 36092, 36485, 39293, 39868, 42568, 46152, 49384, 52667, 52950, 53519]}, "edge": {"target": [], "time": []}}}, "displayed_time": "63.00", "trialTime": 64142, "trial_type": "mouselab-mdp", "trial_index": 43, "time_elapsed": 1721196, "internal_node_id": "0.0-6.0-1.0-34.0"}}, {"uniqueid": "w37570436:a49319988", "current_trial": 44, "dateTime": 1693568860733, "trialdata": {"revealed_states": [], "clicked_states": ["22", "21", "20", "17", "16", "18", "5"], "num_clicks_accrued": [0, 0, 0, 0, 0, 0, 0, 0, 0, 0, 0, 0, 0], "stateRewards": ["", -1, 1, 6, -6, 70, 66, 67, -16, -75, -35, 37, -1, 4, 4, -6, 47, -9, 63, 15, 21, -63, 13, 1, 3, -6, 10, 79, -29, 18, -15, 9, -67, -19], "withholdReward": false, "trial_id": "mdp_trial_36", "block": "test", "trialIndex": 37, "score": 54.95, "costs": -15.05, "simulationMode": [null, null, null, null, null, null], "rewards": [-1, 1, 6, -6, 70], "path": ["0", "0", "1", "2", "3", "4", "5"], "rt": [23564, 3170, 220, 65, 27, 22], "actions": ["right", "up", "up", "up", "right", "up"], "actionTimes": [25115, 28291, 29023, 29584, 30144, 30657], "queries": {"click": {"state": {"target": ["22", "21", "20", "17", "16", "18", "5"], "time": [2972, 6227, 9487, 12739, 16173, 20639, 23816]}, "edge": {"target": [], "time": []}}, "mouseover": {"state": {"target": ["22", "21", "20", "17", "16", "16", "18", "18", "5", "3"], "time": [2618, 3487, 7219, 10767, 13184, 14218, 16668, 16957, 21567, 27283]}, "edge": {"target": [], "time": []}}, "mouseout": {"state": {"target": ["10", "1", "0", "0", "22", "22", "21", "20", "17", "16", "16", "18", "18", "5", "5", "3"], "time": [621, 668, 717, 2219, 2987, 3435, 7118, 10317, 12850, 13686, 16618, 16706, 20766, 24040, 27266, 27299]}, "edge": {"target": [], "time": []}}}, "displayed_time": "31.19", "trialTime": 31620, "trial_type": "mouselab-mdp", "trial_index": 44, "time_elapsed": 1753255, "internal_node_id": "0.0-6.0-1.0-35.0"}}, {"uniqueid": "w37570436:a49319988", "current_trial": 45, "dateTime": 1693568898870, "trialdata": {"revealed_states": [], "clicked_states": ["31", "32", "33", "27", "29", "28", "9", "5"], "num_clicks_accrued": [0, 0, 0, 0, 0, 0, 0, 0, 0, 0, 0, 0, 0], "stateRewards": ["", 2, 4, -5, 7, 81, 35, 6, 11, 14, -72, 42, -1, 2, 3, -7, -77, -44, -40, -15, -85, 51, -32, -2, -1, -5, 7, -74, 47, 52, 16, -49, 48, -46], "withholdReward": false, "trial_id": "mdp_trial_37", "block": "test", "trialIndex": 38, "score": 71.8, "costs": -17.2, "simulationMode": [null, null, null, null, null], "rewards": [2, 4, -5, 7, 81], "path": ["0", "0", "1", "2", "3", "4", "5"], "rt": [30486, 261, 44, 410, 201], "actions": ["up", "up", "up", "right", "up"], "actionTimes": [32307, 33086, 33651, 34599, 35292], "queries": {"click": {"state": {"target": ["31", "32", "33", "27", "29", "28", "9", "5"], "time": [3716, 6962, 10438, 13615, 16769, 21202, 24525, 27838]}, "edge": {"target": [], "time": []}}, "mouseover": {"state": {"target": ["23", "31", "31", "32", "33", "29", "27", "29", "26", "28", "9", "5", "4", "10", "10", "1"], "time": [2426, 3079, 3343, 4257, 7791, 11124, 11924, 14106, 17323, 17589, 22174, 25791, 28729, 29156, 29440, 31688]}, "edge": {"target": [], "time": []}}, "mouseout": {"state": {"target": ["2", "1", "0", "23", "31", "31", "31", "32", "33", "29", "27", "29", "26", "28", "9", "5", "4", "10", "10", "1", "0"], "time": [711, 740, 2408, 2475, 3124, 3857, 4207, 7492, 11041, 11558, 14073, 16897, 17423, 21348, 24670, 28506, 28756, 29273, 31595, 37020, 37090]}, "edge": {"target": [], "time": []}}}, "displayed_time": "35.81", "trialTime": 37717, "trial_type": "mouselab-mdp", "trial_index": 45, "time_elapsed": 1791392, "internal_node_id": "0.0-6.0-1.0-36.0"}}, {"uniqueid": "w37570436:a49319988", "current_trial": 46, "dateTime": 1693568958142, "trialdata": {"revealed_states": [], "clicked_states": ["20", "21", "22", "16", "17", "18", "5", "6", "7", "9", "11", "27", "28", "29", "33"], "num_clicks_accrued": [0, 0, 0, 0, 0, 0, 0, 0, 0, 0, 0, 0, 0], "stateRewards": ["", -2, 4, 3, 5, -61, 4, 30, 1, -47, 83, 10, 1, 4, 7, -14, 19, -74, -83, 6, -2, -2, -65, -1, -2, 4, -11, 12, -1, -68, 11, -38, -28, 66], "withholdReward": false, "trial_id": "mdp_trial_38", "block": "test", "trialIndex": 39, "score": 45.75000000000001, "costs": -32.24999999999999, "simulationMode": [null, null, null, null, null], "rewards": [-1, -2, 4, 11, 66], "path": ["0", "0", "23", "24", "25", "30", "33"], "rt": [51491, 143, 203, 817, 183], "actions": ["left", "left", "left", "down", "left"], "actionTimes": [53743, 54379, 55122, 56454, 57152], "queries": {"click": {"state": {"target": ["20", "21", "22", "16", "17", "18", "5", "6", "7", "9", "11", "27", "28", "29", "33"], "time": [3692, 6935, 10155, 13415, 16853, 20076, 23300, 26545, 29575, 32861, 36136, 40009, 43346, 46528, 49739]}, "edge": {"target": [], "time": []}}, "mouseover": {"state": {"target": ["12", "20", "21", "21", "22", "22", "13", "16", "17", "15", "18", "5", "6", "7", "3", "9", "9", "11", "27", "28", "26", "29", "33", "32"], "time": [2837, 3388, 4207, 4421, 7421, 7705, 10605, 11072, 13922, 17387, 17553, 20638, 23804, 27403, 30353, 30403, 30777, 33486, 39651, 40720, 44002, 44052, 47318, 50368]}, "edge": {"target": [], "time": []}}, "mouseout": {"state": {"target": ["0", "12", "20", "21", "21", "22", "22", "13", "16", "17", "15", "18", "5", "6", "7", "3", "9", "9", "11", "27", "28", "26", "29", "29", "33"], "time": [2820, 2855, 4155, 4250, 7372, 7472, 10245, 10623, 13872, 17354, 17437, 20154, 23770, 27086, 30335, 30370, 30420, 33436, 39237, 40688, 43985, 44035, 46591, 47101, 50268]}, "edge": {"target": [], "time": []}}}, "displayed_time": "57.67", "trialTime": 58824, "trial_type": "mouselab-mdp", "trial_index": 46, "time_elapsed": 1850665, "internal_node_id": "0.0-6.0-1.0-37.0"}}, {"uniqueid": "w37570436:a49319988", "current_trial": 47, "dateTime": 1693568976412, "trialdata": {"revealed_states": [], "clicked_states": ["31"], "num_clicks_accrued": [0, 0, 0, 0, 0, 0, 0, 0, 0, 0, 0, 0, 0], "stateRewards": ["", -1, -3, -3, 1, -38, 2, -53, -2, -1, -81, 70, -1, 1, -5, -9, 46, 15, 35, -1, -22, 38, 59, -2, 4, -8, 13, 1, -83, -43, 4, 76, 13, 48], "withholdReward": false, "trial_id": "mdp_trial_39", "block": "test", "trialIndex": 40, "score": 71.85, "costs": -2.15, "simulationMode": [null, null, null, null, null], "rewards": [-2, 4, -8, 4, 76], "path": ["0", "0", "23", "24", "25", "30", "31"], "rt": [5672, 36, 133, 21, 20], "actions": ["left", "left", "left", "down", "right"], "actionTimes": [7800, 8354, 8979, 9517, 10065], "queries": {"click": {"state": {"target": ["31"], "time": [3601]}, "edge": {"target": [], "time": []}}, "mouseover": {"state": {"target": ["0", "30", "31", "32", "32"], "time": [2660, 2998, 3277, 4044, 4344]}, "edge": {"target": [], "time": []}}, "mouseout": {"state": {"target": ["32", "0", "0", "0", "30", "31", "31", "32", "32", "31"], "time": [428, 877, 1729, 2677, 3228, 3735, 4028, 4095, 13526, 15743]}, "edge": {"target": [], "time": []}}}, "displayed_time": "16.13", "trialTime": 17837, "trial_type": "mouselab-mdp", "trial_index": 47, "time_elapsed": 1868934, "internal_node_id": "0.0-6.0-1.0-38.0"}}, {"uniqueid": "w37570436:a49319988", "current_trial": 48, "dateTime": 1693569029698, "trialdata": {"revealed_states": [], "clicked_states": ["20", "21", "22", "17", "16", "5", "9", "11", "29", "27", "33", "32", "31"], "num_clicks_accrued": [0, 0, 0, 0, 0, 0, 0, 0, 0, 0, 0, 0, 0], "stateRewards": ["", -2, 1, -7, 9, 8, 25, 61, -7, -17, 69, -81, 1, 4, -4, -11, 16, 67, 44, 3, 6, -45, -54, -2, 3, 6, -11, -15, 32, -47, 3, -39, -6, -88], "withholdReward": false, "trial_id": "mdp_trial_40", "block": "test", "trialIndex": 41, "score": -18.94999999999999, "costs": -27.949999999999992, "simulationMode": [null, null, null, null, null], "rewards": [-2, 1, -7, 9, 8], "path": ["0", "0", "1", "2", "3", "4", "5"], "rt": [45507, 133, 1095, 356, 69], "actions": ["up", "up", "up", "right", "up"], "actionTimes": [46903, 47529, 49141, 50017, 50597], "queries": {"click": {"state": {"target": ["20", "21", "22", "17", "16", "5", "9", "11", "29", "27", "33", "32", "31"], "time": [2971, 6074, 9308, 12488, 15870, 19121, 22303, 25573, 28848, 32325, 36410, 39696, 42897]}, "edge": {"target": [], "time": []}}, "mouseover": {"state": {"target": ["13", "14", "20", "21", "22", "17", "16", "16", "6", "5", "9", "11", "8", "27", "29", "27", "10", "16", "1", "24", "30", "33", "32", "31", "31", "23", "18", "15", "17"], "time": [2114, 2148, 2519, 3748, 6599, 10231, 12931, 13264, 16448, 16881, 19913, 22963, 26280, 26430, 26887, 29462, 32895, 33711, 35511, 35844, 36013, 36161, 37063, 40977, 41196, 43427, 43477, 43560, 44243]}, "edge": {"target": [], "time": []}}, "mouseout": {"state": {"target": ["31", "0", "13", "14", "20", "21", "22", "17", "16", "16", "6", "5", "9", "11", "8", "27", "29", "27", "10", "16", "1", "24", "30", "33", "32", "31", "31", "23", "18", "15"], "time": [583, 2080, 2130, 2165, 3632, 6565, 9831, 12899, 12965, 16414, 16481, 19580, 22846, 26263, 26313, 26447, 29413, 32424, 32912, 35361, 35812, 35861, 36061, 37013, 40945, 41011, 43393, 43443, 43494, 43810]}, "edge": {"target": [], "time": []}}}, "displayed_time": "51.11", "trialTime": 52845, "trial_type": "mouselab-mdp", "trial_index": 48, "time_elapsed": 1922220, "internal_node_id": "0.0-6.0-1.0-39.0"}}, {"uniqueid": "w37570436:a49319988", "current_trial": 49, "dateTime": 1693569081702, "trialdata": {"rt": 51997, "response": {"Q0": "$-2 to $2", "Q1": "$-4 to $4", "Q2": "$-88 to $88", "Q3": "The cost for clicking on nodes varied between nodes.", "Q4": "Very motivated"}, "question_order": [0, 1, 2, 3, 4], "trial_id": "final_quiz_control", "trial_type": "survey-multi-choice", "trial_index": 49, "time_elapsed": 1974225, "internal_node_id": "0.0-6.0-2.0"}}, {"uniqueid": "w37570436:a49319988", "current_trial": 50, "dateTime": 1693569383301, "trialdata": {"rt": 301581, "response": {"Q0": "Initially I tried different routes and totalled up the score as I went and as soon as I found a high end score and went with that route.", "Q1": "I worked out what was a good end score and just tested the outer nodes to find anything above 70. As soon as I found a high end node I went directly to that, rather than test lots of nods and potentially lose money on the way.", "Q2": "I found it easy to to improve my performance. On a few occasions I wasn't able to click the node in time and lost the option to test routes. This ended in a low score on those occasions."}, "trial_id": "self_report_control", "trial_type": "survey-text", "trial_index": 50, "time_elapsed": 2275825, "internal_node_id": "0.0-6.0-3.0"}}, {"uniqueid": "w37570436:a49319988", "current_trial": 51, "dateTime": 1693569456278, "trialdata": {"rt": 72961, "response": {"Q0": "Strongly disagree", "Q1": "Neither disagree nor agree", "Q2": "Neither disagree nor agree", "Q3": "Neither disagree nor agree", "Q4": "Neither disagree nor agree", "Q5": "Neither disagree nor agree", "Q6": "Neither disagree nor agree"}, "question_order": [0, 1, 2, 3, 4, 5, 6], "trial_id": "self_report_2", "trial_type": "survey-multi-choice", "trial_index": 51, "time_elapsed": 2348802, "internal_node_id": "0.0-6.0-4.0"}}, {"uniqueid": "w37570436:a49319988", "current_trial": 52, "dateTime": 1693569472791, "trialdata": {"rt": 16505, "response": {"gender": "female", "age": "46", "colorblind": "0", "effort": "0"}, "trial_type": "survey-html-form", "trial_index": 52, "time_elapsed": 2365315, "internal_node_id": "0.0-6.0-5.0"}}, {"uniqueid": "w37570436:a49319988", "current_trial": 53, "dateTime": 1693569484887, "trialdata": {"rt": 12078, "response": {"Q0": "no", "Q1": "no", "Q2": ""}, "trial_type": "survey-text", "trial_index": 53, "time_elapsed": 2377411, "internal_node_id": "0.0-6.0-6.0"}}, {"uniqueid": "w37570436:a49319988", "current_trial": 54, "dateTime": 1693569511636, "trialdata": {"rt": 26734, "stimulus": "<h1>Completion Code Instructions (1/2)</h1>\n<br><br><br><br>\nYou have reached the end of the experiment! The completion code consists of two parts: (1) a code with 2 characters (2) a code with 6 characters. On this page, you will receive the second part of the code. The first part of the completion code will be on the next page.\n<br><br>\nThe second part of your completion code is: <b>EWEK22</b>\n<br><br>\nPlease note this down. Then, press 'Finish HIT' in order to find the first part of your completion code. Once the data has been saved, you will receive this code either in this window or in the original browser window where you started the experiment.\n", "response": 0, "trial_type": "html-button-response", "trial_index": 54, "time_elapsed": 2404160, "internal_node_id": "0.0-6.0-7.0"}}, {"uniqueid": "w37570436:a49319988", "current_trial": 55, "dateTime": 1693569512646, "trialdata": {"success": true, "trial_type": "fullscreen", "trial_index": 55, "time_elapsed": 2405170, "internal_node_id": "0.0-7.0"}}], "questiondata": {"params": {"CODE": "C6DMOQA6", "MIN_TIME": 14, "inspectCost": 1, "startTime": "Fri Sep 01 2023 12:18:26 GMT+0100 (British Summer Time)", "bonusRate": 0.002, "variance": "1_2_4_8_44", "branching": "31123"}, "final_score": 2108.25}, "eventdata": [{"eventtype": "initialized", "value": null, "timestamp": 1693567106325, "interval": 0}, {"eventtype": "window_resize", "value": [1024, 658], "timestamp": 1693567106325, "interval": 0}, {"eventtype": "window_resize", "value": [1024, 658], "timestamp": 1693567106635, "interval": 310}, {"eventtype": "window_resize", "value": [1366, 768], "timestamp": 1693567110947, "interval": 4312}, {"eventtype": "window_resize", "value": [1024, 658], "timestamp": 1693569511910, "interval": 2400963}], "useragent": "Mozilla/5.0 (Windows NT 10.0; Win64; x64) AppleWebKit/537.36 (KHTML, like Gecko) Chrome/116.0.0.0 Safari/537.36 Edg/116.0.1938.62", "mode": "live", "id": "w37570436:a49319988", "status": "user data saved", "Beginhit": "2023-09-01 11:18:28.183897", "Beginexp": "2023-09-01 11:18:34.855951", "Endhit": "2023-09-01 11:58:39.475936", "psiturkStatus": 3, "browser": "<redacted>", "platform": "windows", "language": "en-GB"}