{"condition": 1, "counterbalance": 0, "assignmentId": "a12831619", "workerId": "w50959616", "hitId": "h12407132", "currenttrial": 68, "bonus": 0, "data": [{"uniqueid": "w50959616:a12831619", "current_trial": 0, "dateTime": 1691142330603, "trialdata": {"success": true, "trial_type": "fullscreen", "trial_index": 0, "time_elapsed": 4208, "internal_node_id": "0.0-0.0"}}, {"uniqueid": "w50959616:a12831619", "current_trial": 1, "dateTime": 1691142333650, "trialdata": {"view_history": [{"page_index": 0, "viewing_time": 3042}], "rt": 3042, "trial_id": "exp_instructions_misaligned", "trial_type": "instructions", "trial_index": 1, "time_elapsed": 7255, "internal_node_id": "0.0-1.0"}}, {"uniqueid": "w50959616:a12831619", "current_trial": 2, "dateTime": 1691142340443, "trialdata": {"success": true, "trial_type": "fullscreen", "trial_index": 2, "time_elapsed": 14048, "internal_node_id": "0.0-2.0-0.0"}}, {"uniqueid": "w50959616:a12831619", "current_trial": 3, "dateTime": 1691142451482, "trialdata": {"view_history": [{"page_index": 0, "viewing_time": 59587}, {"page_index": 1, "viewing_time": 29386}, {"page_index": 2, "viewing_time": 18373}, {"page_index": 3, "viewing_time": 3683}], "rt": 111030, "trial_id": "mouselab_instructions_1_misaligned", "trial_type": "instructions", "trial_index": 3, "time_elapsed": 125087, "internal_node_id": "0.0-2.0-1.0"}}, {"uniqueid": "w50959616:a12831619", "current_trial": 4, "dateTime": 1691142517960, "trialdata": {"revealed_states": [], "clicked_states": ["12", "23", "1", "24", "25", "26", "27", "29", "13", "14"], "num_clicks_accrued": [0, 0, 0, 0, 0, 0, 0, 0, 0, 0, 0, 0, 0], "stateRewards": ["", -10, 10, -10, -10, 10, 10, -10, 10, -10, -10, -10, -10, -10, 10, 10, 10, 10, -10, -10, -10, 10, -10, 10, -10, 10, 10, -10, -10, 10, -10, -10, -10, 10], "withholdReward": false, "trial_id": "practice_1", "block": "test", "trialIndex": 0, "score": 8.5, "costs": -5, "simulationMode": [null, null, null, null, null], "rewards": [-10, -10, 10, 10, 10], "path": ["0", "0", "12", "13", "14", "15", "16"], "rt": [47589, 510, 357, 952, 82], "actions": ["right", "right", "right", "up", "up"], "actionTimes": [55358, 56393, 57277, 58756, 59347], "queries": {"click": {"state": {"target": ["12", "23", "1", "24", "25", "26", "27", "29", "13", "14"], "time": [11457, 13257, 14656, 25521, 30221, 31761, 33414, 39265, 48051, 49390]}, "edge": {"target": [], "time": []}}, "mouseover": {"state": {"target": ["12", "23", "1", "23", "23", "0", "23", "23", "24", "15", "21", "31", "25", "25", "26", "26", "27", "27", "26", "29", "26", "25", "26", "26", "25", "30", "23", "18", "1", "12", "13", "14"], "time": [11165, 12948, 14213, 18302, 18971, 20832, 23732, 24849, 25165, 25883, 28153, 28818, 29116, 29804, 30916, 31236, 32980, 37912, 38168, 38795, 42768, 43293, 43633, 44866, 45331, 46199, 46863, 46964, 47334, 47558, 47728, 49095]}, "edge": {"target": [], "time": []}}, "mouseout": {"state": {"target": ["12", "12", "0", "12", "23", "1", "23", "23", "0", "23", "23", "24", "15", "21", "31", "25", "25", "26", "26", "27", "27", "26", "29", "29", "26", "25", "26", "26", "25", "30", "23", "18", "1", "12", "13", "14", "17"], "time": [748, 7064, 7194, 11662, 13461, 15598, 18377, 20300, 21754, 23883, 24915, 25865, 25899, 28166, 28836, 29162, 30412, 31079, 32845, 33626, 37978, 38622, 41304, 42649, 43183, 43517, 43803, 45017, 45412, 46801, 46885, 47122, 47414, 47609, 49016, 62655, 62680]}, "edge": {"target": [], "time": []}}}, "displayed_time": "59.87", "trialTime": 65732, "trial_type": "mouselab-mdp", "trial_index": 4, "time_elapsed": 191563, "internal_node_id": "0.0-2.0-2.0-0.0"}}, {"uniqueid": "w50959616:a12831619", "current_trial": 5, "dateTime": 1691142546777, "trialdata": {"revealed_states": [], "clicked_states": [], "num_clicks_accrued": [0, 0, 0, 0, 0, 0, 0, 0, 0, 0, 0, 0, 0], "stateRewards": ["", -10, -10, -10, 10, -10, -10, -10, -10, -10, -10, -10, 10, -10, 10, -10, 10, -10, 10, 10, -10, -10, 10, -10, -10, 10, -10, -10, 10, 10, 10, 10, -10, 10], "withholdReward": false, "trial_id": "practice_2", "block": "test", "trialIndex": 1, "score": -46.5, "costs": 0, "simulationMode": [null, null, null, null, null], "rewards": [-10, -10, -10, -10, -10], "path": ["0", "0", "1", "2", "3", "8", "9"], "rt": [1385, 2247, 962, 11397, 123], "actions": ["up", "up", "up", "left", "up"], "actionTimes": [7324, 10094, 11572, 23495, 24138], "queries": {"click": {"state": {"target": [], "time": []}, "edge": {"target": [], "time": []}}, "mouseover": {"state": {"target": ["1"], "time": [6643]}, "edge": {"target": [], "time": []}}, "mouseout": {"state": {"target": ["21", "23", "1", "2", "3", "8", "8", "10", "2"], "time": [4092, 4478, 13458, 16439, 16577, 17366, 19659, 20993, 21044]}, "edge": {"target": [], "time": []}}}, "displayed_time": "24.66", "trialTime": 28425, "trial_type": "mouselab-mdp", "trial_index": 5, "time_elapsed": 220380, "internal_node_id": "0.0-2.0-2.0-1.0"}}, {"uniqueid": "w50959616:a12831619", "current_trial": 6, "dateTime": 1691142561000, "trialdata": {"view_history": [{"page_index": 0, "viewing_time": 11921}, {"page_index": 1, "viewing_time": 2287}], "rt": 14208, "trial_id": "mouselab_instructions_2_misaligned", "trial_type": "instructions", "trial_index": 6, "time_elapsed": 234605, "internal_node_id": "0.0-2.0-3.0"}}, {"uniqueid": "w50959616:a12831619", "current_trial": 7, "dateTime": 1691142624298, "trialdata": {"rt": 63290, "response": {"Q0": "The cost for clicking on nodes may vary between nodes.", "Q1": "The better I perform the higher my bonus will be.", "Q2": "No, the amount of cash at each node of the web may be different each time.", "Q3": "To get the highest total score.", "Q4": "Only before moving the spider.", "Q5": "10 seconds"}, "question_order": [0, 1, 2, 3, 4, 5], "correct": {"Q0": "The cost for clicking on nodes may vary between nodes.", "Q1": "The better I perform the higher my bonus will be.", "Q2": "No, the amount of cash at each node of the web may be different each time.", "Q3": "To get the highest total score.", "Q4": "Only before moving the spider.", "Q5": "3 seconds"}, "trial_id": "mouselab_quiz_misaligned", "trial_type": "survey-multi-choice", "trial_index": 7, "time_elapsed": 297903, "internal_node_id": "0.0-2.0-4.0"}}, {"uniqueid": "w50959616:a12831619", "current_trial": 8, "dateTime": 1691142628865, "trialdata": {"success": true, "trial_type": "fullscreen", "trial_index": 8, "time_elapsed": 302470, "internal_node_id": "0.0-2.1-0.1"}}, {"uniqueid": "w50959616:a12831619", "current_trial": 9, "dateTime": 1691142660136, "trialdata": {"view_history": [{"page_index": 0, "viewing_time": 4581}, {"page_index": 1, "viewing_time": 9355}, {"page_index": 2, "viewing_time": 2757}, {"page_index": 3, "viewing_time": 14574}], "rt": 31268, "trial_id": "mouselab_instructions_1_misaligned", "trial_type": "instructions", "trial_index": 9, "time_elapsed": 333741, "internal_node_id": "0.0-2.1-1.1"}}, {"uniqueid": "w50959616:a12831619", "current_trial": 10, "dateTime": 1691142682867, "trialdata": {"revealed_states": [], "clicked_states": ["23", "24", "25", "30", "31"], "num_clicks_accrued": [0, 0, 0, 0, 0, 0, 0, 0, 0, 0, 0, 0, 0], "stateRewards": ["", -10, 10, -10, -10, 10, 10, -10, 10, -10, -10, -10, -10, -10, 10, 10, 10, 10, -10, -10, -10, 10, -10, 10, -10, 10, 10, -10, -10, 10, -10, -10, -10, 10], "withholdReward": false, "trial_id": "practice_1", "block": "test", "trialIndex": 2, "score": 11, "costs": -2.5, "simulationMode": [null, null, null, null, null], "rewards": [10, -10, 10, -10, 10], "path": ["0", "0", "23", "24", "25", "30", "33"], "rt": [10793, 340, 461, 575, 850], "actions": ["left", "left", "left", "down", "left"], "actionTimes": [13458, 14310, 15266, 16344, 17706], "queries": {"click": {"state": {"target": ["23", "24", "25", "30", "31"], "time": [4622, 5871, 8540, 9803, 11157]}, "edge": {"target": [], "time": []}}, "mouseover": {"state": {"target": ["23", "23", "24", "25", "30", "31"], "time": [3289, 3608, 5487, 7482, 9388, 10819]}, "edge": {"target": [], "time": []}}, "mouseout": {"state": {"target": ["12", "0", "23", "23", "24", "25", "30", "31"], "time": [1286, 1807, 3321, 5321, 7267, 9271, 10728, 11883]}, "edge": {"target": [], "time": []}}}, "displayed_time": "18.22", "trialTime": 22374, "trial_type": "mouselab-mdp", "trial_index": 10, "time_elapsed": 356470, "internal_node_id": "0.0-2.1-2.1-0.1"}}, {"uniqueid": "w50959616:a12831619", "current_trial": 11, "dateTime": 1691142704962, "trialdata": {"revealed_states": [], "clicked_states": ["1", "23", "12", "13", "14", "15"], "num_clicks_accrued": [0, 0, 0, 0, 0, 0, 0, 0, 0, 0, 0, 0, 0], "stateRewards": ["", -10, -10, -10, 10, -10, -10, -10, -10, -10, -10, -10, 10, -10, 10, -10, 10, -10, 10, 10, -10, -10, 10, -10, -10, 10, -10, -10, 10, 10, 10, 10, -10, 10], "withholdReward": false, "trial_id": "practice_2", "block": "test", "trialIndex": 3, "score": 10.5, "costs": -3, "simulationMode": [null, null, null, null, null, null], "rewards": [10, -10, 10, -10, 10], "path": ["0", "0", "12", "13", "14", "15", "18"], "rt": [9525, 1010, 222, 596, 718, 280], "actions": ["left", "right", "right", "right", "up", "left"], "actionTimes": [12483, 13496, 14236, 15341, 16582, 17378], "queries": {"click": {"state": {"target": ["1", "23", "12", "13", "14", "15"], "time": [3982, 5777, 7003, 8253, 9780, 12049]}, "edge": {"target": [], "time": []}}, "mouseover": {"state": {"target": ["1", "23", "12", "13", "14", "15"], "time": [3545, 5501, 6732, 7981, 9396, 11683]}, "edge": {"target": [], "time": []}}, "mouseout": {"state": {"target": ["12", "0", "0", "1", "23", "12", "13", "14", "15", "21"], "time": [2166, 2226, 2493, 5198, 6446, 7914, 9295, 11515, 12259, 21048]}, "edge": {"target": [], "time": []}}}, "displayed_time": "17.90", "trialTime": 21725, "trial_type": "mouselab-mdp", "trial_index": 11, "time_elapsed": 378566, "internal_node_id": "0.0-2.1-2.1-1.1"}}, {"uniqueid": "w50959616:a12831619", "current_trial": 12, "dateTime": 1691142714394, "trialdata": {"view_history": [{"page_index": 0, "viewing_time": 7617}, {"page_index": 1, "viewing_time": 1804}], "rt": 9421, "trial_id": "mouselab_instructions_2_misaligned", "trial_type": "instructions", "trial_index": 12, "time_elapsed": 387998, "internal_node_id": "0.0-2.1-3.1"}}, {"uniqueid": "w50959616:a12831619", "current_trial": 13, "dateTime": 1691142745652, "trialdata": {"rt": 31254, "response": {"Q0": "The cost for clicking on nodes may vary between nodes.", "Q1": "The better I perform the higher my bonus will be.", "Q2": "No, the structure of the web will be different each time.", "Q3": "To click on the least number of nodes.", "Q4": "Only after moving the spider.", "Q5": "10 seconds"}, "question_order": [0, 1, 2, 3, 4, 5], "correct": {"Q0": "The cost for clicking on nodes may vary between nodes.", "Q1": "The better I perform the higher my bonus will be.", "Q2": "No, the amount of cash at each node of the web may be different each time.", "Q3": "To get the highest total score.", "Q4": "Only before moving the spider.", "Q5": "3 seconds"}, "trial_id": "mouselab_quiz_misaligned", "trial_type": "survey-multi-choice", "trial_index": 13, "time_elapsed": 419257, "internal_node_id": "0.0-2.1-4.1"}}, {"uniqueid": "w50959616:a12831619", "current_trial": 14, "dateTime": 1691142755917, "trialdata": {"success": true, "trial_type": "fullscreen", "trial_index": 14, "time_elapsed": 429522, "internal_node_id": "0.0-2.2-0.2"}}, {"uniqueid": "w50959616:a12831619", "current_trial": 15, "dateTime": 1691142866914, "trialdata": {"view_history": [{"page_index": 0, "viewing_time": 10947}, {"page_index": 1, "viewing_time": 75869}, {"page_index": 2, "viewing_time": 9371}, {"page_index": 3, "viewing_time": 14800}], "rt": 110988, "trial_id": "mouselab_instructions_1_misaligned", "trial_type": "instructions", "trial_index": 15, "time_elapsed": 540518, "internal_node_id": "0.0-2.2-1.2"}}, {"uniqueid": "w50959616:a12831619", "current_trial": 16, "dateTime": 1691142885613, "trialdata": {"revealed_states": [], "clicked_states": ["12", "23", "1"], "num_clicks_accrued": [0, 0, 0, 0, 0, 0, 0, 0, 0, 0, 0, 0, 0], "stateRewards": ["", -10, 10, -10, -10, 10, 10, -10, 10, -10, -10, -10, -10, -10, 10, 10, 10, 10, -10, -10, -10, 10, -10, 10, -10, 10, 10, -10, -10, 10, -10, -10, -10, 10], "withholdReward": false, "trial_id": "practice_1", "block": "test", "trialIndex": 4, "score": -8, "costs": -1.5, "simulationMode": [null, null, null, null, null], "rewards": [10, -10, 10, -10, -10], "path": ["0", "0", "23", "24", "25", "30", "32"], "rt": [4653, 4817, 285, 1182, 389], "actions": ["left", "left", "left", "down", "down"], "actionTimes": [7248, 12574, 13375, 15071, 15979], "queries": {"click": {"state": {"target": ["12", "23", "1"], "time": [3524, 4692, 5753]}, "edge": {"target": [], "time": []}}, "mouseover": {"state": {"target": ["12", "23", "1"], "time": [3206, 4388, 5258]}, "edge": {"target": [], "time": []}}, "mouseout": {"state": {"target": ["12", "0", "12", "23", "1", "25", "33", "33", "30", "24", "25"], "time": [1867, 2001, 3728, 4892, 8511, 8566, 8602, 8875, 8927, 10674, 11956]}, "edge": {"target": [], "time": []}}}, "displayed_time": "16.47", "trialTime": 18363, "trial_type": "mouselab-mdp", "trial_index": 16, "time_elapsed": 559216, "internal_node_id": "0.0-2.2-2.2-0.2"}}, {"uniqueid": "w50959616:a12831619", "current_trial": 17, "dateTime": 1691142901756, "trialdata": {"revealed_states": [], "clicked_states": ["12", "14", "19"], "num_clicks_accrued": [0, 0, 0, 0, 0, 0, 0, 0, 0, 0, 0, 0, 0], "stateRewards": ["", -10, -10, -10, 10, -10, -10, -10, -10, -10, -10, -10, 10, -10, 10, -10, 10, -10, 10, 10, -10, -10, 10, -10, -10, 10, -10, -10, 10, 10, 10, 10, -10, 10], "withholdReward": false, "trial_id": "practice_2", "block": "test", "trialIndex": 5, "score": 32, "costs": -1.5, "simulationMode": [null, null, null, null, null], "rewards": [10, -10, 10, 10, 10], "path": ["0", "0", "12", "13", "14", "19", "22"], "rt": [7482, 324, 411, 137, 920], "actions": ["right", "right", "right", "down", "left"], "actionTimes": [9616, 10442, 11379, 12037, 13471], "queries": {"click": {"state": {"target": ["12", "14", "19"], "time": [3728, 5551, 6574]}, "edge": {"target": [], "time": []}}, "mouseover": {"state": {"target": ["12", "13", "14", "19", "21"], "time": [3449, 4318, 5133, 6334, 7318]}, "edge": {"target": [], "time": []}}, "mouseout": {"state": {"target": ["30", "24", "1", "18", "12", "13", "14", "14", "19", "19", "21", "19"], "time": [197, 363, 430, 850, 3930, 5015, 5754, 6300, 6781, 7222, 8382, 8515]}, "edge": {"target": [], "time": []}}}, "displayed_time": "13.99", "trialTime": 15670, "trial_type": "mouselab-mdp", "trial_index": 17, "time_elapsed": 575360, "internal_node_id": "0.0-2.2-2.2-1.2"}}, {"uniqueid": "w50959616:a12831619", "current_trial": 18, "dateTime": 1691142909236, "trialdata": {"view_history": [{"page_index": 0, "viewing_time": 5731}, {"page_index": 1, "viewing_time": 1737}], "rt": 7469, "trial_id": "mouselab_instructions_2_misaligned", "trial_type": "instructions", "trial_index": 18, "time_elapsed": 582841, "internal_node_id": "0.0-2.2-3.2"}}, {"uniqueid": "w50959616:a12831619", "current_trial": 19, "dateTime": 1691142965997, "trialdata": {"rt": 56757, "response": {"Q0": "The cost for clicking on nodes may vary between nodes.", "Q1": "The better I perform the higher my bonus will be.", "Q2": "No, the amount of cash at each node of the web may be different each time.", "Q3": "To get the highest total score.", "Q4": "Only before moving the spider.", "Q5": "3 seconds"}, "question_order": [0, 1, 2, 3, 4, 5], "correct": {"Q0": "The cost for clicking on nodes may vary between nodes.", "Q1": "The better I perform the higher my bonus will be.", "Q2": "No, the amount of cash at each node of the web may be different each time.", "Q3": "To get the highest total score.", "Q4": "Only before moving the spider.", "Q5": "3 seconds"}, "trial_id": "mouselab_quiz_misaligned", "trial_type": "survey-multi-choice", "trial_index": 19, "time_elapsed": 639602, "internal_node_id": "0.0-2.2-4.2"}}, {"uniqueid": "w50959616:a12831619", "current_trial": 20, "dateTime": 1691142971576, "trialdata": {"rt": 5568, "stimulus": "\n<h1> Get ready to start the game! </h1>\n\nThank you for reading the instructions. Get ready start with the 40 rounds of this game.\n<br><br>\nIf you need to take a break, feel free to take one after the end of a round, before continuing to the next one.\n<br><br>\nRemember, the more money the spider gets, the bigger your bonus will be!\n<br><br>\n<div style='text-align: center;'>Press <code>space</code> to begin.</div>\n\n<br><br>\n(If, at any point, the <code>space</code> key does not take you to the next page, click once on the text and try again.)", "response": " ", "trial_id": "mdp_ready", "trial_type": "html-keyboard-response", "trial_index": 20, "time_elapsed": 645180, "internal_node_id": "0.0-4.0-0.0"}}, {"uniqueid": "w50959616:a12831619", "current_trial": 21, "dateTime": 1691143011774, "trialdata": {"revealed_states": [], "clicked_states": ["23", "24", "25", "30", "31", "12", "13", "14", "19", "20", "1", "2", "3", "8", "11"], "num_clicks_accrued": [0, 0, 0, 0, 0, 0, 0, 0, 0, 0, 0, 0, 0], "stateRewards": ["", -1, 1, 3, -8, -23, -15, -14, -11, -23, 58, 68, 1, 3, 5, 12, -17, -41, -7, -10, -4, 82, 10, 1, 4, -4, 11, 73, 55, -55, -1, -86, -86, 54], "withholdReward": false, "trial_id": "mdp_trial_1", "block": "test", "trialIndex": 6, "score": -19.25, "costs": -14.25, "simulationMode": [null, null, null, null, null, null], "rewards": [1, 3, 5, -10, -4], "path": ["0", "0", "12", "13", "14", "19", "20"], "rt": [22776, 576, 790, 661, 513, 305], "actions": ["right", "right", "right", "right", "down", "right"], "actionTimes": [26892, 27474, 28784, 29957, 30992, 31815], "queries": {"click": {"state": {"target": ["23", "24", "25", "30", "31", "12", "13", "14", "19", "20", "1", "2", "3", "8", "11"], "time": [5289, 6329, 7625, 9144, 9866, 12877, 14281, 15030, 15861, 16654, 19673, 20905, 22067, 23525, 24627]}, "edge": {"target": [], "time": []}}, "mouseover": {"state": {"target": ["23", "24", "25", "30", "31", "12", "13", "14", "19", "20", "1", "1", "2", "3", "8", "11", "12"], "time": [5008, 6077, 7327, 8874, 9610, 10677, 14073, 14778, 15542, 16395, 17543, 17929, 20468, 21576, 23176, 24377, 25427]}, "edge": {"target": [], "time": []}}, "mouseout": {"state": {"target": ["7", "23", "23", "24", "25", "30", "31", "12", "13", "14", "19", "20", "1", "1", "2", "3", "8", "11", "8", "12", "13", "21"], "time": [2890, 5501, 5976, 7127, 8808, 9562, 10296, 13065, 14485, 15501, 16327, 16843, 17647, 19873, 21101, 23032, 24178, 24832, 25308, 25444, 38261, 39460]}, "edge": {"target": [], "time": []}}}, "displayed_time": "32.32", "trialTime": 39746, "trial_type": "mouselab-mdp", "trial_index": 21, "time_elapsed": 685377, "internal_node_id": "0.0-4.0-1.0-0.0"}}, {"uniqueid": "w50959616:a12831619", "current_trial": 22, "dateTime": 1691143033594, "trialdata": {"revealed_states": [], "clicked_states": ["1", "2", "10", "8", "11"], "num_clicks_accrued": [0, 0, 0, 0, 0, 0, 0, 0, 0, 0, 0, 0, 0], "stateRewards": ["", -2, -3, 4, 1, 33, -53, 15, 9, -12, 61, -6, -2, 4, 6, -11, 47, -43, -7, -11, 46, 23, -28, -1, -1, 3, -10, 11, 76, -76, 10, 18, -38, 87], "withholdReward": false, "trial_id": "mdp_trial_2", "block": "test", "trialIndex": 7, "score": -3.9499999999999993, "costs": -5.949999999999999, "simulationMode": [null, null, null, null, null, null], "rewards": [-2, -3, 4, 9, -6], "path": ["0", "0", "1", "2", "3", "8", "11"], "rt": [8179, 883, 233, 5109, 319, 339], "actions": ["up", "up", "up", "up", "left", "left"], "actionTimes": [9837, 10724, 11487, 17123, 17957, 18794], "queries": {"click": {"state": {"target": ["1", "2", "10", "8", "11"], "time": [2597, 3566, 4334, 7246, 8289]}, "edge": {"target": [], "time": []}}, "mouseover": {"state": {"target": ["1", "2", "10", "8", "11"], "time": [2219, 3201, 4083, 4733, 8014]}, "edge": {"target": [], "time": []}}, "mouseout": {"state": {"target": ["31", "1", "2", "10", "8"], "time": [364, 3134, 3984, 4538, 7983]}, "edge": {"target": [], "time": []}}}, "displayed_time": "19.32", "trialTime": 21340, "trial_type": "mouselab-mdp", "trial_index": 22, "time_elapsed": 707197, "internal_node_id": "0.0-4.0-1.0-1.0"}}, {"uniqueid": "w50959616:a12831619", "current_trial": 23, "dateTime": 1691143051992, "trialdata": {"revealed_states": [], "clicked_states": ["23", "24"], "num_clicks_accrued": [0, 0, 0, 0, 0, 0, 0, 0, 0, 0, 0, 0, 0], "stateRewards": ["", -1, -4, -1, -5, -28, -23, -15, -15, -38, 59, -87, 2, 2, -5, 9, -55, -39, -71, -6, 85, -85, -11, -1, -2, 5, -10, 1, 25, 41, -4, 69, -35, 86], "withholdReward": false, "trial_id": "mdp_trial_3", "block": "test", "trialIndex": 8, "score": 32.9, "costs": -0.09999999999999998, "simulationMode": [null, null, null, null, null], "rewards": [-1, -2, 5, -10, 41], "path": ["0", "0", "23", "24", "25", "26", "29"], "rt": [2290, 103, 307, 322, 191], "actions": ["left", "left", "left", "up", "left"], "actionTimes": [3984, 4600, 5435, 6263, 6968], "queries": {"click": {"state": {"target": ["23", "24"], "time": [2683, 3646]}, "edge": {"target": [], "time": []}}, "mouseover": {"state": {"target": ["23", "24"], "time": [2424, 3281]}, "edge": {"target": [], "time": []}}, "mouseout": {"state": {"target": ["11", "8", "4", "0", "23", "24", "23", "14"], "time": [110, 241, 691, 1889, 3220, 9247, 9274, 9575]}, "edge": {"target": [], "time": []}}}, "displayed_time": "15.70", "trialTime": 17879, "trial_type": "mouselab-mdp", "trial_index": 23, "time_elapsed": 725595, "internal_node_id": "0.0-4.0-1.0-2.0"}}, {"uniqueid": "w50959616:a12831619", "current_trial": 24, "dateTime": 1691143070651, "trialdata": {"revealed_states": [], "clicked_states": [], "num_clicks_accrued": [0, 0, 0, 0, 0, 0, 0, 0, 0, 0, 0, 0, 0], "stateRewards": ["", -1, 4, -6, -5, -22, -38, -38, -2, -56, 88, 14, -1, -1, -7, -6, 61, -60, 21, 11, 57, 31, -30, -2, -2, 6, -9, -44, -70, -44, -15, 34, 16, -78], "withholdReward": false, "trial_id": "mdp_trial_4", "block": "test", "trialIndex": 9, "score": -91, "costs": 0, "simulationMode": [null, null, null, null, null], "rewards": [-2, -2, 6, -15, -78], "path": ["0", "0", "23", "24", "25", "30", "33"], "rt": [2744, 119, 154, 199, 752], "actions": ["left", "left", "left", "down", "left"], "actionTimes": [5444, 6083, 6753, 7464, 8735], "queries": {"click": {"state": {"target": [], "time": []}, "edge": {"target": [], "time": []}}, "mouseover": {"state": {"target": ["12", "12", "12"], "time": [3547, 3864, 4137]}, "edge": {"target": [], "time": []}}, "mouseout": {"state": {"target": ["0", "12", "12", "12", "18", "15", "22"], "time": [3330, 3598, 3930, 9826, 9844, 9864, 13784]}, "edge": {"target": [], "time": []}}}, "displayed_time": "16.70", "trialTime": 18159, "trial_type": "mouselab-mdp", "trial_index": 24, "time_elapsed": 744254, "internal_node_id": "0.0-4.0-1.0-3.0"}}, {"uniqueid": "w50959616:a12831619", "current_trial": 25, "dateTime": 1691143098949, "trialdata": {"revealed_states": [], "clicked_states": ["12", "13", "14", "19", "20", "23", "24", "25", "30", "31", "32"], "num_clicks_accrued": [0, 0, 0, 0, 0, 0, 0, 0, 0, 0, 0, 0, 0], "stateRewards": ["", -2, -3, 7, -13, 60, 9, 37, -6, 37, 20, 1, 2, -2, -8, 6, -80, -31, -10, -7, 70, -65, -44, -1, 1, 7, 6, -11, 73, -85, 16, -21, 47, 34], "withholdReward": false, "trial_id": "mdp_trial_5", "block": "test", "trialIndex": 10, "score": 58.35, "costs": -11.65, "simulationMode": [null, null, null, null, null], "rewards": [-1, 1, 7, 16, 47], "path": ["0", "0", "23", "24", "25", "30", "32"], "rt": [19575, 458, 156, 119, 92], "actions": ["left", "left", "left", "down", "down"], "actionTimes": [21377, 22353, 23039, 23682, 24270], "queries": {"click": {"state": {"target": ["12", "13", "14", "19", "20", "23", "24", "25", "30", "31", "32"], "time": [2417, 3173, 3880, 5290, 6049, 9180, 9928, 10681, 11460, 12756, 17198]}, "edge": {"target": [], "time": []}}, "mouseover": {"state": {"target": ["12", "13", "14", "19", "20", "24", "23", "23", "24", "25", "30", "31", "30", "32", "25", "33"], "time": [2160, 2945, 3644, 5025, 5775, 6976, 7363, 8908, 9692, 10428, 11196, 12491, 16294, 16762, 19195, 19775]}, "edge": {"target": [], "time": []}}, "mouseout": {"state": {"target": ["0", "12", "13", "14", "19", "20", "24", "23", "23", "24", "25", "30", "31", "31", "30", "32", "25", "33", "20"], "time": [2094, 2892, 3611, 4375, 5728, 6528, 7313, 8044, 9644, 10375, 11136, 11862, 14526, 16277, 16313, 17878, 19291, 25722, 27245]}, "edge": {"target": [], "time": []}}}, "displayed_time": "24.78", "trialTime": 27790, "trial_type": "mouselab-mdp", "trial_index": 25, "time_elapsed": 772553, "internal_node_id": "0.0-4.0-1.0-4.0"}}, {"uniqueid": "w50959616:a12831619", "current_trial": 26, "dateTime": 1691143125077, "trialdata": {"revealed_states": [], "clicked_states": ["1", "2", "3", "4", "6", "7", "5"], "num_clicks_accrued": [0, 0, 0, 0, 0, 0, 0, 0, 0, 0, 0, 0, 0], "stateRewards": ["", -2, -3, 8, -4, -30, 31, 69, 9, 66, 87, 64, -2, 2, 8, 5, 47, 16, -39, -8, -54, 51, -19, 1, -2, -2, -11, -25, -26, 43, -9, 19, -84, 86], "withholdReward": false, "trial_id": "mdp_trial_6", "block": "test", "trialIndex": 11, "score": 58.95, "costs": -9.05, "simulationMode": [null, null, null, null, null], "rewards": [-2, -3, 8, -4, 69], "path": ["0", "0", "1", "2", "3", "4", "7"], "rt": [17453, 408, 173, 124, 193], "actions": ["up", "up", "up", "right", "down"], "actionTimes": [19127, 20057, 20754, 21374, 22092], "queries": {"click": {"state": {"target": ["1", "2", "3", "4", "6", "7", "5"], "time": [2943, 3828, 4977, 5865, 7151, 11392, 14861]}, "edge": {"target": [], "time": []}}, "mouseover": {"state": {"target": ["1", "1", "2", "3", "4", "6", "7", "4", "5"], "time": [2198, 2706, 3564, 4381, 5564, 6884, 8163, 12262, 12413]}, "edge": {"target": [], "time": []}}, "mouseout": {"state": {"target": ["22", "0", "1", "1", "2", "3", "4", "6", "4", "7", "4", "5"], "time": [697, 1162, 2327, 3141, 4213, 5481, 6731, 7797, 8047, 11622, 12311, 15930]}, "edge": {"target": [], "time": []}}}, "displayed_time": "22.62", "trialTime": 25650, "trial_type": "mouselab-mdp", "trial_index": 26, "time_elapsed": 798681, "internal_node_id": "0.0-4.0-1.0-5.0"}}, {"uniqueid": "w50959616:a12831619", "current_trial": 27, "dateTime": 1691143154087, "trialdata": {"revealed_states": [], "clicked_states": ["23", "24", "25", "26", "29", "30", "32", "31", "33"], "num_clicks_accrued": [0, 0, 0, 0, 0, 0, 0, 0, 0, 0, 0, 0, 0], "stateRewards": ["", 2, 2, 3, -15, 23, -14, 73, -7, -32, -20, -6, 1, 1, -5, -12, 73, 6, -84, 11, -81, -57, 13, -2, -1, -4, -8, -52, -58, 49, 13, 5, -41, -41], "withholdReward": false, "trial_id": "mdp_trial_7", "block": "test", "trialIndex": 12, "score": 21.25, "costs": -12.75, "simulationMode": [null, null, null, null, null], "rewards": [-2, -1, -4, -8, 49], "path": ["0", "0", "23", "24", "25", "26", "29"], "rt": [19935, 501, 105, 240, 168], "actions": ["left", "left", "left", "up", "left"], "actionTimes": [21469, 22486, 23101, 23837, 24529], "queries": {"click": {"state": {"target": ["23", "24", "25", "26", "29", "30", "32", "31", "33"], "time": [2434, 3169, 3896, 4815, 5596, 8795, 9786, 13084, 17151]}, "edge": {"target": [], "time": []}}, "mouseover": {"state": {"target": ["23", "24", "25", "26", "29", "30", "32", "31", "30", "33"], "time": [2129, 2895, 3642, 4498, 5548, 7077, 9528, 10394, 16544, 16840]}, "edge": {"target": [], "time": []}}, "mouseout": {"state": {"target": ["13", "0", "23", "24", "24", "25", "26", "29", "26", "25", "30", "32", "31", "30", "33", "12"], "time": [524, 1013, 2651, 3363, 3576, 4394, 5261, 6378, 6514, 6611, 9412, 9985, 16459, 16759, 18095, 26025]}, "edge": {"target": [], "time": []}}}, "displayed_time": "25.03", "trialTime": 28503, "trial_type": "mouselab-mdp", "trial_index": 27, "time_elapsed": 827687, "internal_node_id": "0.0-4.0-1.0-6.0"}}, {"uniqueid": "w50959616:a12831619", "current_trial": 28, "dateTime": 1691143212198, "trialdata": {"revealed_states": [], "clicked_states": ["1", "2", "3", "8", "11", "4", "6", "5", "12", "13", "14", "19", "20", "22", "23", "24", "25", "26", "29", "9", "30", "31", "33"], "num_clicks_accrued": [0, 0, 0, 0, 0, 0, 0, 0, 0, 0, 0, 0, 0], "stateRewards": ["", 2, 3, -1, 6, 44, -4, -59, -14, -3, 64, 16, 1, -3, 3, 6, 3, 49, 19, 3, -49, -14, -86, 1, 2, -3, -8, -33, 14, 32, -13, -77, -47, -67], "withholdReward": false, "trial_id": "mdp_trial_8", "block": "test", "trialIndex": 13, "score": 23.750000000000004, "costs": -30.249999999999996, "simulationMode": [null, null, null, null, null], "rewards": [2, 3, -1, 6, 44], "path": ["0", "0", "1", "2", "3", "4", "5"], "rt": [48607, 351, 617, 347, 151], "actions": ["up", "up", "up", "right", "up"], "actionTimes": [50352, 51231, 52362, 53211, 53879], "queries": {"click": {"state": {"target": ["1", "2", "3", "8", "11", "4", "6", "5", "12", "13", "14", "19", "20", "22", "23", "24", "25", "26", "29", "9", "30", "31", "33"], "time": [2500, 3165, 4008, 4795, 5684, 9625, 10606, 14478, 17807, 19011, 19669, 20380, 21045, 24927, 29814, 30759, 31476, 32194, 32945, 38067, 42126, 42965, 46824]}, "edge": {"target": [], "time": []}}, "mouseover": {"state": {"target": ["1", "2", "3", "8", "11", "4", "6", "5", "4", "12", "13", "14", "19", "20", "21", "19", "22", "12", "28", "24", "24", "23", "23", "24", "25", "26", "29", "26", "27", "3", "9", "24", "30", "31", "33", "33", "30", "32"], "time": [1991, 2878, 3671, 4456, 5339, 9259, 10340, 14126, 15891, 15974, 18790, 19457, 20155, 20872, 24197, 24457, 24553, 28257, 28420, 28726, 29106, 29174, 29525, 30408, 31173, 31876, 32611, 35573, 36244, 37142, 37771, 41406, 41856, 42661, 44425, 45625, 47941, 48591]}, "edge": {"target": [], "time": []}}, "mouseout": {"state": {"target": ["0", "1", "2", "3", "8", "11", "8", "4", "6", "5", "4", "12", "13", "13", "14", "19", "19", "20", "20", "21", "19", "22", "12", "28", "24", "24", "23", "23", "24", "25", "26", "29", "26", "27", "3", "9", "24", "30", "31", "30", "33", "33", "30", "32", "20"], "time": [1869, 2693, 3574, 4407, 5241, 7441, 7525, 10271, 13729, 15871, 15908, 18014, 19222, 19430, 20091, 20607, 20790, 21239, 23555, 24326, 24496, 28222, 28271, 28580, 28743, 29140, 29441, 30305, 30948, 31789, 32584, 35560, 35608, 36955, 37221, 38749, 41455, 42596, 44189, 44365, 44679, 47843, 48478, 55239, 55661]}, "edge": {"target": [], "time": []}}}, "displayed_time": "54.39", "trialTime": 57530, "trial_type": "mouselab-mdp", "trial_index": 28, "time_elapsed": 885800, "internal_node_id": "0.0-4.0-1.0-7.0"}}, {"uniqueid": "w50959616:a12831619", "current_trial": 29, "dateTime": 1691143231721, "trialdata": {"revealed_states": [], "clicked_states": ["23", "24", "25", "26", "29"], "num_clicks_accrued": [0, 0, 0, 0, 0, 0, 0, 0, 0, 0, 0, 0, 0], "stateRewards": ["", -1, -3, -7, -7, -76, 30, -49, 11, -70, 56, 2, 1, 4, -3, -14, -59, -83, -25, -9, -21, -67, -73, -2, 4, 4, -9, -11, -32, 60, 9, -87, 22, -64], "withholdReward": false, "trial_id": "mdp_trial_9", "block": "test", "trialIndex": 14, "score": 52.25, "costs": -4.75, "simulationMode": [null, null, null, null, null], "rewards": [-2, 4, 4, -9, 60], "path": ["0", "0", "23", "24", "25", "26", "29"], "rt": [8748, 624, 157, 468, 96], "actions": ["left", "left", "left", "up", "left"], "actionTimes": [11318, 12467, 13150, 14128, 14737], "queries": {"click": {"state": {"target": ["23", "24", "25", "26", "29"], "time": [4195, 4913, 5650, 6358, 7062]}, "edge": {"target": [], "time": []}}, "mouseover": {"state": {"target": ["23", "23", "24", "25", "26", "29", "28", "1", "0"], "time": [3090, 3793, 4642, 5378, 6074, 6807, 7639, 8838, 9424]}, "edge": {"target": [], "time": []}}, "mouseout": {"state": {"target": ["0", "23", "23", "24", "25", "26", "29", "26", "28", "1", "0", "0", "12", "19"], "time": [2809, 3189, 4593, 5329, 6008, 6755, 7525, 7626, 7659, 9227, 9540, 16872, 16906, 18506]}, "edge": {"target": [], "time": []}}}, "displayed_time": "16.57", "trialTime": 19022, "trial_type": "mouselab-mdp", "trial_index": 29, "time_elapsed": 905326, "internal_node_id": "0.0-4.0-1.0-8.0"}}, {"uniqueid": "w50959616:a12831619", "current_trial": 30, "dateTime": 1691143249295, "trialdata": {"revealed_states": [], "clicked_states": [], "num_clicks_accrued": [0, 0, 0, 0, 0, 0, 0, 0, 0, 0, 0, 0, 0], "stateRewards": ["", -1, -4, 8, 8, -68, 47, 24, -7, -61, 49, -69, -1, -1, 8, -7, 42, 1, -45, -11, 10, -63, -6, 1, 4, 6, -16, 79, -37, -58, -12, 81, 18, -53], "withholdReward": false, "trial_id": "mdp_trial_10", "block": "test", "trialIndex": 15, "score": -57, "costs": 0, "simulationMode": [null, null, null, null, null], "rewards": [-1, -4, 8, 8, -68], "path": ["0", "0", "1", "2", "3", "4", "5"], "rt": [935, 6, 6021, 206, 1434], "actions": ["up", "up", "up", "right", "up"], "actionTimes": [2714, 3234, 9785, 10505, 12465], "queries": {"click": {"state": {"target": [], "time": []}, "edge": {"target": [], "time": []}}, "mouseover": {"state": {"target": [], "time": []}, "edge": {"target": [], "time": []}}, "mouseout": {"state": {"target": ["0", "18", "17", "19"], "time": [14862, 14910, 14929, 16477]}, "edge": {"target": [], "time": []}}}, "displayed_time": "15.78", "trialTime": 16980, "trial_type": "mouselab-mdp", "trial_index": 30, "time_elapsed": 922899, "internal_node_id": "0.0-4.0-1.0-9.0"}}, {"uniqueid": "w50959616:a12831619", "current_trial": 31, "dateTime": 1691143267659, "trialdata": {"revealed_states": [], "clicked_states": [], "num_clicks_accrued": [0, 0, 0, 0, 0, 0, 0, 0, 0, 0, 0, 0, 0], "stateRewards": ["", 1, -1, 4, -2, -75, -75, 84, -9, -60, -79, 59, 2, -4, 8, 9, -17, -82, 80, 14, -4, 49, 49, -1, 3, 6, -11, -33, 34, 55, 9, -57, 5, 59], "withholdReward": false, "trial_id": "mdp_trial_11", "block": "test", "trialIndex": 16, "score": 95, "costs": 0, "simulationMode": [null, null, null, null, null], "rewards": [2, -4, 8, 9, 80], "path": ["0", "0", "12", "13", "14", "15", "18"], "rt": [1631, 405, 646, 625, 282], "actions": ["right", "right", "right", "up", "left"], "actionTimes": [3566, 4488, 5659, 6807, 7612], "queries": {"click": {"state": {"target": [], "time": []}, "edge": {"target": [], "time": []}}, "mouseover": {"state": {"target": [], "time": []}, "edge": {"target": [], "time": []}}, "mouseout": {"state": {"target": ["22", "0"], "time": [608, 9026]}, "edge": {"target": [], "time": []}}}, "displayed_time": "15.94", "trialTime": 17825, "trial_type": "mouselab-mdp", "trial_index": 31, "time_elapsed": 941262, "internal_node_id": "0.0-4.0-1.0-10.0"}}, {"uniqueid": "w50959616:a12831619", "current_trial": 32, "dateTime": 1691143338374, "trialdata": {"revealed_states": [], "clicked_states": ["12", "13", "14", "19", "22", "20", "21", "23", "24", "25", "30", "31", "33", "32", "26", "27", "28", "29", "11", "9", "5", "6"], "num_clicks_accrued": [0, 0, 0, 0, 0, 0, 0, 0, 0, 0, 0, 0, 0], "stateRewards": ["", -2, 1, -7, 9, 8, 25, 61, -7, -17, 69, -81, 1, 4, -4, -11, 16, 67, 44, 3, 6, -45, -54, -2, 3, 6, -11, -15, 32, -47, 3, -39, -6, -88], "withholdReward": false, "trial_id": "mdp_trial_12", "block": "test", "trialIndex": 17, "score": -53.699999999999996, "costs": -34.699999999999996, "simulationMode": [null, null, null, null, null], "rewards": [-2, 3, 6, -11, -15], "path": ["0", "0", "23", "24", "25", "26", "27"], "rt": [60023, 316, 657, 240, 570], "actions": ["left", "left", "left", "up", "up"], "actionTimes": [61597, 62432, 63606, 64367, 65438], "queries": {"click": {"state": {"target": ["12", "13", "14", "19", "22", "20", "21", "23", "24", "25", "30", "31", "33", "32", "26", "27", "28", "29", "11", "9", "5", "6"], "time": [4448, 5161, 6195, 6916, 7779, 11116, 14320, 18066, 18795, 19750, 20478, 21150, 25097, 28341, 31398, 32360, 35977, 40930, 43829, 48412, 51657, 55012]}, "edge": {"target": [], "time": []}}, "mouseover": {"state": {"target": ["23", "24", "23", "12", "13", "12", "13", "14", "14", "19", "22", "20", "21", "19", "14", "15", "16", "15", "23", "24", "25", "30", "31", "30", "33", "32", "32", "25", "26", "27", "26", "28", "29", "3", "3", "8", "11", "8", "8", "8", "9", "5", "5", "6", "7"], "time": [1979, 2807, 3094, 3497, 3658, 4190, 4912, 5526, 5876, 6628, 7427, 8543, 11862, 15067, 15118, 15546, 15640, 16662, 17480, 18496, 19447, 20193, 20911, 24261, 24827, 25876, 26193, 29112, 29542, 32013, 34951, 35190, 36876, 41628, 41944, 42042, 42324, 44760, 45014, 45411, 45962, 48910, 49293, 52345, 58362]}, "edge": {"target": [], "time": []}}, "mouseout": {"state": {"target": ["13", "12", "0", "23", "24", "23", "12", "13", "12", "13", "14", "14", "19", "22", "19", "20", "21", "19", "14", "15", "16", "15", "23", "24", "25", "30", "31", "30", "33", "33", "32", "32", "25", "26", "27", "26", "26", "28", "29", "3", "3", "8", "11", "8", "8", "8", "9", "5", "5", "6"], "time": [724, 827, 1061, 2097, 3062, 3462, 3527, 4141, 4861, 5497, 5559, 6559, 7359, 8431, 8524, 11727, 14518, 15105, 15132, 15593, 16524, 17273, 18431, 19193, 20096, 20862, 24210, 24308, 25300, 25796, 25910, 28551, 29125, 31895, 33813, 34495, 35131, 36545, 41135, 41710, 42027, 42161, 44677, 44844, 45146, 45879, 48841, 48924, 52160, 57995]}, "edge": {"target": [], "time": []}}}, "displayed_time": "65.97", "trialTime": 70122, "trial_type": "mouselab-mdp", "trial_index": 32, "time_elapsed": 1011978, "internal_node_id": "0.0-4.0-1.0-11.0"}}, {"uniqueid": "w50959616:a12831619", "current_trial": 33, "dateTime": 1691143359117, "trialdata": {"revealed_states": [], "clicked_states": [], "num_clicks_accrued": [0, 0, 0, 0, 0, 0, 0, 0, 0, 0, 0, 0, 0], "stateRewards": ["", 2, -3, -8, 14, -7, -51, 73, 2, 36, 36, -43, -1, 3, -4, 1, 6, 87, -65, 15, 61, -42, -83, -1, 3, -2, -7, 30, -48, 35, 13, 26, 60, 78], "withholdReward": false, "trial_id": "mdp_trial_13", "block": "test", "trialIndex": 18, "score": -66, "costs": 0, "simulationMode": [null, null, null, null, null], "rewards": [-1, 3, -4, 1, -65], "path": ["0", "0", "12", "13", "14", "15", "18"], "rt": [781, 101, 119, 192, 418], "actions": ["right", "right", "right", "up", "left"], "actionTimes": [6143, 6749, 7387, 8087, 9031], "queries": {"click": {"state": {"target": [], "time": []}, "edge": {"target": [], "time": []}}, "mouseover": {"state": {"target": [], "time": []}, "edge": {"target": [], "time": []}}, "mouseout": {"state": {"target": ["7", "7", "1", "0", "18", "19", "22", "0", "0"], "time": [758, 1881, 1944, 2576, 2609, 3812, 4081, 4744, 10524]}, "edge": {"target": [], "time": []}}}, "displayed_time": "19.36", "trialTime": 20131, "trial_type": "mouselab-mdp", "trial_index": 33, "time_elapsed": 1032720, "internal_node_id": "0.0-4.0-1.0-12.0"}}, {"uniqueid": "w50959616:a12831619", "current_trial": 34, "dateTime": 1691143385578, "trialdata": {"revealed_states": [], "clicked_states": ["12", "13", "14", "19", "20", "22"], "num_clicks_accrued": [0, 0, 0, 0, 0, 0, 0, 0, 0, 0, 0, 0, 0], "stateRewards": ["", -1, 4, -3, 3, 57, -61, 5, -11, 23, -1, 34, -2, -4, -1, -13, 27, 38, -36, 4, -45, 21, 88, 1, -2, -1, 1, -69, -5, -78, -12, -9, 38, -54], "withholdReward": false, "trial_id": "mdp_trial_14", "block": "test", "trialIndex": 19, "score": 78.1, "costs": -6.9, "simulationMode": [null, null, null, null, null], "rewards": [-2, -4, -1, 4, 88], "path": ["0", "0", "12", "13", "14", "19", "22"], "rt": [13424, 296, 409, 665, 166], "actions": ["right", "right", "right", "down", "left"], "actionTimes": [16646, 17456, 18367, 19557, 20243], "queries": {"click": {"state": {"target": ["12", "13", "14", "19", "20", "22"], "time": [4179, 5120, 5833, 6855, 7610, 11536]}, "edge": {"target": [], "time": []}}, "mouseover": {"state": {"target": ["12", "12", "12", "13", "14", "19", "20", "21", "22", "21"], "time": [3353, 3593, 3740, 4888, 5607, 6540, 7391, 8452, 9273, 12472]}, "edge": {"target": [], "time": []}}, "mouseout": {"state": {"target": ["1", "12", "12", "12", "13", "14", "19", "20", "20", "21", "22", "21", "21"], "time": [2289, 3417, 3686, 4363, 5300, 6029, 7052, 7820, 8323, 9040, 12171, 23102, 25540]}, "edge": {"target": [], "time": []}}}, "displayed_time": "20.77", "trialTime": 25819, "trial_type": "mouselab-mdp", "trial_index": 34, "time_elapsed": 1059180, "internal_node_id": "0.0-4.0-1.0-13.0"}}, {"uniqueid": "w50959616:a12831619", "current_trial": 35, "dateTime": 1691143417513, "trialdata": {"revealed_states": [], "clicked_states": ["1", "2", "7", "4", "5", "6", "3", "8", "11"], "num_clicks_accrued": [0, 0, 0, 0, 0, 0, 0, 0, 0, 0, 0, 0, 0], "stateRewards": ["", 2, -3, 5, -14, -63, -9, -24, -11, -54, -43, 68, 2, -2, -4, 7, -64, 30, 47, 12, -74, 11, 86, 1, -3, 3, 10, -71, -42, -52, -1, -29, -16, 69], "withholdReward": false, "trial_id": "mdp_trial_15", "block": "test", "trialIndex": 20, "score": 48.25, "costs": -12.75, "simulationMode": [null, null, null, null, null], "rewards": [2, -3, 5, -11, 68], "path": ["0", "0", "1", "2", "3", "8", "11"], "rt": [22088, 601, 361, 70, 584], "actions": ["up", "up", "up", "left", "left"], "actionTimes": [23937, 25063, 25938, 26530, 27611], "queries": {"click": {"state": {"target": ["1", "2", "7", "4", "5", "6", "3", "8", "11"], "time": [2741, 3317, 4849, 7866, 8776, 12118, 15471, 18185, 19601]}, "edge": {"target": [], "time": []}}, "mouseover": {"state": {"target": ["1", "2", "7", "7", "4", "5", "6", "4", "3", "8", "11", "11", "8", "3", "8", "11", "10"], "time": [2454, 3048, 3729, 4610, 5341, 8423, 9624, 13258, 13291, 13325, 13360, 13588, 13775, 14661, 16072, 18858, 20375]}, "edge": {"target": [], "time": []}}, "mouseout": {"state": {"target": ["23", "1", "0", "1", "2", "7", "7", "4", "5", "6", "4", "3", "8", "11", "11", "8", "3", "8", "11", "10"], "time": [707, 1086, 2111, 2952, 3524, 3750, 5071, 8341, 9526, 12318, 13272, 13305, 13341, 13424, 13707, 13973, 16008, 18809, 20242, 28773]}, "edge": {"target": [], "time": []}}}, "displayed_time": "28.13", "trialTime": 31309, "trial_type": "mouselab-mdp", "trial_index": 35, "time_elapsed": 1091117, "internal_node_id": "0.0-4.0-1.0-14.0"}}, {"uniqueid": "w50959616:a12831619", "current_trial": 36, "dateTime": 1691143434936, "trialdata": {"revealed_states": [], "clicked_states": [], "num_clicks_accrued": [0, 0, 0, 0, 0, 0, 0, 0, 0, 0, 0, 0, 0], "stateRewards": ["", 1, 4, 7, -16, -84, -6, -46, -12, -7, -49, -26, -1, 2, -4, 2, 22, 37, -64, 1, 88, -13, -10, 1, -4, -2, 5, 2, -10, -34, 9, 66, 55, 38], "withholdReward": false, "trial_id": "mdp_trial_16", "block": "test", "trialIndex": 21, "score": 59, "costs": 0, "simulationMode": [null, null, null, null, null], "rewards": [1, -4, -2, 9, 55], "path": ["0", "0", "23", "24", "25", "30", "32"], "rt": [10, 46, 363, 606, 566], "actions": ["left", "left", "left", "down", "down"], "actionTimes": [2445, 2636, 3523, 4651, 5743], "queries": {"click": {"state": {"target": [], "time": []}, "edge": {"target": [], "time": []}}, "mouseover": {"state": {"target": [], "time": []}, "edge": {"target": [], "time": []}}, "mouseout": {"state": {"target": ["0", "0"], "time": [1854, 6803]}, "edge": {"target": [], "time": []}}}, "displayed_time": "16.44", "trialTime": 16848, "trial_type": "mouselab-mdp", "trial_index": 36, "time_elapsed": 1108541, "internal_node_id": "0.0-4.0-1.0-15.0"}}, {"uniqueid": "w50959616:a12831619", "current_trial": 37, "dateTime": 1691143453546, "trialdata": {"revealed_states": [], "clicked_states": [], "num_clicks_accrued": [0, 0, 0, 0, 0, 0, 0, 0, 0, 0, 0, 0, 0], "stateRewards": ["", 1, 1, -7, -9, -44, 24, -83, -15, 44, -24, 72, -2, -3, 4, -5, 57, 55, 29, -11, 22, 12, -25, -1, 2, 7, 12, 33, -8, 47, -4, 8, 50, -4], "withholdReward": false, "trial_id": "mdp_trial_17", "block": "test", "trialIndex": 22, "score": 52, "costs": 0, "simulationMode": [null, null, null, null, null], "rewards": [1, 1, -7, -15, 72], "path": ["0", "0", "1", "2", "3", "8", "11"], "rt": [2555, 165, 141, 490, 199], "actions": ["up", "up", "up", "left", "left"], "actionTimes": [4632, 5309, 5972, 6971, 7692], "queries": {"click": {"state": {"target": [], "time": []}, "edge": {"target": [], "time": []}}, "mouseover": {"state": {"target": [], "time": []}, "edge": {"target": [], "time": []}}, "mouseout": {"state": {"target": ["0", "14"], "time": [8873, 8923]}, "edge": {"target": [], "time": []}}}, "displayed_time": "16.08", "trialTime": 18003, "trial_type": "mouselab-mdp", "trial_index": 37, "time_elapsed": 1127149, "internal_node_id": "0.0-4.0-1.0-16.0"}}, {"uniqueid": "w50959616:a12831619", "current_trial": 38, "dateTime": 1691143472136, "trialdata": {"revealed_states": [], "clicked_states": [], "num_clicks_accrued": [0, 0, 0, 0, 0, 0, 0, 0, 0, 0, 0, 0, 0], "stateRewards": ["", 1, 1, -5, 8, -6, 45, 16, -6, -7, -22, -38, -1, -4, 8, -11, -16, 21, -45, -15, -59, -32, 42, -1, 3, 6, 11, -7, 34, -27, -8, 85, 43, -9], "withholdReward": false, "trial_id": "mdp_trial_18", "block": "test", "trialIndex": 23, "score": -44, "costs": 0, "simulationMode": [null, null, null, null, null], "rewards": [-1, -4, 8, -15, -32], "path": ["0", "0", "12", "13", "14", "19", "21"], "rt": [1542, 94, 305, 748, 128], "actions": ["right", "right", "right", "down", "down"], "actionTimes": [4244, 4853, 5665, 6923, 7577], "queries": {"click": {"state": {"target": [], "time": []}, "edge": {"target": [], "time": []}}, "mouseover": {"state": {"target": [], "time": []}, "edge": {"target": [], "time": []}}, "mouseout": {"state": {"target": ["13", "0", "0"], "time": [1739, 2051, 8837]}, "edge": {"target": [], "time": []}}}, "displayed_time": "16.71", "trialTime": 17911, "trial_type": "mouselab-mdp", "trial_index": 38, "time_elapsed": 1145739, "internal_node_id": "0.0-4.0-1.0-17.0"}}, {"uniqueid": "w50959616:a12831619", "current_trial": 39, "dateTime": 1691143493112, "trialdata": {"revealed_states": [], "clicked_states": ["12", "13", "14", "19", "20", "16"], "num_clicks_accrued": [0, 0, 0, 0, 0, 0, 0, 0, 0, 0, 0, 0, 0], "stateRewards": ["", -2, -4, -6, 12, -58, -70, -80, 2, 16, -88, -62, 1, 2, -5, 11, 77, -35, -44, -5, 18, -83, 87, 1, -3, -5, 13, -44, -21, -86, 10, -52, 8, 29], "withholdReward": false, "trial_id": "mdp_trial_19", "block": "test", "trialIndex": 24, "score": 79.1, "costs": -6.9, "simulationMode": [null, null, null, null, null], "rewards": [1, 2, -5, 11, 77], "path": ["0", "0", "12", "13", "14", "15", "16"], "rt": [11287, 162, 145, 488, 148], "actions": ["right", "right", "right", "up", "up"], "actionTimes": [13365, 14047, 14714, 15737, 16401], "queries": {"click": {"state": {"target": ["12", "13", "14", "19", "20", "16"], "time": [2971, 3638, 4235, 4931, 5472, 8880]}, "edge": {"target": [], "time": []}}, "mouseover": {"state": {"target": ["12", "13", "12", "13", "14", "19", "20", "16", "17", "6", "5", "5", "4", "7"], "time": [2161, 2368, 2766, 3397, 4001, 4650, 5263, 6449, 9498, 10349, 10369, 10766, 12447, 12499]}, "edge": {"target": [], "time": []}}, "mouseout": {"state": {"target": ["17", "23", "0", "12", "13", "12", "13", "14", "19", "20", "16", "17", "16", "6", "5", "5", "4", "7"], "time": [1011, 1378, 2116, 2247, 2628, 3348, 3955, 4615, 5227, 5968, 9380, 10330, 10345, 10367, 10389, 12427, 12480, 17482]}, "edge": {"target": [], "time": []}}}, "displayed_time": "16.92", "trialTime": 20325, "trial_type": "mouselab-mdp", "trial_index": 39, "time_elapsed": 1166714, "internal_node_id": "0.0-4.0-1.0-18.0"}}, {"uniqueid": "w50959616:a12831619", "current_trial": 40, "dateTime": 1691143517526, "trialdata": {"revealed_states": [], "clicked_states": ["27", "9", "5", "16"], "num_clicks_accrued": [0, 0, 0, 0, 0, 0, 0, 0, 0, 0, 0, 0, 0], "stateRewards": ["", -2, 1, 6, -2, -10, -78, -69, 14, -15, 7, -1, 1, -1, -2, 13, 77, 32, 87, 5, -74, 30, -26, 1, 3, 4, 12, 39, 54, -43, 2, 10, 23, 13], "withholdReward": false, "trial_id": "mdp_trial_20", "block": "test", "trialIndex": 25, "score": 79.4, "costs": -8.6, "simulationMode": [null, null, null, null, null], "rewards": [1, -1, -2, 13, 77], "path": ["0", "0", "12", "13", "14", "15", "16"], "rt": [14906, 165, 606, 290, 69], "actions": ["right", "right", "right", "up", "up"], "actionTimes": [16635, 17320, 18442, 19243, 19823], "queries": {"click": {"state": {"target": ["27", "9", "5", "16"], "time": [2903, 5868, 9062, 12224]}, "edge": {"target": [], "time": []}}, "mouseover": {"state": {"target": ["27", "11", "9", "5", "16", "16", "17"], "time": [2633, 3485, 4135, 6784, 10500, 11052, 12823]}, "edge": {"target": [], "time": []}}, "mouseout": {"state": {"target": ["0", "27", "11", "9", "5", "16", "16", "17", "18", "31", "31"], "time": [1202, 3384, 3655, 6629, 9619, 10601, 12706, 21515, 21567, 21649, 21983]}, "edge": {"target": [], "time": []}}}, "displayed_time": "20.34", "trialTime": 23829, "trial_type": "mouselab-mdp", "trial_index": 40, "time_elapsed": 1191130, "internal_node_id": "0.0-4.0-1.0-19.0"}}, {"uniqueid": "w50959616:a12831619", "current_trial": 41, "dateTime": 1691143535595, "trialdata": {"revealed_states": [], "clicked_states": ["32"], "num_clicks_accrued": [0, 0, 0, 0, 0, 0, 0, 0, 0, 0, 0, 0, 0], "stateRewards": ["", -1, -3, -7, -4, -85, -70, 79, 8, 84, -66, 42, 2, -2, -3, -16, -54, -66, 68, -3, 21, -14, 7, -2, -1, -3, -8, 75, 80, 86, -7, -84, 73, -16], "withholdReward": false, "trial_id": "mdp_trial_21", "block": "test", "trialIndex": 26, "score": 57.85, "costs": -2.15, "simulationMode": [null, null, null, null, null], "rewards": [-2, -1, -3, -7, 73], "path": ["0", "0", "23", "24", "25", "30", "32"], "rt": [5639, 201, 159, 902, 192], "actions": ["left", "left", "left", "down", "down"], "actionTimes": [7530, 8258, 8934, 10357, 11080], "queries": {"click": {"state": {"target": ["32"], "time": [3028]}, "edge": {"target": [], "time": []}}, "mouseover": {"state": {"target": ["0", "23", "32", "33"], "time": [2212, 2288, 2649, 3819]}, "edge": {"target": [], "time": []}}, "mouseout": {"state": {"target": ["0", "0", "23", "32"], "time": [1366, 2269, 2316, 3618]}, "edge": {"target": [], "time": []}}}, "displayed_time": "15.90", "trialTime": 17416, "trial_type": "mouselab-mdp", "trial_index": 41, "time_elapsed": 1209200, "internal_node_id": "0.0-4.0-1.0-20.0"}}, {"uniqueid": "w50959616:a12831619", "current_trial": 42, "dateTime": 1691143562235, "trialdata": {"revealed_states": [], "clicked_states": ["9", "21", "32", "29"], "num_clicks_accrued": [0, 0, 0, 0, 0, 0, 0, 0, 0, 0, 0, 0, 0], "stateRewards": ["", 1, 3, 1, -13, 52, -28, 67, -14, 3, 63, -70, -1, -4, 7, -11, -10, 47, -18, 6, 69, -9, -61, 2, 3, -6, 10, 63, -34, 40, -6, -79, -35, -32], "withholdReward": false, "trial_id": "mdp_trial_22", "block": "test", "trialIndex": 27, "score": 40.4, "costs": -8.6, "simulationMode": [null, null, null, null, null], "rewards": [2, 3, -6, 10, 40], "path": ["0", "0", "23", "24", "25", "26", "29"], "rt": [15847, 242, 155, 882, 353], "actions": ["left", "left", "left", "up", "left"], "actionTimes": [17691, 18455, 19136, 20531, 21401], "queries": {"click": {"state": {"target": ["9", "21", "32", "29"], "time": [2852, 6121, 9916, 13167]}, "edge": {"target": [], "time": []}}, "mouseover": {"state": {"target": ["9", "21", "19", "20", "32", "32", "30", "29", "29", "26", "18", "15", "17", "17", "17", "15"], "time": [2595, 4062, 7011, 7362, 8795, 9662, 10612, 10761, 11096, 13733, 13818, 14146, 14199, 14485, 16281, 16745]}, "edge": {"target": [], "time": []}}, "mouseout": {"state": {"target": ["33", "23", "2", "2", "2", "1", "0", "9", "9", "21", "19", "20", "32", "32", "30", "29", "29", "26", "18", "15", "17", "17", "17", "15", "17"], "time": [18, 392, 440, 658, 712, 796, 1859, 3076, 3280, 6314, 7065, 7393, 9310, 10114, 10632, 10880, 13729, 13751, 13853, 14183, 14279, 14644, 16710, 22716, 22727]}, "edge": {"target": [], "time": []}}}, "displayed_time": "21.91", "trialTime": 25826, "trial_type": "mouselab-mdp", "trial_index": 42, "time_elapsed": 1235838, "internal_node_id": "0.0-4.0-1.0-21.0"}}, {"uniqueid": "w50959616:a12831619", "current_trial": 43, "dateTime": 1691143609472, "trialdata": {"revealed_states": [], "clicked_states": [], "num_clicks_accrued": [0, 0, 0, 0, 0, 0, 0, 0, 0, 0, 0, 0, 0], "stateRewards": ["", -2, 2, -1, -6, 22, 6, 6, -5, 70, -42, 65, 1, 3, 5, -6, -67, -9, 3, 14, 7, -62, -13, -2, 4, 1, 16, 42, -21, -52, -8, 32, 53, 81], "withholdReward": false, "trial_id": "mdp_trial_23", "block": "test", "trialIndex": 28, "score": 59, "costs": 0, "simulationMode": [null, null, null, null, null], "rewards": [-2, 2, -1, -5, 65], "path": ["0", "0", "1", "2", "3", "8", "11"], "rt": [1734, 153, 233, 1033, 1192], "actions": ["up", "up", "up", "left", "left"], "actionTimes": [3397, 4063, 4796, 6343, 8049], "queries": {"click": {"state": {"target": [], "time": []}, "edge": {"target": [], "time": []}}, "mouseover": {"state": {"target": [], "time": []}, "edge": {"target": [], "time": []}}, "mouseout": {"state": {"target": ["21", "22", "0"], "time": [624, 674, 8841]}, "edge": {"target": [], "time": []}}}, "displayed_time": "15.66", "trialTime": 46628, "trial_type": "mouselab-mdp", "trial_index": 43, "time_elapsed": 1283076, "internal_node_id": "0.0-4.0-1.0-22.0"}}, {"uniqueid": "w50959616:a12831619", "current_trial": 44, "dateTime": 1691143630103, "trialdata": {"revealed_states": [], "clicked_states": ["11", "6", "20"], "num_clicks_accrued": [0, 0, 0, 0, 0, 0, 0, 0, 0, 0, 0, 0, 0], "stateRewards": ["", 2, -4, -4, 13, -80, 62, 13, -11, 57, -13, -44, 1, 4, 3, -4, -29, -88, 15, 16, -58, 68, -45, -1, -3, -1, -9, -44, -86, -19, -7, -36, 59, 66], "withholdReward": false, "trial_id": "mdp_trial_24", "block": "test", "trialIndex": 29, "score": 62.55, "costs": -6.449999999999999, "simulationMode": [null, null, null, null, null], "rewards": [2, -4, -4, 13, 62], "path": ["0", "0", "1", "2", "3", "4", "6"], "rt": [11160, 520, 339, 313, 15], "actions": ["up", "up", "up", "right", "right"], "actionTimes": [14152, 15199, 16068, 16904, 17444], "queries": {"click": {"state": {"target": ["11", "6", "20"], "time": [4355, 7601, 11012]}, "edge": {"target": [], "time": []}}, "mouseover": {"state": {"target": ["1", "11", "8", "5", "6", "20", "4", "4", "3"], "time": [3321, 4332, 4812, 4843, 5243, 8741, 12094, 12345, 12559]}, "edge": {"target": [], "time": []}}, "mouseout": {"state": {"target": ["12", "1", "11", "8", "5", "6", "20", "4", "4", "3", "7"], "time": [2019, 3353, 4808, 4826, 4860, 8418, 12021, 12118, 12379, 18377, 19803]}, "edge": {"target": [], "time": []}}}, "displayed_time": "17.96", "trialTime": 19989, "trial_type": "mouselab-mdp", "trial_index": 44, "time_elapsed": 1303707, "internal_node_id": "0.0-4.0-1.0-23.0"}}, {"uniqueid": "w50959616:a12831619", "current_trial": 45, "dateTime": 1691143647512, "trialdata": {"revealed_states": [], "clicked_states": [], "num_clicks_accrued": [0, 0, 0, 0, 0, 0, 0, 0, 0, 0, 0, 0, 0], "stateRewards": ["", -1, -4, -6, -15, 21, -67, -63, 9, 51, 69, -14, -1, 3, 8, -8, 39, 72, 63, 15, 19, 47, 15, 1, 4, 5, 16, -18, 34, 35, -14, -80, 40, 1], "withholdReward": false, "trial_id": "mdp_trial_25", "block": "test", "trialIndex": 30, "score": 72, "costs": 0, "simulationMode": [null, null, null, null, null], "rewards": [-1, 3, 8, 15, 47], "path": ["0", "0", "12", "13", "14", "19", "21"], "rt": [1439, 179, 8, 227, 190], "actions": ["right", "right", "right", "down", "down"], "actionTimes": [3175, 3887, 4414, 5183, 5908], "queries": {"click": {"state": {"target": [], "time": []}, "edge": {"target": [], "time": []}}, "mouseover": {"state": {"target": [], "time": []}, "edge": {"target": [], "time": []}}, "mouseout": {"state": {"target": ["10", "0"], "time": [714, 7045]}, "edge": {"target": [], "time": []}}}, "displayed_time": "15.74", "trialTime": 16790, "trial_type": "mouselab-mdp", "trial_index": 45, "time_elapsed": 1321115, "internal_node_id": "0.0-4.0-1.0-24.0"}}, {"uniqueid": "w50959616:a12831619", "current_trial": 46, "dateTime": 1691143664740, "trialdata": {"revealed_states": [], "clicked_states": [], "num_clicks_accrued": [0, 0, 0, 0, 0, 0, 0, 0, 0, 0, 0, 0, 0], "stateRewards": ["", 2, 3, -3, 12, -43, 81, -82, -15, 58, -7, -75, -1, -1, 3, -5, 50, -25, -8, 4, 66, 65, -66, 2, -4, 2, -1, -10, 10, 37, 11, 88, -37, 8], "withholdReward": false, "trial_id": "mdp_trial_26", "block": "test", "trialIndex": 31, "score": 99, "costs": 0, "simulationMode": [null, null, null, null, null], "rewards": [2, -4, 2, 11, 88], "path": ["0", "0", "23", "24", "25", "30", "31"], "rt": [1427, 230, 37, 611, 204], "actions": ["left", "left", "left", "down", "right"], "actionTimes": [3111, 3858, 4395, 5504, 6231], "queries": {"click": {"state": {"target": [], "time": []}, "edge": {"target": [], "time": []}}, "mouseover": {"state": {"target": [], "time": []}, "edge": {"target": [], "time": []}}, "mouseout": {"state": {"target": ["0", "0"], "time": [991, 8275]}, "edge": {"target": [], "time": []}}}, "displayed_time": "15.69", "trialTime": 16614, "trial_type": "mouselab-mdp", "trial_index": 46, "time_elapsed": 1338345, "internal_node_id": "0.0-4.0-1.0-25.0"}}, {"uniqueid": "w50959616:a12831619", "current_trial": 47, "dateTime": 1691143682463, "trialdata": {"revealed_states": [], "clicked_states": ["33"], "num_clicks_accrued": [0, 0, 0, 0, 0, 0, 0, 0, 0, 0, 0, 0, 0], "stateRewards": ["", -2, -4, -8, 8, 63, -50, -19, -7, -17, -31, 31, 1, 3, -5, 12, -35, -63, -29, -4, -17, -75, -79, -2, -3, -2, 8, -3, -85, 10, -2, -82, -82, 56], "withholdReward": false, "trial_id": "mdp_trial_27", "block": "test", "trialIndex": 32, "score": 44.85, "costs": -2.15, "simulationMode": [null, null, null, null, null], "rewards": [-2, -3, -2, -2, 56], "path": ["0", "0", "23", "24", "25", "30", "33"], "rt": [5003, 14, 680, 366, 579], "actions": ["left", "left", "left", "down", "left"], "actionTimes": [6846, 7377, 8576, 9479, 10585], "queries": {"click": {"state": {"target": ["33"], "time": [2763]}, "edge": {"target": [], "time": []}}, "mouseover": {"state": {"target": ["23", "30", "33", "29", "27"], "time": [1939, 2033, 2479, 3375, 4312]}, "edge": {"target": [], "time": []}}, "mouseout": {"state": {"target": ["20", "14", "13", "12", "23", "30", "33", "29", "27", "7", "22"], "time": [276, 345, 741, 1133, 1960, 2076, 2970, 4092, 11425, 11442, 16559]}, "edge": {"target": [], "time": []}}}, "displayed_time": "15.84", "trialTime": 17106, "trial_type": "mouselab-mdp", "trial_index": 47, "time_elapsed": 1356068, "internal_node_id": "0.0-4.0-1.0-26.0"}}, {"uniqueid": "w50959616:a12831619", "current_trial": 48, "dateTime": 1691143700941, "trialdata": {"revealed_states": [], "clicked_states": [], "num_clicks_accrued": [0, 0, 0, 0, 0, 0, 0, 0, 0, 0, 0, 0, 0], "stateRewards": ["", 2, -4, 1, -12, -59, -53, -74, 16, -88, -66, 66, 1, -2, 8, -9, -14, 22, 25, -1, -39, 47, -14, -1, -1, -2, 1, -4, 52, -26, 15, -7, 46, 43], "withholdReward": false, "trial_id": "mdp_trial_28", "block": "test", "trialIndex": 33, "score": 49, "costs": 0, "simulationMode": [null, null, null, null, null], "rewards": [-1, -1, -2, 1, 52], "path": ["0", "0", "23", "24", "25", "26", "28"], "rt": [2061, 43, 461, 377, 716], "actions": ["left", "left", "left", "up", "right"], "actionTimes": [4639, 5184, 6191, 7089, 8326], "queries": {"click": {"state": {"target": [], "time": []}, "edge": {"target": [], "time": []}}, "mouseover": {"state": {"target": ["23", "24", "25"], "time": [3256, 3286, 3314]}, "edge": {"target": [], "time": []}}, "mouseout": {"state": {"target": ["0", "23", "24", "25", "16"], "time": [3240, 3279, 3297, 3607, 13338]}, "edge": {"target": [], "time": []}}}, "displayed_time": "16.58", "trialTime": 17844, "trial_type": "mouselab-mdp", "trial_index": 48, "time_elapsed": 1374545, "internal_node_id": "0.0-4.0-1.0-27.0"}}, {"uniqueid": "w50959616:a12831619", "current_trial": 49, "dateTime": 1691143719934, "trialdata": {"revealed_states": [], "clicked_states": [], "num_clicks_accrued": [0, 0, 0, 0, 0, 0, 0, 0, 0, 0, 0, 0, 0], "stateRewards": ["", 1, 2, -3, -6, 50, -7, 7, -7, -80, 21, -1, 2, 2, 4, -1, 33, 84, 1, 14, -53, 81, 6, -2, -2, -3, -9, -87, -38, -59, -5, -74, -3, -71], "withholdReward": false, "trial_id": "mdp_trial_29", "block": "test", "trialIndex": 34, "score": 1, "costs": 0, "simulationMode": [null, null, null, null, null], "rewards": [1, 2, -3, -6, 7], "path": ["0", "0", "1", "2", "3", "4", "7"], "rt": [1330, 298, 73, 873, 514], "actions": ["up", "up", "up", "right", "down"], "actionTimes": [4368, 5188, 5805, 7181, 8223], "queries": {"click": {"state": {"target": [], "time": []}, "edge": {"target": [], "time": []}}, "mouseover": {"state": {"target": [], "time": []}, "edge": {"target": [], "time": []}}, "mouseout": {"state": {"target": ["6", "7", "0", "0", "13", "14"], "time": [1634, 1968, 2055, 2339, 9535, 9819]}, "edge": {"target": [], "time": []}}}, "displayed_time": "17.04", "trialTime": 18282, "trial_type": "mouselab-mdp", "trial_index": 49, "time_elapsed": 1393537, "internal_node_id": "0.0-4.0-1.0-28.0"}}, {"uniqueid": "w50959616:a12831619", "current_trial": 50, "dateTime": 1691143739173, "trialdata": {"revealed_states": [], "clicked_states": ["11"], "num_clicks_accrued": [0, 0, 0, 0, 0, 0, 0, 0, 0, 0, 0, 0, 0], "stateRewards": ["", -1, 3, -4, -14, 78, 67, 2, 13, -32, 28, 39, -2, 1, -4, -4, -4, -42, -86, 11, 64, -29, -32, -1, -4, 2, -7, 5, 68, -61, 2, -21, 85, 50], "withholdReward": false, "trial_id": "mdp_trial_30", "block": "test", "trialIndex": 35, "score": 47.85, "costs": -2.15, "simulationMode": [null, null, null, null, null], "rewards": [-1, 3, -4, 13, 39], "path": ["0", "0", "1", "2", "3", "8", "11"], "rt": [7020, 93, 327, 304, 87], "actions": ["up", "up", "up", "left", "left"], "actionTimes": [9404, 10015, 10864, 11709, 12307], "queries": {"click": {"state": {"target": ["11"], "time": [5009]}, "edge": {"target": [], "time": []}}, "mouseover": {"state": {"target": ["1", "2", "3", "2", "8", "11", "8", "6"], "time": [2631, 3090, 3396, 3816, 4045, 4730, 5556, 5638]}, "edge": {"target": [], "time": []}}, "mouseout": {"state": {"target": ["14", "13", "12", "1", "2", "3", "2", "8", "11", "11", "8", "6"], "time": [1265, 1283, 1630, 3055, 3174, 3647, 3835, 4363, 5243, 5548, 5579, 8382]}, "edge": {"target": [], "time": []}}}, "displayed_time": "16.39", "trialTime": 18456, "trial_type": "mouselab-mdp", "trial_index": 50, "time_elapsed": 1412778, "internal_node_id": "0.0-4.0-1.0-29.0"}}, {"uniqueid": "w50959616:a12831619", "current_trial": 51, "dateTime": 1691143758094, "trialdata": {"revealed_states": [], "clicked_states": ["21"], "num_clicks_accrued": [0, 0, 0, 0, 0, 0, 0, 0, 0, 0, 0, 0, 0], "stateRewards": ["", 2, 3, 3, 10, 19, -21, 6, 9, 54, 68, 16, 2, 2, -6, -8, 40, -2, -75, -2, -42, 55, 59, -1, 2, 4, -14, 11, -34, -30, -6, 61, -53, 13], "withholdReward": false, "trial_id": "mdp_trial_31", "block": "test", "trialIndex": 36, "score": 48.85, "costs": -2.15, "simulationMode": [null, null, null, null, null], "rewards": [2, 2, -6, -2, 55], "path": ["0", "0", "12", "13", "14", "19", "21"], "rt": [6029, 230, 393, 135, 174], "actions": ["right", "right", "right", "down", "down"], "actionTimes": [8098, 8849, 9762, 10421, 11111], "queries": {"click": {"state": {"target": ["21"], "time": [3620]}, "edge": {"target": [], "time": []}}, "mouseover": {"state": {"target": ["12", "13", "14", "19", "21", "20"], "time": [2213, 2314, 2817, 2947, 3331, 4399]}, "edge": {"target": [], "time": []}}, "mouseout": {"state": {"target": ["20", "18", "1", "12", "13", "14", "19", "21", "20"], "time": [548, 596, 1030, 2263, 2784, 2864, 3033, 4147, 16039]}, "edge": {"target": [], "time": []}}}, "displayed_time": "16.07", "trialTime": 18187, "trial_type": "mouselab-mdp", "trial_index": 51, "time_elapsed": 1431697, "internal_node_id": "0.0-4.0-1.0-30.0"}}, {"uniqueid": "w50959616:a12831619", "current_trial": 52, "dateTime": 1691143774974, "trialdata": {"revealed_states": [], "clicked_states": [], "num_clicks_accrued": [0, 0, 0, 0, 0, 0, 0, 0, 0, 0, 0, 0, 0], "stateRewards": ["", -1, -3, 3, 5, 56, 39, 50, -1, -80, 33, -46, 1, -2, -6, -8, 87, 48, 54, -11, -20, -64, -54, -2, 3, -7, -3, 12, 88, 35, -16, -46, -70, -3], "withholdReward": false, "trial_id": "mdp_trial_32", "block": "test", "trialIndex": 37, "score": -25, "costs": 0, "simulationMode": [null, null, null, null, null], "rewards": [-2, 3, -7, -16, -3], "path": ["0", "0", "23", "24", "25", "30", "33"], "rt": [1073, 148, 209, 468, 150], "actions": ["left", "left", "left", "down", "left"], "actionTimes": [2561, 3235, 3962, 4961, 5636], "queries": {"click": {"state": {"target": [], "time": []}, "edge": {"target": [], "time": []}}, "mouseover": {"state": {"target": [], "time": []}, "edge": {"target": [], "time": []}}, "mouseout": {"state": {"target": [], "time": []}, "edge": {"target": [], "time": []}}}, "displayed_time": "15.49", "trialTime": 16185, "trial_type": "mouselab-mdp", "trial_index": 52, "time_elapsed": 1448578, "internal_node_id": "0.0-4.0-1.0-31.0"}}, {"uniqueid": "w50959616:a12831619", "current_trial": 53, "dateTime": 1691143794839, "trialdata": {"revealed_states": [], "clicked_states": [], "num_clicks_accrued": [0, 0, 0, 0, 0, 0, 0, 0, 0, 0, 0, 0, 0], "stateRewards": ["", 2, 3, -6, -5, -3, 55, 40, 11, 61, 11, 51, 2, -4, -6, 9, -25, 29, -15, -6, 7, -77, -2, -2, -4, 1, 14, -43, -1, 56, -12, -54, 41, -74], "withholdReward": false, "trial_id": "mdp_trial_33", "block": "test", "trialIndex": 38, "score": 21, "costs": 0, "simulationMode": [null, null, null, null, null], "rewards": [2, 3, -6, 11, 11], "path": ["0", "0", "1", "2", "3", "8", "10"], "rt": [1647, 717, 167, 217, 142], "actions": ["up", "up", "up", "left", "down"], "actionTimes": [3060, 4294, 4974, 5710, 6383], "queries": {"click": {"state": {"target": [], "time": []}, "edge": {"target": [], "time": []}}, "mouseover": {"state": {"target": [], "time": []}, "edge": {"target": [], "time": []}}, "mouseout": {"state": {"target": ["0", "0"], "time": [751, 16789]}, "edge": {"target": [], "time": []}}}, "displayed_time": "15.42", "trialTime": 19136, "trial_type": "mouselab-mdp", "trial_index": 53, "time_elapsed": 1468442, "internal_node_id": "0.0-4.0-1.0-32.0"}}, {"uniqueid": "w50959616:a12831619", "current_trial": 54, "dateTime": 1691143813916, "trialdata": {"revealed_states": [], "clicked_states": [], "num_clicks_accrued": [0, 0, 0, 0, 0, 0, 0, 0, 0, 0, 0, 0, 0], "stateRewards": ["", -2, 4, -5, -12, 85, -24, -18, -15, -78, -22, 26, -1, -1, 2, 14, -45, 52, -23, 7, -33, 24, -6, -2, -4, 5, -7, -16, 36, -39, 5, 71, -87, -23], "withholdReward": false, "trial_id": "mdp_trial_34", "block": "test", "trialIndex": 39, "score": 66, "costs": 0, "simulationMode": [null, null, null, null, null], "rewards": [-1, -1, 2, 14, 52], "path": ["0", "0", "12", "13", "14", "15", "17"], "rt": [3081, 9, 90, 314, 570], "actions": ["right", "right", "right", "up", "right"], "actionTimes": [5822, 6366, 6976, 7786, 8878], "queries": {"click": {"state": {"target": [], "time": []}, "edge": {"target": [], "time": []}}, "mouseover": {"state": {"target": [], "time": []}, "edge": {"target": [], "time": []}}, "mouseout": {"state": {"target": ["0", "0", "12"], "time": [1763, 10084, 10107]}, "edge": {"target": [], "time": []}}}, "displayed_time": "16.75", "trialTime": 18314, "trial_type": "mouselab-mdp", "trial_index": 54, "time_elapsed": 1487521, "internal_node_id": "0.0-4.0-1.0-33.0"}}, {"uniqueid": "w50959616:a12831619", "current_trial": 55, "dateTime": 1691143841570, "trialdata": {"revealed_states": [], "clicked_states": ["5", "9", "32", "21", "7"], "num_clicks_accrued": [0, 0, 0, 0, 0, 0, 0, 0, 0, 0, 0, 0, 0], "stateRewards": ["", 2, -3, -2, 14, -4, 85, 46, 15, -28, 41, 31, -1, -1, -1, 5, 62, 79, 57, 12, -73, -64, 86, -1, 1, -3, -5, 68, 11, -32, 8, -80, -21, -56], "withholdReward": false, "trial_id": "mdp_trial_35", "block": "test", "trialIndex": 40, "score": 46.25, "costs": -10.75, "simulationMode": [null, null, null, null, null], "rewards": [2, -3, -2, 14, 46], "path": ["0", "0", "1", "2", "3", "4", "7"], "rt": [18508, 102, 129, 446, 837], "actions": ["up", "up", "up", "right", "down"], "actionTimes": [20904, 21516, 22144, 23314, 24671], "queries": {"click": {"state": {"target": ["5", "9", "32", "21", "7"], "time": [3303, 6629, 9980, 13358, 16660]}, "edge": {"target": [], "time": []}}, "mouseover": {"state": {"target": ["1", "2", "5", "9", "26", "33", "32", "32", "21", "21", "21", "22", "12", "7"], "time": [2613, 2645, 3012, 3948, 7403, 8377, 8801, 9595, 10514, 11379, 11797, 13984, 14011, 14464]}, "edge": {"target": [], "time": []}}, "mouseout": {"state": {"target": ["0", "12", "0", "1", "2", "5", "9", "26", "33", "32", "32", "21", "21", "21", "21", "21", "22", "12", "7", "2"], "time": [1426, 1526, 2574, 2643, 2663, 3508, 7350, 7426, 8413, 8871, 10460, 10530, 11504, 13563, 13848, 13965, 14003, 14030, 26240, 26263]}, "edge": {"target": [], "time": []}}}, "displayed_time": "25.20", "trialTime": 26978, "trial_type": "mouselab-mdp", "trial_index": 55, "time_elapsed": 1515174, "internal_node_id": "0.0-4.0-1.0-34.0"}}, {"uniqueid": "w50959616:a12831619", "current_trial": 56, "dateTime": 1691143917570, "trialdata": {"revealed_states": [], "clicked_states": ["5"], "num_clicks_accrued": [0, 0, 0, 0, 0, 0, 0, 0, 0, 0, 0, 0, 0], "stateRewards": ["", 2, 3, 8, 14, 69, -27, 17, 2, -71, -65, -10, 2, -3, 7, 8, 65, -10, 65, -12, 73, -12, 13, -2, -2, 6, 10, -79, -69, -18, 10, -85, 67, 74], "withholdReward": false, "trial_id": "mdp_trial_36", "block": "test", "trialIndex": 41, "score": 93.85, "costs": -2.15, "simulationMode": [null, null, null, null, null], "rewards": [2, 3, 8, 14, 69], "path": ["0", "0", "1", "2", "3", "4", "5"], "rt": [6388, 110, 27, 705, 680], "actions": ["up", "up", "up", "right", "up"], "actionTimes": [66286, 66919, 67451, 68682, 69888], "queries": {"click": {"state": {"target": ["5"], "time": [61928]}, "edge": {"target": [], "time": []}}, "mouseover": {"state": {"target": ["1", "1", "2", "3", "5", "4", "7", "8", "11", "11", "10", "2"], "time": [60753, 60957, 61051, 61077, 61670, 62540, 62639, 62953, 63013, 63206, 63524, 65371]}, "edge": {"target": [], "time": []}}, "mouseout": {"state": {"target": ["4", "3", "8", "28", "1", "1", "2", "3", "5", "5", "4", "7", "8", "11", "11", "10", "2", "2"], "time": [58370, 58390, 58406, 58786, 60820, 61019, 61074, 61339, 62135, 62507, 62605, 62919, 62972, 63050, 63388, 65352, 65674, 71005]}, "edge": {"target": [], "time": []}}}, "displayed_time": "73.90", "trialTime": 75333, "trial_type": "mouselab-mdp", "trial_index": 56, "time_elapsed": 1591174, "internal_node_id": "0.0-4.0-1.0-35.0"}}, {"uniqueid": "w50959616:a12831619", "current_trial": 57, "dateTime": 1691143935555, "trialdata": {"revealed_states": [], "clicked_states": [], "num_clicks_accrued": [0, 0, 0, 0, 0, 0, 0, 0, 0, 0, 0, 0, 0], "stateRewards": ["", -2, 4, -3, -13, 63, -36, 62, 11, 78, 34, -51, 2, -2, 8, -6, -40, -18, 31, 9, 64, 39, 79, 1, 4, -4, 15, -12, 76, 73, -10, -77, 86, -4], "withholdReward": false, "trial_id": "mdp_trial_37", "block": "test", "trialIndex": 42, "score": -13, "costs": 0, "simulationMode": [null, null, null, null, null], "rewards": [1, 4, -4, -10, -4], "path": ["0", "0", "23", "24", "25", "30", "33"], "rt": [1768, 72, 89, 691, 275], "actions": ["left", "left", "left", "down", "left"], "actionTimes": [4185, 4774, 5376, 6594, 7392], "queries": {"click": {"state": {"target": [], "time": []}, "edge": {"target": [], "time": []}}, "mouseover": {"state": {"target": ["23", "0", "31", "32"], "time": [2511, 2713, 3130, 3153]}, "edge": {"target": [], "time": []}}, "mouseout": {"state": {"target": ["0", "23", "0", "31", "32"], "time": [2505, 2664, 3097, 3149, 3173]}, "edge": {"target": [], "time": []}}}, "displayed_time": "16.42", "trialTime": 17291, "trial_type": "mouselab-mdp", "trial_index": 57, "time_elapsed": 1609157, "internal_node_id": "0.0-4.0-1.0-36.0"}}, {"uniqueid": "w50959616:a12831619", "current_trial": 58, "dateTime": 1691143954078, "trialdata": {"revealed_states": [], "clicked_states": [], "num_clicks_accrued": [0, 0, 0, 0, 0, 0, 0, 0, 0, 0, 0, 0, 0], "stateRewards": ["", 2, -1, -2, -5, -47, -57, -33, -11, 31, -18, -72, -2, 1, -4, -8, -46, -53, -50, 15, -85, -9, 39, -2, -2, 1, 14, -1, -8, 53, -12, -41, -74, 62], "withholdReward": false, "trial_id": "mdp_trial_38", "block": "test", "trialIndex": 43, "score": -75, "costs": 0, "simulationMode": [null, null, null, null, null], "rewards": [-2, 1, -4, 15, -85], "path": ["0", "0", "12", "13", "14", "19", "20"], "rt": [511, 1100, 234, 155, 521], "actions": ["right", "right", "right", "down", "right"], "actionTimes": [3014, 5593, 6348, 7075, 8121], "queries": {"click": {"state": {"target": [], "time": []}, "edge": {"target": [], "time": []}}, "mouseover": {"state": {"target": [], "time": []}, "edge": {"target": [], "time": []}}, "mouseout": {"state": {"target": ["0", "0", "13", "19", "22", "22", "21", "21", "32"], "time": [4474, 9205, 9240, 9989, 10041, 11106, 11670, 11756, 16810]}, "edge": {"target": [], "time": []}}}, "displayed_time": "16.50", "trialTime": 17775, "trial_type": "mouselab-mdp", "trial_index": 58, "time_elapsed": 1627681, "internal_node_id": "0.0-4.0-1.0-37.0"}}, {"uniqueid": "w50959616:a12831619", "current_trial": 59, "dateTime": 1691143972612, "trialdata": {"revealed_states": [], "clicked_states": ["9", "5"], "num_clicks_accrued": [0, 0, 0, 0, 0, 0, 0, 0, 0, 0, 0, 0, 0], "stateRewards": ["", -2, -3, 1, -7, 39, -67, 16, 5, -20, 73, 66, -1, 4, 5, -3, 23, -68, -87, -8, 3, -3, 17, 1, -4, -2, -13, -32, 34, 61, -5, -11, -18, 12], "withholdReward": false, "trial_id": "mdp_trial_39", "block": "test", "trialIndex": 44, "score": 23.7, "costs": -4.3, "simulationMode": [null, null, null, null, null], "rewards": [-2, -3, 1, -7, 39], "path": ["0", "0", "1", "2", "3", "4", "5"], "rt": [8540, 79, 66, 599, 96], "actions": ["up", "up", "up", "right", "up"], "actionTimes": [10949, 11549, 12127, 13251, 13864], "queries": {"click": {"state": {"target": ["9", "5"], "time": [3269, 6547]}, "edge": {"target": [], "time": []}}, "mouseover": {"state": {"target": ["1", "9", "5", "5", "4", "7"], "time": [2432, 2933, 3816, 4487, 6989, 7401]}, "edge": {"target": [], "time": []}}, "mouseout": {"state": {"target": ["0", "1", "9", "5", "5", "5", "4", "7", "19", "32"], "time": [2422, 2463, 3766, 3903, 6765, 6958, 7053, 14925, 16612, 17254]}, "edge": {"target": [], "time": []}}}, "displayed_time": "16.41", "trialTime": 17803, "trial_type": "mouselab-mdp", "trial_index": 59, "time_elapsed": 1646216, "internal_node_id": "0.0-4.0-1.0-38.0"}}, {"uniqueid": "w50959616:a12831619", "current_trial": 60, "dateTime": 1691144001914, "trialdata": {"revealed_states": [], "clicked_states": ["32", "27", "22", "7", "10"], "num_clicks_accrued": [0, 0, 0, 0, 0, 0, 0, 0, 0, 0, 0, 0, 0], "stateRewards": ["", 1, -3, -1, 9, -34, -40, 22, -7, 45, 53, -11, 2, 4, 5, 15, 21, 37, -49, -3, 80, -28, -34, 1, -3, 1, 1, -40, -6, -5, -16, -85, -86, 59], "withholdReward": false, "trial_id": "mdp_trial_40", "block": "test", "trialIndex": 45, "score": 32.25, "costs": -10.75, "simulationMode": [null, null, null, null, null], "rewards": [1, -3, -1, -7, 53], "path": ["0", "0", "1", "2", "3", "8", "10"], "rt": [20226, 88, 94, 538, 292], "actions": ["up", "up", "up", "left", "down"], "actionTimes": [21958, 22568, 23166, 24228, 25062], "queries": {"click": {"state": {"target": ["32", "27", "22", "7", "10"], "time": [2888, 6121, 10700, 14059, 17688]}, "edge": {"target": [], "time": []}}, "mouseover": {"state": {"target": ["0", "30", "32", "30", "25", "26", "27", "28", "28", "0", "21", "22", "13", "18", "7", "2", "10", "11"], "time": [2134, 2199, 2656, 3383, 3404, 3436, 3480, 6905, 7267, 9434, 9918, 10449, 11655, 11990, 12439, 14709, 14820, 18273]}, "edge": {"target": [], "time": []}}, "mouseout": {"state": {"target": ["0", "0", "30", "32", "30", "25", "26", "27", "27", "28", "28", "0", "21", "22", "13", "18", "7", "2", "10", "11", "5"], "time": [2030, 2148, 2217, 3112, 3400, 3420, 3457, 6323, 6654, 6972, 9409, 9452, 10084, 11604, 11972, 12009, 14639, 14765, 17916, 26204, 26231]}, "edge": {"target": [], "time": []}}}, "displayed_time": "25.59", "trialTime": 28655, "trial_type": "mouselab-mdp", "trial_index": 60, "time_elapsed": 1675518, "internal_node_id": "0.0-4.0-1.0-39.0"}}, {"uniqueid": "w50959616:a12831619", "current_trial": 61, "dateTime": 1691144055688, "trialdata": {"rt": 53755, "response": {"Q0": "$-2 to $2", "Q1": "$-16 to $16", "Q2": "$-16 to $16", "Q3": "The cost for clicking on nodes varied between nodes.", "Q4": "Neither motivated nor unmotivated"}, "question_order": [0, 1, 2, 3, 4], "trial_id": "final_quiz_control", "trial_type": "survey-multi-choice", "trial_index": 61, "time_elapsed": 1729293, "internal_node_id": "0.0-4.0-2.0"}}, {"uniqueid": "w50959616:a12831619", "current_trial": 62, "dateTime": 1691144214385, "trialdata": {"rt": 158573, "response": {"Q0": "Probability strategy. I couldnt go to the same place after the previous round.", "Q1": "it was a fifty fifty chance, i would ace it without using the node sometimes", "Q2": "It was so tricky without the node because i dont even know how much it was subtracted at the end for me to loss so much "}, "trial_id": "self_report_control", "trial_type": "survey-text", "trial_index": 62, "time_elapsed": 1887990, "internal_node_id": "0.0-4.0-3.0"}}, {"uniqueid": "w50959616:a12831619", "current_trial": 63, "dateTime": 1691144313458, "trialdata": {"rt": 99066, "response": {"Q0": "Neither disagree nor agree", "Q1": "Disagree", "Q2": "Agree", "Q3": "Agree", "Q4": "Strongly disagree", "Q5": "Strongly agree", "Q6": "Strongly disagree"}, "question_order": [0, 1, 2, 3, 4, 5, 6], "trial_id": "self_report_2", "trial_type": "survey-multi-choice", "trial_index": 63, "time_elapsed": 1987063, "internal_node_id": "0.0-4.0-4.0"}}, {"uniqueid": "w50959616:a12831619", "current_trial": 64, "dateTime": 1691144359648, "trialdata": {"rt": 46112, "response": {"gender": "female", "age": "23", "colorblind": "0", "effort": "0"}, "trial_type": "survey-html-form", "trial_index": 64, "time_elapsed": 2033253, "internal_node_id": "0.0-4.0-5.0"}}, {"uniqueid": "w50959616:a12831619", "current_trial": 65, "dateTime": 1691144406750, "trialdata": {"rt": 47092, "response": {"Q0": "No, Just tricky.", "Q1": "No, I have never done it before ", "Q2": ""}, "trial_type": "survey-text", "trial_index": 65, "time_elapsed": 2080354, "internal_node_id": "0.0-4.0-6.0"}}, {"uniqueid": "w50959616:a12831619", "current_trial": 66, "dateTime": 1691144409682, "trialdata": {"rt": 2923, "stimulus": "Press 'Finish HIT' in order to reach the completion code. Once the data has been saved, you will receive the code either in this window or in the original browser window where you started the experiment.\n", "response": 0, "trial_type": "html-button-response", "trial_index": 66, "time_elapsed": 2083286, "internal_node_id": "0.0-5.0"}}, {"uniqueid": "w50959616:a12831619", "current_trial": 67, "dateTime": 1691144410732, "trialdata": {"success": true, "trial_type": "fullscreen", "trial_index": 67, "time_elapsed": 2084337, "internal_node_id": "0.0-6.0"}}], "questiondata": {"params": {"CODE": "C6DMOQA6", "MIN_TIME": 14, "inspectCost": 1, "startTime": "Fri Aug 04 2023 11:45:24 GMT+0200 (South Africa Standard Time)", "bonusRate": 0.002, "variance": "1_2_4_8_44", "branching": "31123"}, "final_score": 1155.8}, "eventdata": [{"eventtype": "initialized", "value": null, "timestamp": 1691142323767, "interval": 0}, {"eventtype": "window_resize", "value": [678, 667], "timestamp": 1691142323767, "interval": 0}, {"eventtype": "window_resize", "value": [678, 667], "timestamp": 1691142324280, "interval": 513}, {"eventtype": "window_resize", "value": [1360, 676], "timestamp": 1691142327475, "interval": 3195}, {"eventtype": "window_resize", "value": [1360, 768], "timestamp": 1691142329836, "interval": 2361}, {"eventtype": "focus", "value": "off", "timestamp": 1691142626222, "interval": 296386}, {"eventtype": "focus", "value": "on", "timestamp": 1691142626222, "interval": 0}, {"eventtype": "window_resize", "value": [1360, 676], "timestamp": 1691142626430, "interval": 208}, {"eventtype": "window_resize", "value": [1360, 768], "timestamp": 1691142628085, "interval": 1655}, {"eventtype": "focus", "value": "off", "timestamp": 1691142753289, "interval": 125204}, {"eventtype": "focus", "value": "on", "timestamp": 1691142753290, "interval": 1}, {"eventtype": "window_resize", "value": [1360, 676], "timestamp": 1691142753496, "interval": 206}, {"eventtype": "window_resize", "value": [1360, 768], "timestamp": 1691142755137, "interval": 1641}, {"eventtype": "window_resize", "value": [1360, 676], "timestamp": 1691144410185, "interval": 1655048}], "useragent": "Mozilla/5.0 (Windows NT 10.0; Win64; x64) AppleWebKit/537.36 (KHTML, like Gecko) Chrome/114.0.0.0 Safari/537.36", "mode": "live", "id": "w50959616:a12831619", "status": "user data saved", "Beginhit": "2023-08-04 09:45:20.609873", "Beginexp": "2023-08-04 09:45:30.440566", "Endhit": "2023-08-04 10:20:12.422599", "psiturkStatus": 3, "browser": "<redacted>", "platform": "windows", "language": "en-US"}