{"condition": 0, "counterbalance": 0, "assignmentId": "a93923950", "workerId": "w25402310", "hitId": "h45713167", "currenttrial": 55, "bonus": 0, "data": [{"uniqueid": "w25402310:a93923950", "current_trial": 0, "dateTime": 1693660307391, "trialdata": {"success": true, "trial_type": "fullscreen", "trial_index": 0, "time_elapsed": 4937, "internal_node_id": "0.0-0.0"}}, {"uniqueid": "w25402310:a93923950", "current_trial": 1, "dateTime": 1693660315731, "trialdata": {"view_history": [{"page_index": 0, "viewing_time": 8338}], "rt": 8338, "trial_id": "exp_instructions_control", "trial_type": "instructions", "trial_index": 1, "time_elapsed": 13278, "internal_node_id": "0.0-1.0"}}, {"uniqueid": "w25402310:a93923950", "current_trial": 2, "dateTime": 1693660473664, "trialdata": {"view_history": [{"page_index": 0, "viewing_time": 57786}, {"page_index": 1, "viewing_time": 53648}, {"page_index": 2, "viewing_time": 18199}, {"page_index": 3, "viewing_time": 28300}], "rt": 157933, "trial_id": "mouselab_instructions_1_control", "trial_type": "instructions", "trial_index": 2, "time_elapsed": 171211, "internal_node_id": "0.0-2.0-1.0"}}, {"uniqueid": "w25402310:a93923950", "current_trial": 3, "dateTime": 1693660515208, "trialdata": {"revealed_states": [], "clicked_states": ["12", "23", "1", "2", "3", "5", "25", "26", "29", "32", "21", "22", "13", "14", "15", "17"], "num_clicks_accrued": [0, 0, 0, 0, 0, 0, 0, 0, 0, 0, 0, 0, 0], "stateRewards": ["", -10, -10, 10, 10, -10, -10, 10, 10, -10, 10, 10, -10, 10, 10, 10, -10, 10, 10, -10, 10, -10, 10, -10, -10, 10, -10, -10, -10, -10, 10, 10, 10, 10], "withholdReward": false, "trial_id": "practice_1", "block": "test", "trialIndex": 0, "score": 25.5, "costs": -8, "simulationMode": [null, null, null, null, null], "rewards": [-10, 10, 10, 10, 10], "path": ["0", "0", "12", "13", "14", "15", "17"], "rt": [31520, 272, 278, 216, 231], "actions": ["right", "right", "right", "up", "right"], "actionTimes": [34210, 34981, 35765, 36480, 37211], "queries": {"click": {"state": {"target": ["12", "23", "1", "2", "3", "5", "25", "26", "29", "32", "21", "22", "13", "14", "15", "17"], "time": [4171, 5561, 6597, 8375, 10760, 12627, 14571, 16120, 17374, 19096, 20383, 21770, 25661, 27479, 29958, 31378]}, "edge": {"target": [], "time": []}}, "mouseover": {"state": {"target": ["12", "0", "23", "1", "2", "7", "3", "4", "4", "5", "4", "2", "28", "25", "26", "29", "24", "30", "32", "30", "31", "21", "20", "14", "22", "0", "0", "13", "14", "14", "19", "15", "17"], "time": [3951, 4790, 4936, 6096, 6873, 8742, 9834, 11146, 11415, 12238, 13152, 13429, 13596, 13785, 14916, 16603, 18089, 18353, 18901, 19575, 19867, 20263, 20624, 21374, 21590, 22853, 23464, 25110, 26075, 26562, 29013, 29243, 30389]}, "edge": {"target": [], "time": []}}, "mouseout": {"state": {"target": ["12", "12", "0", "12", "0", "23", "1", "2", "7", "3", "4", "4", "5", "4", "2", "28", "25", "26", "29", "26", "24", "30", "32", "30", "31", "21", "20", "14", "22", "0", "0", "13", "14", "14", "19", "15", "17"], "time": [714, 1462, 3908, 4762, 4873, 6019, 6783, 8665, 8756, 11082, 11249, 12012, 13062, 13353, 13464, 13651, 14832, 16562, 17881, 17971, 18200, 18632, 19450, 19839, 19888, 20548, 20971, 21395, 21773, 23118, 23506, 26013, 26117, 27999, 29034, 30319, 31916]}, "edge": {"target": [], "time": []}}}, "displayed_time": "37.72", "trialTime": 41315, "trial_type": "mouselab-mdp", "trial_index": 3, "time_elapsed": 212755, "internal_node_id": "0.0-2.0-2.0-0.0"}}, {"uniqueid": "w25402310:a93923950", "current_trial": 4, "dateTime": 1693660545424, "trialdata": {"revealed_states": [], "clicked_states": ["12", "23", "1", "13", "14", "24", "25", "2", "3", "4", "5"], "num_clicks_accrued": [0, 0, 0, 0, 0, 0, 0, 0, 0, 0, 0, 0, 0], "stateRewards": ["", -10, 10, 10, 10, 10, 10, 10, 10, -10, -10, -10, -10, -10, -10, -10, -10, -10, 10, 10, 10, 10, -10, -10, 10, -10, 10, -10, 10, 10, -10, -10, -10, 10], "withholdReward": false, "trial_id": "practice_2", "block": "test", "trialIndex": 1, "score": 28, "costs": -5.5, "simulationMode": [null, null, null, null, null], "rewards": [-10, 10, 10, 10, 10], "path": ["0", "0", "1", "2", "3", "4", "5"], "rt": [22102, 45, 87, 59, 500], "actions": ["up", "up", "up", "right", "up"], "actionTimes": [24606, 25149, 25739, 26302, 27306], "queries": {"click": {"state": {"target": ["12", "23", "1", "13", "14", "24", "25", "2", "3", "4", "5"], "time": [4439, 5734, 7020, 9152, 10456, 12224, 13459, 16921, 18596, 20573, 21915]}, "edge": {"target": [], "time": []}}, "mouseover": {"state": {"target": ["12", "12", "23", "1", "7", "13", "14", "22", "24", "25", "23", "1", "2", "7", "3", "4", "4", "5", "6"], "time": [3532, 4192, 5248, 6102, 8387, 8803, 9769, 10658, 11456, 12706, 13755, 14569, 15262, 17644, 18408, 18915, 20116, 20991, 22123]}, "edge": {"target": [], "time": []}}, "mouseout": {"state": {"target": ["22", "12", "0", "12", "12", "23", "1", "7", "13", "13", "13", "14", "22", "24", "25", "24", "23", "1", "2", "7", "3", "4", "4", "5", "6"], "time": [1692, 1909, 3289, 3873, 4581, 5949, 7255, 8516, 9310, 9623, 9727, 10623, 10678, 12491, 13665, 13734, 13817, 15151, 17602, 18339, 18866, 18991, 20845, 22088, 22130]}, "edge": {"target": [], "time": []}}}, "displayed_time": "27.81", "trialTime": 30119, "trial_type": "mouselab-mdp", "trial_index": 4, "time_elapsed": 242971, "internal_node_id": "0.0-2.0-2.0-1.0"}}, {"uniqueid": "w25402310:a93923950", "current_trial": 5, "dateTime": 1693660580552, "trialdata": {"view_history": [{"page_index": 0, "viewing_time": 28510}, {"page_index": 1, "viewing_time": 6616}], "rt": 35127, "trial_id": "mouselab_instructions_2_control", "trial_type": "instructions", "trial_index": 5, "time_elapsed": 278099, "internal_node_id": "0.0-2.0-3.0"}}, {"uniqueid": "w25402310:a93923950", "current_trial": 6, "dateTime": 1693660613016, "trialdata": {"rt": 32463, "response": {"Q0": "The cost for clicking on nodes may vary between nodes.", "Q1": "The better I perform the higher my bonus will be.", "Q2": "No, the amount of cash at each node of the web may be different each time.", "Q3": "To get the highest total score.", "Q4": "Only before moving the spider.", "Q5": "3 seconds"}, "question_order": [0, 1, 2, 3, 4, 5], "correct": {"Q0": "The cost for clicking on nodes may vary between nodes.", "Q1": "The better I perform the higher my bonus will be.", "Q2": "No, the amount of cash at each node of the web may be different each time.", "Q3": "To get the highest total score.", "Q4": "Only before moving the spider.", "Q5": "3 seconds"}, "trial_id": "mouselab_quiz_control", "trial_type": "survey-multi-choice", "trial_index": 6, "time_elapsed": 310563, "internal_node_id": "0.0-2.0-4.0"}}, {"uniqueid": "w25402310:a93923950", "current_trial": 7, "dateTime": 1693660621565, "trialdata": {"rt": 8545, "response": {"Q0": "No"}, "question_order": [0], "trial_id": "repeat_check", "trial_type": "survey-multi-choice", "trial_index": 7, "time_elapsed": 319112, "internal_node_id": "0.0-4.0-0.0"}}, {"uniqueid": "w25402310:a93923950", "current_trial": 8, "dateTime": 1693660629116, "trialdata": {"rt": 7549, "stimulus": "\n<h1> Get ready to start the game! </h1>\n\nThank you for reading the instructions. Get ready start with the 40 rounds of this game.\n<br><br>\nIf you need to take a break, feel free to take one after the end of a round, before continuing to the next one.\n<br><br>\nRemember, the more money the spider gets, the bigger your bonus will be!\n<br><br>\n<div style='text-align: center;'>Press <code>space</code> to begin.</div>\n\n<br><br>\n(If, at any point, the <code>space</code> key does not take you to the next page, click once on the text and try again.)", "response": " ", "trial_id": "mdp_ready", "trial_type": "html-keyboard-response", "trial_index": 8, "time_elapsed": 326663, "internal_node_id": "0.0-6.0-0.0"}}, {"uniqueid": "w25402310:a93923950", "current_trial": 9, "dateTime": 1693660653967, "trialdata": {"revealed_states": [], "clicked_states": ["12", "1", "23", "24", "25", "26", "29", "30"], "num_clicks_accrued": [0, 0, 0, 0, 0, 0, 0, 0, 0, 0, 0, 0, 0], "stateRewards": ["", -1, 2, -2, 5, 80, -61, -27, 12, 44, -26, -75, -2, -4, 1, -16, 42, -49, -50, 4, -44, 2, 80, -2, -2, 5, -2, 59, 10, 24, 7, -48, -86, -44], "withholdReward": false, "trial_id": "mdp_trial_1", "block": "test", "trialIndex": 2, "score": 11.799999999999999, "costs": -11.200000000000001, "simulationMode": [null, null, null, null, null], "rewards": [-2, -2, 5, -2, 24], "path": ["0", "0", "23", "24", "25", "26", "29"], "rt": [17899, 464, 188, 62, 394], "actions": ["left", "left", "left", "up", "left"], "actionTimes": [19589, 20555, 21251, 21812, 22707], "queries": {"click": {"state": {"target": ["12", "1", "23", "24", "25", "26", "29", "30"], "time": [2382, 4539, 6259, 7904, 9589, 12084, 13989, 16010]}, "edge": {"target": [], "time": []}}, "mouseover": {"state": {"target": ["12", "1", "23", "2", "24", "25", "0", "12", "13", "12", "23", "26", "27", "27", "29", "28", "25", "30", "24", "28", "26", "28", "28", "28"], "time": [2158, 2749, 5422, 6901, 7068, 9165, 9839, 9860, 9936, 11700, 11742, 11937, 12450, 13249, 13660, 14311, 15638, 15749, 16256, 16298, 17884, 18027, 18555, 18659]}, "edge": {"target": [], "time": []}}, "mouseout": {"state": {"target": ["0", "12", "1", "23", "1", "2", "24", "23", "24", "25", "24", "23", "0", "12", "13", "12", "23", "24", "26", "27", "27", "29", "29", "26", "28", "26", "26", "25", "30", "24", "28", "26", "28", "28"], "time": [2068, 2575, 4985, 6631, 6700, 6936, 8138, 8957, 9089, 9749, 9790, 9818, 9846, 9895, 11686, 11714, 11756, 11783, 12318, 12520, 13596, 14098, 14193, 14277, 14360, 15409, 15575, 15686, 16123, 16263, 16346, 17964, 18034, 18562]}, "edge": {"target": [], "time": []}}}, "displayed_time": "23.21", "trialTime": 24749, "trial_type": "mouselab-mdp", "trial_index": 9, "time_elapsed": 351514, "internal_node_id": "0.0-6.0-1.0-0.0"}}, {"uniqueid": "w25402310:a93923950", "current_trial": 10, "dateTime": 1693660674972, "trialdata": {"revealed_states": [], "clicked_states": ["12", "1", "23", "13", "14", "15", "17"], "num_clicks_accrued": [0, 0, 0, 0, 0, 0, 0, 0, 0, 0, 0, 0, 0], "stateRewards": ["", -1, 3, 8, 10, -86, 61, -36, 10, 17, -60, 24, -1, -3, 3, 11, 50, 60, 33, -3, -20, 58, -6, 1, -4, -4, 13, -70, -71, 43, 14, 52, 82, -11], "withholdReward": false, "trial_id": "mdp_trial_2", "block": "test", "trialIndex": 3, "score": 60.2, "costs": -9.8, "simulationMode": [null, null, null, null, null], "rewards": [-1, -3, 3, 11, 60], "path": ["0", "0", "12", "13", "14", "15", "17"], "rt": [15015, 92, 126, 15, 1], "actions": ["right", "right", "right", "up", "right"], "actionTimes": [16613, 17209, 17832, 18353, 18867], "queries": {"click": {"state": {"target": ["12", "1", "23", "13", "14", "15", "17"], "time": [2364, 4807, 6612, 8227, 9970, 11880, 13656]}, "edge": {"target": [], "time": []}}, "mouseover": {"state": {"target": ["12", "0", "1", "1", "23", "0", "13", "14", "15", "17", "20"], "time": [2101, 2670, 2878, 4462, 5635, 7191, 7386, 8816, 10698, 13240, 14004]}, "edge": {"target": [], "time": []}}, "mouseout": {"state": {"target": ["28", "1", "0", "12", "0", "1", "1", "23", "0", "13", "14", "15", "17", "20"], "time": [802, 947, 1407, 2594, 2684, 4205, 5122, 7164, 7233, 8677, 10247, 12087, 13858, 15199]}, "edge": {"target": [], "time": []}}}, "displayed_time": "19.37", "trialTime": 20904, "trial_type": "mouselab-mdp", "trial_index": 10, "time_elapsed": 372518, "internal_node_id": "0.0-6.0-1.0-1.0"}}, {"uniqueid": "w25402310:a93923950", "current_trial": 11, "dateTime": 1693660704257, "trialdata": {"revealed_states": [], "clicked_states": ["23", "1", "12", "24", "25", "30", "26", "29", "27", "28"], "num_clicks_accrued": [0, 0, 0, 0, 0, 0, 0, 0, 0, 0, 0, 0, 0], "stateRewards": ["", -1, -4, -6, -15, 21, -67, -63, 9, 51, 69, -14, -1, 3, 8, -8, 39, 72, 63, 15, 19, 47, 15, 1, 4, 5, 16, -18, 34, 35, -14, -80, 40, 1], "withholdReward": false, "trial_id": "mdp_trial_3", "block": "test", "trialIndex": 4, "score": 47, "costs": -14.000000000000002, "simulationMode": [null, null, null, null, null], "rewards": [1, 4, 5, 16, 35], "path": ["0", "0", "23", "24", "25", "26", "29"], "rt": [19649, 77, 89, 129, 197], "actions": ["left", "left", "left", "up", "left"], "actionTimes": [24464, 25040, 25629, 26266, 26966], "queries": {"click": {"state": {"target": ["23", "1", "12", "24", "25", "30", "26", "29", "27", "28"], "time": [5506, 7297, 9060, 10891, 12653, 14407, 16617, 18321, 20427, 22239]}, "edge": {"target": [], "time": []}}, "mouseover": {"state": {"target": ["23", "1", "12", "13", "24", "23", "25", "28", "30", "28", "33", "26", "29", "27", "28", "24", "23", "0"], "time": [5337, 5969, 7698, 9802, 10184, 11142, 11490, 13038, 13504, 14775, 15247, 16435, 17115, 18587, 20935, 22740, 22775, 22817]}, "edge": {"target": [], "time": []}}, "mouseout": {"state": {"target": ["20", "19", "22", "0", "23", "1", "12", "13", "12", "24", "23", "24", "25", "28", "30", "24", "28", "25", "33", "26", "29", "27", "28", "24", "23", "0"], "time": [3065, 3225, 3336, 5212, 5739, 7615, 9760, 10045, 10087, 11115, 11156, 11455, 12962, 13108, 14608, 14692, 14990, 15170, 16303, 17059, 18525, 20789, 22469, 22761, 22803, 22823]}, "edge": {"target": [], "time": []}}}, "displayed_time": "27.46", "trialTime": 29188, "trial_type": "mouselab-mdp", "trial_index": 11, "time_elapsed": 401804, "internal_node_id": "0.0-6.0-1.0-2.0"}}, {"uniqueid": "w25402310:a93923950", "current_trial": 12, "dateTime": 1693660735927, "trialdata": {"revealed_states": [], "clicked_states": ["12", "1", "23", "2", "3", "4", "24", "25", "26", "30", "33", "31"], "num_clicks_accrued": [0, 0, 0, 0, 0, 0, 0, 0, 0, 0, 0, 0, 0], "stateRewards": ["", 1, -3, -4, -11, -56, 61, -47, -16, -28, -9, 69, -2, -3, -4, -8, 40, -86, 59, -4, 80, 27, 54, -1, 3, -1, 8, 67, 23, 50, 6, 83, -43, -29], "withholdReward": false, "trial_id": "mdp_trial_4", "block": "test", "trialIndex": 5, "score": 73.2, "costs": -16.8, "simulationMode": [null, null, null, null, null], "rewards": [-1, 3, -1, 6, 83], "path": ["0", "0", "23", "24", "25", "30", "31"], "rt": [25196, 195, 83, 98, 152], "actions": ["left", "left", "left", "down", "right"], "actionTimes": [27304, 27999, 28588, 29194, 29844], "queries": {"click": {"state": {"target": ["12", "1", "23", "2", "3", "4", "24", "25", "26", "30", "33", "31"], "time": [2798, 4856, 6916, 9234, 11008, 12732, 14509, 16100, 17907, 20251, 22253, 24118]}, "edge": {"target": [], "time": []}}, "mouseover": {"state": {"target": ["12", "1", "1", "23", "24", "2", "4", "3", "4", "24", "25", "28", "26", "30", "33", "31", "32"], "time": [2593, 3142, 3211, 5399, 7510, 9101, 9496, 9753, 11253, 13916, 14802, 16636, 16934, 18330, 20962, 22755, 24504]}, "edge": {"target": [], "time": []}}, "mouseout": {"state": {"target": ["0", "12", "1", "1", "23", "23", "24", "2", "4", "3", "4", "4", "2", "24", "25", "28", "26", "25", "30", "33", "30", "31", "32"], "time": [2475, 2962, 3150, 5218, 7205, 7378, 8844, 9413, 9649, 11191, 12948, 13337, 13399, 14740, 16566, 16740, 18115, 18219, 20858, 22427, 22511, 24393, 26261]}, "edge": {"target": [], "time": []}}}, "displayed_time": "30.35", "trialTime": 31572, "trial_type": "mouselab-mdp", "trial_index": 12, "time_elapsed": 433474, "internal_node_id": "0.0-6.0-1.0-3.0"}}, {"uniqueid": "w25402310:a93923950", "current_trial": 13, "dateTime": 1693660765329, "trialdata": {"revealed_states": [], "clicked_states": ["1", "12", "23", "13", "14", "15", "17", "16", "18", "19", "20"], "num_clicks_accrued": [0, 0, 0, 0, 0, 0, 0, 0, 0, 0, 0, 0, 0], "stateRewards": ["", -1, 3, 2, 9, 41, 4, -46, -12, -54, -87, -25, 2, 3, -1, 11, -77, 12, -33, -9, -32, 35, 72, 1, 3, -7, 4, 37, 65, -73, 6, 77, -43, 8], "withholdReward": false, "trial_id": "mdp_trial_5", "block": "test", "trialIndex": 6, "score": 11.599999999999998, "costs": -15.400000000000002, "simulationMode": [null, null, null, null, null], "rewards": [2, 3, -1, 11, 12], "path": ["0", "0", "12", "13", "14", "15", "17"], "rt": [22263, 112, 240, 450, 111], "actions": ["right", "right", "right", "up", "right"], "actionTimes": [24424, 25044, 25790, 26743, 27362], "queries": {"click": {"state": {"target": ["1", "12", "23", "13", "14", "15", "17", "16", "18", "19", "20"], "time": [3143, 5088, 7115, 9117, 11653, 13526, 15260, 17123, 18961, 20687, 22473]}, "edge": {"target": [], "time": []}}, "mouseover": {"state": {"target": ["12", "1", "12", "12", "0", "23", "0", "13", "14", "17", "15", "17", "16", "18", "15", "20", "19", "20", "17"], "time": [2632, 2972, 3457, 3805, 5416, 5493, 7791, 8166, 9513, 11923, 12187, 13763, 15631, 17604, 19152, 19854, 20187, 21007, 23292]}, "edge": {"target": [], "time": []}}, "mouseout": {"state": {"target": ["0", "0", "12", "1", "12", "12", "0", "23", "0", "12", "13", "14", "17", "15", "17", "16", "18", "15", "20", "19", "20", "17"], "time": [1478, 2554, 2700, 3353, 3652, 5319, 5437, 7756, 7839, 7971, 9444, 11868, 12053, 13729, 15548, 17479, 19139, 19159, 19875, 20868, 22715, 23611]}, "edge": {"target": [], "time": []}}}, "displayed_time": "27.86", "trialTime": 29302, "trial_type": "mouselab-mdp", "trial_index": 13, "time_elapsed": 462876, "internal_node_id": "0.0-6.0-1.0-4.0"}}, {"uniqueid": "w25402310:a93923950", "current_trial": 14, "dateTime": 1693660885967, "trialdata": {"revealed_states": [], "clicked_states": ["12", "13", "23", "1", "24", "25", "30", "26", "32", "33", "31"], "num_clicks_accrued": [0, 0, 0, 0, 0, 0, 0, 0, 0, 0, 0, 0, 0], "stateRewards": ["", -2, 1, -8, 12, -65, -79, 16, 7, -80, -17, -45, -2, 2, -5, -2, -85, 23, -4, -7, 48, 27, -76, 2, 3, 5, 2, 43, 71, -13, 7, -49, 59, -31], "withholdReward": false, "trial_id": "mdp_trial_6", "block": "test", "trialIndex": 7, "score": 60.599999999999994, "costs": -15.400000000000002, "simulationMode": [null, null, null, null, null], "rewards": [2, 3, 5, 7, 59], "path": ["0", "0", "23", "24", "25", "30", "32"], "rt": [21497, 383, 136, 64, 98], "actions": ["left", "left", "left", "down", "down"], "actionTimes": [115981, 116867, 117508, 118075, 118678], "queries": {"click": {"state": {"target": ["12", "13", "23", "1", "24", "25", "30", "26", "32", "33", "31"], "time": [95588, 97289, 98856, 100434, 102167, 103989, 106007, 107774, 110130, 112025, 113781]}, "edge": {"target": [], "time": []}}, "mouseover": {"state": {"target": ["12", "13", "23", "1", "24", "25", "30", "26", "25", "25", "32", "33", "30", "31"], "time": [95148, 96078, 97836, 99315, 100905, 102586, 104412, 106683, 108600, 109663, 109933, 110405, 112239, 112336]}, "edge": {"target": [], "time": []}}, "mouseout": {"state": {"target": ["14", "13", "12", "12", "13", "23", "1", "24", "25", "30", "25", "26", "25", "25", "25", "30", "32", "33", "30", "31"], "time": [93808, 93870, 93975, 96037, 97530, 99148, 100822, 102405, 104343, 106440, 106558, 108169, 108232, 108648, 109691, 109815, 110170, 112211, 112273, 113996]}, "edge": {"target": [], "time": []}}}, "displayed_time": "119.18", "trialTime": 120537, "trial_type": "mouselab-mdp", "trial_index": 14, "time_elapsed": 583514, "internal_node_id": "0.0-6.0-1.0-5.0"}}, {"uniqueid": "w25402310:a93923950", "current_trial": 15, "dateTime": 1693660920293, "trialdata": {"revealed_states": [], "clicked_states": ["12", "1", "23", "13", "14", "15", "19", "17", "16", "18", "20", "21", "22"], "num_clicks_accrued": [0, 0, 0, 0, 0, 0, 0, 0, 0, 0, 0, 0, 0], "stateRewards": ["", -2, -1, -1, 5, -54, -87, 35, 2, -8, 20, -22, 1, 3, 6, 13, -75, -32, -55, -3, 56, 62, -22, -1, -4, -1, -7, -51, 84, 70, 7, -15, 5, 55], "withholdReward": false, "trial_id": "mdp_trial_7", "block": "test", "trialIndex": 8, "score": 50.8, "costs": -18.2, "simulationMode": [null, null, null, null, null], "rewards": [1, 3, 6, -3, 62], "path": ["0", "0", "12", "13", "14", "19", "21"], "rt": [27299, 22, 99, 494, 75], "actions": ["right", "right", "right", "down", "down"], "actionTimes": [29809, 30332, 30936, 31929, 32503], "queries": {"click": {"state": {"target": ["12", "1", "23", "13", "14", "15", "19", "17", "16", "18", "20", "21", "22"], "time": [3209, 4714, 6947, 9251, 11094, 12881, 14616, 16458, 18311, 20109, 22383, 24327, 27649]}, "edge": {"target": [], "time": []}}, "mouseover": {"state": {"target": ["12", "12", "1", "23", "0", "24", "0", "12", "13", "14", "15", "19", "17", "16", "18", "15", "20", "19", "22", "19", "20", "21", "19", "19", "22", "19"], "time": [2766, 2977, 3530, 5342, 7405, 8099, 8829, 8870, 9051, 9731, 11961, 13544, 15502, 16745, 18683, 20322, 20676, 20898, 21037, 21964, 22205, 22677, 26593, 27169, 27468, 27942]}, "edge": {"target": [], "time": []}}, "mouseout": {"state": {"target": ["12", "0", "12", "12", "1", "23", "0", "23", "24", "23", "0", "12", "13", "13", "14", "14", "15", "14", "19", "17", "16", "16", "18", "15", "17", "20", "19", "22", "19", "20", "20", "21", "19", "19", "22", "19"], "time": [2029, 2745, 2835, 3398, 5100, 7365, 7488, 8002, 8773, 8815, 8856, 8981, 9467, 9648, 11273, 11884, 13100, 13148, 14849, 16656, 18405, 18544, 20308, 20350, 20392, 20725, 20989, 21926, 22025, 22456, 22586, 24767, 26621, 27197, 27913, 27968]}, "edge": {"target": [], "time": []}}}, "displayed_time": "33.01", "trialTime": 34215, "trial_type": "mouselab-mdp", "trial_index": 15, "time_elapsed": 617839, "internal_node_id": "0.0-6.0-1.0-6.0"}}, {"uniqueid": "w25402310:a93923950", "current_trial": 16, "dateTime": 1693660945847, "trialdata": {"revealed_states": [], "clicked_states": ["12", "1", "23", "2", "3", "4", "5", "8", "11", "9"], "num_clicks_accrued": [0, 0, 0, 0, 0, 0, 0, 0, 0, 0, 0, 0, 0], "stateRewards": ["", 2, -2, 7, -11, -76, -65, -23, 16, -58, 30, 81, 1, 2, 7, 14, 9, 55, -2, 6, 11, -15, 31, -1, -1, -3, 2, 15, 2, 46, 15, 18, 45, -34], "withholdReward": false, "trial_id": "mdp_trial_8", "block": "test", "trialIndex": 9, "score": 90, "costs": -14.000000000000002, "simulationMode": [null, null, null, null, null], "rewards": [2, -2, 7, 16, 81], "path": ["0", "0", "1", "2", "3", "8", "11"], "rt": [20249, 129, 142, 49, 25], "actions": ["up", "up", "up", "left", "left"], "actionTimes": [21420, 22054, 22706, 23252, 23776], "queries": {"click": {"state": {"target": ["12", "1", "23", "2", "3", "4", "5", "8", "11", "9"], "time": [2068, 3777, 5415, 7587, 9385, 11566, 13377, 15150, 17324, 19113]}, "edge": {"target": [], "time": []}}, "mouseover": {"state": {"target": ["12", "1", "23", "0", "0", "2", "3", "4", "5", "3", "8", "10", "11", "9", "10", "2", "7", "16"], "time": [1527, 2485, 4367, 6027, 6534, 7326, 8486, 9729, 12090, 13944, 14166, 16028, 17167, 18438, 19486, 19653, 19729, 19847]}, "edge": {"target": [], "time": []}}, "mouseout": {"state": {"target": ["20", "19", "13", "12", "0", "12", "1", "23", "0", "0", "23", "1", "2", "3", "4", "5", "3", "8", "10", "11", "9", "8", "10", "2", "7", "16"], "time": [575, 603, 672, 839, 978, 2263, 4167, 5985, 6048, 6805, 7125, 7221, 8284, 9659, 11965, 13840, 14062, 15930, 17041, 17528, 19326, 19430, 19619, 19695, 19764, 20236]}, "edge": {"target": [], "time": []}}}, "displayed_time": "24.29", "trialTime": 25447, "trial_type": "mouselab-mdp", "trial_index": 16, "time_elapsed": 643394, "internal_node_id": "0.0-6.0-1.0-7.0"}}, {"uniqueid": "w25402310:a93923950", "current_trial": 17, "dateTime": 1693660982300, "trialdata": {"revealed_states": [], "clicked_states": ["12", "1", "23", "13", "14", "19", "15", "16", "24", "25", "30", "26", "29", "27"], "num_clicks_accrued": [0, 0, 0, 0, 0, 0, 0, 0, 0, 0, 0, 0, 0], "stateRewards": ["", -1, 1, -2, 5, 73, 15, 61, 8, 7, 38, 76, 2, 2, -4, -6, -6, -26, 43, -5, -45, -85, -35, -2, 1, -4, 15, -10, 69, 72, -11, 84, -49, -38], "withholdReward": false, "trial_id": "mdp_trial_9", "block": "test", "trialIndex": 10, "score": 62.400000000000006, "costs": -19.599999999999998, "simulationMode": [null, null, null, null, null], "rewards": [-2, 1, -4, 15, 72], "path": ["0", "0", "23", "24", "25", "26", "29"], "rt": [30908, 83, 47, 54, 403], "actions": ["left", "left", "left", "up", "left"], "actionTimes": [32225, 32816, 33362, 33925, 34837], "queries": {"click": {"state": {"target": ["12", "1", "23", "13", "14", "19", "15", "16", "24", "25", "30", "26", "29", "27"], "time": [2073, 3735, 5522, 7887, 10002, 11903, 13995, 15987, 18560, 20425, 22522, 24359, 26785, 28841]}, "edge": {"target": [], "time": []}}, "mouseover": {"state": {"target": ["12", "1", "23", "0", "22", "19", "22", "13", "14", "19", "22", "15", "16", "18", "0", "23", "24", "24", "25", "31", "30", "31", "31", "24", "26", "29", "27", "28", "28"], "time": [1862, 2508, 4183, 5806, 5876, 5931, 6140, 7675, 9772, 10307, 12272, 13737, 14543, 16314, 18036, 18057, 18105, 18376, 19911, 20765, 21238, 22800, 23092, 23182, 23258, 26621, 27988, 29140, 29953]}, "edge": {"target": [], "time": []}}, "mouseout": {"state": {"target": ["17", "14", "13", "12", "0", "12", "1", "23", "0", "22", "19", "22", "13", "13", "14", "19", "22", "14", "15", "16", "16", "18", "15", "0", "23", "24", "24", "25", "31", "30", "31", "31", "24", "26", "26", "29", "26", "27", "28", "28"], "time": [556, 674, 709, 793, 1792, 2313, 4008, 5765, 5827, 5904, 6084, 6209, 8203, 9737, 10230, 12223, 13237, 13563, 14446, 16072, 16231, 17786, 17953, 18043, 18078, 18230, 18939, 20675, 21120, 22758, 22876, 23161, 23189, 24626, 26543, 27425, 27529, 29093, 29196, 31196]}, "edge": {"target": [], "time": []}}}, "displayed_time": "35.34", "trialTime": 36344, "trial_type": "mouselab-mdp", "trial_index": 17, "time_elapsed": 679846, "internal_node_id": "0.0-6.0-1.0-8.0"}}, {"uniqueid": "w25402310:a93923950", "current_trial": 18, "dateTime": 1693661011064, "trialdata": {"revealed_states": [], "clicked_states": ["12", "1", "23", "24", "25", "2", "3", "4", "8", "5", "6", "7"], "num_clicks_accrued": [0, 0, 0, 0, 0, 0, 0, 0, 0, 0, 0, 0, 0], "stateRewards": ["", 2, 3, -3, 12, -43, 81, -82, -15, 58, -7, -75, -1, -1, 3, -5, 50, -25, -8, 4, 66, 65, -66, 2, -4, 2, -1, -10, 10, 37, 11, 88, -37, 8], "withholdReward": false, "trial_id": "mdp_trial_10", "block": "test", "trialIndex": 11, "score": 78.2, "costs": -16.8, "simulationMode": [null, null, null, null, null], "rewards": [2, 3, -3, 12, 81], "path": ["0", "0", "1", "2", "3", "4", "6"], "rt": [23214, 129, 67, 43, 583], "actions": ["up", "up", "up", "right", "right"], "actionTimes": [24401, 25036, 25599, 26152, 27241], "queries": {"click": {"state": {"target": ["12", "1", "23", "24", "25", "2", "3", "4", "8", "5", "6", "7"], "time": [2034, 3814, 5530, 7767, 9670, 11498, 13282, 15334, 17171, 19031, 20840, 22744]}, "edge": {"target": [], "time": []}}, "mouseover": {"state": {"target": ["0", "12", "0", "1", "23", "2", "24", "25", "1", "2", "3", "4", "8", "6", "5", "6", "7", "16"], "time": [1564, 1789, 2336, 2558, 4322, 6079, 7565, 8419, 10086, 10232, 12017, 13718, 15781, 17607, 17843, 19538, 21128, 23017]}, "edge": {"target": [], "time": []}}, "mouseout": {"state": {"target": ["0", "0", "12", "0", "1", "23", "1", "2", "24", "24", "25", "24", "1", "2", "3", "4", "3", "8", "3", "4", "6", "5", "6", "7", "16"], "time": [1023, 1628, 2252, 2363, 4128, 5801, 5928, 7433, 7947, 8329, 9933, 9968, 10093, 11725, 13600, 15614, 15697, 17392, 17454, 17489, 17747, 19336, 21052, 22941, 23080]}, "edge": {"target": [], "time": []}}}, "displayed_time": "27.75", "trialTime": 28658, "trial_type": "mouselab-mdp", "trial_index": 18, "time_elapsed": 708611, "internal_node_id": "0.0-6.0-1.0-9.0"}}, {"uniqueid": "w25402310:a93923950", "current_trial": 19, "dateTime": 1693661054068, "trialdata": {"revealed_states": [], "clicked_states": ["23", "1", "12", "24", "25", "26", "30", "29", "13", "14", "15", "19", "20", "21", "17", "16"], "num_clicks_accrued": [0, 0, 0, 0, 0, 0, 0, 0, 0, 0, 0, 0, 0], "stateRewards": ["", -2, -4, -2, 10, -8, -15, -47, 7, -84, 53, 5, -1, 2, -7, 3, 83, 31, 47, -1, 30, -8, 69, 2, -4, -1, 8, -7, 12, -8, -8, -13, 30, -84], "withholdReward": false, "trial_id": "mdp_trial_11", "block": "test", "trialIndex": 12, "score": 57.60000000000001, "costs": -22.399999999999995, "simulationMode": [null, null, null, null, null], "rewards": [-1, 2, -7, 3, 83], "path": ["0", "0", "12", "13", "14", "15", "16"], "rt": [36188, 97, 20, 1, 616], "actions": ["right", "right", "right", "up", "up"], "actionTimes": [38731, 39332, 39859, 40361, 41490], "queries": {"click": {"state": {"target": ["23", "1", "12", "24", "25", "26", "30", "29", "13", "14", "15", "19", "20", "21", "17", "16"], "time": [3604, 5746, 7408, 9872, 11600, 13779, 15646, 17830, 20523, 22409, 24392, 26268, 28579, 31228, 33796, 35841]}, "edge": {"target": [], "time": []}}, "mouseover": {"state": {"target": ["23", "24", "1", "12", "13", "13", "0", "23", "24", "25", "26", "30", "31", "23", "27", "29", "27", "28", "13", "13", "14", "15", "19", "20", "17", "21", "19", "22", "14", "17", "16", "18", "15"], "time": [3428, 5087, 5538, 6684, 7636, 7955, 9476, 9525, 9775, 10268, 12011, 14163, 15921, 15976, 17525, 17629, 18462, 19983, 20101, 20331, 20761, 22754, 24747, 26532, 30137, 31095, 33137, 33192, 33546, 33637, 34185, 36560, 37866]}, "edge": {"target": [], "time": []}}, "mouseout": {"state": {"target": ["15", "18", "12", "0", "23", "24", "1", "12", "13", "13", "12", "0", "23", "24", "25", "26", "25", "30", "31", "23", "27", "29", "27", "28", "13", "13", "14", "15", "14", "19", "20", "17", "21", "20", "19", "22", "14", "17", "16", "18", "15"], "time": [816, 850, 1071, 2802, 4358, 5379, 6011, 7594, 7740, 9420, 9462, 9504, 9678, 10135, 11816, 14028, 14108, 15893, 15934, 16844, 17539, 17916, 19928, 19997, 20143, 20705, 22580, 24622, 24706, 26484, 28861, 30776, 31380, 33116, 33171, 33258, 33574, 33991, 36185, 37838, 37887]}, "edge": {"target": [], "time": []}}}, "displayed_time": "41.99", "trialTime": 42898, "trial_type": "mouselab-mdp", "trial_index": 19, "time_elapsed": 751615, "internal_node_id": "0.0-6.0-1.0-10.0"}}, {"uniqueid": "w25402310:a93923950", "current_trial": 20, "dateTime": 1693661087002, "trialdata": {"revealed_states": [], "clicked_states": ["23", "1", "12", "13", "14", "15", "19", "20", "21", "22", "16", "17", "18"], "num_clicks_accrued": [0, 0, 0, 0, 0, 0, 0, 0, 0, 0, 0, 0, 0], "stateRewards": ["", 1, 1, 6, -14, -40, 37, 16, -13, 33, -68, 49, 2, 4, 3, 6, 55, 27, 32, 10, -65, 20, -87, 2, 1, -6, -5, -42, 12, 29, -8, 16, 76, -33], "withholdReward": false, "trial_id": "mdp_trial_12", "block": "test", "trialIndex": 13, "score": 51.8, "costs": -18.2, "simulationMode": [null, null, null, null, null], "rewards": [2, 4, 3, 6, 55], "path": ["0", "0", "12", "13", "14", "15", "16"], "rt": [27336, 73, 137, 91, 59], "actions": ["right", "right", "right", "up", "up"], "actionTimes": [28931, 29513, 30146, 30745, 31311], "queries": {"click": {"state": {"target": ["23", "1", "12", "13", "14", "15", "19", "20", "21", "22", "16", "17", "18"], "time": [2855, 4941, 7094, 8942, 10735, 12518, 14350, 16652, 18472, 20408, 22240, 24135, 26003]}, "edge": {"target": [], "time": []}}, "mouseover": {"state": {"target": ["23", "1", "12", "13", "14", "15", "19", "20", "20", "17", "20", "21", "22", "22", "19", "17", "16", "17", "15", "18", "15"], "time": [2319, 3590, 5347, 7500, 9250, 11382, 13049, 14605, 15098, 15834, 16474, 17021, 18771, 19014, 20702, 20862, 21140, 22716, 24417, 24522, 26251]}, "edge": {"target": [], "time": []}}, "mouseout": {"state": {"target": ["14", "13", "12", "0", "23", "1", "12", "13", "14", "15", "14", "19", "20", "20", "17", "20", "20", "21", "22", "22", "19", "17", "16", "17", "15", "18", "15"], "time": [680, 715, 805, 2291, 3451, 5222, 7431, 9195, 10979, 12827, 12959, 14542, 14619, 15160, 16382, 16725, 16848, 18709, 18813, 20667, 20709, 21036, 22494, 24383, 24466, 26230, 26258]}, "edge": {"target": [], "time": []}}}, "displayed_time": "31.81", "trialTime": 32826, "trial_type": "mouselab-mdp", "trial_index": 20, "time_elapsed": 784548, "internal_node_id": "0.0-6.0-1.0-11.0"}}, {"uniqueid": "w25402310:a93923950", "current_trial": 21, "dateTime": 1693661115283, "trialdata": {"revealed_states": [], "clicked_states": ["23", "1", "12", "13", "14", "19", "15", "16", "17", "18", "20"], "num_clicks_accrued": [0, 0, 0, 0, 0, 0, 0, 0, 0, 0, 0, 0, 0], "stateRewards": ["", -2, 1, -3, -16, -39, -52, 30, -7, -41, -59, 11, 2, 1, 8, 2, -11, -26, -42, -13, 87, -59, -48, -1, -1, -1, 16, -79, 31, 50, -1, -84, 34, -82], "withholdReward": false, "trial_id": "mdp_trial_13", "block": "test", "trialIndex": 14, "score": 69.6, "costs": -15.400000000000002, "simulationMode": [null, null, null, null, null], "rewards": [2, 1, 8, -13, 87], "path": ["0", "0", "12", "13", "14", "19", "20"], "rt": [22832, 40, 37, 51, 427], "actions": ["right", "right", "right", "down", "right"], "actionTimes": [24306, 24851, 25397, 25945, 26877], "queries": {"click": {"state": {"target": ["23", "1", "12", "13", "14", "19", "15", "16", "17", "18", "20"], "time": [2229, 4039, 5779, 7896, 9842, 11642, 13461, 15376, 17253, 19105, 21119]}, "edge": {"target": [], "time": []}}, "mouseover": {"state": {"target": ["0", "23", "1", "12", "13", "14", "14", "19", "20", "15", "16", "17", "17", "18", "15", "20", "20", "21"], "time": [1934, 2003, 2594, 4400, 7691, 8226, 9318, 10733, 11900, 12407, 13810, 15713, 16032, 17588, 19414, 20234, 20921, 22880]}, "edge": {"target": [], "time": []}}, "mouseout": {"state": {"target": ["13", "12", "0", "23", "1", "12", "13", "14", "14", "19", "20", "15", "16", "16", "17", "17", "18", "15", "20", "20", "21"], "time": [802, 823, 1962, 2490, 4281, 6018, 8163, 8303, 10573, 11872, 11949, 13699, 15475, 15622, 15845, 17428, 19379, 19421, 20317, 21282, 23241]}, "edge": {"target": [], "time": []}}}, "displayed_time": "27.37", "trialTime": 28165, "trial_type": "mouselab-mdp", "trial_index": 21, "time_elapsed": 812829, "internal_node_id": "0.0-6.0-1.0-12.0"}}, {"uniqueid": "w25402310:a93923950", "current_trial": 22, "dateTime": 1693661150019, "trialdata": {"revealed_states": [], "clicked_states": ["23", "1", "12", "13", "14", "24", "25", "26", "30", "31", "32", "33", "27", "29"], "num_clicks_accrued": [0, 0, 0, 0, 0, 0, 0, 0, 0, 0, 0, 0, 0], "stateRewards": ["", -1, 2, -2, 13, -56, -28, 10, 14, 53, -80, -29, 1, -3, -3, -14, 14, 9, -40, -9, 18, 18, 48, 1, 1, 1, -9, 64, -39, -9, 7, -52, -78, 7], "withholdReward": false, "trial_id": "mdp_trial_14", "block": "test", "trialIndex": 15, "score": 38.400000000000006, "costs": -19.599999999999998, "simulationMode": [null, null, null, null, null], "rewards": [1, 1, 1, -9, 64], "path": ["0", "0", "23", "24", "25", "26", "27"], "rt": [29493, 178, 198, 20, 44], "actions": ["left", "left", "left", "up", "up"], "actionTimes": [30757, 31431, 32139, 32655, 33207], "queries": {"click": {"state": {"target": ["23", "1", "12", "13", "14", "24", "25", "26", "30", "31", "32", "33", "27", "29"], "time": [2061, 3896, 6248, 8478, 10650, 12434, 14211, 16014, 17837, 19706, 21520, 23375, 25946, 28011]}, "edge": {"target": [], "time": []}}, "mouseover": {"state": {"target": ["23", "1", "12", "18", "13", "18", "18", "15", "14", "24", "25", "26", "30", "24", "23", "31", "32", "33", "30", "24", "27", "24", "25", "29", "24", "23", "23", "23"], "time": [1870, 2327, 4265, 8071, 8224, 8938, 10119, 10209, 10287, 11341, 12842, 14953, 16862, 18050, 18578, 19349, 20112, 21862, 23661, 25432, 25751, 26182, 26800, 27509, 28279, 28300, 29009, 29252]}, "edge": {"target": [], "time": []}}, "mouseout": {"state": {"target": ["21", "23", "0", "23", "1", "12", "18", "13", "18", "18", "15", "14", "13", "24", "25", "24", "26", "30", "24", "23", "31", "32", "33", "30", "24", "27", "24", "25", "29", "24", "23", "23", "23"], "time": [625, 938, 1709, 2181, 4140, 6591, 8154, 8483, 10029, 10142, 10230, 10814, 10841, 12751, 14467, 14585, 16460, 18001, 18064, 18612, 19856, 21758, 23641, 23689, 25453, 26092, 26217, 26819, 28231, 28287, 28307, 29050, 29279]}, "edge": {"target": [], "time": []}}}, "displayed_time": "33.71", "trialTime": 34627, "trial_type": "mouselab-mdp", "trial_index": 22, "time_elapsed": 847566, "internal_node_id": "0.0-6.0-1.0-13.0"}}, {"uniqueid": "w25402310:a93923950", "current_trial": 23, "dateTime": 1693661203635, "trialdata": {"revealed_states": [], "clicked_states": ["12", "1", "23", "13", "14", "15", "19", "20", "22", "21", "17", "16", "18", "2", "3", "4", "5", "6", "7", "8", "9", "11", "10"], "num_clicks_accrued": [0, 0, 0, 0, 0, 0, 0, 0, 0, 0, 0, 0, 0], "stateRewards": ["", -2, 4, 3, 5, -61, 4, 30, 1, -47, 83, 10, 1, 4, 7, -14, 19, -74, -83, 6, -2, -2, -65, -1, -2, 4, -11, 12, -1, -68, 11, -38, -28, 66], "withholdReward": false, "trial_id": "mdp_trial_15", "block": "test", "trialIndex": 16, "score": 56.80000000000001, "costs": -32.19999999999999, "simulationMode": [null, null, null, null, null], "rewards": [-2, 4, 3, 1, 83], "path": ["0", "0", "1", "2", "3", "8", "10"], "rt": [48155, 47, 45, 513, 41], "actions": ["up", "up", "up", "left", "down"], "actionTimes": [49424, 49967, 50522, 51537, 52080], "queries": {"click": {"state": {"target": ["12", "1", "23", "13", "14", "15", "19", "20", "22", "21", "17", "16", "18", "2", "3", "4", "5", "6", "7", "8", "9", "11", "10"], "time": [2455, 4187, 5977, 8049, 9882, 11852, 13667, 15592, 17681, 19318, 21153, 23030, 24914, 28297, 30107, 31911, 33756, 35789, 37663, 40462, 42254, 44386, 46294]}, "edge": {"target": [], "time": []}}, "mouseover": {"state": {"target": ["0", "12", "12", "1", "23", "0", "13", "14", "19", "15", "19", "20", "21", "22", "21", "17", "15", "16", "18", "14", "19", "24", "24", "2", "3", "4", "5", "7", "6", "7", "7", "4", "3", "8", "9", "8", "9", "11", "10", "2", "7", "16"], "time": [1852, 2112, 2202, 3265, 4577, 6362, 7828, 8301, 10224, 10855, 12564, 14418, 15877, 17481, 17897, 19835, 21551, 21773, 23523, 25273, 25356, 27245, 27502, 28106, 28718, 30412, 32141, 34745, 35225, 35995, 36252, 38232, 38259, 38315, 40009, 40329, 40725, 44239, 44732, 46579, 46614, 46683]}, "edge": {"target": [], "time": []}}, "mouseout": {"state": {"target": ["0", "0", "12", "12", "1", "23", "0", "13", "14", "19", "14", "15", "14", "19", "20", "21", "22", "21", "20", "17", "15", "16", "18", "14", "19", "24", "24", "2", "3", "4", "5", "4", "7", "6", "7", "7", "6", "4", "3", "8", "9", "8", "9", "11", "10", "2", "7", "16"], "time": [883, 1933, 2133, 3098, 4447, 6335, 6390, 8265, 10182, 10279, 10758, 12418, 12515, 13870, 15800, 17426, 17849, 19536, 19599, 21495, 21578, 23460, 25210, 25301, 25384, 27307, 27780, 28488, 30370, 32051, 34495, 34656, 35002, 35954, 36030, 37905, 37968, 38246, 38287, 39843, 40287, 40620, 44141, 44628, 46559, 46605, 46627, 48287]}, "edge": {"target": [], "time": []}}}, "displayed_time": "52.58", "trialTime": 53506, "trial_type": "mouselab-mdp", "trial_index": 23, "time_elapsed": 901182, "internal_node_id": "0.0-6.0-1.0-14.0"}}, {"uniqueid": "w25402310:a93923950", "current_trial": 24, "dateTime": 1693661233074, "trialdata": {"revealed_states": [], "clicked_states": ["23", "1", "12", "24", "2", "3", "4", "8", "9", "11", "10"], "num_clicks_accrued": [0, 0, 0, 0, 0, 0, 0, 0, 0, 0, 0, 0, 0], "stateRewards": ["", 2, 4, -6, -13, -75, -81, 30, 7, 5, 59, -65, -1, -1, 7, 14, -38, 36, -41, 1, -54, -5, 64, 2, -1, 5, 6, -19, 79, 11, 16, -33, -50, 58], "withholdReward": false, "trial_id": "mdp_trial_16", "block": "test", "trialIndex": 17, "score": 50.599999999999994, "costs": -15.400000000000002, "simulationMode": [null, null, null, null, null], "rewards": [2, 4, -6, 7, 59], "path": ["0", "0", "1", "2", "3", "8", "10"], "rt": [24485, 13, 102, 21, 2], "actions": ["up", "up", "up", "left", "down"], "actionTimes": [25791, 26301, 26911, 27440, 27949], "queries": {"click": {"state": {"target": ["23", "1", "12", "24", "2", "3", "4", "8", "9", "11", "10"], "time": [2246, 4449, 6221, 8090, 9832, 12196, 14061, 16969, 18819, 20903, 22748]}, "edge": {"target": [], "time": []}}, "mouseover": {"state": {"target": ["12", "23", "1", "12", "23", "24", "2", "2", "28", "25", "28", "3", "4", "5", "8", "8", "9", "11", "10", "3", "5"], "time": [1808, 2098, 3008, 4779, 7140, 7286, 8508, 8640, 10196, 10488, 11758, 12085, 12397, 14550, 16078, 16494, 17342, 19488, 21238, 23293, 23367]}, "edge": {"target": [], "time": []}}, "mouseout": {"state": {"target": ["16", "0", "12", "23", "1", "12", "23", "24", "2", "2", "28", "25", "28", "2", "3", "4", "5", "8", "8", "9", "8", "11", "10", "3", "5"], "time": [737, 1744, 1904, 2466, 4675, 6480, 7168, 8286, 8529, 10092, 10230, 11737, 11765, 11793, 12342, 14432, 16022, 16149, 17147, 19238, 19390, 21161, 23259, 23314, 24787]}, "edge": {"target": [], "time": []}}}, "displayed_time": "28.45", "trialTime": 29325, "trial_type": "mouselab-mdp", "trial_index": 24, "time_elapsed": 930621, "internal_node_id": "0.0-6.0-1.0-15.0"}}, {"uniqueid": "w25402310:a93923950", "current_trial": 25, "dateTime": 1693661273568, "trialdata": {"revealed_states": [], "clicked_states": ["12", "1", "23", "24", "13", "14", "25", "30", "26", "2", "3", "4", "8", "5", "6", "7"], "num_clicks_accrued": [0, 0, 0, 0, 0, 0, 0, 0, 0, 0, 0, 0, 0], "stateRewards": ["", -1, -3, 3, 5, 56, 39, 50, -1, -80, 33, -46, 1, -2, -6, -8, 87, 48, 54, -11, -20, -64, -54, -2, 3, -7, -3, 12, 88, 35, -16, -46, -70, -3], "withholdReward": false, "trial_id": "mdp_trial_17", "block": "test", "trialIndex": 18, "score": 37.60000000000001, "costs": -22.399999999999995, "simulationMode": [null, null, null, null, null], "rewards": [-1, -3, 3, 5, 56], "path": ["0", "0", "1", "2", "3", "4", "5"], "rt": [34435, 106, 278, 33, 406], "actions": ["up", "up", "up", "right", "up"], "actionTimes": [35891, 36498, 37274, 37814, 38721], "queries": {"click": {"state": {"target": ["12", "1", "23", "24", "13", "14", "25", "30", "26", "2", "3", "4", "8", "5", "6", "7"], "time": [2655, 4530, 6291, 8134, 9703, 11783, 13961, 15935, 17693, 21593, 23364, 25219, 27257, 29060, 31109, 33048]}, "edge": {"target": [], "time": []}}, "mouseover": {"state": {"target": ["12", "12", "1", "23", "24", "13", "14", "19", "22", "22", "19", "24", "25", "30", "26", "27", "7", "18", "2", "2", "1", "2", "4", "4", "3", "4", "5", "8", "5", "6", "7"], "time": [2064, 2445, 3278, 4889, 7077, 8876, 10348, 12112, 12342, 12959, 13181, 13723, 13773, 14293, 16328, 19849, 20230, 20613, 20730, 21037, 21216, 21488, 21835, 22168, 22508, 23605, 25689, 26558, 27814, 29543, 31585]}, "edge": {"target": [], "time": []}}, "mouseout": {"state": {"target": ["16", "18", "12", "12", "1", "23", "24", "13", "14", "19", "22", "22", "19", "24", "25", "30", "26", "27", "7", "18", "2", "2", "1", "2", "4", "4", "3", "4", "5", "8", "5", "6", "7"], "time": [785, 958, 2084, 3181, 4764, 6994, 8612, 10223, 12056, 12320, 12369, 13070, 13202, 13744, 14237, 16202, 17946, 20106, 20251, 20647, 20848, 21148, 21411, 21779, 21897, 22397, 23557, 25480, 26467, 27355, 29453, 31439, 33252]}, "edge": {"target": [], "time": []}}}, "displayed_time": "39.23", "trialTime": 40379, "trial_type": "mouselab-mdp", "trial_index": 25, "time_elapsed": 971114, "internal_node_id": "0.0-6.0-1.0-16.0"}}, {"uniqueid": "w25402310:a93923950", "current_trial": 26, "dateTime": 1693661304585, "trialdata": {"revealed_states": [], "clicked_states": ["23", "1", "12", "24", "25", "26", "30", "29", "27", "28", "32"], "num_clicks_accrued": [0, 0, 0, 0, 0, 0, 0, 0, 0, 0, 0, 0, 0], "stateRewards": ["", -1, -3, -6, 14, 41, 18, 63, -14, 80, 21, 17, -2, -4, -2, -5, 13, 70, 8, -4, -64, -10, -20, 2, -1, 4, -1, -17, -55, 42, -7, 47, 54, 15], "withholdReward": false, "trial_id": "mdp_trial_18", "block": "test", "trialIndex": 19, "score": 36.599999999999994, "costs": -15.400000000000002, "simulationMode": [null, null, null, null, null], "rewards": [2, -1, 4, -7, 54], "path": ["0", "0", "23", "24", "25", "30", "32"], "rt": [23973, 74, 277, 102, 23], "actions": ["left", "left", "left", "down", "down"], "actionTimes": [27047, 27624, 28410, 29020, 29552], "queries": {"click": {"state": {"target": ["23", "1", "12", "24", "25", "26", "30", "29", "27", "28", "32"], "time": [3666, 5948, 7758, 9601, 11231, 13000, 15055, 17637, 19558, 21482, 23665]}, "edge": {"target": [], "time": []}}, "mouseover": {"state": {"target": ["23", "1", "1", "12", "24", "25", "26", "30", "31", "24", "29", "27", "28", "25", "33", "32", "32", "32", "32", "31"], "time": [3548, 3951, 5763, 6360, 8819, 9944, 11680, 13506, 16235, 17118, 17513, 17895, 20437, 21687, 21722, 22062, 22375, 23209, 23451, 24284]}, "edge": {"target": [], "time": []}}, "mouseout": {"state": {"target": ["15", "18", "12", "0", "23", "1", "1", "12", "24", "25", "26", "25", "30", "31", "24", "29", "27", "28", "25", "33", "32", "32", "32", "32", "31"], "time": [1214, 1255, 1312, 2606, 3822, 5603, 6023, 8055, 9860, 11590, 13236, 13353, 15172, 17104, 17124, 17791, 19909, 21659, 21694, 21736, 22111, 22430, 23222, 23784, 26000]}, "edge": {"target": [], "time": []}}}, "displayed_time": "30.06", "trialTime": 30900, "trial_type": "mouselab-mdp", "trial_index": 26, "time_elapsed": 1002132, "internal_node_id": "0.0-6.0-1.0-17.0"}}, {"uniqueid": "w25402310:a93923950", "current_trial": 27, "dateTime": 1693661333817, "trialdata": {"revealed_states": [], "clicked_states": ["1", "12", "23", "24", "13", "25", "26", "30", "31", "33", "32"], "num_clicks_accrued": [0, 0, 0, 0, 0, 0, 0, 0, 0, 0, 0, 0, 0], "stateRewards": ["", -2, 2, -2, -7, -50, -62, -45, 7, 36, -24, -72, -1, -1, 8, -1, -67, 20, -52, 2, 35, -50, 80, -1, 1, 6, -6, -70, 6, 88, 8, -47, 74, -19], "withholdReward": false, "trial_id": "mdp_trial_19", "block": "test", "trialIndex": 20, "score": 72.6, "costs": -15.400000000000002, "simulationMode": [null, null, null, null, null], "rewards": [-1, 1, 6, 8, 74], "path": ["0", "0", "23", "24", "25", "30", "32"], "rt": [24028, 86, 164, 36, 41], "actions": ["left", "left", "left", "down", "down"], "actionTimes": [25534, 26120, 26788, 27327, 27873], "queries": {"click": {"state": {"target": ["1", "12", "23", "24", "13", "25", "26", "30", "31", "33", "32"], "time": [2304, 5025, 6769, 9285, 11092, 12946, 14953, 16665, 18790, 20811, 22640]}, "edge": {"target": [], "time": []}}, "mouseover": {"state": {"target": ["1", "2", "12", "0", "23", "13", "24", "0", "12", "13", "13", "22", "31", "25", "25", "26", "30", "23", "31", "32", "32", "33", "32", "32", "31", "24", "26", "29", "26", "23"], "time": [2129, 3372, 4804, 5309, 5608, 8754, 9074, 9671, 9706, 9740, 10039, 11324, 11504, 11629, 11965, 13712, 15470, 18241, 18602, 18977, 19296, 20685, 21060, 21324, 23463, 23532, 23644, 23875, 24532, 24602]}, "edge": {"target": [], "time": []}}, "mouseout": {"state": {"target": ["0", "1", "2", "12", "0", "23", "13", "24", "24", "23", "0", "12", "13", "13", "22", "31", "25", "25", "26", "25", "30", "25", "23", "31", "32", "32", "33", "32", "32", "31", "24", "26", "29", "26", "23"], "time": [2031, 2594, 4622, 5261, 5386, 7059, 8962, 9361, 9615, 9657, 9698, 9726, 9775, 11296, 11351, 11532, 11733, 13070, 15317, 15393, 17171, 17254, 18247, 18914, 19053, 20595, 21011, 21102, 22880, 23491, 23553, 23720, 24505, 24539, 24623]}, "edge": {"target": [], "time": []}}}, "displayed_time": "28.38", "trialTime": 29116, "trial_type": "mouselab-mdp", "trial_index": 27, "time_elapsed": 1031364, "internal_node_id": "0.0-6.0-1.0-18.0"}}, {"uniqueid": "w25402310:a93923950", "current_trial": 28, "dateTime": 1693661367578, "trialdata": {"revealed_states": [], "clicked_states": ["12", "1", "23", "24", "25", "30", "26", "29", "27", "28", "33", "31", "32"], "num_clicks_accrued": [0, 0, 0, 0, 0, 0, 0, 0, 0, 0, 0, 0, 0], "stateRewards": ["", -2, 2, -4, -4, -59, 88, 62, -3, 69, -15, -34, 1, -2, -5, 7, -54, -20, 78, -16, -74, -53, -21, 2, -4, 2, 13, -8, -44, 26, 9, 72, 4, 17], "withholdReward": false, "trial_id": "mdp_trial_20", "block": "test", "trialIndex": 21, "score": 62.8, "costs": -18.2, "simulationMode": [null, null, null, null, null], "rewards": [2, -4, 2, 9, 72], "path": ["0", "0", "23", "24", "25", "30", "31"], "rt": [27640, 577, 237, 30, 123], "actions": ["left", "left", "left", "down", "right"], "actionTimes": [29335, 30419, 31155, 31684, 32306], "queries": {"click": {"state": {"target": ["12", "1", "23", "24", "25", "30", "26", "29", "27", "28", "33", "31", "32"], "time": [3197, 5434, 7267, 9477, 11447, 13405, 15322, 17997, 19927, 21754, 23646, 25537, 27551]}, "edge": {"target": [], "time": []}}, "mouseover": {"state": {"target": ["12", "12", "1", "1", "23", "24", "25", "30", "26", "33", "29", "27", "28", "25", "33", "30", "31", "32"], "time": [2236, 2957, 3589, 5236, 6083, 9263, 9881, 13042, 14090, 16569, 17771, 18284, 20354, 22021, 22722, 23910, 24180, 25826]}, "edge": {"target": [], "time": []}}, "mouseout": {"state": {"target": ["0", "12", "12", "1", "1", "23", "24", "25", "30", "25", "26", "25", "30", "33", "29", "27", "28", "25", "33", "30", "31", "32"], "time": [2187, 2423, 3451, 4986, 5708, 9166, 9784, 12944, 13840, 13944, 15632, 15694, 16493, 17625, 18180, 20222, 21986, 22049, 23882, 23917, 25750, 27958]}, "edge": {"target": [], "time": []}}}, "displayed_time": "32.81", "trialTime": 33641, "trial_type": "mouselab-mdp", "trial_index": 28, "time_elapsed": 1065124, "internal_node_id": "0.0-6.0-1.0-19.0"}}, {"uniqueid": "w25402310:a93923950", "current_trial": 29, "dateTime": 1693661402368, "trialdata": {"revealed_states": [], "clicked_states": ["12", "1", "23", "2", "24", "25", "26", "30", "32", "31", "33", "29", "27", "28"], "num_clicks_accrued": [0, 0, 0, 0, 0, 0, 0, 0, 0, 0, 0, 0, 0], "stateRewards": ["", 1, -4, -4, 8, 1, -79, 68, -10, -79, 8, -74, -1, -3, -6, 14, 43, 23, 9, 5, -51, 63, 61, -2, 4, 6, -10, 69, -32, 57, 15, -80, -80, -77], "withholdReward": false, "trial_id": "mdp_trial_21", "block": "test", "trialIndex": 22, "score": 47.400000000000006, "costs": -19.599999999999998, "simulationMode": [null, null, null, null, null], "rewards": [-2, 4, 6, -10, 69], "path": ["0", "0", "23", "24", "25", "26", "27"], "rt": [29688, 61, 298, 80, 69], "actions": ["left", "left", "left", "up", "up"], "actionTimes": [30954, 31518, 32317, 32898, 33470], "queries": {"click": {"state": {"target": ["12", "1", "23", "2", "24", "25", "26", "30", "32", "31", "33", "29", "27", "28"], "time": [2316, 4062, 5844, 8078, 10669, 12944, 14867, 16523, 18417, 20236, 22014, 24532, 26535, 28639]}, "edge": {"target": [], "time": []}}, "mouseover": {"state": {"target": ["12", "1", "23", "2", "3", "24", "1", "28", "25", "26", "30", "32", "31", "33", "30", "24", "26", "29", "26", "28", "27", "28", "23", "28", "23"], "time": [2136, 2601, 4573, 7837, 8705, 10518, 10927, 12608, 12789, 14393, 15476, 18198, 18684, 20587, 22289, 24115, 24227, 24414, 24719, 24796, 26185, 26740, 26817, 28268, 28921]}, "edge": {"target": [], "time": []}}, "mouseout": {"state": {"target": ["0", "12", "1", "23", "1", "23", "23", "1", "2", "3", "24", "1", "2", "28", "25", "26", "25", "30", "32", "31", "33", "30", "24", "26", "29", "26", "28", "27", "28", "23", "28", "23"], "time": [1559, 2476, 4413, 6399, 7316, 7546, 7726, 7775, 8615, 10233, 10830, 10934, 12546, 12650, 13034, 15316, 15420, 17066, 18559, 20435, 22275, 22312, 24143, 24310, 24678, 24761, 26074, 26706, 26761, 27942, 28879, 28949]}, "edge": {"target": [], "time": []}}}, "displayed_time": "33.98", "trialTime": 34671, "trial_type": "mouselab-mdp", "trial_index": 29, "time_elapsed": 1099915, "internal_node_id": "0.0-6.0-1.0-20.0"}}, {"uniqueid": "w25402310:a93923950", "current_trial": 30, "dateTime": 1693661449666, "trialdata": {"revealed_states": [], "clicked_states": ["12", "1", "23", "24", "2", "3", "7", "4", "8", "9", "11", "10", "6", "5", "25", "26", "30", "29", "27", "28"], "num_clicks_accrued": [0, 0, 0, 0, 0, 0, 0, 0, 0, 0, 0, 0, 0], "stateRewards": ["", 2, 4, 7, -6, -76, -81, 2, 5, -66, -3, 36, -2, -4, 6, -2, -69, 4, -49, -6, 67, 38, -67, 2, 1, 1, 6, -68, -21, 52, -16, -16, 6, -70], "withholdReward": false, "trial_id": "mdp_trial_22", "block": "test", "trialIndex": 23, "score": 34.000000000000014, "costs": -27.99999999999999, "simulationMode": [null, null, null, null, null], "rewards": [2, 1, 1, 6, 52], "path": ["0", "0", "23", "24", "25", "26", "29"], "rt": [41845, 125, 272, 50, 352], "actions": ["left", "left", "left", "up", "left"], "actionTimes": [43038, 43672, 44445, 44993, 45844], "queries": {"click": {"state": {"target": ["12", "1", "23", "24", "2", "3", "7", "4", "8", "9", "11", "10", "6", "5", "25", "26", "30", "29", "27", "28"], "time": [2112, 3837, 5561, 7726, 9518, 11957, 13902, 15540, 18402, 20197, 22253, 24126, 26857, 28851, 31145, 32989, 34709, 36704, 38606, 40561]}, "edge": {"target": [], "time": []}}, "mouseover": {"state": {"target": ["0", "12", "12", "12", "1", "23", "24", "1", "2", "25", "28", "10", "3", "4", "7", "4", "4", "6", "5", "8", "8", "9", "11", "10", "18", "15", "15", "18", "6", "5", "2", "28", "26", "26", "25", "26", "30", "29", "27", "28", "25", "24"], "time": [1496, 1538, 1809, 1947, 2476, 4337, 7469, 8911, 9017, 10059, 11469, 11510, 11823, 13038, 13247, 14212, 14649, 16031, 17761, 18122, 18212, 18948, 20421, 22566, 24400, 24441, 24754, 26123, 26483, 27777, 29164, 29289, 29532, 29858, 30796, 32011, 33463, 35984, 37268, 38970, 40998, 41060]}, "edge": {"target": [], "time": []}}, "mouseout": {"state": {"target": ["0", "0", "12", "12", "12", "1", "23", "24", "23", "1", "2", "24", "25", "28", "10", "3", "4", "7", "4", "4", "6", "5", "8", "8", "8", "9", "11", "10", "18", "15", "15", "18", "6", "5", "2", "28", "26", "26", "25", "26", "25", "30", "25", "26", "26", "29", "27", "28", "25", "24"], "time": [954, 1510, 1587, 1843, 2295, 4121, 7351, 8323, 8399, 8941, 9733, 9997, 11455, 11490, 11552, 12997, 13073, 14073, 14281, 15900, 17463, 18046, 18150, 18408, 18733, 20386, 22476, 24323, 24421, 24476, 26047, 26185, 27534, 29053, 29178, 29456, 29553, 30686, 31664, 33282, 33393, 35143, 35247, 35449, 35727, 36800, 38872, 40803, 41018, 41095]}, "edge": {"target": [], "time": []}}}, "displayed_time": "46.36", "trialTime": 47182, "trial_type": "mouselab-mdp", "trial_index": 30, "time_elapsed": 1147213, "internal_node_id": "0.0-6.0-1.0-21.0"}}, {"uniqueid": "w25402310:a93923950", "current_trial": 31, "dateTime": 1693661472626, "trialdata": {"revealed_states": [], "clicked_states": ["12", "1", "23", "24", "25", "26", "30", "31"], "num_clicks_accrued": [0, 0, 0, 0, 0, 0, 0, 0, 0, 0, 0, 0, 0], "stateRewards": ["", -1, 2, 6, 11, 21, -21, -21, -6, 48, -71, 88, -1, -3, 3, 7, 64, 2, 9, -4, 37, -67, 72, 2, 2, -8, -8, -10, 71, -40, -3, 73, 80, 47], "withholdReward": false, "trial_id": "mdp_trial_23", "block": "test", "trialIndex": 24, "score": 54.8, "costs": -11.200000000000001, "simulationMode": [null, null, null, null, null], "rewards": [2, 2, -8, -3, 73], "path": ["0", "0", "23", "24", "25", "30", "31"], "rt": [17557, 73, 96, 87, 65], "actions": ["left", "left", "left", "down", "right"], "actionTimes": [18687, 19262, 19861, 20456, 21017], "queries": {"click": {"state": {"target": ["12", "1", "23", "24", "25", "26", "30", "31"], "time": [1676, 3373, 5150, 6956, 8739, 10926, 12731, 15375]}, "edge": {"target": [], "time": []}}, "mouseover": {"state": {"target": ["12", "1", "23", "24", "25", "28", "28", "26", "30", "31", "23", "31", "32", "33", "30"], "time": [1520, 1999, 3770, 6215, 7395, 9055, 10493, 10736, 11215, 12986, 13090, 14932, 15680, 17300, 17611]}, "edge": {"target": [], "time": []}}, "mouseout": {"state": {"target": ["0", "12", "1", "23", "24", "25", "28", "28", "26", "25", "30", "31", "23", "31", "32", "33", "30"], "time": [1136, 1840, 3624, 5409, 7312, 8979, 9618, 10513, 11104, 11180, 12958, 13014, 14299, 15583, 17182, 17591, 17618]}, "edge": {"target": [], "time": []}}}, "displayed_time": "21.52", "trialTime": 22824, "trial_type": "mouselab-mdp", "trial_index": 31, "time_elapsed": 1170173, "internal_node_id": "0.0-6.0-1.0-22.0"}}, {"uniqueid": "w25402310:a93923950", "current_trial": 32, "dateTime": 1693661505321, "trialdata": {"revealed_states": [], "clicked_states": ["12", "1", "23", "13", "2", "14", "15", "19", "20", "21", "22", "17", "16"], "num_clicks_accrued": [0, 0, 0, 0, 0, 0, 0, 0, 0, 0, 0, 0, 0], "stateRewards": ["", -1, -2, 4, 9, 10, -75, 39, 16, -43, 88, -19, -1, 1, 2, 4, -31, 10, 73, 12, 41, -64, -81, -2, 2, -6, 1, -81, -1, -26, 3, -59, -3, -20], "withholdReward": false, "trial_id": "mdp_trial_24", "block": "test", "trialIndex": 25, "score": 36.8, "costs": -18.2, "simulationMode": [null, null, null, null, null], "rewards": [-1, 1, 2, 12, 41], "path": ["0", "0", "12", "13", "14", "19", "20"], "rt": [27749, 24, 46, 450, 143], "actions": ["right", "right", "right", "down", "right"], "actionTimes": [28510, 29035, 29579, 30531, 31182], "queries": {"click": {"state": {"target": ["12", "1", "23", "13", "2", "14", "15", "19", "20", "21", "22", "17", "16"], "time": [1370, 3178, 4708, 7219, 9078, 11083, 13068, 14839, 17179, 19086, 20976, 23595, 25460]}, "edge": {"target": [], "time": []}}, "mouseover": {"state": {"target": ["12", "1", "23", "13", "2", "18", "14", "19", "15", "19", "17", "16", "20", "21", "22", "19", "17", "16", "18"], "time": [1253, 1794, 3704, 6968, 7725, 9399, 9718, 11489, 12392, 13524, 15239, 16004, 17114, 17725, 19524, 21212, 23351, 23906, 26046]}, "edge": {"target": [], "time": []}}, "mouseout": {"state": {"target": ["0", "12", "1", "23", "23", "13", "2", "18", "14", "19", "14", "15", "14", "19", "17", "16", "20", "21", "22", "19", "17", "16", "16", "18"], "time": [1023, 1565, 3503, 5649, 6815, 7510, 9322, 9413, 11392, 11816, 11954, 13357, 13482, 15149, 15336, 16711, 17594, 19399, 21191, 21233, 23788, 25583, 25804, 27525]}, "edge": {"target": [], "time": []}}}, "displayed_time": "31.68", "trialTime": 32578, "trial_type": "mouselab-mdp", "trial_index": 32, "time_elapsed": 1202868, "internal_node_id": "0.0-6.0-1.0-23.0"}}, {"uniqueid": "w25402310:a93923950", "current_trial": 33, "dateTime": 1693661533889, "trialdata": {"revealed_states": [], "clicked_states": ["12", "1", "23", "2", "3", "4", "8", "11", "9", "10", "5"], "num_clicks_accrued": [0, 0, 0, 0, 0, 0, 0, 0, 0, 0, 0, 0, 0], "stateRewards": ["", 2, 4, -5, 7, 81, 35, 6, 11, 14, -72, 42, -1, 2, 3, -7, -77, -44, -40, -15, -85, 51, -32, -2, -1, -5, 7, -74, 47, 52, 16, -49, 48, -46], "withholdReward": false, "trial_id": "mdp_trial_25", "block": "test", "trialIndex": 26, "score": 73.6, "costs": -15.400000000000002, "simulationMode": [null, null, null, null, null], "rewards": [2, 4, -5, 7, 81], "path": ["0", "0", "1", "2", "3", "4", "5"], "rt": [22987, 63, 152, 11, 49], "actions": ["up", "up", "up", "right", "up"], "actionTimes": [24692, 25264, 25915, 26427, 26979], "queries": {"click": {"state": {"target": ["12", "1", "23", "2", "3", "4", "8", "11", "9", "10", "5"], "time": [2656, 4329, 6353, 8322, 10097, 11860, 13598, 16035, 17902, 19778, 21669]}, "edge": {"target": [], "time": []}}, "mouseover": {"state": {"target": ["0", "12", "22", "19", "20", "19", "13", "12", "1", "23", "2", "2", "3", "4", "8", "5", "11", "9", "9", "8", "10", "2", "7", "6", "5", "6"], "time": [1837, 1872, 1900, 1928, 2212, 2240, 2282, 2372, 3094, 4893, 7463, 8046, 8622, 10435, 12463, 14651, 15944, 16352, 16637, 18179, 18331, 19971, 20012, 20123, 20436, 21915]}, "edge": {"target": [], "time": []}}, "mouseout": {"state": {"target": ["0", "0", "12", "22", "19", "20", "19", "13", "12", "1", "1", "23", "2", "2", "3", "4", "8", "3", "4", "5", "8", "11", "9", "9", "8", "10", "2", "7", "6", "5"], "time": [1462, 1851, 1879, 1914, 1942, 2226, 2254, 2310, 2838, 4431, 4743, 6650, 7574, 8504, 10380, 12178, 13970, 14026, 14541, 15637, 15817, 16213, 16387, 18109, 18234, 19949, 19998, 20054, 20192, 21866]}, "edge": {"target": [], "time": []}}}, "displayed_time": "27.48", "trialTime": 28444, "trial_type": "mouselab-mdp", "trial_index": 33, "time_elapsed": 1231436, "internal_node_id": "0.0-6.0-1.0-24.0"}}, {"uniqueid": "w25402310:a93923950", "current_trial": 34, "dateTime": 1693661561380, "trialdata": {"revealed_states": [], "clicked_states": ["12", "1", "23", "24", "25", "26", "30", "31", "33", "32"], "num_clicks_accrued": [0, 0, 0, 0, 0, 0, 0, 0, 0, 0, 0, 0, 0], "stateRewards": ["", 1, -2, -8, -3, 31, -84, -55, -14, 15, -58, 17, -2, -3, 7, 7, -12, 48, 67, 4, -44, -68, 46, 2, 3, -5, -7, 76, 27, 5, 11, 57, 52, 59], "withholdReward": false, "trial_id": "mdp_trial_26", "block": "test", "trialIndex": 27, "score": 56, "costs": -14.000000000000002, "simulationMode": [null, null, null, null, null], "rewards": [2, 3, -5, 11, 59], "path": ["0", "0", "23", "24", "25", "30", "33"], "rt": [21534, 6, 157, 495, 314], "actions": ["left", "left", "left", "down", "left"], "actionTimes": [22914, 23427, 24099, 25096, 25916], "queries": {"click": {"state": {"target": ["12", "1", "23", "24", "25", "26", "30", "31", "33", "32"], "time": [2535, 4237, 5940, 7842, 9573, 11355, 13395, 15247, 17131, 19085]}, "edge": {"target": [], "time": []}}, "mouseover": {"state": {"target": ["12", "1", "23", "0", "0", "24", "28", "25", "28", "26", "30", "31", "31", "33", "32"], "time": [2329, 2947, 4849, 6294, 6724, 7689, 8613, 8683, 10586, 10724, 11773, 13620, 13856, 15628, 17468]}, "edge": {"target": [], "time": []}}, "mouseout": {"state": {"target": ["6", "7", "0", "12", "1", "23", "0", "12", "0", "1", "24", "1", "28", "25", "28", "26", "30", "31", "31", "30", "30", "33", "30", "32"], "time": [599, 682, 1668, 2794, 4557, 6266, 6322, 6620, 7056, 7516, 8009, 8425, 8634, 9738, 10662, 11516, 13593, 13662, 15468, 15537, 15572, 17343, 17370, 19280]}, "edge": {"target": [], "time": []}}}, "displayed_time": "26.41", "trialTime": 27362, "trial_type": "mouselab-mdp", "trial_index": 34, "time_elapsed": 1258926, "internal_node_id": "0.0-6.0-1.0-25.0"}}, {"uniqueid": "w25402310:a93923950", "current_trial": 35, "dateTime": 1693661608692, "trialdata": {"revealed_states": [], "clicked_states": ["23", "1", "12", "13", "14", "2", "3", "24", "25", "4", "8", "15", "19", "16", "17", "18", "20"], "num_clicks_accrued": [0, 0, 0, 0, 0, 0, 0, 0, 0, 0, 0, 0, 0], "stateRewards": ["", 1, 4, -8, -13, -13, -87, -77, -10, -44, 54, 42, 2, -3, -4, 12, -9, -80, 52, 9, 84, -2, -65, 1, -4, -5, -6, 8, 80, 32, 13, -59, -5, -13], "withholdReward": false, "trial_id": "mdp_trial_27", "block": "test", "trialIndex": 28, "score": 64.2, "costs": -23.799999999999994, "simulationMode": [null, null, null, null, null], "rewards": [2, -3, -4, 9, 84], "path": ["0", "0", "12", "13", "14", "19", "20"], "rt": [41047, 98, 97, 16, 104], "actions": ["right", "right", "right", "down", "right"], "actionTimes": [43525, 44130, 44726, 45249, 45858], "queries": {"click": {"state": {"target": ["23", "1", "12", "13", "14", "2", "3", "24", "25", "4", "8", "15", "19", "16", "17", "18", "20"], "time": [3445, 5207, 6883, 9521, 11760, 14009, 15882, 20265, 22144, 23959, 27076, 30681, 32598, 34833, 36695, 38623, 40580]}, "edge": {"target": [], "time": []}}, "mouseover": {"state": {"target": ["0", "12", "23", "1", "12", "2", "13", "14", "22", "0", "1", "2", "3", "7", "1", "23", "1", "7", "4", "2", "24", "25", "23", "12", "13", "18", "4", "4", "5", "8", "8", "9", "4", "7", "15", "14", "19", "20", "17", "16", "16", "17", "14", "13", "18", "19", "20", "21"], "time": [2899, 3030, 3314, 3884, 5460, 8322, 9065, 10731, 12079, 13641, 13710, 13815, 15093, 17849, 17975, 18197, 18718, 18773, 18954, 19287, 19530, 20711, 22363, 22419, 22454, 22502, 22704, 23232, 24308, 26176, 26527, 27579, 29398, 29496, 30128, 31093, 31176, 32829, 33635, 33732, 34712, 35670, 36927, 37038, 38246, 39128, 39329, 41114]}, "edge": {"target": [], "time": []}}, "mouseout": {"state": {"target": ["0", "0", "12", "23", "1", "12", "1", "2", "13", "14", "22", "0", "1", "2", "2", "3", "2", "7", "2", "1", "23", "1", "7", "4", "2", "24", "25", "24", "23", "12", "13", "18", "4", "4", "5", "8", "8", "9", "4", "7", "15", "14", "19", "20", "17", "16", "16", "17", "14", "13", "18", "19", "20", "21"], "time": [2100, 2988, 3121, 3634, 5391, 8030, 8120, 8967, 10676, 12002, 12993, 13676, 13745, 14190, 14808, 16384, 16905, 17863, 17912, 17990, 18433, 18731, 18863, 19204, 19295, 20634, 22315, 22356, 22369, 22433, 22468, 22537, 22912, 24183, 26100, 26245, 27412, 29211, 29447, 29586, 31017, 31135, 32801, 32857, 33671, 34552, 35045, 36857, 36991, 37044, 38809, 39260, 40969, 42553]}, "edge": {"target": [], "time": []}}}, "displayed_time": "46.36", "trialTime": 47187, "trial_type": "mouselab-mdp", "trial_index": 35, "time_elapsed": 1306239, "internal_node_id": "0.0-6.0-1.0-26.0"}}, {"uniqueid": "w25402310:a93923950", "current_trial": 36, "dateTime": 1693661641883, "trialdata": {"revealed_states": [], "clicked_states": ["12", "1", "23", "13", "14", "2", "3", "4", "8", "9", "10", "11", "5"], "num_clicks_accrued": [0, 0, 0, 0, 0, 0, 0, 0, 0, 0, 0, 0, 0], "stateRewards": ["", 1, 1, 7, -11, 80, -20, -53, -14, 3, 31, 27, 2, -1, -8, -10, 33, 41, 86, 9, 78, -37, -13, -1, -2, -6, -8, -80, 75, 4, -16, -49, -74, 24], "withholdReward": false, "trial_id": "mdp_trial_28", "block": "test", "trialIndex": 29, "score": 59.8, "costs": -18.2, "simulationMode": [null, null, null, null, null], "rewards": [1, 1, 7, -11, 80], "path": ["0", "0", "1", "2", "3", "4", "5"], "rt": [28031, 144, 151, 97, 107], "actions": ["up", "up", "up", "right", "up"], "actionTimes": [29402, 30055, 30714, 31320, 31928], "queries": {"click": {"state": {"target": ["12", "1", "23", "13", "14", "2", "3", "4", "8", "9", "10", "11", "5"], "time": [2074, 3615, 5676, 7506, 9135, 12663, 14686, 16463, 18288, 20600, 22453, 24337, 26190]}, "edge": {"target": [], "time": []}}, "mouseover": {"state": {"target": ["12", "13", "12", "1", "23", "0", "13", "14", "14", "15", "12", "0", "23", "24", "2", "3", "4", "8", "9", "10", "11", "8", "3", "4", "5", "6"], "time": [1554, 1818, 1902, 2964, 4339, 5992, 6110, 7902, 8256, 9743, 11520, 11541, 11590, 11680, 12471, 12895, 15062, 16965, 19722, 21020, 22840, 24555, 24599, 24646, 25160, 26493]}, "edge": {"target": [], "time": []}}, "mouseout": {"state": {"target": ["19", "22", "0", "23", "0", "12", "13", "12", "1", "23", "0", "12", "13", "14", "14", "15", "12", "0", "23", "24", "2", "3", "4", "3", "8", "9", "8", "10", "11", "8", "3", "4", "5"], "time": [742, 764, 811, 979, 1507, 1603, 1853, 2749, 4159, 5957, 6027, 6076, 7777, 8027, 9652, 11444, 11527, 11569, 11638, 12381, 12805, 15027, 16694, 16798, 18562, 20861, 20974, 22694, 24534, 24583, 24625, 24715, 26423]}, "edge": {"target": [], "time": []}}}, "displayed_time": "32.43", "trialTime": 33062, "trial_type": "mouselab-mdp", "trial_index": 36, "time_elapsed": 1339430, "internal_node_id": "0.0-6.0-1.0-27.0"}}, {"uniqueid": "w25402310:a93923950", "current_trial": 37, "dateTime": 1693661668955, "trialdata": {"revealed_states": [], "clicked_states": ["12", "1", "23", "2", "3", "4", "8", "9", "11", "10"], "num_clicks_accrued": [0, 0, 0, 0, 0, 0, 0, 0, 0, 0, 0, 0, 0], "stateRewards": ["", 1, 4, 5, 8, -55, -11, 8, 16, -37, 77, -22, -2, 3, -8, -10, 45, 87, -67, 4, 17, -33, -22, -1, -3, 7, 6, -39, -85, 75, -1, 7, -48, 45], "withholdReward": false, "trial_id": "mdp_trial_29", "block": "test", "trialIndex": 30, "score": 89, "costs": -14.000000000000002, "simulationMode": [null, null, null, null, null], "rewards": [1, 4, 5, 16, 77], "path": ["0", "0", "1", "2", "3", "8", "10"], "rt": [21299, 146, 160, 127, 69], "actions": ["up", "up", "up", "left", "down"], "actionTimes": [22608, 23251, 23917, 24551, 25118], "queries": {"click": {"state": {"target": ["12", "1", "23", "2", "3", "4", "8", "9", "11", "10"], "time": [2238, 4198, 6396, 8437, 10145, 12041, 13750, 16097, 17983, 19784]}, "edge": {"target": [], "time": []}}, "mouseover": {"state": {"target": ["0", "12", "1", "23", "0", "13", "13", "2", "3", "4", "8", "5", "9", "11", "10", "2", "7", "6"], "time": [1457, 1999, 2561, 4728, 6644, 6770, 6825, 8367, 8908, 10506, 12487, 14749, 15860, 16694, 18499, 19999, 20048, 20513]}, "edge": {"target": [], "time": []}}, "mouseout": {"state": {"target": ["6", "18", "13", "22", "0", "0", "12", "1", "23", "0", "12", "13", "13", "2", "3", "4", "3", "8", "5", "9", "8", "11", "10", "2", "7", "6"], "time": [658, 721, 755, 846, 1131, 1519, 2436, 4485, 6610, 6679, 6736, 6778, 7867, 8832, 10457, 12270, 12381, 13999, 15680, 16332, 16610, 18193, 19971, 20027, 20075, 20562]}, "edge": {"target": [], "time": []}}}, "displayed_time": "25.63", "trialTime": 26944, "trial_type": "mouselab-mdp", "trial_index": 37, "time_elapsed": 1366501, "internal_node_id": "0.0-6.0-1.0-28.0"}}, {"uniqueid": "w25402310:a93923950", "current_trial": 38, "dateTime": 1693661722912, "trialdata": {"revealed_states": [], "clicked_states": ["12", "1", "23", "2", "13", "3", "4", "8", "10", "11", "9", "14", "15", "19", "16", "17", "18", "20", "21", "22", "6", "7"], "num_clicks_accrued": [0, 0, 0, 0, 0, 0, 0, 0, 0, 0, 0, 0, 0], "stateRewards": ["", 1, 4, -8, -5, -15, -7, 21, 13, -30, 40, -65, 1, 1, 5, -14, 35, 27, -38, -11, 36, -58, -47, -2, 4, -3, 13, -16, -49, 22, 15, -56, -44, -10], "withholdReward": false, "trial_id": "mdp_trial_30", "block": "test", "trialIndex": 31, "score": -85.79999999999998, "costs": -30.799999999999986, "simulationMode": [null, null, null, null, null], "rewards": [1, 4, -8, 13, -65], "path": ["0", "0", "1", "2", "3", "8", "11"], "rt": [48115, 52, 59, 40, 703], "actions": ["up", "up", "up", "left", "left"], "actionTimes": [49183, 49733, 50295, 50832, 52037], "queries": {"click": {"state": {"target": ["12", "1", "23", "2", "13", "3", "4", "8", "10", "11", "9", "14", "15", "19", "16", "17", "18", "20", "21", "22", "6", "7"], "time": [2112, 3877, 5653, 7910, 9618, 11465, 13314, 15099, 17312, 19560, 21382, 24177, 25960, 27705, 30213, 32137, 34436, 36614, 38648, 41059, 43934, 45833]}, "edge": {"target": [], "time": []}}, "mouseover": {"state": {"target": ["12", "13", "13", "12", "1", "1", "23", "0", "2", "13", "13", "18", "7", "3", "4", "8", "2", "10", "11", "11", "9", "4", "16", "16", "15", "14", "15", "19", "17", "16", "17", "18", "15", "20", "21", "21", "21", "19", "22", "19", "20", "17", "6", "7", "5", "5"], "time": [1303, 1352, 1734, 1887, 2414, 2699, 4289, 6380, 7687, 8310, 8803, 10047, 10102, 10512, 12095, 13665, 17054, 17165, 18457, 19429, 19790, 21630, 21686, 21998, 23569, 24026, 24394, 26304, 29708, 29895, 30520, 32867, 35007, 36348, 36839, 37284, 38499, 40757, 40964, 41271, 41302, 43409, 43896, 45069, 46208, 46513]}, "edge": {"target": [], "time": []}}, "mouseout": {"state": {"target": ["18", "12", "12", "13", "13", "12", "1", "1", "23", "0", "2", "13", "13", "18", "7", "3", "4", "3", "8", "3", "2", "10", "11", "11", "9", "4", "16", "16", "15", "14", "15", "19", "17", "16", "17", "18", "15", "17", "20", "21", "21", "21", "19", "22", "19", "20", "17", "6", "7", "5", "5"], "time": [414, 553, 1331, 1373, 1810, 2310, 2456, 4192, 6338, 7526, 8172, 8373, 10005, 10054, 10130, 12012, 13540, 13616, 15359, 15387, 17076, 17406, 19256, 19686, 21561, 21638, 21721, 22026, 23978, 24311, 26158, 27922, 29790, 30360, 32631, 34980, 35037, 35076, 36799, 36923, 37291, 38832, 40860, 41229, 41285, 41323, 43423, 44367, 46097, 46326, 48166]}, "edge": {"target": [], "time": []}}}, "displayed_time": "52.54", "trialTime": 53810, "trial_type": "mouselab-mdp", "trial_index": 38, "time_elapsed": 1420459, "internal_node_id": "0.0-6.0-1.0-29.0"}}, {"uniqueid": "w25402310:a93923950", "current_trial": 39, "dateTime": 1693661789258, "trialdata": {"revealed_states": [], "clicked_states": ["12", "1", "23", "2", "3", "4", "8", "13", "14", "24", "25", "30", "26", "9", "10", "11", "5", "6", "7", "19", "15", "16", "17", "18", "20", "21", "22"], "num_clicks_accrued": [0, 0, 0, 0, 0, 0, 0, 0, 0, 0, 0, 0, 0], "stateRewards": ["", 1, 1, 1, -3, -7, -1, -41, -10, 20, -72, -63, 1, -4, -2, 2, -66, 30, -84, -2, 49, 23, 71, -1, -4, 4, -12, 67, 5, 18, -16, 88, 56, -5], "withholdReward": false, "trial_id": "mdp_trial_31", "block": "test", "trialIndex": 32, "score": 26.200000000000017, "costs": -37.79999999999998, "simulationMode": [null, null, null, null, null], "rewards": [1, -4, -2, -2, 71], "path": ["0", "0", "12", "13", "14", "19", "22"], "rt": [60712, 27, 64, 28, 21], "actions": ["right", "right", "right", "down", "left"], "actionTimes": [62687, 63225, 63789, 64315, 64843], "queries": {"click": {"state": {"target": ["12", "1", "23", "2", "3", "4", "8", "13", "14", "24", "25", "30", "26", "9", "10", "11", "5", "6", "7", "19", "15", "16", "17", "18", "20", "21", "22"], "time": [2773, 4541, 6360, 9276, 11106, 13121, 14864, 19027, 20703, 22569, 24425, 26758, 28651, 31580, 33490, 35337, 37735, 39596, 41524, 45238, 47290, 49442, 51279, 53264, 55230, 57249, 59167]}, "edge": {"target": [], "time": []}}, "mouseover": {"state": {"target": ["12", "1", "23", "13", "2", "3", "7", "4", "8", "7", "2", "10", "7", "18", "18", "13", "14", "15", "24", "25", "25", "30", "26", "8", "9", "8", "10", "11", "8", "3", "4", "5", "6", "7", "16", "17", "14", "19", "14", "15", "16", "17", "18", "20", "21", "22", "31", "30", "33", "30", "31"], "time": [2256, 3166, 4958, 8860, 9055, 9923, 11388, 12287, 13584, 16750, 16833, 17222, 18416, 18472, 18576, 18647, 19326, 21076, 21611, 22875, 23500, 26474, 27049, 31243, 31389, 32000, 32195, 33938, 35611, 35653, 35688, 37328, 39153, 39896, 41917, 43959, 44244, 44355, 45521, 45744, 48209, 49931, 51802, 53807, 56383, 57869, 59453, 59475, 59503, 61578, 61612]}, "edge": {"target": [], "time": []}}, "mouseout": {"state": {"target": ["0", "12", "1", "23", "13", "2", "3", "7", "4", "3", "8", "3", "7", "2", "10", "8", "7", "18", "18", "13", "14", "15", "24", "25", "25", "30", "25", "26", "26", "8", "9", "8", "10", "11", "8", "3", "4", "5", "6", "7", "16", "17", "14", "19", "14", "15", "16", "16", "17", "15", "18", "20", "21", "22", "31", "30", "33", "30", "31"], "time": [2159, 3034, 4812, 7076, 8923, 9638, 11326, 11396, 13361, 13416, 15111, 15146, 16777, 17175, 17416, 18361, 18444, 18500, 18583, 19143, 20944, 21236, 22840, 22937, 24826, 26903, 26986, 30911, 31167, 31278, 31917, 32069, 33827, 35597, 35632, 35674, 37181, 38931, 39813, 41841, 43452, 44000, 44306, 45466, 45579, 47869, 49574, 49765, 51654, 51751, 53619, 55529, 57758, 59370, 59467, 59489, 61489, 61584, 61668]}, "edge": {"target": [], "time": []}}}, "displayed_time": "65.35", "trialTime": 66197, "trial_type": "mouselab-mdp", "trial_index": 39, "time_elapsed": 1486805, "internal_node_id": "0.0-6.0-1.0-30.0"}}, {"uniqueid": "w25402310:a93923950", "current_trial": 40, "dateTime": 1693661828116, "trialdata": {"revealed_states": [], "clicked_states": ["12", "1", "23", "24", "25", "26", "30", "29", "27", "28", "31", "33", "32"], "num_clicks_accrued": [0, 0, 0, 0, 0, 0, 0, 0, 0, 0, 0, 0, 0], "stateRewards": ["", 1, -1, 4, 5, -32, 18, 20, 6, -88, -74, 9, -2, 1, -2, -14, 34, -77, -38, -1, 80, -36, 73, 2, 3, -8, 10, -48, -73, -71, -11, -22, 20, 54], "withholdReward": false, "trial_id": "mdp_trial_32", "block": "test", "trialIndex": 33, "score": 21.799999999999997, "costs": -18.2, "simulationMode": [null, null, null, null, null], "rewards": [2, 3, -8, -11, 54], "path": ["0", "0", "23", "24", "25", "30", "33"], "rt": [33085, 131, 238, 77, 84], "actions": ["left", "left", "left", "down", "left"], "actionTimes": [34957, 35592, 36329, 36903, 37487], "queries": {"click": {"state": {"target": ["12", "1", "23", "24", "25", "26", "30", "29", "27", "28", "31", "33", "32"], "time": [3505, 5202, 6823, 9374, 11375, 13430, 15265, 17565, 19557, 21413, 23575, 25695, 27675]}, "edge": {"target": [], "time": []}}, "mouseover": {"state": {"target": ["12", "1", "23", "2", "24", "25", "23", "26", "30", "31", "24", "29", "27", "28", "23", "31", "32", "33", "32", "13", "18", "7", "2", "12"], "time": [3304, 3852, 5803, 7560, 9187, 10206, 11741, 13227, 13769, 15589, 17123, 17430, 17811, 20519, 21672, 23422, 23867, 25534, 25943, 31471, 31548, 31985, 32055, 33749]}, "edge": {"target": [], "time": []}}, "mouseout": {"state": {"target": ["0", "12", "1", "23", "1", "2", "24", "25", "23", "24", "26", "25", "30", "31", "24", "26", "29", "27", "27", "28", "23", "31", "32", "33", "32", "13", "18", "7", "2", "12"], "time": [2748, 3734, 5505, 7345, 7449, 8901, 10047, 11460, 13005, 13096, 13589, 13693, 15561, 15596, 17158, 17221, 17662, 19693, 19936, 21637, 21686, 23742, 25464, 25888, 27909, 31485, 31736, 32027, 33645, 33784]}, "edge": {"target": [], "time": []}}}, "displayed_time": "37.99", "trialTime": 38731, "trial_type": "mouselab-mdp", "trial_index": 40, "time_elapsed": 1525663, "internal_node_id": "0.0-6.0-1.0-31.0"}}, {"uniqueid": "w25402310:a93923950", "current_trial": 41, "dateTime": 1693661864892, "trialdata": {"revealed_states": [], "clicked_states": ["12", "1", "23", "13", "24", "25", "30", "26", "31", "32", "33", "14", "19", "15", "17", "16", "18"], "num_clicks_accrued": [0, 0, 0, 0, 0, 0, 0, 0, 0, 0, 0, 0, 0], "stateRewards": ["", -1, 4, -5, 9, 29, -75, -42, -16, 24, -28, -41, 2, -3, 1, 10, 60, 47, 55, -1, -53, 22, -40, 2, -3, -6, 4, -26, 44, 54, 15, -76, 42, 14], "withholdReward": false, "trial_id": "mdp_trial_33", "block": "test", "trialIndex": 34, "score": 46.2, "costs": -23.799999999999994, "simulationMode": [null, null, null, null, null], "rewards": [2, -3, 1, 10, 60], "path": ["0", "0", "12", "13", "14", "15", "16"], "rt": [31727, 26, 90, 64, 62], "actions": ["right", "right", "right", "up", "up"], "actionTimes": [33204, 33727, 34326, 34890, 35451], "queries": {"click": {"state": {"target": ["12", "1", "23", "13", "24", "25", "30", "26", "31", "32", "33", "14", "19", "15", "17", "16", "18"], "time": [2092, 4092, 5926, 7829, 9612, 11460, 13176, 14914, 16892, 18647, 20478, 22633, 24608, 26123, 27913, 29794, 31588]}, "edge": {"target": [], "time": []}}, "mouseover": {"state": {"target": ["0", "12", "1", "23", "0", "12", "13", "14", "18", "24", "25", "30", "31", "30", "26", "28", "12", "31", "32", "33", "30", "13", "14", "19", "15", "17", "17", "16", "18", "15"], "time": [1824, 2011, 2414, 4525, 6379, 6701, 6872, 8192, 8478, 8818, 10311, 12213, 12284, 12609, 13512, 15145, 15230, 15817, 17178, 19137, 20694, 21560, 22402, 23949, 24945, 26778, 27193, 28249, 30359, 31869]}, "edge": {"target": [], "time": []}}, "mouseout": {"state": {"target": ["0", "0", "12", "1", "1", "23", "0", "12", "13", "14", "18", "24", "25", "30", "31", "30", "25", "26", "28", "12", "31", "32", "33", "30", "31", "13", "14", "19", "14", "15", "17", "17", "16", "16", "18", "15"], "time": [1254, 1921, 2170, 4195, 4386, 6345, 6438, 6761, 8123, 8428, 8534, 10276, 12095, 12250, 12336, 13331, 13414, 15130, 15160, 15251, 17074, 18859, 20664, 20722, 20744, 21950, 23901, 24818, 24882, 26744, 26842, 28146, 29907, 30201, 31854, 31884]}, "edge": {"target": [], "time": []}}}, "displayed_time": "35.96", "trialTime": 36630, "trial_type": "mouselab-mdp", "trial_index": 41, "time_elapsed": 1562439, "internal_node_id": "0.0-6.0-1.0-32.0"}}, {"uniqueid": "w25402310:a93923950", "current_trial": 42, "dateTime": 1693661925347, "trialdata": {"revealed_states": [], "clicked_states": ["12", "1", "23", "2", "3", "13", "14", "19", "15", "16", "17", "4", "8", "9", "10", "11", "5", "6", "7", "18", "20", "21", "24", "25", "26", "29", "27"], "num_clicks_accrued": [0, 0, 0, 0, 0, 0, 0, 0, 0, 0, 0, 0, 0], "stateRewards": ["", 2, -3, -4, -1, 25, -16, 16, 10, -71, -20, -55, 1, 3, -4, -9, 1, 32, 11, -6, 32, -50, -41, -1, 4, 4, -8, 7, -81, 70, 2, -52, 45, -10], "withholdReward": false, "trial_id": "mdp_trial_34", "block": "test", "trialIndex": 35, "score": 31.200000000000017, "costs": -37.79999999999998, "simulationMode": [null, null, null, null, null, null], "rewards": [-1, 4, 4, -8, 70], "path": ["0", "0", "23", "24", "25", "26", "29"], "rt": [55018, 624, 101, 78, 65, 3], "actions": ["left", "left", "left", "left", "up", "left"], "actionTimes": [56198, 56823, 57422, 57997, 58567, 59067], "queries": {"click": {"state": {"target": ["12", "1", "23", "2", "3", "13", "14", "19", "15", "16", "17", "4", "8", "9", "10", "11", "5", "6", "7", "18", "20", "21", "24", "25", "26", "29", "27"], "time": [1748, 3639, 5601, 7286, 8871, 10677, 12563, 14299, 16156, 19115, 21029, 24034, 25842, 28175, 30009, 31816, 33666, 35544, 37381, 39871, 42400, 44702, 47042, 49279, 51177, 53075, 54821]}, "edge": {"target": [], "time": []}}, "mouseover": {"state": {"target": ["12", "1", "23", "2", "3", "4", "7", "13", "14", "14", "19", "15", "16", "18", "18", "16", "17", "4", "4", "3", "8", "2", "5", "9", "10", "11", "8", "7", "6", "5", "6", "7", "1", "17", "15", "18", "20", "19", "22", "31", "25", "24", "23", "0", "22", "19", "20", "21", "21", "32", "30", "25", "24", "25", "29", "29", "26", "30", "29", "27"], "time": [1444, 2257, 4290, 6150, 7658, 9410, 9453, 9770, 10946, 11255, 13673, 14666, 17020, 18562, 18652, 18931, 19409, 22867, 23859, 24383, 24483, 26659, 27097, 28048, 28528, 30432, 32072, 32143, 32299, 32611, 34000, 36092, 38211, 38444, 39271, 39383, 40537, 40780, 41219, 41452, 41688, 41993, 42029, 42049, 42090, 42118, 42167, 42634, 44460, 45091, 45148, 45773, 46917, 47438, 49807, 50424, 50821, 51668, 52637, 53454]}, "edge": {"target": [], "time": []}}, "mouseout": {"state": {"target": ["13", "12", "0", "12", "1", "23", "2", "3", "4", "7", "13", "14", "14", "19", "15", "16", "18", "18", "16", "16", "17", "4", "4", "3", "8", "2", "4", "5", "9", "8", "10", "11", "8", "7", "6", "5", "6", "7", "1", "17", "15", "18", "20", "19", "22", "31", "25", "24", "23", "0", "22", "19", "20", "21", "21", "32", "30", "25", "24", "25", "29", "29", "26", "25", "30", "29"], "time": [720, 791, 943, 2021, 3972, 5901, 7541, 9367, 9418, 9475, 10910, 11032, 12784, 14471, 16701, 18374, 18569, 18860, 19239, 19354, 21256, 23485, 24347, 24441, 26166, 26694, 26826, 27944, 28417, 28490, 30257, 32050, 32080, 32158, 32389, 33889, 35744, 37771, 38219, 38778, 39340, 40042, 40667, 41204, 41249, 41473, 41951, 42022, 42042, 42056, 42111, 42139, 42592, 42676, 44876, 45112, 45176, 46855, 47320, 49626, 50063, 50716, 51403, 51597, 52438, 53192]}, "edge": {"target": [], "time": []}}}, "displayed_time": "59.57", "trialTime": 60308, "trial_type": "mouselab-mdp", "trial_index": 42, "time_elapsed": 1622894, "internal_node_id": "0.0-6.0-1.0-33.0"}}, {"uniqueid": "w25402310:a93923950", "current_trial": 43, "dateTime": 1693661969163, "trialdata": {"revealed_states": [], "clicked_states": ["31", "32", "33", "29", "27", "28", "10", "11", "9", "5", "6", "7", "16", "17", "18", "20", "21", "22"], "num_clicks_accrued": [0, 0, 0, 0, 0, 0, 0, 0, 0, 0, 0, 0, 0], "stateRewards": ["", -1, -1, 4, -16, -75, 81, -51, -7, -84, 73, -30, -2, 1, -3, -16, -77, 33, 14, 1, 45, 87, -66, 2, 2, -5, -7, -19, -17, 79, -3, 8, 49, 47], "withholdReward": false, "trial_id": "mdp_trial_35", "block": "test", "trialIndex": 36, "score": 58.80000000000001, "costs": -25.199999999999992, "simulationMode": [null, null, null, null, null], "rewards": [-2, 1, -3, 1, 87], "path": ["0", "0", "12", "13", "14", "19", "21"], "rt": [38321, 86, 59, 71, 89], "actions": ["right", "right", "right", "down", "down"], "actionTimes": [39958, 40549, 41104, 41672, 42259], "queries": {"click": {"state": {"target": ["31", "32", "33", "29", "27", "28", "10", "11", "9", "5", "6", "7", "16", "17", "18", "20", "21", "22"], "time": [4147, 5930, 7627, 9214, 10796, 12375, 16586, 18339, 20145, 21741, 23250, 24780, 26979, 29168, 31137, 33288, 35325, 36891]}, "edge": {"target": [], "time": []}}, "mouseover": {"state": {"target": ["0", "1", "0", "31", "32", "33", "29", "27", "28", "10", "8", "11", "10", "11", "9", "5", "6", "7", "16", "17", "17", "15", "18", "13", "19", "20", "21", "22", "19"], "time": [2405, 2605, 3258, 3859, 4504, 6258, 8335, 9547, 11206, 15787, 15842, 16036, 16252, 16867, 18788, 20646, 22284, 23709, 25335, 27445, 29044, 29437, 29636, 31540, 31838, 32095, 34026, 35584, 37457]}, "edge": {"target": [], "time": []}}, "mouseout": {"state": {"target": ["27", "28", "0", "1", "0", "31", "32", "33", "29", "27", "28", "10", "8", "11", "10", "11", "9", "5", "6", "7", "16", "17", "17", "15", "18", "13", "19", "20", "21", "22", "19"], "time": [1056, 1175, 2487, 2724, 3321, 4426, 6158, 7918, 9418, 11045, 15717, 15794, 15960, 16197, 16738, 18690, 20468, 22052, 23616, 25068, 27297, 28849, 29378, 29538, 31475, 31781, 31998, 33879, 35511, 37442, 37479]}, "edge": {"target": [], "time": []}}}, "displayed_time": "42.76", "trialTime": 43673, "trial_type": "mouselab-mdp", "trial_index": 43, "time_elapsed": 1666710, "internal_node_id": "0.0-6.0-1.0-34.0"}}, {"uniqueid": "w25402310:a93923950", "current_trial": 44, "dateTime": 1693661986668, "trialdata": {"revealed_states": [], "clicked_states": ["31", "32", "33", "29", "27", "28"], "num_clicks_accrued": [0, 0, 0, 0, 0, 0, 0, 0, 0, 0, 0, 0, 0], "stateRewards": ["", -1, -3, 1, 13, -64, -29, 12, -4, -33, 50, 56, 2, -3, 4, 11, -64, -58, -55, 12, 47, 38, -25, -2, 2, 5, -15, 85, 7, 84, 10, 8, 57, 26], "withholdReward": false, "trial_id": "mdp_trial_36", "block": "test", "trialIndex": 37, "score": 66.6, "costs": -8.4, "simulationMode": [null, null, null, null, null], "rewards": [-2, 2, 5, -15, 85], "path": ["0", "0", "23", "24", "25", "26", "27"], "rt": [11685, 165, 134, 124, 45], "actions": ["left", "left", "left", "up", "up"], "actionTimes": [13537, 14204, 14840, 15461, 16014], "queries": {"click": {"state": {"target": ["31", "32", "33", "29", "27", "28"], "time": [2840, 4513, 6087, 7743, 9280, 11092]}, "edge": {"target": [], "time": []}}, "mouseover": {"state": {"target": ["0", "23", "31", "31", "32", "33", "29", "27", "28"], "time": [2245, 2308, 2405, 2634, 3270, 4866, 6766, 8065, 9824]}, "edge": {"target": [], "time": []}}, "mouseout": {"state": {"target": ["20", "19", "12", "0", "0", "23", "31", "31", "32", "33", "29", "27", "28"], "time": [1224, 1273, 1446, 1634, 2275, 2322, 2482, 3065, 4782, 6401, 7934, 9736, 11378]}, "edge": {"target": [], "time": []}}}, "displayed_time": "16.52", "trialTime": 17371, "trial_type": "mouselab-mdp", "trial_index": 44, "time_elapsed": 1684215, "internal_node_id": "0.0-6.0-1.0-35.0"}}, {"uniqueid": "w25402310:a93923950", "current_trial": 45, "dateTime": 1693662005231, "trialdata": {"revealed_states": [], "clicked_states": ["12", "1", "23", "18", "16", "17"], "num_clicks_accrued": [0, 0, 0, 0, 0, 0, 0, 0, 0, 0, 0, 0, 0], "stateRewards": ["", 1, 1, 1, 15, -76, 52, -32, 14, -57, 37, 49, 1, -4, -3, 6, 83, -76, 25, 9, 36, -1, -17, -1, 4, 4, -2, -22, -21, 58, -15, -57, 49, -24], "withholdReward": false, "trial_id": "mdp_trial_37", "block": "test", "trialIndex": 38, "score": 74.6, "costs": -8.4, "simulationMode": [null, null, null, null, null], "rewards": [1, -4, -3, 6, 83], "path": ["0", "0", "12", "13", "14", "15", "16"], "rt": [13423, 85, 139, 47, 13], "actions": ["right", "right", "right", "up", "up"], "actionTimes": [14794, 15381, 16026, 16573, 17087], "queries": {"click": {"state": {"target": ["12", "1", "23", "18", "16", "17"], "time": [2522, 4291, 6061, 9249, 10954, 12989]}, "edge": {"target": [], "time": []}}, "mouseover": {"state": {"target": ["12", "1", "23", "13", "14", "15", "16", "16", "18", "16", "17"], "time": [1733, 2784, 4630, 8108, 8143, 8171, 8275, 8515, 9129, 9467, 11411]}, "edge": {"target": [], "time": []}}, "mouseout": {"state": {"target": ["0", "12", "1", "23", "13", "14", "15", "16", "16", "18", "16", "17"], "time": [1670, 2686, 4478, 6336, 8129, 8150, 8226, 8359, 9080, 9379, 11242, 13292]}, "edge": {"target": [], "time": []}}}, "displayed_time": "17.59", "trialTime": 18387, "trial_type": "mouselab-mdp", "trial_index": 45, "time_elapsed": 1702778, "internal_node_id": "0.0-6.0-1.0-36.0"}}, {"uniqueid": "w25402310:a93923950", "current_trial": 46, "dateTime": 1693662035158, "trialdata": {"revealed_states": [], "clicked_states": ["12", "1", "23", "18", "16", "17", "20", "21", "22", "7", "6", "5"], "num_clicks_accrued": [0, 0, 0, 0, 0, 0, 0, 0, 0, 0, 0, 0, 0], "stateRewards": ["", -2, -3, 8, 14, -73, 73, 84, -12, -2, -50, -17, 2, 1, -2, -9, -44, -27, -33, 16, -63, -47, -66, -2, 1, 4, -5, -33, -11, 50, 9, 38, -79, 31], "withholdReward": false, "trial_id": "mdp_trial_38", "block": "test", "trialIndex": 39, "score": 84.2, "costs": -16.8, "simulationMode": [null, null, null, null, null], "rewards": [-2, -3, 8, 14, 84], "path": ["0", "0", "1", "2", "3", "4", "7"], "rt": [23316, 72, 150, 59, 27], "actions": ["up", "up", "up", "right", "down"], "actionTimes": [25849, 26422, 27068, 27644, 28174], "queries": {"click": {"state": {"target": ["12", "1", "23", "18", "16", "17", "20", "21", "22", "7", "6", "5"], "time": [3119, 4940, 6694, 8482, 10147, 11817, 13424, 15099, 16641, 18428, 20190, 23365]}, "edge": {"target": [], "time": []}}, "mouseover": {"state": {"target": ["12", "1", "23", "0", "17", "18", "16", "17", "20", "21", "22", "13", "7", "6", "5"], "time": [2854, 3461, 5350, 7386, 7765, 8066, 8871, 10460, 12174, 13765, 15448, 17010, 17641, 18659, 20690]}, "edge": {"target": [], "time": []}}, "mouseout": {"state": {"target": ["0", "0", "12", "1", "23", "0", "12", "17", "18", "16", "17", "20", "21", "22", "13", "7", "6", "5"], "time": [1527, 1931, 3292, 5157, 7363, 7410, 7441, 7859, 8669, 10371, 12024, 13704, 15327, 16973, 17019, 18570, 20446, 23663]}, "edge": {"target": [], "time": []}}}, "displayed_time": "28.68", "trialTime": 29774, "trial_type": "mouselab-mdp", "trial_index": 46, "time_elapsed": 1732705, "internal_node_id": "0.0-6.0-1.0-37.0"}}, {"uniqueid": "w25402310:a93923950", "current_trial": 47, "dateTime": 1693662060058, "trialdata": {"revealed_states": [], "clicked_states": ["23", "1", "12", "18", "16", "17", "20", "21", "22", "7"], "num_clicks_accrued": [0, 0, 0, 0, 0, 0, 0, 0, 0, 0, 0, 0, 0], "stateRewards": ["", -1, 2, 5, -6, 13, -64, -47, 8, -79, -80, -33, 1, 2, -2, -16, 56, -71, -10, 3, 29, 44, 85, -1, 4, 5, 4, -36, -56, 19, 8, 52, -13, -2], "withholdReward": false, "trial_id": "mdp_trial_39", "block": "test", "trialIndex": 40, "score": 75, "costs": -14.000000000000002, "simulationMode": [null, null, null, null, null], "rewards": [1, 2, -2, 3, 85], "path": ["0", "0", "12", "13", "14", "19", "22"], "rt": [19500, 106, 127, 14, 92], "actions": ["right", "right", "right", "down", "left"], "actionTimes": [20788, 21395, 22027, 22546, 23138], "queries": {"click": {"state": {"target": ["23", "1", "12", "18", "16", "17", "20", "21", "22", "7"], "time": [2569, 4325, 6090, 7819, 9447, 11813, 13530, 15145, 17051, 18875]}, "edge": {"target": [], "time": []}}, "mouseover": {"state": {"target": ["7", "1", "23", "1", "12", "13", "18", "16", "17", "20", "21", "22", "31", "30", "31", "23", "1", "7", "4", "7", "6"], "time": [1801, 1940, 2420, 2961, 4605, 6346, 6586, 8111, 9809, 12323, 13866, 16704, 17793, 17891, 18079, 18140, 18171, 18203, 18287, 18460, 19419]}, "edge": {"target": [], "time": []}}, "mouseout": {"state": {"target": ["16", "1", "7", "1", "23", "1", "12", "13", "18", "16", "17", "20", "21", "22", "31", "30", "31", "23", "1", "7", "4", "7"], "time": [705, 974, 1842, 1995, 2748, 4514, 6299, 6362, 8011, 9696, 12070, 13750, 16571, 17313, 17839, 18041, 18117, 18156, 18187, 18235, 18408, 19171]}, "edge": {"target": [], "time": []}}}, "displayed_time": "23.64", "trialTime": 24746, "trial_type": "mouselab-mdp", "trial_index": 47, "time_elapsed": 1757605, "internal_node_id": "0.0-6.0-1.0-38.0"}}, {"uniqueid": "w25402310:a93923950", "current_trial": 48, "dateTime": 1693662082898, "trialdata": {"revealed_states": [], "clicked_states": ["12", "1", "23", "22", "21", "20", "17", "16", "18"], "num_clicks_accrued": [0, 0, 0, 0, 0, 0, 0, 0, 0, 0, 0, 0, 0], "stateRewards": ["", -2, 3, -5, -7, 66, 43, -60, -4, -70, -75, 4, -1, 2, 2, -13, 54, 11, -40, -1, 77, 32, 15, -2, 3, -8, -9, -35, 83, -27, 6, -74, -34, 44], "withholdReward": false, "trial_id": "mdp_trial_40", "block": "test", "trialIndex": 41, "score": 66.4, "costs": -12.600000000000001, "simulationMode": [null, null, null, null, null], "rewards": [-1, 2, 2, -1, 77], "path": ["0", "0", "12", "13", "14", "19", "20"], "rt": [17666, 54, 165, 20, 134], "actions": ["right", "right", "right", "down", "right"], "actionTimes": [18836, 19391, 20064, 20592, 21241], "queries": {"click": {"state": {"target": ["12", "1", "23", "22", "21", "20", "17", "16", "18"], "time": [1872, 3642, 5261, 7030, 9133, 10839, 12905, 14665, 16199]}, "edge": {"target": [], "time": []}}, "mouseover": {"state": {"target": ["12", "13", "12", "1", "23", "0", "22", "19", "20", "19", "22", "19", "21", "20", "17", "16", "18", "15"], "time": [1286, 1341, 1661, 2379, 4223, 5529, 5616, 5634, 5667, 6257, 6570, 7275, 7380, 9413, 11333, 13256, 15024, 16848]}, "edge": {"target": [], "time": []}}, "mouseout": {"state": {"target": ["6", "5", "4", "7", "0", "12", "13", "12", "1", "23", "0", "22", "19", "20", "19", "22", "19", "21", "20", "17", "16", "18", "15", "17"], "time": [244, 425, 646, 681, 953, 1320, 1598, 2076, 3911, 5504, 5553, 5625, 5658, 5696, 6363, 7228, 7284, 9235, 11046, 13164, 14929, 16809, 16950, 17067]}, "edge": {"target": [], "time": []}}}, "displayed_time": "21.74", "trialTime": 22674, "trial_type": "mouselab-mdp", "trial_index": 48, "time_elapsed": 1780445, "internal_node_id": "0.0-6.0-1.0-39.0"}}, {"uniqueid": "w25402310:a93923950", "current_trial": 49, "dateTime": 1693662155276, "trialdata": {"rt": 72375, "response": {"Q0": "$-2 to $2", "Q1": "$-16 to $16", "Q2": "$-88 to $88", "Q3": "The cost for clicking on nodes varied between nodes.", "Q4": "Very motivated"}, "question_order": [0, 1, 2, 3, 4], "trial_id": "final_quiz_control", "trial_type": "survey-multi-choice", "trial_index": 49, "time_elapsed": 1852823, "internal_node_id": "0.0-6.0-2.0"}}, {"uniqueid": "w25402310:a93923950", "current_trial": 50, "dateTime": 1693662310669, "trialdata": {"rt": 155387, "response": {"Q0": "I started off by checking out the initial pathways and then clicking further on ones that seemed to have a higher payout.", "Q1": "Towards the end I mainly aimed for inspecting the outer nodes to see which had the highest payout and aimed for those.", "Q2": "I found it difficult to improve my performance as a lot of it felt to be based on luck at finding the best path in the first few clicks with my initial strategy and the payouts from that seemed higher than when I was targeting the outer nodes."}, "trial_id": "self_report_control", "trial_type": "survey-text", "trial_index": 50, "time_elapsed": 2008216, "internal_node_id": "0.0-6.0-3.0"}}, {"uniqueid": "w25402310:a93923950", "current_trial": 51, "dateTime": 1693662329765, "trialdata": {"rt": 19094, "response": {"gender": "female", "age": "37", "colorblind": "0", "effort": "0"}, "trial_type": "survey-html-form", "trial_index": 51, "time_elapsed": 2027312, "internal_node_id": "0.0-6.0-4.0"}}, {"uniqueid": "w25402310:a93923950", "current_trial": 52, "dateTime": 1693662390201, "trialdata": {"rt": 60434, "response": {"Q0": "Nope, everything was explained clearly.", "Q1": "No.", "Q2": "Everything loaded up correctly and no obvious spelling errors etc."}, "trial_type": "survey-text", "trial_index": 52, "time_elapsed": 2087748, "internal_node_id": "0.0-6.0-5.0"}}, {"uniqueid": "w25402310:a93923950", "current_trial": 53, "dateTime": 1693662424359, "trialdata": {"rt": 34156, "stimulus": "<h1>Completion Code Instructions (1/2)</h1>\n<br><br><br><br>\nYou have reached the end of the experiment! The completion code consists of two parts: (1) a code with 2 characters (2) a code with 6 characters. On this page, you will receive the second part of the code. The first part of the completion code will be on the next page.\n<br><br>\nThe second part of your completion code is: <b>EWEK22</b>\n<br><br>\nPlease note this down. Then, press 'Next' in order to find the first part of your completion code. Once the data has been saved, you will receive this code either in this window or in the original browser window where you started the experiment.\n <br><br>\n<h2 style='color: red;'>Note: this is <strong>NOT</strong> the full completion code. Copy this down and click 'Next' to get the full completion code on the next page.</h2>", "response": 0, "trial_type": "html-button-response", "trial_index": 53, "time_elapsed": 2121906, "internal_node_id": "0.0-6.0-6.0"}}, {"uniqueid": "w25402310:a93923950", "current_trial": 54, "dateTime": 1693662425363, "trialdata": {"success": true, "trial_type": "fullscreen", "trial_index": 54, "time_elapsed": 2122910, "internal_node_id": "0.0-7.0"}}], "questiondata": {"params": {"CODE": "C6DMOQA6", "MIN_TIME": 14, "inspectCost": 1, "startTime": "Sat Sep 02 2023 14:11:41 GMT+0100 (British Summer Time)", "bonusRate": 0.002, "variance": "1_2_4_8_44", "branching": "31123"}, "final_score": 2061}, "eventdata": [{"eventtype": "initialized", "value": null, "timestamp": 1693660301504, "interval": 0}, {"eventtype": "window_resize", "value": [1024, 767], "timestamp": 1693660301504, "interval": 0}, {"eventtype": "window_resize", "value": [1024, 767], "timestamp": 1693660301815, "interval": 311}, {"eventtype": "window_resize", "value": [2560, 1440], "timestamp": 1693660306619, "interval": 4804}, {"eventtype": "focus", "value": "off", "timestamp": 1693660367153, "interval": 60534}, {"eventtype": "focus", "value": "on", "timestamp": 1693660367833, "interval": 680}, {"eventtype": "window_resize", "value": [2560, 1440], "timestamp": 1693660368056, "interval": 223}, {"eventtype": "focus", "value": "off", "timestamp": 1693660420498, "interval": 52442}, {"eventtype": "window_resize", "value": [2560, 1439], "timestamp": 1693660421194, "interval": 696}, {"eventtype": "focus", "value": "on", "timestamp": 1693660421349, "interval": 155}, {"eventtype": "window_resize", "value": [2560, 1440], "timestamp": 1693660421568, "interval": 219}, {"eventtype": "focus", "value": "off", "timestamp": 1693660439863, "interval": 18295}, {"eventtype": "window_resize", "value": [2560, 1439], "timestamp": 1693660440192, "interval": 329}, {"eventtype": "focus", "value": "on", "timestamp": 1693660440883, "interval": 691}, {"eventtype": "window_resize", "value": [2560, 1440], "timestamp": 1693660441100, "interval": 217}, {"eventtype": "focus", "value": "off", "timestamp": 1693660470345, "interval": 29245}, {"eventtype": "window_resize", "value": [2560, 1439], "timestamp": 1693660471192, "interval": 847}, {"eventtype": "focus", "value": "on", "timestamp": 1693660471504, "interval": 312}, {"eventtype": "window_resize", "value": [2560, 1440], "timestamp": 1693660471721, "interval": 217}, {"eventtype": "focus", "value": "off", "timestamp": 1693660570499, "interval": 98778}, {"eventtype": "window_resize", "value": [2560, 1439], "timestamp": 1693660571193, "interval": 694}, {"eventtype": "focus", "value": "on", "timestamp": 1693660571621, "interval": 428}, {"eventtype": "window_resize", "value": [2560, 1440], "timestamp": 1693660571913, "interval": 292}, {"eventtype": "focus", "value": "off", "timestamp": 1693660609071, "interval": 37158}, {"eventtype": "focus", "value": "on", "timestamp": 1693660609868, "interval": 797}, {"eventtype": "window_resize", "value": [2560, 1440], "timestamp": 1693660609955, "interval": 87}, {"eventtype": "window_resize", "value": [2560, 1440], "timestamp": 1693660610156, "interval": 201}, {"eventtype": "focus", "value": "off", "timestamp": 1693660619401, "interval": 9245}, {"eventtype": "focus", "value": "on", "timestamp": 1693660620090, "interval": 689}, {"eventtype": "window_resize", "value": [2560, 1440], "timestamp": 1693660620169, "interval": 79}, {"eventtype": "window_resize", "value": [2560, 1440], "timestamp": 1693660620369, "interval": 200}, {"eventtype": "focus", "value": "off", "timestamp": 1693662143694, "interval": 1523325}, {"eventtype": "window_resize", "value": [2560, 1439], "timestamp": 1693662144192, "interval": 498}, {"eventtype": "focus", "value": "on", "timestamp": 1693662144562, "interval": 370}, {"eventtype": "window_resize", "value": [2560, 1440], "timestamp": 1693662145224, "interval": 662}, {"eventtype": "focus", "value": "off", "timestamp": 1693662406409, "interval": 261185}, {"eventtype": "window_resize", "value": [2560, 1439], "timestamp": 1693662407192, "interval": 783}, {"eventtype": "focus", "value": "on", "timestamp": 1693662407424, "interval": 232}, {"eventtype": "window_resize", "value": [2560, 1440], "timestamp": 1693662408144, "interval": 720}, {"eventtype": "focus", "value": "off", "timestamp": 1693662414126, "interval": 5982}, {"eventtype": "focus", "value": "on", "timestamp": 1693662421210, "interval": 7084}, {"eventtype": "window_resize", "value": [1024, 767], "timestamp": 1693662424584, "interval": 3374}], "useragent": "Mozilla/5.0 (Windows NT 10.0; Win64; x64) AppleWebKit/537.36 (KHTML, like Gecko) Chrome/116.0.0.0 Safari/537.36", "mode": "live", "id": "w25402310:a93923950", "status": "user data saved", "B