{"condition": 1, "counterbalance": 0, "assignmentId": "a50054570", "workerId": "w75394346", "hitId": "h77607165", "currenttrial": 43, "bonus": 0, "data": [{"uniqueid": "w75394346:a50054570", "current_trial": 0, "dateTime": 1691142291923, "trialdata": {"success": true, "trial_type": "fullscreen", "trial_index": 0, "time_elapsed": 8010, "internal_node_id": "0.0-0.0"}}, {"uniqueid": "w75394346:a50054570", "current_trial": 1, "dateTime": 1691142315981, "trialdata": {"view_history": [{"page_index": 0, "viewing_time": 23991}], "rt": 23991, "trial_id": "exp_instructions_misaligned", "trial_type": "instructions", "trial_index": 1, "time_elapsed": 32069, "internal_node_id": "0.0-1.0"}}, {"uniqueid": "w75394346:a50054570", "current_trial": 2, "dateTime": 1691142322179, "trialdata": {"success": true, "trial_type": "fullscreen", "trial_index": 2, "time_elapsed": 38267, "internal_node_id": "0.0-2.0-0.0"}}, {"uniqueid": "w75394346:a50054570", "current_trial": 3, "dateTime": 1691142937685, "trialdata": {"view_history": [{"page_index": 0, "viewing_time": 265723}, {"page_index": 1, "viewing_time": 148782}, {"page_index": 2, "viewing_time": 112660}, {"page_index": 3, "viewing_time": 88313}], "rt": 615478, "trial_id": "mouselab_instructions_1_misaligned", "trial_type": "instructions", "trial_index": 3, "time_elapsed": 653773, "internal_node_id": "0.0-2.0-1.0"}}, {"uniqueid": "w75394346:a50054570", "current_trial": 4, "dateTime": 1691143029643, "trialdata": {"revealed_states": [], "clicked_states": ["23", "24", "25", "30", "32", "12", "13", "14", "15", "16", "1", "2", "3", "8", "11"], "num_clicks_accrued": [0, 0, 0, 0, 0, 0, 0, 0, 0, 0, 0, 0, 0], "stateRewards": ["", -10, 10, 10, -10, 10, 10, -10, -10, 10, 10, 10, 10, -10, -10, 10, 10, 10, 10, -10, 10, -10, 10, 10, -10, -10, -10, 10, -10, -10, 10, -10, 10, -10], "withholdReward": false, "trial_id": "practice_1", "block": "test", "trialIndex": 0, "score": -14, "costs": -7.5, "simulationMode": [null, null, null, null, null], "rewards": [10, -10, -10, -10, 10], "path": ["0", "0", "12", "13", "14", "19", "20"], "rt": [59565, 4869, 4051, 1167, 731], "actions": ["right", "right", "right", "down", "right"], "actionTimes": [68761, 74174, 78774, 80470, 81734], "queries": {"click": {"state": {"target": ["23", "24", "25", "30", "32", "12", "13", "14", "15", "16", "1", "2", "3", "8", "11"], "time": [12920, 17625, 19547, 21252, 23925, 29269, 31543, 33330, 34721, 39512, 45763, 47268, 48834, 50942, 52216]}, "edge": {"target": [], "time": []}}, "mouseover": {"state": {"target": ["23", "12", "24", "25", "30", "32", "31", "23", "12", "13", "14", "15", "16", "17", "7", "2", "24", "1", "2", "3", "4", "8", "11", "10", "1", "1", "1", "1", "2", "2", "2", "1", "0", "12"], "time": [10658, 15079, 17047, 18555, 20258, 21856, 26371, 26453, 26802, 30032, 32337, 33898, 38747, 41144, 43461, 43503, 44296, 44709, 46447, 47818, 49456, 50213, 51590, 53808, 54186, 55187, 58736, 60266, 60336, 61077, 62014, 62189, 62950, 64071]}, "edge": {"target": [], "time": []}}, "mouseout": {"state": {"target": ["13", "14", "19", "21", "22", "12", "0", "23", "12", "24", "25", "25", "30", "32", "31", "23", "12", "13", "14", "15", "15", "16", "17", "16", "7", "2", "24", "1", "2", "3", "4", "3", "8", "8", "11", "10", "1", "1", "1", "1", "2", "2", "2", "1", "0", "12", "12", "12"], "time": [1575, 1618, 1809, 7075, 7197, 7446, 8007, 14668, 16839, 17653, 19590, 20212, 21785, 26288, 26400, 26729, 29276, 32215, 33367, 35415, 38274, 41025, 41528, 43414, 43477, 43535, 44576, 45797, 47748, 49414, 50132, 50187, 50965, 51453, 53776, 54124, 54227, 56291, 58758, 60292, 60538, 61190, 62042, 62889, 63149, 71656, 71768, 77866]}, "edge": {"target": [], "time": []}}}, "displayed_time": "82.27", "trialTime": 90957, "trial_type": "mouselab-mdp", "trial_index": 4, "time_elapsed": 745731, "internal_node_id": "0.0-2.0-2.0-0.0"}}, {"uniqueid": "w75394346:a50054570", "current_trial": 5, "dateTime": 1691143082087, "trialdata": {"revealed_states": [], "clicked_states": [], "num_clicks_accrued": [0, 0, 0, 0, 0, 0, 0, 0, 0, 0, 0, 0, 0], "stateRewards": ["", -10, 10, 10, 10, -10, -10, 10, 10, 10, 10, -10, 10, -10, -10, 10, 10, -10, 10, -10, -10, -10, -10, -10, -10, -10, -10, 10, -10, 10, 10, -10, -10, -10], "withholdReward": false, "trial_id": "practice_2", "block": "test", "trialIndex": 1, "score": 13.5, "costs": 0, "simulationMode": [null, null, null, null, null], "rewards": [-10, 10, 10, 10, -10], "path": ["0", "0", "1", "2", "3", "4", "6"], "rt": [9365, 9872, 11217, 1706, 1348], "actions": ["up", "up", "up", "right", "right"], "actionTimes": [17397, 27811, 39572, 41811, 43703], "queries": {"click": {"state": {"target": [], "time": []}, "edge": {"target": [], "time": []}}, "mouseover": {"state": {"target": ["0", "1"], "time": [14427, 14617]}, "edge": {"target": [], "time": []}}, "mouseout": {"state": {"target": ["13", "12", "0", "1", "2", "3", "2", "3"], "time": [5930, 6357, 14498, 35779, 35804, 36107, 36472, 158436]}, "edge": {"target": [], "time": []}}}, "displayed_time": "44.24", "trialTime": 51450, "trial_type": "mouselab-mdp", "trial_index": 5, "time_elapsed": 798175, "internal_node_id": "0.0-2.0-2.0-1.0"}}, {"uniqueid": "w75394346:a50054570", "current_trial": 6, "dateTime": 1691143228315, "trialdata": {"view_history": [{"page_index": 0, "viewing_time": 118735}, {"page_index": 1, "viewing_time": 27481}], "rt": 146216, "trial_id": "mouselab_instructions_2_misaligned", "trial_type": "instructions", "trial_index": 6, "time_elapsed": 944403, "internal_node_id": "0.0-2.0-3.0"}}, {"uniqueid": "w75394346:a50054570", "current_trial": 7, "dateTime": 1691143345187, "trialdata": {"rt": 116861, "response": {"Q0": "The cost for clicking on nodes may vary between nodes.", "Q1": "The better I perform the higher my bonus will be.", "Q2": "No, the amount of cash at each node of the web may be different each time.", "Q3": "To get the highest total score.", "Q4": "Only after moving the spider.", "Q5": "3 seconds"}, "question_order": [0, 1, 2, 3, 4, 5], "correct": {"Q0": "The cost for clicking on nodes may vary between nodes.", "Q1": "The better I perform the higher my bonus will be.", "Q2": "No, the amount of cash at each node of the web may be different each time.", "Q3": "To get the highest total score.", "Q4": "Only before moving the spider.", "Q5": "3 seconds"}, "trial_id": "mouselab_quiz_misaligned", "trial_type": "survey-multi-choice", "trial_index": 7, "time_elapsed": 1061275, "internal_node_id": "0.0-2.0-4.0"}}, {"uniqueid": "w75394346:a50054570", "current_trial": 8, "dateTime": 1691143369609, "trialdata": {"success": true, "trial_type": "fullscreen", "trial_index": 8, "time_elapsed": 1085696, "internal_node_id": "0.0-2.1-0.1"}}, {"uniqueid": "w75394346:a50054570", "current_trial": 9, "dateTime": 1691143753437, "trialdata": {"view_history": [{"page_index": 0, "viewing_time": 88812}, {"page_index": 1, "viewing_time": 171166}, {"page_index": 2, "viewing_time": 47009}, {"page_index": 3, "viewing_time": 76820}], "rt": 383808, "trial_id": "mouselab_instructions_1_misaligned", "trial_type": "instructions", "trial_index": 9, "time_elapsed": 1469525, "internal_node_id": "0.0-2.1-1.1"}}, {"uniqueid": "w75394346:a50054570", "current_trial": 10, "dateTime": 1691143787283, "trialdata": {"revealed_states": [], "clicked_states": [], "num_clicks_accrued": [0, 0, 0, 0, 0, 0, 0, 0, 0, 0, 0, 0, 0], "stateRewards": ["", -10, 10, 10, -10, 10, 10, -10, -10, 10, 10, 10, 10, -10, -10, 10, 10, 10, 10, -10, 10, -10, 10, 10, -10, -10, -10, 10, -10, -10, 10, -10, 10, -10], "withholdReward": false, "trial_id": "practice_1", "block": "test", "trialIndex": 2, "score": -6.5, "costs": 0, "simulationMode": [null, null, null, null, null], "rewards": [10, -10, -10, -10, 10], "path": ["0", "0", "12", "13", "14", "19", "20"], "rt": [6927, 4249, 9071, 944, 1045], "actions": ["right", "right", "right", "down", "right"], "actionTimes": [12494, 17287, 26893, 28383, 29965], "queries": {"click": {"state": {"target": [], "time": []}, "edge": {"target": [], "time": []}}, "mouseover": {"state": {"target": [], "time": []}, "edge": {"target": [], "time": []}}, "mouseout": {"state": {"target": ["13", "14", "22", "0", "0", "18", "13"], "time": [1558, 1987, 3542, 4070, 19349, 19682, 21724]}, "edge": {"target": [], "time": []}}}, "displayed_time": "30.50", "trialTime": 32985, "trial_type": "mouselab-mdp", "trial_index": 10, "time_elapsed": 1503371, "internal_node_id": "0.0-2.1-2.1-0.1"}}, {"uniqueid": "w75394346:a50054570", "current_trial": 11, "dateTime": 1691143816312, "trialdata": {"revealed_states": [], "clicked_states": [], "num_clicks_accrued": [0, 0, 0, 0, 0, 0, 0, 0, 0, 0, 0, 0, 0], "stateRewards": ["", -10, 10, 10, 10, -10, -10, 10, 10, 10, 10, -10, 10, -10, -10, 10, 10, -10, 10, -10, -10, -10, -10, -10, -10, -10, -10, 10, -10, 10, 10, -10, -10, -10], "withholdReward": false, "trial_id": "practice_2", "block": "test", "trialIndex": 3, "score": 33.5, "costs": 0, "simulationMode": [null, null, null, null, null], "rewards": [-10, 10, 10, 10, 10], "path": ["0", "0", "1", "2", "3", "8", "9"], "rt": [7176, 2089, 5309, 877, 834], "actions": ["up", "up", "up", "left", "up"], "actionTimes": [10950, 13579, 19433, 20835, 22206], "queries": {"click": {"state": {"target": [], "time": []}, "edge": {"target": [], "time": []}}, "mouseover": {"state": {"target": [], "time": []}, "edge": {"target": [], "time": []}}, "mouseout": {"state": {"target": ["14", "14", "18", "12", "0"], "time": [1116, 1136, 1349, 1515, 162690]}, "edge": {"target": [], "time": []}}}, "displayed_time": "22.74", "trialTime": 28165, "trial_type": "mouselab-mdp", "trial_index": 11, "time_elapsed": 1532400, "internal_node_id": "0.0-2.1-2.1-1.1"}}, {"uniqueid": "w75394346:a50054570", "current_trial": 12, "dateTime": 1691143956365, "trialdata": {"view_history": [{"page_index": 0, "viewing_time": 136496}, {"page_index": 1, "viewing_time": 3611}], "rt": 140107, "trial_id": "mouselab_instructions_2_misaligned", "trial_type": "instructions", "trial_index": 12, "time_elapsed": 1672453, "internal_node_id": "0.0-2.1-3.1"}}, {"uniqueid": "w75394346:a50054570", "current_trial": 13, "dateTime": 1691144049497, "trialdata": {"rt": 93123, "response": {"Q0": "The cost for clicking on nodes may vary between nodes.", "Q1": "The better I perform the higher my bonus will be.", "Q2": "No, the amount of cash at each node of the web may be different each time.", "Q3": "To get the highest total score.", "Q4": "Only before moving the spider.", "Q5": "3 seconds"}, "question_order": [0, 1, 2, 3, 4, 5], "correct": {"Q0": "The cost for clicking on nodes may vary between nodes.", "Q1": "The better I perform the higher my bonus will be.", "Q2": "No, the amount of cash at each node of the web may be different each time.", "Q3": "To get the highest total score.", "Q4": "Only before moving the spider.", "Q5": "3 seconds"}, "trial_id": "mouselab_quiz_misaligned", "trial_type": "survey-multi-choice", "trial_index": 13, "time_elapsed": 1765585, "internal_node_id": "0.0-2.1-4.1"}}, {"uniqueid": "w75394346:a50054570", "current_trial": 14, "dateTime": 1691144093792, "trialdata": {"rt": 44247, "stimulus": "\n<h1> Get ready to start the game! </h1>\n\nThank you for reading the instructions. Get ready start with the 40 rounds of this game.\n<br><br>\nIf you need to take a break, feel free to take one after the end of a round, before continuing to the next one.\n<br><br>\nRemember, the more money the spider gets, the bigger your bonus will be!\n<br><br>\n<div style='text-align: center;'>Press <code>space</code> to begin.</div>\n\n<br><br>\n(If, at any point, the <code>space</code> key does not take you to the next page, click once on the text and try again.)", "response": " ", "trial_id": "mdp_ready", "trial_type": "html-keyboard-response", "trial_index": 14, "time_elapsed": 1809880, "internal_node_id": "0.0-4.0-0.0"}}, {"uniqueid": "w75394346:a50054570", "current_trial": 15, "dateTime": 1691144133799, "trialdata": {"revealed_states": [], "clicked_states": [], "num_clicks_accrued": [0, 0, 0, 0, 0, 0, 0, 0, 0, 0, 0, 0, 0], "stateRewards": ["", 2, -4, 4, 9, 69, 9, -75, 12, -86, 66, 25, -1, 3, 2, -13, -88, -3, 1, 4, -69, 49, -84, 2, -1, 4, 2, -18, -81, -52, -15, -69, -54, 25], "withholdReward": false, "trial_id": "mdp_trial_1", "block": "test", "trialIndex": 4, "score": 39, "costs": 0, "simulationMode": [null, null, null, null, null], "rewards": [2, -4, 4, 12, 25], "path": ["0", "0", "1", "2", "3", "8", "11"], "rt": [8352, 8655, 920, 4086, 1041], "actions": ["up", "up", "up", "left", "left"], "actionTimes": [16893, 26094, 27556, 32157, 33744], "queries": {"click": {"state": {"target": [], "time": []}, "edge": {"target": [], "time": []}}, "mouseover": {"state": {"target": ["1"], "time": [15954]}, "edge": {"target": [], "time": []}}, "mouseout": {"state": {"target": ["0", "1", "2"], "time": [15578, 20202, 20415]}, "edge": {"target": [], "time": []}}}, "displayed_time": "34.29", "trialTime": 39144, "trial_type": "mouselab-mdp", "trial_index": 15, "time_elapsed": 1849887, "internal_node_id": "0.0-4.0-1.0-0.0"}}, {"uniqueid": "w75394346:a50054570", "current_trial": 16, "dateTime": 1691144162842, "trialdata": {"revealed_states": [], "clicked_states": [], "num_clicks_accrued": [0, 0, 0, 0, 0, 0, 0, 0, 0, 0, 0, 0, 0], "stateRewards": ["", -1, -2, -1, -10, -57, 73, -72, -16, 75, -14, -46, -2, -3, -7, -1, -61, -60, 76, -4, 50, 4, 14, 2, 2, -7, 12, -65, -32, 15, -8, -76, -25, -61], "withholdReward": false, "trial_id": "mdp_trial_2", "block": "test", "trialIndex": 5, "score": -66, "costs": 0, "simulationMode": [null, null, null, null, null], "rewards": [-1, -2, -1, -16, -46], "path": ["0", "0", "1", "2", "3", "8", "11"], "rt": [4944, 4146, 2599, 2128, 4384], "actions": ["up", "up", "up", "left", "left"], "actionTimes": [8171, 12851, 15985, 18650, 23571], "queries": {"click": {"state": {"target": [], "time": []}, "edge": {"target": [], "time": []}}, "mouseover": {"state": {"target": [], "time": []}, "edge": {"target": [], "time": []}}, "mouseout": {"state": {"target": ["2", "2", "1"], "time": [1695, 1758, 2020]}, "edge": {"target": [], "time": []}}}, "displayed_time": "24.09", "trialTime": 28172, "trial_type": "mouselab-mdp", "trial_index": 16, "time_elapsed": 1878930, "internal_node_id": "0.0-4.0-1.0-1.0"}}, {"uniqueid": "w75394346:a50054570", "current_trial": 17, "dateTime": 1691144195279, "trialdata": {"revealed_states": [], "clicked_states": [], "num_clicks_accrued": [0, 0, 0, 0, 0, 0, 0, 0, 0, 0, 0, 0, 0], "stateRewards": ["", -2, -4, 4, -11, -63, -60, -7, 2, -14, 81, -43, -1, -1, -5, 7, 10, 69, 40, 8, -83, 52, 60, 1, 2, 5, -5, 16, 64, 14, -3, 29, 7, -51], "withholdReward": false, "trial_id": "mdp_trial_3", "block": "test", "trialIndex": 6, "score": 81, "costs": 0, "simulationMode": [null, null, null, null, null], "rewards": [-2, -4, 4, 2, 81], "path": ["0", "0", "1", "2", "3", "8", "10"], "rt": [10055, 7181, 3504, 625, 632], "actions": ["up", "up", "up", "left", "down"], "actionTimes": [12505, 20213, 24250, 25422, 26594], "queries": {"click": {"state": {"target": [], "time": []}, "edge": {"target": [], "time": []}}, "mouseover": {"state": {"target": ["4", "5", "4", "6", "7", "2", "1"], "time": [5115, 5640, 7598, 7979, 9011, 9209, 9281]}, "edge": {"target": [], "time": []}}, "mouseout": {"state": {"target": ["0", "0", "4", "5", "4", "6", "7", "2", "1", "1"], "time": [987, 4563, 5201, 7502, 7923, 8828, 9041, 9224, 9726, 14833]}, "edge": {"target": [], "time": []}}}, "displayed_time": "27.13", "trialTime": 31567, "trial_type": "mouselab-mdp", "trial_index": 17, "time_elapsed": 1911367, "internal_node_id": "0.0-4.0-1.0-2.0"}}, {"uniqueid": "w75394346:a50054570", "current_trial": 18, "dateTime": 1691144221881, "trialdata": {"revealed_states": [], "clicked_states": [], "num_clicks_accrued": [0, 0, 0, 0, 0, 0, 0, 0, 0, 0, 0, 0, 0], "stateRewards": ["", 2, -1, 4, -9, -43, 7, 54, -13, 38, -40, -83, -1, 2, -8, -10, 34, -33, 11, -14, -79, 65, 26, 1, 2, 4, 10, 21, 1, 86, 4, -53, 28, -29], "withholdReward": false, "trial_id": "mdp_trial_4", "block": "test", "trialIndex": 7, "score": -47, "costs": 0, "simulationMode": [null, null, null, null, null], "rewards": [2, -1, 4, -9, -43], "path": ["0", "0", "1", "2", "3", "4", "5"], "rt": [1452, 966, 856, 9641, 4016], "actions": ["up", "up", "up", "right", "up"], "actionTimes": [4377, 5858, 7263, 17436, 21990], "queries": {"click": {"state": {"target": [], "time": []}, "edge": {"target": [], "time": []}}, "mouseover": {"state": {"target": [], "time": []}, "edge": {"target": [], "time": []}}, "mouseout": {"state": {"target": ["2", "2", "1"], "time": [1509, 1765, 1836]}, "edge": {"target": [], "time": []}}}, "displayed_time": "22.52", "trialTime": 25713, "trial_type": "mouselab-mdp", "trial_index": 18, "time_elapsed": 1937969, "internal_node_id": "0.0-4.0-1.0-3.0"}}, {"uniqueid": "w75394346:a50054570", "current_trial": 19, "dateTime": 1691144249583, "trialdata": {"revealed_states": [], "clicked_states": [], "num_clicks_accrued": [0, 0, 0, 0, 0, 0, 0, 0, 0, 0, 0, 0, 0], "stateRewards": ["", -2, 3, 3, -14, 62, 36, 49, 16, 11, 17, -84, 2, -1, 6, 2, -82, -73, 49, -6, -87, 48, 50, -1, -2, -1, -16, -11, 37, -44, 4, 55, 73, -10], "withholdReward": false, "trial_id": "mdp_trial_5", "block": "test", "trialIndex": 8, "score": 26, "costs": 0, "simulationMode": [null, null, null, null, null], "rewards": [-2, 3, 3, -14, 36], "path": ["0", "0", "1", "2", "3", "4", "6"], "rt": [3685, 3277, 1555, 3808, 5725], "actions": ["up", "up", "up", "right", "right"], "actionTimes": [6222, 10015, 12111, 16463, 22730], "queries": {"click": {"state": {"target": [], "time": []}, "edge": {"target": [], "time": []}}, "mouseover": {"state": {"target": [], "time": []}, "edge": {"target": [], "time": []}}, "mouseout": {"state": {"target": ["0"], "time": [1076]}, "edge": {"target": [], "time": []}}}, "displayed_time": "23.27", "trialTime": 26812, "trial_type": "mouselab-mdp", "trial_index": 19, "time_elapsed": 1965671, "internal_node_id": "0.0-4.0-1.0-4.0"}}, {"uniqueid": "w75394346:a50054570", "current_trial": 20, "dateTime": 1691144282822, "trialdata": {"revealed_states": [], "clicked_states": [], "num_clicks_accrued": [0, 0, 0, 0, 0, 0, 0, 0, 0, 0, 0, 0, 0], "stateRewards": ["", 2, 4, -3, 16, -58, 30, -35, 11, -60, 47, 27, -2, -1, -7, -16, 23, -70, 68, -10, -65, -43, -34, -2, 1, 7, 9, -63, 34, -31, -8, -12, -86, 59], "withholdReward": false, "trial_id": "mdp_trial_6", "block": "test", "trialIndex": 9, "score": -16, "costs": 0, "simulationMode": [null, null, null, null, null], "rewards": [2, 4, -3, 16, -35], "path": ["0", "0", "1", "2", "3", "4", "7"], "rt": [4710, 3901, 3063, 3017, 4981], "actions": ["up", "up", "up", "right", "down"], "actionTimes": [7456, 11895, 15491, 19045, 24556], "queries": {"click": {"state": {"target": [], "time": []}, "edge": {"target": [], "time": []}}, "mouseover": {"state": {"target": [], "time": []}, "edge": {"target": [], "time": []}}, "mouseout": {"state": {"target": ["0", "0", "0"], "time": [1304, 1330, 1527]}, "edge": {"target": [], "time": []}}}, "displayed_time": "25.09", "trialTime": 32324, "trial_type": "mouselab-mdp", "trial_index": 20, "time_elapsed": 1998910, "internal_node_id": "0.0-4.0-1.0-5.0"}}, {"uniqueid": "w75394346:a50054570", "current_trial": 21, "dateTime": 1691144315367, "trialdata": {"revealed_states": [], "clicked_states": [], "num_clicks_accrued": [0, 0, 0, 0, 0, 0, 0, 0, 0, 0, 0, 0, 0], "stateRewards": ["", -1, 3, -4, -14, 78, 67, 2, 13, -32, 28, 39, -2, 1, -4, -4, -4, -42, -86, 11, 64, -29, -32, -1, -4, 2, -7, 5, 68, -61, 2, -21, 85, 50], "withholdReward": false, "trial_id": "mdp_trial_7", "block": "test", "trialIndex": 10, "score": 58, "costs": 0, "simulationMode": [null, null, null, null, null], "rewards": [-1, -4, 2, -7, 68], "path": ["0", "0", "23", "24", "25", "26", "28"], "rt": [8381, 2833, 1745, 5236, 3017], "actions": ["left", "left", "left", "up", "right"], "actionTimes": [11128, 14497, 16758, 22530, 26062], "queries": {"click": {"state": {"target": [], "time": []}, "edge": {"target": [], "time": []}}, "mouseover": {"state": {"target": [], "time": []}, "edge": {"target": [], "time": []}}, "mouseout": {"state": {"target": ["0"], "time": [1009]}, "edge": {"target": [], "time": []}}}, "displayed_time": "26.59", "trialTime": 31670, "trial_type": "mouselab-mdp", "trial_index": 21, "time_elapsed": 2031455, "internal_node_id": "0.0-4.0-1.0-6.0"}}, {"uniqueid": "w75394346:a50054570", "current_trial": 22, "dateTime": 1691144344543, "trialdata": {"revealed_states": [], "clicked_states": [], "num_clicks_accrued": [0, 0, 0, 0, 0, 0, 0, 0, 0, 0, 0, 0, 0], "stateRewards": ["", 1, 4, 5, -5, 58, -80, 75, 6, 25, -39, 46, 2, -2, 4, 2, 59, 31, -22, -12, -61, 15, 72, 1, -2, -7, 8, 77, 76, -23, -7, 71, -15, -3], "withholdReward": false, "trial_id": "mdp_trial_8", "block": "test", "trialIndex": 11, "score": 77, "costs": 0, "simulationMode": [null, null, null, null, null], "rewards": [1, -2, -7, 8, 77], "path": ["0", "0", "23", "24", "25", "26", "27"], "rt": [3633, 2778, 2162, 8566, 2838], "actions": ["left", "left", "left", "up", "up"], "actionTimes": [5793, 9109, 11793, 20898, 24270], "queries": {"click": {"state": {"target": [], "time": []}, "edge": {"target": [], "time": []}}, "mouseover": {"state": {"target": [], "time": []}, "edge": {"target": [], "time": []}}, "mouseout": {"state": {"target": ["0", "0", "1", "2", "1", "28"], "time": [1078, 16651, 16713, 16855, 16930, 17095]}, "edge": {"target": [], "time": []}}}, "displayed_time": "24.82", "trialTime": 28151, "trial_type": "mouselab-mdp", "trial_index": 22, "time_elapsed": 2060631, "internal_node_id": "0.0-4.0-1.0-7.0"}}, {"uniqueid": "w75394346:a50054570", "current_trial": 23, "dateTime": 1691144376866, "trialdata": {"revealed_states": [], "clicked_states": [], "num_clicks_accrued": [0, 0, 0, 0, 0, 0, 0, 0, 0, 0, 0, 0, 0], "stateRewards": ["", 1, -2, 7, -14, 88, -56, -44, -14, 64, -51, -57, -2, 3, -4, -9, -11, 19, -77, -1, 68, 75, -67, -1, 1, -2, 5, -37, 70, -34, -10, -72, 63, -41], "withholdReward": false, "trial_id": "mdp_trial_9", "block": "test", "trialIndex": 12, "score": -31, "costs": 0, "simulationMode": [null, null, null, null, null], "rewards": [-1, 1, -2, 5, -34], "path": ["0", "0", "23", "24", "25", "26", "29"], "rt": [3179, 3996, 2408, 6556, 3331], "actions": ["left", "left", "left", "up", "left"], "actionTimes": [6092, 10602, 13547, 20644, 24519], "queries": {"click": {"state": {"target": [], "time": []}, "edge": {"target": [], "time": []}}, "mouseover": {"state": {"target": [], "time": []}, "edge": {"target": [], "time": []}}, "mouseout": {"state": {"target": ["26", "26", "26", "28"], "time": [1072, 1115, 1354, 1456]}, "edge": {"target": [], "time": []}}}, "displayed_time": "25.05", "trialTime": 31445, "trial_type": "mouselab-mdp", "trial_index": 23, "time_elapsed": 2092954, "internal_node_id": "0.0-4.0-1.0-8.0"}}, {"uniqueid": "w75394346:a50054570", "current_trial": 24, "dateTime": 1691144409095, "trialdata": {"revealed_states": [], "clicked_states": [], "num_clicks_accrued": [0, 0, 0, 0, 0, 0, 0, 0, 0, 0, 0, 0, 0], "stateRewards": ["", 2, 3, 3, 10, 19, -21, 6, 9, 54, 68, 16, 2, 2, -6, -8, 40, -2, -75, -2, -42, 55, 59, -1, 2, 4, -14, 11, -34, -30, -6, 61, -53, 13], "withholdReward": false, "trial_id": "mdp_trial_10", "block": "test", "trialIndex": 13, "score": 12, "costs": 0, "simulationMode": [null, null, null, null, null], "rewards": [-1, 2, 4, -6, 13], "path": ["0", "0", "23", "24", "25", "30", "33"], "rt": [8696, 6058, 3645, 3283, 1406], "actions": ["left", "left", "left", "down", "left"], "actionTimes": [11012, 17606, 21790, 25612, 27554], "queries": {"click": {"state": {"target": [], "time": []}, "edge": {"target": [], "time": []}}, "mouseover": {"state": {"target": [], "time": []}, "edge": {"target": [], "time": []}}, "mouseout": {"state": {"target": ["0", "0", "1", "1", "0", "23", "24"], "time": [837, 12671, 12700, 13059, 15490, 16242, 18361]}, "edge": {"target": [], "time": []}}}, "displayed_time": "28.10", "trialTime": 31381, "trial_type": "mouselab-mdp", "trial_index": 24, "time_elapsed": 2125183, "internal_node_id": "0.0-4.0-1.0-9.0"}}, {"uniqueid": "w75394346:a50054570", "current_trial": 25, "dateTime": 1691144434794, "trialdata": {"revealed_states": [], "clicked_states": [], "num_clicks_accrued": [0, 0, 0, 0, 0, 0, 0, 0, 0, 0, 0, 0, 0], "stateRewards": ["", -2, -3, 7, -13, 60, 9, 37, -6, 37, 20, 1, 2, -2, -8, 6, -80, -31, -10, -7, 70, -65, -44, -1, 1, 7, 6, -11, 73, -85, 16, -21, 47, 34], "withholdReward": false, "trial_id": "mdp_trial_11", "block": "test", "trialIndex": 14, "score": 70, "costs": 0, "simulationMode": [null, null, null, null, null], "rewards": [-1, 1, 7, 16, 47], "path": ["0", "0", "23", "24", "25", "30", "32"], "rt": [3254, 2866, 1625, 2497, 7145], "actions": ["left", "left", "left", "down", "down"], "actionTimes": [5387, 8793, 10933, 13974, 21656], "queries": {"click": {"state": {"target": [], "time": []}, "edge": {"target": [], "time": []}}, "mouseover": {"state": {"target": [], "time": []}, "edge": {"target": [], "time": []}}, "mouseout": {"state": {"target": ["25", "25", "28"], "time": [863, 884, 963]}, "edge": {"target": [], "time": []}}}, "displayed_time": "22.19", "trialTime": 24842, "trial_type": "mouselab-mdp", "trial_index": 25, "time_elapsed": 2150881, "internal_node_id": "0.0-4.0-1.0-10.0"}}, {"uniqueid": "w75394346:a50054570", "current_trial": 26, "dateTime": 1691144477339, "trialdata": {"revealed_states": [], "clicked_states": [], "num_clicks_accrued": [0, 0, 0, 0, 0, 0, 0, 0, 0, 0, 0, 0, 0], "stateRewards": ["", 2, -3, -8, 14, -7, -51, 73, 2, 36, 36, -43, -1, 3, -4, 1, 6, 87, -65, 15, 61, -42, -83, -1, 3, -2, -7, 30, -48, 35, 13, 26, 60, 78], "withholdReward": false, "trial_id": "mdp_trial_12", "block": "test", "trialIndex": 15, "score": 39, "costs": 0, "simulationMode": [null, null, null, null, null], "rewards": [-1, 3, -2, 13, 26], "path": ["0", "0", "23", "24", "25", "30", "31"], "rt": [12887, 2697, 1716, 6053, 8512], "actions": ["left", "left", "left", "down", "right"], "actionTimes": [16440, 19675, 21926, 28514, 37572], "queries": {"click": {"state": {"target": [], "time": []}, "edge": {"target": [], "time": []}}, "mouseover": {"state": {"target": [], "time": []}, "edge": {"target": [], "time": []}}, "mouseout": {"state": {"target": ["7", "4", "1", "0", "0"], "time": [1727, 1886, 1957, 2028, 40421]}, "edge": {"target": [], "time": []}}}, "displayed_time": "38.11", "trialTime": 41673, "trial_type": "mouselab-mdp", "trial_index": 26, "time_elapsed": 2193427, "internal_node_id": "0.0-4.0-1.0-11.0"}}, {"uniqueid": "w75394346:a50054570", "current_trial": 27, "dateTime": 1691144511952, "trialdata": {"revealed_states": [], "clicked_states": [], "num_clicks_accrued": [0, 0, 0, 0, 0, 0, 0, 0, 0, 0, 0, 0, 0], "stateRewards": ["", -1, 3, 8, 10, -86, 61, -36, 10, 17, -60, 24, -1, -3, 3, 11, 50, 60, 33, -3, -20, 58, -6, 1, -4, -4, 13, -70, -71, 43, 14, 52, 82, -11], "withholdReward": false, "trial_id": "mdp_trial_13", "block": "test", "trialIndex": 16, "score": 43, "costs": 0, "simulationMode": [null, null, null, null, null], "rewards": [-1, -3, 3, 11, 33], "path": ["0", "0", "12", "13", "14", "15", "18"], "rt": [6012, 5902, 3650, 3266, 5662], "actions": ["right", "right", "right", "up", "left"], "actionTimes": [8148, 14582, 18760, 22565, 28761], "queries": {"click": {"state": {"target": [], "time": []}, "edge": {"target": [], "time": []}}, "mouseover": {"state": {"target": [], "time": []}, "edge": {"target": [], "time": []}}, "mouseout": {"state": {"target": ["0"], "time": [1310]}, "edge": {"target": [], "time": []}}}, "displayed_time": "29.30", "trialTime": 33706, "trial_type": "mouselab-mdp", "trial_index": 27, "time_elapsed": 2228040, "internal_node_id": "0.0-4.0-1.0-12.0"}}, {"uniqueid": "w75394346:a50054570", "current_trial": 28, "dateTime": 1691144539883, "trialdata": {"revealed_states": [], "clicked_states": ["12"], "num_clicks_accrued": [0, 0, 0, 0, 0, 0, 0, 0, 0, 0, 0, 0, 0], "stateRewards": ["", 2, -3, -2, 14, -4, 85, 46, 15, -28, 41, 31, -1, -1, -1, 5, 62, 79, 57, 12, -73, -64, 86, -1, 1, -3, -5, 68, 11, -32, 8, -80, -21, -56], "withholdReward": false, "trial_id": "mdp_trial_14", "block": "test", "trialIndex": 17, "score": 64.25, "costs": 0.25, "simulationMode": [null, null, null, null, null], "rewards": [-1, -1, -1, 5, 62], "path": ["0", "0", "12", "13", "14", "15", "16"], "rt": [5592, 2902, 2700, 4693, 871], "actions": ["right", "right", "right", "up", "up"], "actionTimes": [7531, 10976, 14209, 19434, 20845], "queries": {"click": {"state": {"target": ["12"], "time": [4594]}, "edge": {"target": [], "time": []}}, "mouseover": {"state": {"target": ["12"], "time": [4357]}, "edge": {"target": [], "time": []}}, "mouseout": {"state": {"target": ["0", "23", "0", "12", "18", "13"], "time": [481, 737, 4310, 8355, 8766, 11631]}, "edge": {"target": [], "time": []}}}, "displayed_time": "21.39", "trialTime": 27046, "trial_type": "mouselab-mdp", "trial_index": 28, "time_elapsed": 2255971, "internal_node_id": "0.0-4.0-1.0-13.0"}}, {"uniqueid": "w75394346:a50054570", "current_trial": 29, "dateTime": 1691144569588, "trialdata": {"revealed_states": [], "clicked_states": ["13"], "num_clicks_accrued": [0, 0, 0, 0, 0, 0, 0, 0, 0, 0, 0, 0, 0], "stateRewards": ["", -1, -3, 1, -4, -48, -63, -49, -2, -84, -19, 65, 2, -2, -2, -12, -4, 59, 9, 6, 75, 69, -13, -1, -3, -3, -2, -37, -68, -36, 13, 32, 18, -14], "withholdReward": false, "trial_id": "mdp_trial_15", "block": "test", "trialIndex": 18, "score": 44.65, "costs": -0.35, "simulationMode": [null, null, null, null, null], "rewards": [2, -2, -2, -12, 59], "path": ["0", "0", "12", "13", "14", "15", "17"], "rt": [3057, 986, 763, 1828, 1344], "actions": ["right", "right", "right", "up", "right"], "actionTimes": [9357, 10881, 12187, 14552, 16421], "queries": {"click": {"state": {"target": ["13"], "time": [7324]}, "edge": {"target": [], "time": []}}, "mouseover": {"state": {"target": ["12", "13"], "time": [6748, 7112]}, "edge": {"target": [], "time": []}}, "mouseout": {"state": {"target": ["14", "14", "13", "12", "0", "12", "13", "12"], "time": [620, 657, 918, 997, 6657, 6828, 21314, 21373]}, "edge": {"target": [], "time": []}}}, "displayed_time": "20.32", "trialTime": 28805, "trial_type": "mouselab-mdp", "trial_index": 29, "time_elapsed": 2285676, "internal_node_id": "0.0-4.0-1.0-14.0"}}, {"uniqueid": "w75394346:a50054570", "current_trial": 30, "dateTime": 1691144592316, "trialdata": {"revealed_states": [], "clicked_states": ["14", "19", "21"], "num_clicks_accrued": [0, 0, 0, 0, 0, 0, 0, 0, 0, 0, 0, 0, 0], "stateRewards": ["", -2, -1, 3, -3, 71, -58, -21, 7, -10, -75, -37, 2, 4, -1, -12, -79, -29, -48, 3, -41, -10, -30, -1, -2, 1, -15, 13, 66, 22, -1, -42, -86, -55], "withholdReward": false, "trial_id": "mdp_trial_16", "block": "test", "trialIndex": 19, "score": -37.65, "costs": -4.65, "simulationMode": [null, null, null, null, null], "rewards": [2, 4, -1, 3, -41], "path": ["0", "0", "12", "13", "14", "19", "20"], "rt": [8132, 1196, 1401, 1375, 2233], "actions": ["right", "right", "right", "down", "right"], "actionTimes": [9995, 11715, 13638, 15548, 18318], "queries": {"click": {"state": {"target": ["14", "19", "21"], "time": [2888, 4728, 5816]}, "edge": {"target": [], "time": []}}, "mouseover": {"state": {"target": ["13", "14", "13", "12", "22", "19", "21", "22", "20", "12"], "time": [2196, 2458, 3474, 3603, 4173, 4235, 5635, 6541, 7723, 8460]}, "edge": {"target": [], "time": []}}, "mouseout": {"state": {"target": ["0", "0", "12", "0", "13", "14", "13", "12", "22", "19", "19", "21", "22", "19", "19", "20", "12", "13"], "time": [409, 442, 727, 933, 2384, 3451, 3538, 4110, 4189, 4830, 5398, 5918, 7286, 7331, 7633, 8363, 16516, 16881]}, "edge": {"target": [], "time": []}}}, "displayed_time": "18.85", "trialTime": 21841, "trial_type": "mouselab-mdp", "trial_index": 30, "time_elapsed": 2308404, "internal_node_id": "0.0-4.0-1.0-15.0"}}, {"uniqueid": "w75394346:a50054570", "current_trial": 31, "dateTime": 1691144633897, "trialdata": {"revealed_states": [], "clicked_states": ["21"], "num_clicks_accrued": [0, 0, 0, 0, 0, 0, 0, 0, 0, 0, 0, 0, 0], "stateRewards": ["", -2, -1, -4, -15, -14, -67, 32, -3, -59, 63, 31, 2, -1, -7, -15, 71, -66, -27, -3, -54, -39, 72, 2, 1, 1, -13, 77, -40, 35, -9, 35, 75, 57], "withholdReward": false, "trial_id": "mdp_trial_17", "block": "test", "trialIndex": 20, "score": 60.85, "costs": -2.15, "simulationMode": [null, null, null, null, null, null], "rewards": [2, -1, -7, -3, 72], "path": ["0", "0", "12", "13", "14", "19", "22"], "rt": [3176, 943, 1086, 915, 595, 14373], "actions": ["right", "right", "right", "right", "down", "left"], "actionTimes": [6999, 7946, 9565, 11010, 12139, 27053], "queries": {"click": {"state": {"target": ["21"], "time": [4957]}, "edge": {"target": [], "time": []}}, "mouseover": {"state": {"target": ["12", "21", "21", "12"], "time": [4266, 4325, 4785, 5934]}, "edge": {"target": [], "time": []}}, "mouseout": {"state": {"target": ["20", "20", "14", "12", "0", "12", "21", "21", "12", "1", "1"], "time": [670, 689, 757, 1122, 4231, 4286, 4347, 5465, 36911, 36975, 37388]}, "edge": {"target": [], "time": []}}}, "displayed_time": "27.60", "trialTime": 40699, "trial_type": "mouselab-mdp", "trial_index": 31, "time_elapsed": 2349985, "internal_node_id": "0.0-4.0-1.0-16.0"}}, {"uniqueid": "w75394346:a50054570", "current_trial": 32, "dateTime": 1691144655657, "trialdata": {"revealed_states": [], "clicked_states": ["24", "28"], "num_clicks_accrued": [0, 0, 0, 0, 0, 0, 0, 0, 0, 0, 0, 0, 0], "stateRewards": ["", 1, 1, 5, 6, -29, -7, 3, -16, 9, -46, 65, -1, 4, -1, -16, -63, -77, -87, 8, 80, -50, 43, -1, -1, -5, 5, -38, -71, -62, 9, 81, -50, -52], "withholdReward": false, "trial_id": "mdp_trial_18", "block": "test", "trialIndex": 21, "score": 80.5, "costs": -2.5, "simulationMode": [null, null, null, null, null], "rewards": [-1, -1, -5, 9, 81], "path": ["0", "0", "23", "24", "25", "30", "31"], "rt": [5477, 2965, 1526, 1581, 1407], "actions": ["left", "left", "left", "down", "right"], "actionTimes": [7822, 11320, 13381, 15485, 17424], "queries": {"click": {"state": {"target": ["24", "28"], "time": [3182, 4603]}, "edge": {"target": [], "time": []}}, "mouseover": {"state": {"target": ["23", "24", "28", "26", "27", "23"], "time": [2768, 2824, 4151, 5336, 5469, 7018]}, "edge": {"target": [], "time": []}}, "mouseout": {"state": {"target": ["0", "0", "0", "0", "23", "24", "28", "26", "27", "23", "24"], "time": [794, 878, 1093, 2740, 2796, 3999, 4679, 5382, 6604, 8682, 9094]}, "edge": {"target": [], "time": []}}}, "displayed_time": "17.95", "trialTime": 20867, "trial_type": "mouselab-mdp", "trial_index": 32, "time_elapsed": 2371745, "internal_node_id": "0.0-4.0-1.0-17.0"}}, {"uniqueid": "w75394346:a50054570", "current_trial": 33, "dateTime": 1691144680212, "trialdata": {"revealed_states": [], "clicked_states": ["27"], "num_clicks_accrued": [0, 0, 0, 0, 0, 0, 0, 0, 0, 0, 0, 0, 0], "stateRewards": ["", 1, -1, 4, 5, -32, 18, 20, 6, -88, -74, 9, -2, 1, -2, -14, 34, -77, -38, -1, 80, -36, 73, 2, 3, -8, 10, -48, -73, -71, -11, -22, 20, 54], "withholdReward": false, "trial_id": "mdp_trial_19", "block": "test", "trialIndex": 22, "score": -66.15, "costs": -2.15, "simulationMode": [null, null, null, null, null], "rewards": [2, 3, -8, 10, -71], "path": ["0", "0", "23", "24", "25", "26", "29"], "rt": [4066, 1297, 2971, 2268, 3134], "actions": ["left", "left", "left", "up", "left"], "actionTimes": [8648, 10458, 13967, 16775, 20446], "queries": {"click": {"state": {"target": ["27"], "time": [5667]}, "edge": {"target": [], "time": []}}, "mouseover": {"state": {"target": ["23", "26", "27"], "time": [5027, 5098, 5388]}, "edge": {"target": [], "time": []}}, "mouseout": {"state": {"target": ["25", "25", "28", "23", "26", "27", "27", "29"], "time": [656, 681, 967, 5050, 5194, 5789, 11780, 14549]}, "edge": {"target": [], "time": []}}}, "displayed_time": "20.98", "trialTime": 23496, "trial_type": "mouselab-mdp", "trial_index": 33, "time_elapsed": 2396300, "internal_node_id": "0.0-4.0-1.0-18.0"}}, {"uniqueid": "w75394346:a50054570", "current_trial": 34, "dateTime": 1691144707048, "trialdata": {"revealed_states": [], "clicked_states": ["28"], "num_clicks_accrued": [0, 0, 0, 0, 0, 0, 0, 0, 0, 0, 0, 0, 0], "stateRewards": ["", -2, -4, -2, -13, -15, 87, -19, -6, -80, 30, 12, 1, 1, -8, 2, 55, 56, 15, 11, -68, -7, 55, -2, 3, -3, -3, 48, 62, 4, 1, -3, 69, -33], "withholdReward": false, "trial_id": "mdp_trial_20", "block": "test", "trialIndex": 23, "score": 54.85, "costs": -2.15, "simulationMode": [null, null, null, null, null], "rewards": [-2, 3, -3, -3, 62], "path": ["0", "0", "23", "24", "25", "26", "28"], "rt": [4413, 1836, 953, 3079, 6066], "actions": ["left", "left", "left", "up", "right"], "actionTimes": [7491, 9857, 11342, 14966, 21569], "queries": {"click": {"state": {"target": ["28"], "time": [4007]}, "edge": {"target": [], "time": []}}, "mouseover": {"state": {"target": ["23", "28", "24", "30"], "time": [3504, 3822, 6502, 6728]}, "edge": {"target": [], "time": []}}, "mouseout": {"state": {"target": ["26", "26", "0", "23", "28", "24", "30", "33", "28"], "time": [29, 60, 895, 3536, 6284, 6527, 7955, 8290, 8632]}, "edge": {"target": [], "time": []}}}, "displayed_time": "22.11", "trialTime": 25709, "trial_type": "mouselab-mdp", "trial_index": 34, "time_elapsed": 2423136, "internal_node_id": "0.0-4.0-1.0-19.0"}}, {"uniqueid": "w75394346:a50054570", "current_trial": 35, "dateTime": 1691144733769, "trialdata": {"revealed_states": [], "clicked_states": ["10", "11"], "num_clicks_accrued": [0, 0, 0, 0, 0, 0, 0, 0, 0, 0, 0, 0, 0], "stateRewards": ["", 2, 4, 4, 9, -88, -10, 44, 16, -54, 64, 78, 1, 2, 5, 16, 80, 36, 7, -4, 9, -47, -70, -1, -3, 6, -16, 11, 80, 28, 8, -1, 34, -17], "withholdReward": false, "trial_id": "mdp_trial_21", "block": "test", "trialIndex": 24, "score": 99.7, "costs": -4.3, "simulationMode": [null, null, null, null, null], "rewards": [2, 4, 4, 16, 78], "path": ["0", "0", "1", "2", "3", "8", "11"], "rt": [10497, 1431, 1577, 1223, 1233], "actions": ["up", "up", "up", "left", "left"], "actionTimes": [12493, 14459, 16571, 18334, 20111], "queries": {"click": {"state": {"target": ["10", "11"], "time": [3689, 6747]}, "edge": {"target": [], "time": []}}, "mouseover": {"state": {"target": ["10", "28", "8", "10", "8", "11", "8", "8", "11", "2", "2", "1", "1"], "time": [2047, 2586, 2968, 3165, 4936, 5032, 6082, 6262, 6326, 7389, 7747, 7826, 11771]}, "edge": {"target": [], "time": []}}, "mouseout": {"state": {"target": ["28", "28", "10", "28", "8", "10", "8", "11", "8", "8", "11", "2", "2", "1"], "time": [417, 481, 2287, 2849, 3089, 4724, 4975, 6040, 6127, 6286, 7064, 7429, 7763, 7868]}, "edge": {"target": [], "time": []}}}, "displayed_time": "20.64", "trialTime": 25835, "trial_type": "mouselab-mdp", "trial_index": 35, "time_elapsed": 2449856, "internal_node_id": "0.0-4.0-1.0-20.0"}}, {"uniqueid": "w75394346:a50054570", "current_trial": 36, "dateTime": 1691144762895, "trialdata": {"revealed_states": [], "clicked_states": ["9", "5"], "num_clicks_accrued": [0, 0, 0, 0, 0, 0, 0, 0, 0, 0, 0, 0, 0], "stateRewards": ["", 2, -2, 7, -11, -76, -65, -23, 16, -58, 30, 81, 1, 2, 7, 14, 9, 55, -2, 6, 11, -15, 31, -1, -1, -3, 2, 15, 2, 46, 15, 18, 45, -34], "withholdReward": false, "trial_id": "mdp_trial_22", "block": "test", "trialIndex": 25, "score": -31.3, "costs": -4.3, "simulationMode": [null, null, null, null, null], "rewards": [2, -2, 7, -11, -23], "path": ["0", "0", "1", "2", "3", "4", "7"], "rt": [11157, 1390, 5019, 1033, 1887], "actions": ["up", "up", "up", "right", "down"], "actionTimes": [13398, 15330, 20895, 22475, 24879], "queries": {"click": {"state": {"target": ["9", "5"], "time": [4007, 7129]}, "edge": {"target": [], "time": []}}, "mouseover": {"state": {"target": ["1", "8", "9", "5", "5", "4", "7", "12"], "time": [2683, 2776, 2865, 4903, 5118, 8683, 8787, 9391]}, "edge": {"target": [], "time": []}}, "mouseout": {"state": {"target": ["1", "1", "0", "1", "8", "9", "5", "5", "4", "7", "12"], "time": [539, 670, 1058, 2710, 2814, 4768, 5012, 8643, 8740, 8881, 9430]}, "edge": {"target": [], "time": []}}}, "displayed_time": "25.42", "trialTime": 28242, "trial_type": "mouselab-mdp", "trial_index": 36, "time_elapsed": 2478983, "internal_node_id": "0.0-4.0-1.0-21.0"}}, {"uniqueid": "w75394346:a50054570", "current_trial": 37, "dateTime": 1691144792785, "trialdata": {"revealed_states": [], "clicked_states": ["11", "10"], "num_clicks_accrued": [0, 0, 0, 0, 0, 0, 0, 0, 0, 0, 0, 0, 0], "stateRewards": ["", 2, 4, 4, -8, -36, -33, 38, 16, -51, 57, 57, 1, 3, 4, -6, 45, 68, 87, 1, 63, 24, -55, -2, 2, -6, -13, -63, -50, 8, 2, 80, 6, 60], "withholdReward": false, "trial_id": "mdp_trial_23", "block": "test", "trialIndex": 26, "score": 78.7, "costs": -4.3, "simulationMode": [null, null, null, null, null, null], "rewards": [2, 4, 4, 16, 57], "path": ["0", "0", "1", "2", "3", "8", "11"], "rt": [6912, 1247, 2310, 1374, 2137, 927], "actions": ["up", "up", "up", "up", "left", "left"], "actionTimes": [9225, 10477, 13330, 15243, 17904, 19364], "queries": {"click": {"state": {"target": ["11", "10"], "time": [3873, 6981]}, "edge": {"target": [], "time": []}}, "mouseover": {"state": {"target": ["10", "11", "10"], "time": [3043, 3368, 4812]}, "edge": {"target": [], "time": []}}, "mouseout": {"state": {"target": ["0", "10", "11", "10"], "time": [2900, 3297, 4647, 7034]}, "edge": {"target": [], "time": []}}}, "displayed_time": "19.90", "trialTime": 28860, "trial_type": "mouselab-mdp", "trial_index": 37, "time_elapsed": 2508873, "internal_node_id": "0.0-4.0-1.0-22.0"}}, {"uniqueid": "w75394346:a50054570", "current_trial": 38, "dateTime": 1691144831221, "trialdata": {"revealed_states": [], "clicked_states": ["5", "6"], "num_clicks_accrued": [0, 0, 0, 0, 0, 0, 0, 0, 0, 0, 0, 0, 0], "stateRewards": ["", -2, 2, -2, -7, -50, -62, -45, 7, 36, -24, -72, -1, -1, 8, -1, -67, 20, -52, 2, 35, -50, 80, -1, 1, 6, -6, -70, 6, 88, 8, -47, 74, -19], "withholdReward": false, "trial_id": "mdp_trial_24", "block": "test", "trialIndex": 27, "score": -51.3, "costs": -4.3, "simulationMode": [null, null, null, null, null], "rewards": [-1, -1, 8, -1, -52], "path": ["0", "0", "12", "13", "14", "15", "18"], "rt": [14430, 2310, 1818, 4283, 2813], "actions": ["right", "right", "right", "up", "left"], "actionTimes": [18108, 20962, 23319, 28135, 31481], "queries": {"click": {"state": {"target": ["5", "6"], "time": [5880, 9347]}, "edge": {"target": [], "time": []}}, "mouseover": {"state": {"target": ["6", "5", "6", "7", "1"], "time": [4629, 4857, 8614, 10440, 11599]}, "edge": {"target": [], "time": []}}, "mouseout": {"state": {"target": ["10", "0", "6", "5", "6", "6", "7", "1"], "time": [576, 1171, 4764, 6565, 9428, 10281, 10534, 11687]}, "edge": {"target": [], "time": []}}}, "displayed_time": "32.02", "trialTime": 37543, "trial_type": "mouselab-mdp", "trial_index": 38, "time_elapsed": 2547309, "internal_node_id": "0.0-4.0-1.0-23.0"}}, {"uniqueid": "w75394346:a50054570", "current_trial": 39, "dateTime": 1691144874227, "trialdata": {"revealed_states": [], "clicked_states": ["28", "27", "29", "33"], "num_clicks_accrued": [0, 0, 0, 0, 0, 0, 0, 0, 0, 0, 0, 0, 0], "stateRewards": ["", -2, -3, 1, -14, 48, -49, 67, -1, -35, -48, 3, -2, 1, -4, -5, 86, -84, 39, 1, 48, 41, -42, -1, -4, 2, -7, 18, -86, 17, 7, -9, 57, -69], "withholdReward": false, "trial_id": "mdp_trial_25", "block": "test", "trialIndex": 28, "score": -48.6, "costs": -8.6, "simulationMode": [null, null, null, null, null], "rewards": [-2, -3, 1, -1, -35], "path": ["0", "0", "1", "2", "3", "8", "9"], "rt": [25474, 4989, 731, 1396, 1031], "actions": ["up", "up", "up", "left", "up"], "actionTimes": [28258, 33780, 35055, 36985, 38555], "queries": {"click": {"state": {"target": ["28", "27", "29", "33"], "time": [4571, 7678, 12634, 18277]}, "edge": {"target": [], "time": []}}, "mouseover": {"state": {"target": ["23", "28", "28", "26", "27", "29", "25", "33", "32", "30", "32", "31", "32", "32"], "time": [3395, 3495, 4056, 5338, 5846, 9824, 17186, 17917, 20635, 21700, 21968, 23406, 24208, 26966]}, "edge": {"target": [], "time": []}}, "mouseout": {"state": {"target": ["23", "0", "0", "23", "28", "28", "26", "27", "29", "29", "25", "33", "33", "32", "30", "32", "31", "32"], "time": [196, 237, 891, 3416, 3733, 4671, 5754, 9442, 12685, 16806, 17623, 18373, 20381, 21635, 21811, 23130, 23970, 26736]}, "edge": {"target": [], "time": []}}}, "displayed_time": "39.09", "trialTime": 42005, "trial_type": "mouselab-mdp", "trial_index": 39, "time_elapsed": 2590315, "internal_node_id": "0.0-4.0-1.0-24.0"}}, {"uniqueid": "w75394346:a50054570", "current_trial": 40, "dateTime": 1691144907761, "trialdata": {"revealed_states": [], "clicked_states": ["33", "32"], "num_clicks_accrued": [0, 0, 0, 0, 0, 0, 0, 0, 0, 0, 0, 0, 0], "stateRewards": ["", 1, -2, -2, 10, -31, -77, 35, 9, -47, 8, 48, -2, 1, -4, -3, -26, -50, 43, -11, 76, -38, 17, 1, -1, 6, 10, 15, -9, 12, -8, 85, 11, -55], "withholdReward": false, "trial_id": "mdp_trial_26", "block": "test", "trialIndex": 29, "score": 4.7, "costs": -4.3, "simulationMode": [null, null, null, null, null], "rewards": [1, -1, 6, -8, 11], "path": ["0", "0", "23", "24", "25", "30", "32"], "rt": [13218, 1196, 1679, 1562, 7252], "actions": ["left", "left", "left", "down", "down"], "actionTimes": [16211, 17941, 20143, 22244, 30033], "queries": {"click": {"state": {"target": ["33", "32"], "time": [5922, 10263]}, "edge": {"target": [], "time": []}}, "mouseover": {"state": {"target": ["0", "23", "24", "30", "33", "32"], "time": [3597, 3668, 4144, 4540, 4921, 7612]}, "edge": {"target": [], "time": []}}, "mouseout": {"state": {"target": ["32", "32", "0", "0", "23", "24", "30", "33", "33", "32"], "time": [685, 698, 1837, 3617, 3768, 4199, 4707, 5990, 7183, 11111]}, "edge": {"target": [], "time": []}}}, "displayed_time": "30.58", "trialTime": 32613, "trial_type": "mouselab-mdp", "trial_index": 40, "time_elapsed": 2623849, "internal_node_id": "0.0-4.0-1.0-25.0"}}, {"uniqueid": "w75394346:a50054570", "current_trial": 41, "dateTime": 1691144937022, "trialdata": {"revealed_states": [], "clicked_states": [], "num_clicks_accrued": [0, 0, 0, 0, 0, 0, 0, 0, 0, 0, 0, 0, 0], "stateRewards": ["", 1, 1, 6, -14, -40, 37, 16, -13, 33, -68, 49, 2, 4, 3, 6, 55, 27, 32, 10, -65, 20, -87, 2, 1, -6, -5, -42, 12, 29, -8, 16, 76, -33], "withholdReward": false, "trial_id": "mdp_trial_27", "block": "test", "trialIndex": 30, "score": -73, "costs": 0, "simulationMode": [null, null, null, null, null], "rewards": [1, 1, 6, -13, -68], "path": ["0", "0", "1", "2", "3", "8", "10"], "rt": [9042, 3829, 3554, 2914, 1182], "actions": ["up", "up", "up", "left", "down"], "actionTimes": [12255, 16614, 20705, 24132, 25850], "queries": {"click": {"state": {"target": [], "time": []}, "edge": {"target": [], "time": []}}, "mouseover": {"state": {"target": ["18", "12", "24", "25", "31", "30", "33", "30", "32"], "time": [4182, 4511, 4993, 5345, 5844, 6471, 6740, 8121, 9759]}, "edge": {"target": [], "time": []}}, "mouseout": {"state": {"target": ["12", "18", "18", "12", "24", "25", "31", "30", "33", "30", "32", "31", "23", "0", "7", "2", "3", "4", "6", "6", "6", "18", "13", "12"], "time": [1784, 1831, 4439, 4535, 5015, 5764, 6353, 6654, 8091, 8169, 13244, 13283, 13316, 13416, 14042, 14362, 14695, 14750, 15012, 17340, 27492, 27752, 27833, 27895]}, "edge": {"target": [], "time": []}}}, "displayed_time": "26.38", "trialTime": 28343, "trial_type": "mouselab-mdp", "trial_index": 41, "time_elapsed": 2653109, "internal_node_id": "0.0-4.0-1.0-26.0"}}, {"uniqueid": "w75394346:a50054570", "current_trial": 42, "dateTime": 1691144963582, "trialdata": {"revealed_states": [], "clicked_states": ["6"], "num_clicks_accrued": [0, 0, 0, 0, 0, 0, 0, 0, 0, 0, 0, 0, 0], "stateRewards": ["", -2, -3, 8, -4, -30, 31, 69, 9, 66, 87, 64, -2, 2, 8, 5, 47, 16, -39, -8, -54, 51, -19, 1, -2, -2, -11, -25, -26, 43, -9, 19, -84, 86], "withholdReward": false, "trial_id": "mdp_trial_28", "block": "test", "trialIndex": 31, "score": 27.85, "costs": -2.15, "simulationMode": [null, null, null, null, null], "rewards": [-2, -3, 8, -4, 31], "path": ["0", "0", "1", "2", "3", "4", "6"], "rt": [6154, 1024, 3053, 2233, 3212], "actions": ["up", "up", "up", "right", "right"], "actionTimes": [8193, 9742, 13337, 16103, 19851], "queries": {"click": {"state": {"target": ["6"], "time": [3186]}, "edge": {"target": [], "time": []}}, "mouseover": {"state": {"target": ["7", "6", "6", "6", "5"], "time": [2371, 2410, 2696, 2981, 3735]}, "edge": {"target": [], "time": []}}, "mouseout": {"state": {"target": ["0", "7", "6", "6", "6", "5"], "time": [630, 2392, 2424, 2823, 3651, 21582]}, "edge": {"target": [], "time": []}}}, "displayed_time": "20.39", "trialTime": 25623, "trial_type": "mouselab-mdp", "trial_index": 42, "time_elapsed": 2679670, "internal_node_id": "0.0-4.0-1.0-27.0"}}], "questiondata": {"params": {"CODE": "C6DMOQA6", "MIN_TIME": 14, "inspectCost": 1, "startTime": "Fri Aug 04 2023 10:44:43 GMT+0100 (Irish Standard Time)", "bonusRate": 0.002, "variance": "1_2_4_8_44", "branching": "31123"}}, "eventdata": [{"eventtype": "initialized", "value": null, "timestamp": 1691142282683, "interval": 0}, {"eventtype": "window_resize", "value": [1024, 740], "timestamp": 1691142282683, "interval": 0}, {"eventtype": "window_resize", "value": [1024, 740], "timestamp": 1691142283012, "interval": 329}, {"eventtype": "window_resize", "value": [1440, 900], "timestamp": 1691142291184, "interval": 8172}, {"eventtype": "focus", "value": "off", "timestamp": 1691143359119, "interval": 1067935}, {"eventtype": "focus", "value": "on", "timestamp": 1691143359120, "interval": 1}, {"eventtype": "window_resize", "value": [1024, 740], "timestamp": 1691143359327, "interval": 207}, {"eventtype": "window_resize", "value": [1440, 900], "timestamp": 1691143368863, "interval": 9536}, {"eventtype": "focus", "value": "off", "timestamp": 1691145624785, "interval": 2255922}, {"eventtype": "focus", "value": "on", "timestamp": 1691145627958, "interval": 3173}, {"eventtype": "focus", "value": "off", "timestamp": 1691145636947, "interval": 8989}, {"eventtype": "focus", "value": "on", "timestamp": 1691145637004, "interval": 57}, {"eventtype": "window_resize", "value": [1024, 740], "timestamp": 1691145637188, "interval": 184}, {"eventtype": "focus", "value": "off", "timestamp": 1691145639964, "interval": 2776}, {"eventtype": "focus", "value": "on", "timestamp": 1691145646201, "interval": 6237}, {"eventtype": "focus", "value": "off", "timestamp": 1691145652722, "interval": 6521}, {"eventtype": "focus", "value": "on", "timestamp": 1691145652771, "interval": 49}], "useragent": "Mozilla/5.0 (Macintosh; Intel Mac OS X 10_15_7) AppleWebKit/605.1.15 (KHTML, like Gecko) Version/16.5.1 Safari/605.1.15", "mode": "live", "id": "w75394346:a50054570", "status": "user data saved", "Beginhit": "2023-08-04 09:44:41.396229", "Beginexp": "2023-08-04 09:44:52.160053", "Endhit": null, "psiturkStatus": 6, "browser": "<redacted>", "platform": "macos", "language": "en-GB", "excludeReason": "dataincomplete"}