{"condition": 0, "counterbalance": 0, "assignmentId": "a70687295", "workerId": "w34625717", "hitId": "h13085736", "currenttrial": 55, "bonus": 0, "data": [{"uniqueid": "w34625717:a70687295", "current_trial": 0, "dateTime": 1691165715868, "trialdata": {"success": true, "trial_type": "fullscreen", "trial_index": 0, "time_elapsed": 3239, "internal_node_id": "0.0-0.0"}}, {"uniqueid": "w34625717:a70687295", "current_trial": 1, "dateTime": 1691165734350, "trialdata": {"view_history": [{"page_index": 0, "viewing_time": 18468}], "rt": 18469, "trial_id": "exp_instructions_control", "trial_type": "instructions", "trial_index": 1, "time_elapsed": 21721, "internal_node_id": "0.0-1.0"}}, {"uniqueid": "w34625717:a70687295", "current_trial": 2, "dateTime": 1691165737189, "trialdata": {"success": true, "trial_type": "fullscreen", "trial_index": 2, "time_elapsed": 24559, "internal_node_id": "0.0-2.0-0.0"}}, {"uniqueid": "w34625717:a70687295", "current_trial": 3, "dateTime": 1691165900294, "trialdata": {"view_history": [{"page_index": 0, "viewing_time": 39560}, {"page_index": 1, "viewing_time": 39535}, {"page_index": 2, "viewing_time": 65141}, {"page_index": 3, "viewing_time": 18864}], "rt": 163101, "trial_id": "mouselab_instructions_1_control", "trial_type": "instructions", "trial_index": 3, "time_elapsed": 187665, "internal_node_id": "0.0-2.0-1.0"}}, {"uniqueid": "w34625717:a70687295", "current_trial": 4, "dateTime": 1691165935708, "trialdata": {"revealed_states": [], "clicked_states": ["23", "1", "2", "10", "7", "4", "5"], "num_clicks_accrued": [0, 0, 0, 0, 0, 0, 0, 0, 0, 0, 0, 0, 0], "stateRewards": ["", 10, -10, 10, 10, 10, 10, 10, -10, -10, 10, 10, 10, 10, 10, 10, -10, 10, -10, -10, 10, -10, -10, 10, -10, 10, -10, 10, -10, 10, 10, 10, -10, -10], "withholdReward": false, "trial_id": "practice_1", "block": "test", "trialIndex": 0, "score": 30, "costs": -3.5, "simulationMode": [null, null, null, null, null], "rewards": [10, -10, 10, 10, 10], "path": ["0", "0", "1", "2", "3", "4", "5"], "rt": [13235, 216, 2449, 193, 111], "actions": ["up", "up", "up", "right", "up"], "actionTimes": [27129, 27854, 30804, 31495, 32114], "queries": {"click": {"state": {"target": ["23", "1", "2", "10", "7", "4", "5"], "time": [15444, 17029, 18445, 19724, 21599, 23025, 24534]}, "edge": {"target": [], "time": []}}, "mouseover": {"state": {"target": ["1", "23", "24", "1", "1", "2", "10", "10", "8", "3", "7", "7", "4", "5", "1"], "time": [14468, 15179, 15872, 16404, 16726, 17454, 18858, 19375, 20107, 20602, 20913, 21568, 22041, 23692, 25592]}, "edge": {"target": [], "time": []}}, "mouseout": {"state": {"target": ["31", "0", "0", "0", "0", "0", "0", "0", "0", "0", "0", "0", "0", "17", "15", "4", "3", "1", "23", "0", "1", "23", "24", "1", "1", "2", "10", "10", "8", "3", "7", "7", "4", "5", "4"], "time": [344, 2331, 2426, 2678, 3239, 3581, 3958, 4337, 4567, 4769, 4839, 4928, 5065, 8703, 8769, 8870, 8971, 9384, 11901, 14402, 14772, 15513, 16312, 16419, 17348, 18803, 19054, 19993, 20580, 20639, 21003, 21901, 23097, 24929, 25012]}, "edge": {"target": [], "time": []}}}, "displayed_time": "32.62", "trialTime": 34884, "trial_type": "mouselab-mdp", "trial_index": 4, "time_elapsed": 223078, "internal_node_id": "0.0-2.0-2.0-0.0"}}, {"uniqueid": "w34625717:a70687295", "current_trial": 5, "dateTime": 1691165953941, "trialdata": {"revealed_states": [], "clicked_states": ["1"], "num_clicks_accrued": [0, 0, 0, 0, 0, 0, 0, 0, 0, 0, 0, 0, 0], "stateRewards": ["", -10, -10, 10, -10, 10, -10, -10, -10, -10, -10, -10, 10, 10, 10, 10, -10, -10, -10, 10, -10, -10, -10, -10, 10, 10, 10, -10, -10, 10, 10, -10, -10, -10], "withholdReward": false, "trial_id": "practice_2", "block": "test", "trialIndex": 1, "score": -27, "costs": -0.5, "simulationMode": [null, null, null, null, null], "rewards": [-10, -10, 10, -10, -10], "path": ["0", "0", "1", "2", "3", "8", "9"], "rt": [8272, 69, 1149, 71, 361], "actions": ["up", "up", "up", "left", "up"], "actionTimes": [11928, 12505, 14156, 14737, 15636], "queries": {"click": {"state": {"target": ["1"], "time": [5226]}, "edge": {"target": [], "time": []}}, "mouseover": {"state": {"target": ["0", "1", "0", "0", "1", "1", "2", "2", "2", "2", "2", "2", "1", "2", "2", "2", "2", "1", "2", "1", "2", "2"], "time": [3684, 3690, 3696, 4316, 4560, 5188, 6069, 6524, 7452, 7491, 8488, 9649, 9668, 9691, 10600, 10812, 11168, 11176, 11183, 11385, 11419, 11709]}, "edge": {"target": [], "time": []}}, "mouseout": {"state": {"target": ["1", "0", "0", "0", "0", "1", "0", "0", "1", "0", "0", "1", "1", "2", "2", "2", "1", "2", "2", "2", "1", "2", "2", "2", "2", "1", "2", "1", "2", "2"], "time": [2665, 2674, 2936, 3198, 3338, 3342, 3668, 3688, 3693, 3699, 4334, 4703, 5279, 6195, 7028, 7472, 7487, 7884, 8943, 9659, 9683, 10322, 10704, 11109, 11173, 11179, 11258, 11405, 11619, 11798]}, "edge": {"target": [], "time": []}}}, "displayed_time": "16.15", "trialTime": 17876, "trial_type": "mouselab-mdp", "trial_index": 5, "time_elapsed": 241310, "internal_node_id": "0.0-2.0-2.0-1.0"}}, {"uniqueid": "w34625717:a70687295", "current_trial": 6, "dateTime": 1691165970390, "trialdata": {"view_history": [{"page_index": 0, "viewing_time": 13312}, {"page_index": 1, "viewing_time": 3125}], "rt": 16439, "trial_id": "mouselab_instructions_2_control", "trial_type": "instructions", "trial_index": 6, "time_elapsed": 257761, "internal_node_id": "0.0-2.0-3.0"}}, {"uniqueid": "w34625717:a70687295", "current_trial": 7, "dateTime": 1691165995047, "trialdata": {"rt": 24645, "response": {"Q0": "The cost for clicking on nodes may vary between nodes.", "Q1": "The better I perform the higher my bonus will be.", "Q2": "No, the amount of cash at each node of the web may be different each time.", "Q3": "To get the highest total score.", "Q4": "Only before moving the spider.", "Q5": "3 seconds"}, "question_order": [0, 1, 2, 3, 4, 5], "correct": {"Q0": "The cost for clicking on nodes may vary between nodes.", "Q1": "The better I perform the higher my bonus will be.", "Q2": "No, the amount of cash at each node of the web may be different each time.", "Q3": "To get the highest total score.", "Q4": "Only before moving the spider.", "Q5": "3 seconds"}, "trial_id": "mouselab_quiz_control", "trial_type": "survey-multi-choice", "trial_index": 7, "time_elapsed": 282418, "internal_node_id": "0.0-2.0-4.0"}}, {"uniqueid": "w34625717:a70687295", "current_trial": 8, "dateTime": 1691166000949, "trialdata": {"rt": 5889, "stimulus": "\n<h1> Get ready to start the game! </h1>\n\nThank you for reading the instructions. Get ready start with the 40 rounds of this game.\n<br><br>\nIf you need to take a break, feel free to take one after the end of a round, before continuing to the next one.\n<br><br>\nRemember, the more money the spider gets, the bigger your bonus will be!\n<br><br>\n<div style='text-align: center;'>Press <code>space</code> to begin.</div>\n\n<br><br>\n(If, at any point, the <code>space</code> key does not take you to the next page, click once on the text and try again.)", "response": " ", "trial_id": "mdp_ready", "trial_type": "html-keyboard-response", "trial_index": 8, "time_elapsed": 288319, "internal_node_id": "0.0-4.0-0.0"}}, {"uniqueid": "w34625717:a70687295", "current_trial": 9, "dateTime": 1691166019579, "trialdata": {"revealed_states": [], "clicked_states": ["1", "23", "24", "25"], "num_clicks_accrued": [0, 0, 0, 0, 0, 0, 0, 0, 0, 0, 0, 0, 0], "stateRewards": ["", 1, 4, -4, 14, 35, 51, 19, -13, 54, 78, -74, -2, -1, -3, 13, -11, -42, -73, -15, -24, -3, -69, 2, -1, 5, 16, -27, 73, 58, 9, -60, 5, -60], "withholdReward": false, "trial_id": "mdp_trial_1", "block": "test", "trialIndex": 2, "score": 74.4, "costs": -5.6, "simulationMode": [null, null, null, null, null], "rewards": [2, -1, 5, 16, 58], "path": ["0", "0", "23", "24", "25", "26", "29"], "rt": [9340, 238, 135, 160, 95], "actions": ["left", "left", "left", "up", "left"], "actionTimes": [11994, 12736, 13431, 14090, 14711], "queries": {"click": {"state": {"target": ["1", "23", "24", "25"], "time": [3192, 4762, 6544, 10207]}, "edge": {"target": [], "time": []}}, "mouseover": {"state": {"target": ["1", "2", "23", "24", "25", "25", "31", "30", "25", "30"], "time": [2665, 3920, 4219, 5155, 6991, 7559, 8201, 9479, 9898, 10709]}, "edge": {"target": [], "time": []}}, "mouseout": {"state": {"target": ["1", "0", "2", "3", "2", "1", "0", "1", "2", "23", "24", "25", "25", "31", "23", "24", "30", "25", "25", "30"], "time": [659, 843, 940, 1006, 1122, 1200, 2663, 3688, 4105, 5104, 6952, 7072, 7896, 8666, 9131, 9164, 9869, 10320, 10659, 10810]}, "edge": {"target": [], "time": []}}}, "displayed_time": "16.65", "trialTime": 18191, "trial_type": "mouselab-mdp", "trial_index": 9, "time_elapsed": 306948, "internal_node_id": "0.0-4.0-1.0-0.0"}}, {"uniqueid": "w34625717:a70687295", "current_trial": 10, "dateTime": 1691166045387, "trialdata": {"revealed_states": [], "clicked_states": ["23", "1", "12", "13", "14", "15", "17"], "num_clicks_accrued": [0, 0, 0, 0, 0, 0, 0, 0, 0, 0, 0, 0, 0], "stateRewards": ["", -2, 2, -1, -6, 22, 6, 6, -5, 70, -42, 65, 1, 3, 5, -6, -67, -9, 3, 14, 7, -62, -13, -2, 4, 1, 16, 42, -21, -52, -8, 32, 53, 81], "withholdReward": false, "trial_id": "mdp_trial_2", "block": "test", "trialIndex": 3, "score": -3.8000000000000007, "costs": -9.8, "simulationMode": [null, null, null, null, null], "rewards": [1, 3, 5, -6, 3], "path": ["0", "0", "12", "13", "14", "15", "18"], "rt": [14737, 159, 193, 113, 83], "actions": ["right", "right", "right", "up", "left"], "actionTimes": [21154, 21825, 22524, 23164, 23763], "queries": {"click": {"state": {"target": ["23", "1", "12", "13", "14", "15", "17"], "time": [7435, 9367, 11029, 13043, 14934, 16780, 18565]}, "edge": {"target": [], "time": []}}, "mouseover": {"state": {"target": ["0", "23", "24", "1", "12", "13", "14", "15", "14", "15", "17", "17", "13"], "time": [6718, 6918, 7887, 9238, 10002, 11636, 13688, 13888, 14304, 15324, 17191, 17691, 19179]}, "edge": {"target": [], "time": []}}, "mouseout": {"state": {"target": ["0", "0", "0", "0", "32", "32", "31", "23", "0", "0", "23", "24", "1", "1", "12", "13", "14", "15", "14", "15", "17", "17", "15"], "time": [2330, 3372, 3529, 4413, 4448, 4805, 4884, 5238, 5702, 6884, 7787, 8904, 9494, 9831, 11586, 13403, 13721, 14088, 15258, 17130, 17475, 18944, 18977]}, "edge": {"target": [], "time": []}}}, "displayed_time": "24.26", "trialTime": 25484, "trial_type": "mouselab-mdp", "trial_index": 10, "time_elapsed": 332756, "internal_node_id": "0.0-4.0-1.0-1.0"}}, {"uniqueid": "w34625717:a70687295", "current_trial": 11, "dateTime": 1691166072852, "trialdata": {"revealed_states": [], "clicked_states": ["12", "13", "1", "2", "23", "24", "25"], "num_clicks_accrued": [0, 0, 0, 0, 0, 0, 0, 0, 0, 0, 0, 0, 0], "stateRewards": ["", 1, -1, 8, -3, 38, 85, -20, -4, 8, 23, 73, 2, -4, 6, -13, 44, 7, -28, -11, -77, 45, -69, 1, -1, -7, -11, 75, -51, -87, 7, 36, -53, -26], "withholdReward": false, "trial_id": "mdp_trial_3", "block": "test", "trialIndex": 4, "score": -24.8, "costs": -9.8, "simulationMode": [null, null, null, null, null], "rewards": [1, -1, 8, -3, -20], "path": ["0", "0", "1", "2", "3", "4", "7"], "rt": [20396, 123, 155, 69, 71], "actions": ["up", "up", "up", "right", "down"], "actionTimes": [22963, 23590, 24250, 24811, 25402], "queries": {"click": {"state": {"target": ["12", "13", "1", "2", "23", "24", "25"], "time": [4412, 6501, 10172, 12253, 14873, 16960, 19786]}, "edge": {"target": [], "time": []}}, "mouseover": {"state": {"target": ["12", "13", "19", "14", "1", "2", "2", "3", "3", "23", "24", "25", "25", "26", "10"], "time": [4097, 5197, 7045, 7845, 9881, 10721, 11149, 12767, 13200, 14687, 15400, 17455, 18093, 20357, 22209]}, "edge": {"target": [], "time": []}}, "mouseout": {"state": {"target": ["13", "0", "12", "12", "13", "19", "14", "1", "2", "2", "3", "3", "23", "24", "25", "25", "26", "10"], "time": [1599, 2717, 4514, 5045, 6821, 7078, 8811, 10690, 10766, 12671, 12817, 14296, 15374, 17429, 17468, 20313, 22008, 22275]}, "edge": {"target": [], "time": []}}}, "displayed_time": "25.92", "trialTime": 27124, "trial_type": "mouselab-mdp", "trial_index": 11, "time_elapsed": 360220, "internal_node_id": "0.0-4.0-1.0-2.0"}}, {"uniqueid": "w34625717:a70687295", "current_trial": 12, "dateTime": 1691166091068, "trialdata": {"revealed_states": [], "clicked_states": ["12", "13", "14", "19", "20"], "num_clicks_accrued": [0, 0, 0, 0, 0, 0, 0, 0, 0, 0, 0, 0, 0], "stateRewards": ["", -1, 1, 6, -6, 70, 66, 67, -16, -75, -35, 37, -1, 4, 4, -6, 47, -9, 63, 15, 21, -63, 13, 1, 3, -6, 10, 79, -29, 18, -15, 9, -67, -19], "withholdReward": false, "trial_id": "mdp_trial_4", "block": "test", "trialIndex": 5, "score": 36, "costs": -7, "simulationMode": [null, null, null, null, null, null], "rewards": [-1, 4, 4, 15, 21], "path": ["0", "0", "12", "13", "14", "19", "20"], "rt": [9249, 1070, 169, 86, 141, 150], "actions": ["right", "right", "right", "right", "down", "right"], "actionTimes": [11992, 13074, 13755, 14346, 15046, 15706], "queries": {"click": {"state": {"target": ["12", "13", "14", "19", "20"], "time": [3398, 5062, 7120, 9113, 11914]}, "edge": {"target": [], "time": []}}, "mouseover": {"state": {"target": ["12", "13", "14", "19", "20"], "time": [3130, 3851, 5596, 7731, 10513]}, "edge": {"target": [], "time": []}}, "mouseout": {"state": {"target": ["12", "13", "14", "19"], "time": [3771, 5529, 7521, 9164]}, "edge": {"target": [], "time": []}}}, "displayed_time": "16.75", "trialTime": 17807, "trial_type": "mouselab-mdp", "trial_index": 12, "time_elapsed": 378438, "internal_node_id": "0.0-4.0-1.0-3.0"}}, {"uniqueid": "w34625717:a70687295", "current_trial": 13, "dateTime": 1691166110826, "trialdata": {"revealed_states": [], "clicked_states": ["12", "13", "1", "14", "19"], "num_clicks_accrued": [0, 0, 0, 0, 0, 0, 0, 0, 0, 0, 0, 0, 0], "stateRewards": ["", -1, -2, -8, 8, -27, -82, 19, -14, -62, 4, 1, -2, 2, 6, 10, 73, -51, -2, 2, 73, -48, 54, -1, 2, -4, 11, -25, 47, 86, 15, 33, 43, -42], "withholdReward": false, "trial_id": "mdp_trial_5", "block": "test", "trialIndex": 6, "score": 55, "costs": -7, "simulationMode": [null, null, null, null, null], "rewards": [-2, 2, 6, 2, 54], "path": ["0", "0", "12", "13", "14", "19", "22"], "rt": [10795, 93, 86, 184, 103], "actions": ["right", "right", "right", "down", "left"], "actionTimes": [15472, 16090, 16700, 17399, 17999], "queries": {"click": {"state": {"target": ["12", "13", "1", "14", "19"], "time": [5358, 7089, 8961, 11480, 13536]}, "edge": {"target": [], "time": []}}, "mouseover": {"state": {"target": ["12", "13", "1", "2", "14", "19", "19"], "time": [4784, 6068, 7987, 9956, 11225, 11868, 12271]}, "edge": {"target": [], "time": []}}, "mouseout": {"state": {"target": ["20", "20", "19", "22", "0", "12", "13", "1", "2", "13", "14", "19"], "time": [1433, 2603, 2638, 2669, 4705, 5935, 7426, 9421, 10880, 11047, 11804, 11938]}, "edge": {"target": [], "time": []}}}, "displayed_time": "18.68", "trialTime": 19359, "trial_type": "mouselab-mdp", "trial_index": 13, "time_elapsed": 398196, "internal_node_id": "0.0-4.0-1.0-4.0"}}, {"uniqueid": "w34625717:a70687295", "current_trial": 14, "dateTime": 1691166130868, "trialdata": {"revealed_states": [], "clicked_states": ["22", "21", "12"], "num_clicks_accrued": [0, 0, 0, 0, 0, 0, 0, 0, 0, 0, 0, 0, 0], "stateRewards": ["", -2, -3, -6, -7, 9, 16, 65, 5, -41, 20, -25, -1, -4, 1, -11, -49, -4, 71, 1, 39, -62, 52, -2, -3, 7, -9, -28, -70, 84, 8, 24, -58, 82], "withholdReward": false, "trial_id": "mdp_trial_6", "block": "test", "trialIndex": 7, "score": 44.8, "costs": -4.199999999999999, "simulationMode": [null, null, null, null, null], "rewards": [-1, -4, 1, 1, 52], "path": ["0", "0", "12", "13", "14", "19", "22"], "rt": [7300, 128, 77, 119, 129], "actions": ["right", "right", "right", "down", "left"], "actionTimes": [11678, 12306, 12889, 13527, 14158], "queries": {"click": {"state": {"target": ["22", "21", "12"], "time": [5587, 7391, 9438]}, "edge": {"target": [], "time": []}}, "mouseover": {"state": {"target": ["12", "13", "19", "22", "21", "19", "14", "19", "13", "12"], "time": [4692, 4923, 5134, 5417, 6204, 7754, 8057, 8320, 8804, 9237]}, "edge": {"target": [], "time": []}}, "mouseout": {"state": {"target": ["19", "22", "0", "12", "13", "19", "22", "21", "19", "14", "19", "13", "12"], "time": [2006, 3120, 4546, 4845, 5048, 5155, 5986, 7704, 7826, 8254, 8743, 8884, 9772]}, "edge": {"target": [], "time": []}}}, "displayed_time": "18.38", "trialTime": 19687, "trial_type": "mouselab-mdp", "trial_index": 14, "time_elapsed": 418237, "internal_node_id": "0.0-4.0-1.0-5.0"}}, {"uniqueid": "w34625717:a70687295", "current_trial": 15, "dateTime": 1691166148409, "trialdata": {"revealed_states": [], "clicked_states": ["22", "31", "21", "20"], "num_clicks_accrued": [0, 0, 0, 0, 0, 0, 0, 0, 0, 0, 0, 0, 0], "stateRewards": ["", -2, -2, -7, -13, -10, 49, -68, -1, 84, 70, 88, 1, 4, 4, 12, -57, 25, 30, 8, -1, -77, 57, 2, 3, 2, 3, -18, -80, 23, -15, -41, 70, 11], "withholdReward": false, "trial_id": "mdp_trial_7", "block": "test", "trialIndex": 8, "score": 68.4, "costs": -5.6, "simulationMode": [null, null, null, null, null], "rewards": [1, 4, 4, 8, 57], "path": ["0", "0", "12", "13", "14", "19", "22"], "rt": [10102, 108, 31, 130, 83], "actions": ["right", "right", "right", "down", "left"], "actionTimes": [12516, 13154, 13694, 14323, 14924], "queries": {"click": {"state": {"target": ["22", "31", "21", "20"], "time": [3634, 6200, 8170, 10510]}, "edge": {"target": [], "time": []}}, "mouseover": {"state": {"target": ["12", "22", "30", "31", "21", "20", "20"], "time": [2930, 3390, 5681, 5932, 7184, 8651, 9108]}, "edge": {"target": [], "time": []}}, "mouseout": {"state": {"target": ["0", "12", "22", "22", "22", "30", "31", "21", "20", "20"], "time": [1771, 2968, 3748, 4280, 4450, 5915, 6736, 8484, 8884, 10577]}, "edge": {"target": [], "time": []}}}, "displayed_time": "16.41", "trialTime": 17144, "trial_type": "mouselab-mdp", "trial_index": 15, "time_elapsed": 435778, "internal_node_id": "0.0-4.0-1.0-6.0"}}, {"uniqueid": "w34625717:a70687295", "current_trial": 16, "dateTime": 1691166169378, "trialdata": {"revealed_states": [], "clicked_states": ["31", "32", "33", "29", "30", "25", "24"], "num_clicks_accrued": [0, 0, 0, 0, 0, 0, 0, 0, 0, 0, 0, 0, 0], "stateRewards": ["", 1, -2, -3, 14, -42, -87, -37, -11, -50, 33, -44, -2, 4, -7, 13, 48, -75, -66, 12, 23, -2, 82, 1, -4, 3, 12, 51, -15, -26, -11, -52, -29, 82], "withholdReward": false, "trial_id": "mdp_trial_8", "block": "test", "trialIndex": 9, "score": 61.2, "costs": -9.8, "simulationMode": [null, null, null, null, null, null], "rewards": [1, -4, 3, -11, 82], "path": ["0", "0", "23", "24", "25", "30", "33"], "rt": [13646, 386, 323, 88, 187, 219], "actions": ["left", "left", "left", "left", "down", "left"], "actionTimes": [15551, 15953, 16814, 17415, 18094, 18812], "queries": {"click": {"state": {"target": ["31", "32", "33", "29", "30", "25", "24"], "time": [2983, 4838, 6676, 8950, 10626, 12607, 14802]}, "edge": {"target": [], "time": []}}, "mouseover": {"state": {"target": ["31", "32", "33", "29", "30", "25", "24", "24"], "time": [2528, 3589, 5212, 7482, 9423, 11069, 12946, 13550]}, "edge": {"target": [], "time": []}}, "mouseout": {"state": {"target": ["23", "0", "31", "32", "33", "29", "29", "30", "25", "24"], "time": [1245, 1971, 3530, 5147, 6753, 9006, 9283, 10972, 12930, 13168]}, "edge": {"target": [], "time": []}}}, "displayed_time": "19.31", "trialTime": 20533, "trial_type": "mouselab-mdp", "trial_index": 16, "time_elapsed": 456748, "internal_node_id": "0.0-4.0-1.0-7.0"}}, {"uniqueid": "w34625717:a70687295", "current_trial": 17, "dateTime": 1691166186590, "trialdata": {"revealed_states": [], "clicked_states": ["22", "17", "16", "18"], "num_clicks_accrued": [0, 0, 0, 0, 0, 0, 0, 0, 0, 0, 0, 0, 0], "stateRewards": ["", -2, -3, -3, 9, 79, 67, 22, -15, -56, 27, -85, -2, 4, -4, -15, -20, -32, 60, 15, 71, 57, 17, 1, 2, -8, 15, -37, -81, 82, 15, 21, -3, 2], "withholdReward": false, "trial_id": "mdp_trial_9", "block": "test", "trialIndex": 10, "score": 37.4, "costs": -5.6, "simulationMode": [null, null, null, null, null], "rewards": [-2, 4, -4, -15, 60], "path": ["0", "0", "12", "13", "14", "15", "18"], "rt": [9273, 218, 102, 148, 139], "actions": ["right", "right", "right", "up", "left"], "actionTimes": [11441, 12181, 12802, 13471, 14130], "queries": {"click": {"state": {"target": ["22", "17", "16", "18"], "time": [2982, 4659, 6548, 8529]}, "edge": {"target": [], "time": []}}, "mouseover": {"state": {"target": ["12", "22", "22", "14", "17", "16", "18", "7", "4", "7"], "time": [2372, 2461, 2857, 3261, 4312, 5251, 6965, 9000, 9542, 9747]}, "edge": {"target": [], "time": []}}, "mouseout": {"state": {"target": ["24", "23", "0", "12", "22", "22", "14", "17", "16", "18", "7", "4"], "time": [1244, 1295, 1343, 2400, 2650, 3212, 3761, 4746, 6882, 8966, 9033, 9616]}, "edge": {"target": [], "time": []}}}, "displayed_time": "16.17", "trialTime": 16780, "trial_type": "mouselab-mdp", "trial_index": 17, "time_elapsed": 473960, "internal_node_id": "0.0-4.0-1.0-8.0"}}, {"uniqueid": "w34625717:a70687295", "current_trial": 18, "dateTime": 1691166203521, "trialdata": {"revealed_states": [], "clicked_states": ["23", "31", "32", "30", "25"], "num_clicks_accrued": [0, 0, 0, 0, 0, 0, 0, 0, 0, 0, 0, 0, 0], "stateRewards": ["", -1, -3, -3, 1, -38, 2, -53, -2, -1, -81, 70, -1, 1, -5, -9, 46, 15, 35, -1, -22, 38, 59, -2, 4, -8, 13, 1, -83, -43, 4, 76, 13, 48], "withholdReward": false, "trial_id": "mdp_trial_10", "block": "test", "trialIndex": 11, "score": 67, "costs": -7, "simulationMode": [null, null, null, null, null], "rewards": [-2, 4, -8, 4, 76], "path": ["0", "0", "23", "24", "25", "30", "31"], "rt": [10628, 151, 60, 35, 78], "actions": ["left", "left", "left", "down", "right"], "actionTimes": [12239, 12900, 13470, 14049, 14639], "queries": {"click": {"state": {"target": ["23", "31", "32", "30", "25"], "time": [2742, 4461, 6210, 8329, 10606]}, "edge": {"target": [], "time": []}}, "mouseover": {"state": {"target": ["23", "24", "31", "30", "32", "33", "30", "25"], "time": [2435, 3421, 4027, 5552, 5768, 6687, 8063, 9155]}, "edge": {"target": [], "time": []}}, "mouseout": {"state": {"target": ["7", "1", "23", "23", "24", "31", "30", "32", "33", "30"], "time": [790, 897, 2808, 3297, 3869, 5445, 5657, 6637, 7969, 8419]}, "edge": {"target": [], "time": []}}}, "displayed_time": "15.61", "trialTime": 16520, "trial_type": "mouselab-mdp", "trial_index": 18, "time_elapsed": 490890, "internal_node_id": "0.0-4.0-1.0-9.0"}}, {"uniqueid": "w34625717:a70687295", "current_trial": 19, "dateTime": 1691166230148, "trialdata": {"revealed_states": [], "clicked_states": ["1", "10", "11", "9", "6", "5", "7", "20", "22"], "num_clicks_accrued": [0, 0, 0, 0, 0, 0, 0, 0, 0, 0, 0, 0, 0], "stateRewards": ["", 2, 4, 7, -6, -76, -81, 2, 5, -66, -3, 36, -2, -4, 6, -2, -69, 4, -49, -6, 67, 38, -67, 2, 1, 1, 6, -68, -21, 52, -16, -16, 6, -70], "withholdReward": false, "trial_id": "mdp_trial_11", "block": "test", "trialIndex": 12, "score": 48.4, "costs": -12.600000000000001, "simulationMode": [null, null, null, null, null], "rewards": [-2, -4, 6, -6, 67], "path": ["0", "0", "12", "13", "14", "19", "20"], "rt": [19174, 85, 98, 92, 102], "actions": ["right", "right", "right", "down", "right"], "actionTimes": [22153, 22752, 23352, 23942, 24550], "queries": {"click": {"state": {"target": ["1", "10", "11", "9", "6", "5", "7", "20", "22"], "time": [4139, 5765, 7687, 9708, 11521, 13476, 15377, 18035, 20102]}, "edge": {"target": [], "time": []}}, "mouseover": {"state": {"target": ["0", "1", "10", "11", "9", "5", "6", "5", "4", "7", "15", "14", "20", "19", "22", "21"], "time": [3339, 3789, 5084, 6818, 8203, 10208, 11003, 12020, 13924, 14007, 17086, 17274, 17760, 18533, 18564, 20627]}, "edge": {"target": [], "time": []}}, "mouseout": {"state": {"target": ["25", "23", "0", "1", "10", "11", "9", "5", "6", "5", "5", "4", "7", "15", "14", "20", "19", "22", "21"], "time": [1704, 2051, 3474, 4583, 6352, 8136, 10105, 10274, 11606, 13511, 13907, 13973, 15972, 17123, 17364, 18525, 18550, 20558, 20795]}, "edge": {"target": [], "time": []}}}, "displayed_time": "25.05", "trialTime": 26252, "trial_type": "mouselab-mdp", "trial_index": 19, "time_elapsed": 517518, "internal_node_id": "0.0-4.0-1.0-10.0"}}, {"uniqueid": "w34625717:a70687295", "current_trial": 20, "dateTime": 1691166259879, "trialdata": {"revealed_states": [], "clicked_states": ["33", "31", "32", "29", "27", "28", "22", "20", "21"], "num_clicks_accrued": [0, 0, 0, 0, 0, 0, 0, 0, 0, 0, 0, 0, 0], "stateRewards": ["", -1, -2, -1, -10, -57, 73, -72, -16, 75, -14, -46, -2, -3, -7, -1, -61, -60, 76, -4, 50, 4, 14, 2, 2, -7, 12, -65, -32, 15, -8, -76, -25, -61], "withholdReward": false, "trial_id": "mdp_trial_12", "block": "test", "trialIndex": 13, "score": 21.4, "costs": -12.600000000000001, "simulationMode": [null, null, null, null, null], "rewards": [-2, -3, -7, -4, 50], "path": ["0", "0", "12", "13", "14", "19", "20"], "rt": [21346, 54, 217, 56, 113], "actions": ["right", "right", "right", "down", "right"], "actionTimes": [23964, 24552, 25282, 25841, 26483], "queries": {"click": {"state": {"target": ["33", "31", "32", "29", "27", "28", "22", "20", "21"], "time": [3949, 5576, 7431, 10711, 12735, 14836, 17386, 19430, 21266]}, "edge": {"target": [], "time": []}}, "mouseover": {"state": {"target": ["23", "31", "30", "33", "30", "31", "32", "25", "29", "27", "27", "28", "12", "13", "22", "19", "22", "19", "20", "21", "21", "19"], "time": [2878, 2928, 2948, 3538, 4662, 4833, 6378, 9465, 10414, 11271, 11621, 13637, 15579, 15970, 16117, 16680, 17150, 17920, 18371, 19957, 20390, 21842]}, "edge": {"target": [], "time": []}}, "mouseout": {"state": {"target": ["0", "23", "31", "30", "33", "30", "31", "32", "31", "25", "29", "27", "27", "27", "28", "12", "13", "22", "19", "22", "19", "20", "21", "21", "19"], "time": [1593, 2910, 2945, 2963, 4598, 4789, 6287, 7832, 9434, 9481, 11135, 11291, 12812, 13155, 14903, 15924, 16003, 16497, 16711, 17883, 18087, 19909, 20024, 21808, 21858]}, "edge": {"target": [], "time": []}}}, "displayed_time": "26.99", "trialTime": 29262, "trial_type": "mouselab-mdp", "trial_index": 20, "time_elapsed": 547249, "internal_node_id": "0.0-4.0-1.0-11.0"}}, {"uniqueid": "w34625717:a70687295", "current_trial": 21, "dateTime": 1691166285841, "trialdata": {"revealed_states": [], "clicked_states": ["20", "21", "22", "18", "17", "16", "7", "6", "5"], "num_clicks_accrued": [0, 0, 0, 0, 0, 0, 0, 0, 0, 0, 0, 0, 0], "stateRewards": ["", -2, -1, 3, -3, 71, -58, -21, 7, -10, -75, -37, 2, 4, -1, -12, -79, -29, -48, 3, -41, -10, -30, -1, -2, 1, -15, 13, 66, 22, -1, -42, -86, -55], "withholdReward": false, "trial_id": "mdp_trial_13", "block": "test", "trialIndex": 14, "score": 55.4, "costs": -12.600000000000001, "simulationMode": [null, null, null, null, null], "rewards": [-2, -1, 3, -3, 71], "path": ["0", "0", "1", "2", "3", "4", "5"], "rt": [20188, 28, 61, 10, 56], "actions": ["up", "up", "up", "right", "up"], "actionTimes": [21741, 22298, 22860, 23429, 23988], "queries": {"click": {"state": {"target": ["20", "21", "22", "18", "17", "16", "7", "6", "5"], "time": [2681, 4743, 6805, 9063, 10941, 12787, 14804, 16835, 18754]}, "edge": {"target": [], "time": []}}, "mouseover": {"state": {"target": ["12", "19", "20", "21", "21", "22", "14", "17", "15", "18", "18", "15", "17", "16", "16", "7", "7", "4", "5", "6", "5", "5", "9", "9"], "time": [1747, 1950, 2461, 3266, 3714, 5582, 7321, 7351, 7803, 8177, 8842, 9497, 9687, 11287, 11774, 13456, 14294, 15176, 15258, 16344, 17346, 17744, 19227, 19995]}, "edge": {"target": [], "time": []}}, "mouseout": {"state": {"target": ["15", "18", "1", "0", "12", "19", "20", "21", "21", "22", "14", "17", "15", "18", "18", "15", "17", "16", "16", "7", "7", "4", "5", "6", "5", "5", "9"], "time": [563, 597, 855, 1715, 1763, 2320, 3217, 3282, 5162, 7285, 7335, 7369, 8159, 8192, 9112, 9571, 11218, 11305, 13356, 13475, 15142, 15224, 15823, 16986, 17444, 19177, 19244]}, "edge": {"target": [], "time": []}}}, "displayed_time": "24.52", "trialTime": 25490, "trial_type": "mouselab-mdp", "trial_index": 21, "time_elapsed": 573210, "internal_node_id": "0.0-4.0-1.0-12.0"}}, {"uniqueid": "w34625717:a70687295", "current_trial": 22, "dateTime": 1691166319041, "trialdata": {"revealed_states": [], "clicked_states": ["11", "9", "10", "7", "5", "6", "18", "16", "17", "21", "22", "20"], "num_clicks_accrued": [0, 0, 0, 0, 0, 0, 0, 0, 0, 0, 0, 0, 0], "stateRewards": ["", 1, 4, -8, -5, -15, -7, 21, 13, -30, 40, -65, 1, 1, 5, -14, 35, 27, -38, -11, 36, -58, -47, -2, 4, -3, 13, -16, -49, 22, 15, -56, -44, -10], "withholdReward": false, "trial_id": "mdp_trial_14", "block": "test", "trialIndex": 15, "score": -71.8, "costs": -16.8, "simulationMode": [null, null, null, null, null], "rewards": [1, 4, -8, 13, -65], "path": ["0", "0", "1", "2", "3", "8", "11"], "rt": [26433, 44, 61, 41, 35], "actions": ["up", "up", "up", "left", "left"], "actionTimes": [28967, 29518, 30115, 30675, 31216], "queries": {"click": {"state": {"target": ["11", "9", "10", "7", "5", "6", "18", "16", "17", "21", "22", "20"], "time": [3423, 5176, 7079, 9149, 10951, 12861, 15241, 17661, 20042, 22377, 24560, 26538]}, "edge": {"target": [], "time": []}}, "mouseover": {"state": {"target": ["28", "11", "9", "9", "8", "10", "2", "7", "7", "5", "6", "16", "18", "13", "22", "16", "16", "17", "19", "21", "22", "19", "20", "20"], "time": [2585, 3113, 3863, 4580, 5580, 5782, 7416, 7467, 8066, 10056, 12150, 13687, 14981, 15877, 16356, 16958, 17240, 19592, 20807, 21207, 23327, 24829, 24977, 25620]}, "edge": {"target": [], "time": []}}, "mouseout": {"state": {"target": ["9", "8", "10", "0", "28", "11", "9", "9", "8", "10", "2", "7", "7", "5", "6", "6", "16", "18", "18", "13", "22", "16", "16", "17", "17", "19", "21", "22", "19", "20"], "time": [503, 600, 849, 2547, 2976, 3813, 3931, 5548, 5681, 7400, 7452, 7864, 9482, 11500, 12928, 13454, 14872, 15320, 15870, 15940, 16788, 17030, 18391, 20096, 20289, 21072, 22472, 24795, 24878, 25142]}, "edge": {"target": [], "time": []}}}, "displayed_time": "31.74", "trialTime": 32787, "trial_type": "mouselab-mdp", "trial_index": 22, "time_elapsed": 606410, "internal_node_id": "0.0-4.0-1.0-13.0"}}, {"uniqueid": "w34625717:a70687295", "current_trial": 23, "dateTime": 1691166339174, "trialdata": {"revealed_states": [], "clicked_states": ["29", "28", "27", "33", "32", "31"], "num_clicks_accrued": [0, 0, 0, 0, 0, 0, 0, 0, 0, 0, 0, 0, 0], "stateRewards": ["", -2, 1, -3, -16, -39, -52, 30, -7, -41, -59, 11, 2, 1, 8, 2, -11, -26, -42, -13, 87, -59, -48, -1, -1, -1, 16, -79, 31, 50, -1, -84, 34, -82], "withholdReward": false, "trial_id": "mdp_trial_15", "block": "test", "trialIndex": 16, "score": 54.6, "costs": -8.4, "simulationMode": [null, null, null, null, null], "rewards": [-1, -1, -1, 16, 50], "path": ["0", "0", "23", "24", "25", "26", "29"], "rt": [13828, 38, 28, 63, 5], "actions": ["left", "left", "left", "up", "left"], "actionTimes": [16279, 16817, 17339, 17916, 18438], "queries": {"click": {"state": {"target": ["29", "28", "27", "33", "32", "31"], "time": [3994, 6125, 8050, 10179, 12202, 14359]}, "edge": {"target": [], "time": []}}, "mouseover": {"state": {"target": ["23", "24", "25", "25", "26", "29", "27", "28", "27", "27", "33", "33", "32", "31"], "time": [2812, 3024, 3097, 3280, 3435, 3830, 4881, 5352, 6480, 7065, 8601, 9401, 11054, 12688]}, "edge": {"target": [], "time": []}}, "mouseout": {"state": {"target": ["20", "19", "22", "0", "23", "24", "25", "25", "26", "29", "27", "28", "27", "27", "33", "33", "32", "31"], "time": [1193, 1227, 1316, 2780, 2862, 3067, 3130, 3376, 3450, 4581, 5199, 6431, 6748, 8518, 8634, 10532, 12281, 14410]}, "edge": {"target": [], "time": []}}}, "displayed_time": "18.97", "trialTime": 19681, "trial_type": "mouselab-mdp", "trial_index": 23, "time_elapsed": 626542, "internal_node_id": "0.0-4.0-1.0-14.0"}}, {"uniqueid": "w34625717:a70687295", "current_trial": 24, "dateTime": 1691166355591, "trialdata": {"revealed_states": [], "clicked_states": ["20", "21", "22"], "num_clicks_accrued": [0, 0, 0, 0, 0, 0, 0, 0, 0, 0, 0, 0, 0], "stateRewards": ["", 2, -1, 4, -9, -43, 7, 54, -13, 38, -40, -83, -1, 2, -8, -10, 34, -33, 11, -14, -79, 65, 26, 1, 2, 4, 10, 21, 1, 86, 4, -53, 28, -29], "withholdReward": false, "trial_id": "mdp_trial_16", "block": "test", "trialIndex": 17, "score": 39.8, "costs": -4.199999999999999, "simulationMode": [null, null, null, null, null, null], "rewards": [-1, 2, -8, -14, 65], "path": ["0", "0", "12", "13", "14", "19", "21"], "rt": [5824, 716, 162, 30, 75, 88], "actions": ["right", "right", "right", "right", "down", "down"], "actionTimes": [7134, 7862, 8522, 9062, 9636, 10232], "queries": {"click": {"state": {"target": ["20", "21", "22"], "time": [2442, 4132, 6030]}, "edge": {"target": [], "time": []}}, "mouseover": {"state": {"target": ["12", "19", "20", "20", "21", "21", "22", "22"], "time": [1519, 1667, 1850, 2065, 3188, 3655, 4956, 5253]}, "edge": {"target": [], "time": []}}, "mouseout": {"state": {"target": ["25", "24", "23", "0", "0", "12", "19", "20", "20", "20", "21", "21", "22", "22"], "time": [506, 541, 589, 634, 1502, 1535, 1766, 1949, 2515, 3142, 3204, 4496, 4987, 11426]}, "edge": {"target": [], "time": []}}}, "displayed_time": "15.31", "trialTime": 16022, "trial_type": "mouselab-mdp", "trial_index": 24, "time_elapsed": 642961, "internal_node_id": "0.0-4.0-1.0-15.0"}}, {"uniqueid": "w34625717:a70687295", "current_trial": 25, "dateTime": 1691166377181, "trialdata": {"revealed_states": [], "clicked_states": ["17", "16", "18", "22", "20", "21", "31"], "num_clicks_accrued": [0, 0, 0, 0, 0, 0, 0, 0, 0, 0, 0, 0, 0], "stateRewards": ["", 1, 2, -8, 9, 18, -83, -11, 6, -64, -48, 17, -2, -2, -5, -3, -24, -3, -86, -2, 48, -41, -22, -2, 4, 7, 8, 81, 13, -48, 10, 61, 19, 57], "withholdReward": false, "trial_id": "mdp_trial_17", "block": "test", "trialIndex": 18, "score": 70.2, "costs": -9.8, "simulationMode": [null, null, null, null, null], "rewards": [-2, 4, 7, 10, 61], "path": ["0", "0", "23", "24", "25", "30", "31"], "rt": [16017, 96, 73, 111, 105], "actions": ["left", "left", "left", "down", "right"], "actionTimes": [17520, 18119, 18689, 19301, 19910], "queries": {"click": {"state": {"target": ["17", "16", "18", "22", "20", "21", "31"], "time": [2515, 4384, 6282, 8210, 10091, 11993, 14590]}, "edge": {"target": [], "time": []}}, "mouseover": {"state": {"target": ["12", "13", "15", "17", "16", "18", "21", "22", "19", "20", "21", "31", "31", "32"], "time": [1553, 1628, 2044, 2317, 2986, 4871, 6864, 7409, 8809, 8953, 10577, 13878, 14328, 15733]}, "edge": {"target": [], "time": []}}, "mouseout": {"state": {"target": ["22", "19", "22", "0", "12", "13", "15", "17", "16", "18", "21", "22", "19", "20", "21", "31", "31"], "time": [405, 606, 653, 789, 1585, 1695, 2095, 2927, 4774, 6657, 7260, 8609, 8859, 10443, 12359, 13979, 15197]}, "edge": {"target": [], "time": []}}}, "displayed_time": "20.40", "trialTime": 21171, "trial_type": "mouselab-mdp", "trial_index": 25, "time_elapsed": 664550, "internal_node_id": "0.0-4.0-1.0-16.0"}}, {"uniqueid": "w34625717:a70687295", "current_trial": 26, "dateTime": 1691166394421, "trialdata": {"revealed_states": [], "clicked_states": ["28", "27"], "num_clicks_accrued": [0, 0, 0, 0, 0, 0, 0, 0, 0, 0, 0, 0, 0], "stateRewards": ["", -1, 1, -2, 5, 73, 15, 61, 8, 7, 38, 76, 2, 2, -4, -6, -6, -26, 43, -5, -45, -85, -35, -2, 1, -4, 15, -10, 69, 72, -11, 84, -49, -38], "withholdReward": false, "trial_id": "mdp_trial_18", "block": "test", "trialIndex": 19, "score": 76.2, "costs": -2.8, "simulationMode": [null, null, null, null, null], "rewards": [-2, 1, -4, 15, 69], "path": ["0", "0", "23", "24", "25", "26", "28"], "rt": [5289, 84, 60, 80, 28], "actions": ["left", "left", "left", "up", "right"], "actionTimes": [7512, 8102, 8661, 9273, 9833], "queries": {"click": {"state": {"target": ["28", "27"], "time": [3836, 5725]}, "edge": {"target": [], "time": []}}, "mouseover": {"state": {"target": ["0", "23", "24", "25", "28", "27"], "time": [2769, 2953, 3033, 3144, 3637, 4747]}, "edge": {"target": [], "time": []}}, "mouseout": {"state": {"target": ["32", "32", "31", "23", "0", "23", "24", "25", "28", "27"], "time": [null, 1019, 1088, 1101, 2915, 2996, 3079, 3319, 3910, 6131]}, "edge": {"target": [], "time": []}}}, "displayed_time": "16.23", "trialTime": 16802, "trial_type": "mouselab-mdp", "trial_index": 26, "time_elapsed": 681790, "internal_node_id": "0.0-4.0-1.0-17.0"}}, {"uniqueid": "w34625717:a70687295", "current_trial": 27, "dateTime": 1691166411434, "trialdata": {"revealed_states": [], "clicked_states": ["22", "21"], "num_clicks_accrued": [0, 0, 0, 0, 0, 0, 0, 0, 0, 0, 0, 0, 0], "stateRewards": ["", 1, 2, 3, 16, 63, -25, 16, -4, -14, 82, -66, -1, -3, -3, -11, -14, 19, 46, 3, -34, -82, 66, -2, -3, 4, -5, -63, 77, -37, -1, -45, -41, 84], "withholdReward": false, "trial_id": "mdp_trial_19", "block": "test", "trialIndex": 20, "score": 59.2, "costs": -2.8, "simulationMode": [null, null, null, null, null], "rewards": [-1, -3, -3, 3, 66], "path": ["0", "0", "12", "13", "14", "19", "22"], "rt": [4441, 121, 140, 79, 162], "actions": ["right", "right", "right", "down", "left"], "actionTimes": [6386, 7034, 7686, 8285, 8955], "queries": {"click": {"state": {"target": ["22", "21"], "time": [2810, 4676]}, "edge": {"target": [], "time": []}}, "mouseover": {"state": {"target": ["12", "13", "22", "21"], "time": [2017, 2132, 2628, 3885]}, "edge": {"target": [], "time": []}}, "mouseout": {"state": {"target": ["25", "24", "23", "0", "12", "13", "22"], "time": [318, 756, 875, 2000, 2066, 2185, 3187]}, "edge": {"target": [], "time": []}}}, "displayed_time": "15.95", "trialTime": 16527, "trial_type": "mouselab-mdp", "trial_index": 27, "time_elapsed": 698803, "internal_node_id": "0.0-4.0-1.0-18.0"}}, {"uniqueid": "w34625717:a70687295", "current_trial": 28, "dateTime": 1691166430283, "trialdata": {"revealed_states": [], "clicked_states": ["17", "16", "18", "22", "21", "20"], "num_clicks_accrued": [0, 0, 0, 0, 0, 0, 0, 0, 0, 0, 0, 0, 0], "stateRewards": ["", -2, -3, 8, -4, -30, 31, 69, 9, 66, 87, 64, -2, 2, 8, 5, 47, 16, -39, -8, -54, 51, -19, 1, -2, -2, -11, -25, -26, 43, -9, 19, -84, 86], "withholdReward": false, "trial_id": "mdp_trial_20", "block": "test", "trialIndex": 21, "score": 42.6, "costs": -8.4, "simulationMode": [null, null, null, null, null], "rewards": [-2, 2, 8, -8, 51], "path": ["0", "0", "12", "13", "14", "19", "21"], "rt": [12991, 85, 118, 70, 81], "actions": ["right", "right", "right", "down", "down"], "actionTimes": [14676, 15271, 15892, 16462, 17052], "queries": {"click": {"state": {"target": ["17", "16", "18", "22", "21", "20"], "time": [2347, 4358, 6503, 8487, 10515, 12782]}, "edge": {"target": [], "time": []}}, "mouseover": {"state": {"target": ["18", "15", "17", "16", "16", "18", "13", "22", "22", "21", "20", "19", "13"], "time": [1807, 1860, 1941, 2663, 3462, 5028, 6795, 7246, 7563, 9720, 10950, 13053, 13152]}, "edge": {"target": [], "time": []}}, "mouseout": {"state": {"target": ["21", "19", "14", "14", "0", "0", "18", "15", "17", "16", "16", "18", "18", "13", "22", "22", "21", "20", "19", "13"], "time": [133, 507, 539, 690, 856, 1094, 1847, 1874, 2405, 2710, 4644, 6563, 6767, 6863, 7368, 8831, 10593, 12868, 13070, 13218]}, "edge": {"target": [], "time": []}}}, "displayed_time": "17.57", "trialTime": 18322, "trial_type": "mouselab-mdp", "trial_index": 28, "time_elapsed": 717653, "internal_node_id": "0.0-4.0-1.0-19.0"}}, {"uniqueid": "w34625717:a70687295", "current_trial": 29, "dateTime": 1691166450332, "trialdata": {"revealed_states": [], "clicked_states": ["28", "27", "29", "31", "33", "32"], "num_clicks_accrued": [0, 0, 0, 0, 0, 0, 0, 0, 0, 0, 0, 0, 0], "stateRewards": ["", 1, 1, 6, -14, -40, 37, 16, -13, 33, -68, 49, 2, 4, 3, 6, 55, 27, 32, 10, -65, 20, -87, 2, 1, -6, -5, -42, 12, 29, -8, 16, 76, -33], "withholdReward": false, "trial_id": "mdp_trial_21", "block": "test", "trialIndex": 22, "score": 56.6, "costs": -8.4, "simulationMode": [null, null, null, null, null], "rewards": [2, 1, -6, -8, 76], "path": ["0", "0", "23", "24", "25", "30", "32"], "rt": [13987, 63, 7, 99, 122], "actions": ["left", "left", "left", "down", "down"], "actionTimes": [15684, 16262, 16821, 17432, 18073], "queries": {"click": {"state": {"target": ["28", "27", "29", "31", "33", "32"], "time": [3337, 5193, 7091, 9031, 10933, 12884]}, "edge": {"target": [], "time": []}}, "mouseover": {"state": {"target": ["12", "0", "23", "24", "28", "26", "27", "27", "29", "29", "30", "31", "32", "33", "32", "19", "22"], "time": [2175, 2606, 2689, 2873, 3079, 3788, 4239, 4725, 5557, 6056, 7992, 8143, 9392, 9827, 11395, 14194, 14354]}, "edge": {"target": [], "time": []}}, "mouseout": {"state": {"target": ["12", "0", "0", "12", "0", "23", "24", "28", "26", "27", "27", "27", "29", "29", "30", "31", "32", "33", "32", "19", "22"], "time": [826, 957, 1153, 2540, 2623, 2806, 3003, 3772, 3806, 4357, 5234, 5472, 5608, 7406, 8058, 9346, 9409, 11244, 13128, 14229, 15042]}, "edge": {"target": [], "time": []}}}, "displayed_time": "18.57", "trialTime": 19553, "trial_type": "mouselab-mdp", "trial_index": 29, "time_elapsed": 737702, "internal_node_id": "0.0-4.0-1.0-20.0"}}, {"uniqueid": "w34625717:a70687295", "current_trial": 30, "dateTime": 1691166468444, "trialdata": {"revealed_states": [], "clicked_states": ["20", "22"], "num_clicks_accrued": [0, 0, 0, 0, 0, 0, 0, 0, 0, 0, 0, 0, 0], "stateRewards": ["", 1, 3, 1, -13, 52, -28, 67, -14, 3, 63, -70, -1, -4, 7, -11, -10, 47, -18, 6, 69, -9, -61, 2, 3, -6, 10, 63, -34, 40, -6, -79, -35, -32], "withholdReward": false, "trial_id": "mdp_trial_22", "block": "test", "trialIndex": 23, "score": 74.2, "costs": -2.8, "simulationMode": [null, null, null, null, null, null], "rewards": [-1, -4, 7, 6, 69], "path": ["0", "0", "12", "13", "14", "19", "20"], "rt": [3785, 799, 114, 95, 37, 98], "actions": ["right", "right", "right", "right", "down", "right"], "actionTimes": [6154, 6961, 7571, 8170, 8750, 9341], "queries": {"click": {"state": {"target": ["20", "22"], "time": [3444, 5279]}, "edge": {"target": [], "time": []}}, "mouseover": {"state": {"target": ["12", "13", "20", "19", "22"], "time": [2508, 2569, 3307, 4038, 4087]}, "edge": {"target": [], "time": []}}, "mouseout": {"state": {"target": ["0", "12", "13", "20", "19", "22"], "time": [2467, 2552, 2627, 4004, 4071, 15345]}, "edge": {"target": [], "time": []}}}, "displayed_time": "16.37", "trialTime": 17632, "trial_type": "mouselab-mdp", "trial_index": 30, "time_elapsed": 755813, "internal_node_id": "0.0-4.0-1.0-21.0"}}, {"uniqueid": "w34625717:a70687295", "current_trial": 31, "dateTime": 1691166490334, "trialdata": {"revealed_states": [], "clicked_states": ["20", "22", "21", "31", "33", "32", "27"], "num_clicks_accrued": [0, 0, 0, 0, 0, 0, 0, 0, 0, 0, 0, 0, 0], "stateRewards": ["", -1, 2, -6, 6, 43, 78, 78, -2, 55, -29, -17, -2, -4, 1, -15, 13, 7, -79, 8, -28, -68, 36, -1, -3, 3, -16, 84, -18, 87, 10, 32, 13, -81], "withholdReward": false, "trial_id": "mdp_trial_23", "block": "test", "trialIndex": 24, "score": 57.2, "costs": -9.8, "simulationMode": [null, null, null, null, null], "rewards": [-1, -3, 3, -16, 84], "path": ["0", "0", "23", "24", "25", "26", "27"], "rt": [15229, 66, 25, 753, 102], "actions": ["left", "left", "left", "up", "up"], "actionTimes": [16789, 17359, 17898, 19160, 19760], "queries": {"click": {"state": {"target": ["20", "22", "21", "31", "33", "32", "27"], "time": [2453, 4340, 6332, 8223, 10053, 11932, 13953]}, "edge": {"target": [], "time": []}}, "mouseover": {"state": {"target": ["12", "19", "20", "19", "22", "21", "31", "33", "33", "32", "30", "27", "26", "28"], "time": [1732, 2073, 2251, 2695, 3309, 4961, 7166, 8646, 8995, 10552, 12250, 12699, 14402, 14652]}, "edge": {"target": [], "time": []}}, "mouseout": {"state": {"target": ["0", "0", "12", "19", "20", "19", "22", "21", "31", "33", "33", "32", "30", "27", "26"], "time": [798, 1701, 1769, 2107, 2552, 2744, 4712, 6626, 8563, 8696, 10367, 12047, 12286, 14303, 14435]}, "edge": {"target": [], "time": []}}}, "displayed_time": "20.27", "trialTime": 21401, "trial_type": "mouselab-mdp", "trial_index": 31, "time_elapsed": 777704, "internal_node_id": "0.0-4.0-1.0-22.0"}}, {"uniqueid": "w34625717:a70687295", "current_trial": 32, "dateTime": 1691166507115, "trialdata": {"revealed_states": [], "clicked_states": ["20", "22", "19", "13"], "num_clicks_accrued": [0, 0, 0, 0, 0, 0, 0, 0, 0, 0, 0, 0, 0], "stateRewards": ["", 2, -3, 5, -14, -63, -9, -24, -11, -54, -43, 68, 2, -2, -4, 7, -64, 30, 47, 12, -74, 11, 86, 1, -3, 3, 10, -71, -42, -52, -1, -29, -16, 69], "withholdReward": false, "trial_id": "mdp_trial_24", "block": "test", "trialIndex": 25, "score": 88.4, "costs": -5.6, "simulationMode": [null, null, null, null, null], "rewards": [2, -2, -4, 12, 86], "path": ["0", "0", "12", "13", "14", "19", "22"], "rt": [9927, 91, 111, 43, 86], "actions": ["right", "right", "right", "down", "left"], "actionTimes": [11756, 12347, 12968, 13515, 14125], "queries": {"click": {"state": {"target": ["20", "22", "19", "13"], "time": [2652, 4552, 7875, 9912]}, "edge": {"target": [], "time": []}}, "mouseover": {"state": {"target": ["12", "13", "14", "20", "22", "21", "19", "14", "14", "13"], "time": [1860, 1910, 1944, 2544, 3756, 5049, 6730, 8384, 8940, 9465]}, "edge": {"target": [], "time": []}}, "mouseout": {"state": {"target": ["28", "0", "12", "13", "14", "20", "22", "21", "19", "14", "14", "13"], "time": [333, 1848, 1894, 1928, 1977, 2770, 4882, 6687, 8220, 8435, 9285, 15567]}, "edge": {"target": [], "time": []}}}, "displayed_time": "15.83", "trialTime": 16317, "trial_type": "mouselab-mdp", "trial_index": 32, "time_elapsed": 794484, "internal_node_id": "0.0-4.0-1.0-23.0"}}, {"uniqueid": "w34625717:a70687295", "current_trial": 33, "dateTime": 1691166536334, "trialdata": {"revealed_states": [], "clicked_states": ["22", "20", "21", "16", "17", "18", "6", "5", "7", "10"], "num_clicks_accrued": [0, 0, 0, 0, 0, 0, 0, 0, 0, 0, 0, 0, 0], "stateRewards": ["", -1, -3, -7, -7, -76, 30, -49, 11, -70, 56, 2, 1, 4, -3, -14, -59, -83, -25, -9, -21, -67, -73, -2, 4, 4, -9, -11, -32, 60, 9, -87, 22, -64], "withholdReward": false, "trial_id": "mdp_trial_25", "block": "test", "trialIndex": 26, "score": 42, "costs": -14.000000000000002, "simulationMode": [null, null, null, null, null], "rewards": [-1, -3, -7, 11, 56], "path": ["0", "0", "1", "2", "3", "8", "10"], "rt": [22904, 9, 49, 16, 21], "actions": ["up", "up", "up", "left", "down"], "actionTimes": [25044, 25589, 26164, 26724, 27284], "queries": {"click": {"state": {"target": ["22", "20", "21", "16", "17", "18", "6", "5", "7", "10"], "time": [3713, 5599, 7502, 9475, 11431, 13374, 15298, 17477, 19432, 21476]}, "edge": {"target": [], "time": []}}, "mouseover": {"state": {"target": ["22", "19", "20", "19", "21", "19", "14", "15", "16", "17", "17", "15", "18", "6", "5", "4", "7", "8", "10", "8", "9", "9"], "time": [3437, 4025, 4546, 6014, 6216, 7846, 7964, 8098, 8397, 9866, 10869, 11703, 11799, 14236, 16447, 17805, 18089, 19723, 20805, 21759, 21872, 22681]}, "edge": {"target": [], "time": []}}, "mouseout": {"state": {"target": ["12", "0", "0", "22", "19", "20", "19", "21", "19", "14", "15", "16", "17", "17", "15", "18", "6", "5", "4", "7", "8", "10", "8", "9"], "time": [511, 546, 3026, 3987, 4089, 5938, 6032, 7797, 7931, 8066, 8189, 9815, 10168, 11689, 11748, 13771, 15553, 17771, 17956, 19481, 19756, 21724, 21805, 22105]}, "edge": {"target": [], "time": []}}}, "displayed_time": "27.78", "trialTime": 28674, "trial_type": "mouselab-mdp", "trial_index": 33, "time_elapsed": 823703, "internal_node_id": "0.0-4.0-1.0-24.0"}}, {"uniqueid": "w34625717:a70687295", "current_trial": 34, "dateTime": 1691166572983, "trialdata": {"revealed_states": [], "clicked_states": ["28", "27", "29", "33", "31", "32", "21", "22", "16", "17", "18", "6", "5"], "num_clicks_accrued": [0, 0, 0, 0, 0, 0, 0, 0, 0, 0, 0, 0, 0], "stateRewards": ["", 2, -4, 4, 9, 69, 9, -75, 12, -86, 66, 25, -1, 3, 2, -13, -88, -3, 1, 4, -69, 49, -84, 2, -1, 4, 2, -18, -81, -52, -15, -69, -54, 25], "withholdReward": false, "trial_id": "mdp_trial_26", "block": "test", "trialIndex": 27, "score": 61.8, "costs": -18.2, "simulationMode": [null, null, null, null, null], "rewards": [2, -4, 4, 9, 69], "path": ["0", "0", "1", "2", "3", "4", "5"], "rt": [29625, 38, 7, 52, 62], "actions": ["up", "up", "up", "right", "up"], "actionTimes": [32484, 33031, 33568, 34144, 34681], "queries": {"click": {"state": {"target": ["28", "27", "29", "33", "31", "32", "21", "22", "16", "17", "18", "6", "5"], "time": [4534, 6348, 8283, 10152, 11930, 13786, 15671, 17755, 21342, 23218, 25153, 27390, 29605]}, "edge": {"target": [], "time": []}}, "mouseover": {"state": {"target": ["28", "28", "27", "29", "29", "33", "30", "31", "32", "22", "19", "21", "19", "22", "19", "20", "14", "15", "16", "16", "17", "18", "18", "6", "5", "4", "7"], "time": [3072, 4138, 5079, 6680, 7096, 8732, 10500, 11016, 12352, 14651, 14803, 15045, 16054, 16419, 18089, 18242, 19844, 20014, 21077, 21123, 21966, 23594, 24425, 25903, 28662, 29997, 30250]}, "edge": {"target": [], "time": []}}, "mouseout": {"state": {"target": ["9", "8", "2", "1", "0", "28", "28", "27", "29", "29", "33", "30", "31", "32", "22", "19", "21", "19", "22", "19", "20", "14", "15", "16", "16", "17", "18", "18", "6", "5", "4"], "time": [1030, 1108, 1350, 1525, 2974, 3389, 5014, 6630, 6752, 8583, 10429, 10533, 12286, 14092, 14747, 14953, 15725, 16352, 18055, 18165, 18305, 19907, 20217, 21109, 21841, 23308, 23642, 25191, 27459, 29933, 30113]}, "edge": {"target": [], "time": []}}}, "displayed_time": "35.22", "trialTime": 36072, "trial_type": "mouselab-mdp", "trial_index": 34, "time_elapsed": 860353, "internal_node_id": "0.0-4.0-1.0-25.0"}}, {"uniqueid": "w34625717:a70687295", "current_trial": 35, "dateTime": 1691166589533, "trialdata": {"revealed_states": [], "clicked_states": ["28", "27"], "num_clicks_accrued": [0, 0, 0, 0, 0, 0, 0, 0, 0, 0, 0, 0, 0], "stateRewards": ["", 1, -4, -4, 8, 1, -79, 68, -10, -79, 8, -74, -1, -3, -6, 14, 43, 23, 9, 5, -51, 63, 61, -2, 4, 6, -10, 69, -32, 57, 15, -80, -80, -77], "withholdReward": false, "trial_id": "mdp_trial_27", "block": "test", "trialIndex": 28, "score": 64.2, "costs": -2.8, "simulationMode": [null, null, null, null, null], "rewards": [-2, 4, 6, -10, 69], "path": ["0", "0", "23", "24", "25", "26", "27"], "rt": [6131, 45, 4, 32, 24], "actions": ["left", "left", "left", "up", "up"], "actionTimes": [7710, 8267, 8786, 9338, 9877], "queries": {"click": {"state": {"target": ["28", "27"], "time": [2797, 4636]}, "edge": {"target": [], "time": []}}, "mouseover": {"state": {"target": ["25", "26", "28", "27"], "time": [2147, 2257, 2497, 3710]}, "edge": {"target": [], "time": []}}, "mouseout": {"state": {"target": ["7", "0", "25", "26", "28", "27"], "time": [626, 1778, 2218, 2291, 2853, 5330]}, "edge": {"target": [], "time": []}}}, "displayed_time": "15.58", "trialTime": 16127, "trial_type": "mouselab-mdp", "trial_index": 35, "time_elapsed": 876903, "internal_node_id": "0.0-4.0-1.0-26.0"}}, {"uniqueid": "w34625717:a70687295", "current_trial": 36, "dateTime": 1691166606514, "trialdata": {"revealed_states": [], "clicked_states": ["21", "22", "20", "31"], "num_clicks_accrued": [0, 0, 0, 0, 0, 0, 0, 0, 0, 0, 0, 0, 0], "stateRewards": ["", 1, -1, 8, 4, 76, -33, -17, -3, -1, -54, -74, -2, 2, -5, 13, -51, 63, 83, 1, 84, 29, -36, 2, -1, 7, -12, -10, -44, -43, -14, 8, -69, 19], "withholdReward": false, "trial_id": "mdp_trial_28", "block": "test", "trialIndex": 29, "score": 74.4, "costs": -5.6, "simulationMode": [null, null, null, null, null, null], "rewards": [-2, 2, -5, 1, 84], "path": ["0", "0", "12", "13", "14", "19", "20"], "rt": [7490, 1053, 88, 19, 51, 61], "actions": ["right", "right", "right", "right", "down", "right"], "actionTimes": [9457, 10517, 11125, 11644, 12206, 12784], "queries": {"click": {"state": {"target": ["21", "22", "20", "31"], "time": [2807, 4817, 6805, 8604]}, "edge": {"target": [], "time": []}}, "mouseover": {"state": {"target": ["12", "19", "21", "22", "19", "20", "19", "31", "31"], "time": [2088, 2355, 2557, 4148, 5203, 5441, 7052, 7519, 7903]}, "edge": {"target": [], "time": []}}, "mouseout": {"state": {"target": ["26", "23", "0", "0", "12", "19", "21", "22", "19", "20", "19", "31"], "time": [537, 721, 829, 2055, 2141, 2435, 3782, 5163, 5318, 6887, 7068, 7537]}, "edge": {"target": [], "time": []}}}, "displayed_time": "15.97", "trialTime": 16486, "trial_type": "mouselab-mdp", "trial_index": 36, "time_elapsed": 893883, "internal_node_id": "0.0-4.0-1.0-27.0"}}, {"uniqueid": "w34625717:a70687295", "current_trial": 37, "dateTime": 1691166623211, "trialdata": {"revealed_states": [], "clicked_states": ["17", "16", "18", "20"], "num_clicks_accrued": [0, 0, 0, 0, 0, 0, 0, 0, 0, 0, 0, 0, 0], "stateRewards": ["", -1, -3, 1, -4, -48, -63, -49, -2, -84, -19, 65, 2, -2, -2, -12, -4, 59, 9, 6, 75, 69, -13, -1, -3, -3, -2, -37, -68, -36, 13, 32, 18, -14], "withholdReward": false, "trial_id": "mdp_trial_29", "block": "test", "trialIndex": 30, "score": 73.4, "costs": -5.6, "simulationMode": [null, null, null, null, null], "rewards": [2, -2, -2, 6, 75], "path": ["0", "0", "12", "13", "14", "19", "20"], "rt": [10327, 76, 66, 79, 13], "actions": ["right", "right", "right", "down", "right"], "actionTimes": [11923, 12503, 13094, 13673, 14242], "queries": {"click": {"state": {"target": ["17", "16", "18", "20"], "time": [2522, 4833, 6854, 9319]}, "edge": {"target": [], "time": []}}, "mouseover": {"state": {"target": ["12", "13", "15", "17", "16", "15", "18", "14", "19", "20", "21", "21"], "time": [1668, 1745, 1882, 2284, 3284, 5334, 5535, 7321, 7556, 9009, 10390, 11131]}, "edge": {"target": [], "time": []}}, "mouseout": {"state": {"target": ["31", "31", "0", "12", "13", "15", "17", "16", "15", "18", "14", "19", "20", "21"], "time": [null, 124, 1665, 1699, 1794, 2086, 2933, 5219, 5386, 7255, 7421, 7588, 9990, 10607]}, "edge": {"target": [], "time": []}}}, "displayed_time": "15.60", "trialTime": 16042, "trial_type": "mouselab-mdp", "trial_index": 37, "time_elapsed": 910581, "internal_node_id": "0.0-4.0-1.0-28.0"}}, {"uniqueid": "w34625717:a70687295", "current_trial": 38, "dateTime": 1691166666871, "trialdata": {"revealed_states": [], "clicked_states": ["20", "22", "21", "16", "17", "18", "28", "27", "29", "33", "31", "32"], "num_clicks_accrued": [0, 0, 0, 0, 0, 0, 0, 0, 0, 0, 0, 0, 0], "stateRewards": ["", -2, 3, 3, -14, 62, 36, 49, 16, 11, 17, -84, 2, -1, 6, 2, -82, -73, 49, -6, -87, 48, 50, -1, -2, -1, -16, -11, 37, -44, 4, 55, 73, -10], "withholdReward": false, "trial_id": "mdp_trial_30", "block": "test", "trialIndex": 31, "score": 56.2, "costs": -16.8, "simulationMode": [null, null, null, null, null], "rewards": [-1, -2, -1, 4, 73], "path": ["0", "0", "23", "24", "25", "30", "32"], "rt": [28975, 378, 18, 40, 93], "actions": ["left", "left", "left", "down", "down"], "actionTimes": [30964, 31876, 32420, 32996, 33636], "queries": {"click": {"state": {"target": ["20", "22", "21", "16", "17", "18", "28", "27", "29", "33", "31", "32"], "time": [2978, 4820, 6856, 9215, 11057, 12961, 15625, 17646, 19526, 21669, 23629, 25685]}, "edge": {"target": [], "time": []}}, "mouseover": {"state": {"target": ["12", "13", "14", "20", "19", "22", "22", "21", "19", "14", "15", "16", "17", "15", "18", "18", "1", "28", "26", "27", "29", "33", "30", "31", "32", "30", "24", "28"], "time": [2249, 2311, 2477, 2747, 3396, 3447, 3930, 5228, 7149, 7182, 7214, 7681, 9763, 11317, 11354, 12018, 13745, 15320, 16038, 16303, 17956, 21447, 22028, 22209, 24678, 26147, 26224, 26296]}, "edge": {"target": [], "time": []}}, "mouseout": {"state": {"target": ["21", "23", "0", "12", "13", "14", "20", "19", "22", "22", "21", "19", "14", "15", "16", "17", "15", "18", "18", "1", "28", "26", "27", "29", "33", "30", "31", "32", "30", "24", "28"], "time": [301, 1010, 2227, 2294, 2399, 2494, 3070, 3429, 3546, 5125, 6925, 7166, 7199, 7603, 9536, 11123, 11337, 11369, 13287, 13808, 15989, 16106, 17907, 19890, 21765, 22043, 23929, 26097, 26181, 26250, 26312]}, "edge": {"target": [], "time": []}}}, "displayed_time": "34.17", "trialTime": 43234, "trial_type": "mouselab-mdp", "trial_index": 38, "time_elapsed": 954241, "internal_node_id": "0.0-4.0-1.0-29.0"}}, {"uniqueid": "w34625717:a70687295", "current_trial": 39, "dateTime": 1691166687104, "trialdata": {"revealed_states": [], "clicked_states": ["22", "20"], "num_clicks_accrued": [0, 0, 0, 0, 0, 0, 0, 0, 0, 0, 0, 0, 0], "stateRewards": ["", 2, 3, 8, 14, 69, -27, 17, 2, -71, -65, -10, 2, -3, 7, 8, 65, -10, 65, -12, 73, -12, 13, -2, -2, 6, 10, -79, -69, -18, 10, -85, 67, 74], "withholdReward": false, "trial_id": "mdp_trial_31", "block": "test", "trialIndex": 32, "score": 64.2, "costs": -2.8, "simulationMode": [null, null, null, null, null], "rewards": [2, -3, 7, -12, 73], "path": ["0", "0", "12", "13", "14", "19", "20"], "rt": [6638, 109, 75, 62, 99], "actions": ["right", "right", "right", "down", "right"], "actionTimes": [11785, 12416, 12995, 13584, 14184], "queries": {"click": {"state": {"target": ["22", "20"], "time": [6503, 8499]}, "edge": {"target": [], "time": []}}, "mouseover": {"state": {"target": ["12", "13", "22", "22", "19", "20", "21"], "time": [5736, 5865, 6001, 6286, 7061, 7428, 8830]}, "edge": {"target": [], "time": []}}, "mouseout": {"state": {"target": ["5", "20", "0", "12", "13", "22", "22", "22", "19", "20", "20", "21"], "time": [2034, 2974, 5666, 5834, 5911, 6021, 6604, 7013, 7312, 8577, 8764, 14349]}, "edge": {"target": [], "time": []}}}, "displayed_time": "19.15", "trialTime": 19634, "trial_type": "mouselab-mdp", "trial_index": 39, "time_elapsed": 974474, "internal_node_id": "0.0-4.0-1.0-30.0"}}, {"uniqueid": "w34625717:a70687295", "current_trial": 40, "dateTime": 1691166711660, "trialdata": {"revealed_states": [], "clicked_states": ["33", "31", "27", "28", "29", "20", "21", "22"], "num_clicks_accrued": [0, 0, 0, 0, 0, 0, 0, 0, 0, 0, 0, 0, 0], "stateRewards": ["", 2, -1, -4, -13, 74, 77, 3, 2, -43, -2, -11, 2, 3, 7, 11, -26, -29, -33, -3, -3, -13, -3, 1, 3, -7, 14, -59, 33, 9, -5, 34, 79, 68], "withholdReward": false, "trial_id": "mdp_trial_32", "block": "test", "trialIndex": 33, "score": 48.8, "costs": -11.200000000000001, "simulationMode": [null, null, null, null, null], "rewards": [1, 3, -7, -5, 68], "path": ["0", "0", "23", "24", "25", "30", "33"], "rt": [18487, 18, 10, 44, 101], "actions": ["left", "left", "left", "down", "left"], "actionTimes": [20050, 20560, 21111, 21700, 22314], "queries": {"click": {"state": {"target": ["33", "31", "27", "28", "29", "20", "21", "22"], "time": [2760, 5313, 7692, 9738, 11768, 14210, 16123, 18116]}, "edge": {"target": [], "time": []}}, "mouseover": {"state": {"target": ["23", "30", "33", "30", "31", "25", "26", "27", "28", "26", "29", "29", "26", "1", "12", "13", "19", "20", "20", "21", "19", "22"], "time": [1581, 1666, 2478, 3446, 4384, 5718, 5807, 6330, 8282, 9984, 10040, 10853, 12902, 12986, 13086, 13169, 13608, 13688, 14104, 14620, 16554, 17138]}, "edge": {"target": [], "time": []}}, "mouseout": {"state": {"target": ["0", "0", "23", "30", "33", "30", "31", "25", "26", "27", "27", "28", "26", "29", "29", "26", "1", "12", "13", "19", "20", "20", "21", "19"], "time": [627, 801, 1592, 2261, 3356, 3573, 5651, 5771, 6264, 7810, 8041, 9808, 10019, 10074, 12869, 12919, 13020, 13121, 13186, 13648, 13706, 14558, 16471, 16571]}, "edge": {"target": [], "time": []}}}, "displayed_time": "22.81", "trialTime": 23992, "trial_type": "mouselab-mdp", "trial_index": 40, "time_elapsed": 999030, "internal_node_id": "0.0-4.0-1.0-31.0"}}, {"uniqueid": "w34625717:a70687295", "current_trial": 41, "dateTime": 1691166728778, "trialdata": {"revealed_states": [], "clicked_states": ["33", "32", "31", "27"], "num_clicks_accrued": [0, 0, 0, 0, 0, 0, 0, 0, 0, 0, 0, 0, 0], "stateRewards": ["", 2, -1, 5, 6, 10, 86, 55, 10, -45, 63, -71, 1, -2, 5, -8, -50, -72, 36, 15, 61, 12, 33, -1, -4, 6, 5, 79, -56, -21, -16, -87, 60, -81], "withholdReward": false, "trial_id": "mdp_trial_33", "block": "test", "trialIndex": 34, "score": 79.4, "costs": -5.6, "simulationMode": [null, null, null, null, null], "rewards": [-1, -4, 6, 5, 79], "path": ["0", "0", "23", "24", "25", "26", "27"], "rt": [10339, 18, 38, 84, 27], "actions": ["left", "left", "left", "up", "up"], "actionTimes": [12450, 12986, 13536, 14115, 14645], "queries": {"click": {"state": {"target": ["33", "32", "31", "27"], "time": [3601, 5532, 7689, 9605]}, "edge": {"target": [], "time": []}}, "mouseover": {"state": {"target": ["24", "30", "33", "32", "31", "24", "31", "27", "28"], "time": [2247, 2581, 3283, 4234, 5892, 6051, 6393, 8726, 11263]}, "edge": {"target": [], "time": []}}, "mouseout": {"state": {"target": ["22", "12", "0", "24", "30", "33", "32", "31", "24", "31", "27"], "time": [793, 835, 2182, 2293, 2632, 4151, 5792, 5979, 6321, 7943, 9986]}, "edge": {"target": [], "time": []}}}, "displayed_time": "16.11", "trialTime": 16606, "trial_type": "mouselab-mdp", "trial_index": 41, "time_elapsed": 1016147, "internal_node_id": "0.0-4.0-1.0-32.0"}}, {"uniqueid": "w34625717:a70687295", "current_trial": 42, "dateTime": 1691166760489, "trialdata": {"revealed_states": [], "clicked_states": ["21", "22", "20", "33", "31", "32", "27", "29", "28", "11", "9", "10"], "num_clicks_accrued": [0, 0, 0, 0, 0, 0, 0, 0, 0, 0, 0, 0, 0], "stateRewards": ["", -2, 4, 3, 5, -61, 4, 30, 1, -47, 83, 10, 1, 4, 7, -14, 19, -74, -83, 6, -2, -2, -65, -1, -2, 4, -11, 12, -1, -68, 11, -38, -28, 66], "withholdReward": false, "trial_id": "mdp_trial_34", "block": "test", "trialIndex": 35, "score": 72.2, "costs": -16.8, "simulationMode": [null, null, null, null, null], "rewards": [-2, 4, 3, 1, 83], "path": ["0", "0", "1", "2", "3", "8", "10"], "rt": [25852, 592, 42, 58, 29], "actions": ["up", "up", "up", "left", "down"], "actionTimes": [27257, 28358, 28925, 29506, 30046], "queries": {"click": {"state": {"target": ["21", "22", "20", "33", "31", "32", "27", "29", "28", "11", "9", "10"], "time": [2367, 4269, 6191, 8160, 10070, 11953, 14245, 16113, 18010, 19998, 22004, 23921]}, "edge": {"target": [], "time": []}}, "mouseover": {"state": {"target": ["22", "21", "22", "19", "20", "20", "33", "30", "31", "30", "32", "25", "11", "27", "29", "29", "26", "28", "11", "9", "8", "10", "4", "5"], "time": [1850, 2170, 3230, 4647, 4750, 5113, 7467, 8609, 8917, 10422, 11608, 12633, 12819, 13255, 14638, 14972, 16389, 16556, 19142, 20375, 22343, 22875, 24242, 24761]}, "edge": {"target": [], "time": []}}, "mouseout": {"state": {"target": ["28", "24", "23", "0", "22", "21", "22", "19", "20", "20", "33", "30", "31", "30", "32", "25", "11", "27", "29", "29", "26", "28", "11", "9", "9", "8", "10", "4"], "time": [533, 616, 800, 1770, 1894, 2914, 4631, 4725, 4902, 6265, 8286, 8654, 10129, 10453, 12050, 12696, 13172, 14315, 14722, 16356, 16455, 18349, 20309, 22077, 22293, 22462, 24014, 24293]}, "edge": {"target": [], "time": []}}}, "displayed_time": "30.57", "trialTime": 31096, "trial_type": "mouselab-mdp", "trial_index": 42, "time_elapsed": 1047858, "internal_node_id": "0.0-4.0-1.0-33.0"}}, {"uniqueid": "w34625717:a70687295", "current_trial": 43, "dateTime": 1691166778479, "trialdata": {"revealed_states": [], "clicked_states": ["10", "9", "2", "3"], "num_clicks_accrued": [0, 0, 0, 0, 0, 0, 0, 0, 0, 0, 0, 0, 0], "stateRewards": ["", -1, -2, 4, 9, 10, -75, 39, 16, -43, 88, -19, -1, 1, 2, 4, -31, 10, 73, 12, 41, -64, -81, -2, 2, -6, 1, -81, -1, -26, 3, -59, -3, -20], "withholdReward": false, "trial_id": "mdp_trial_35", "block": "test", "trialIndex": 36, "score": 99.4, "costs": -5.6, "simulationMode": [null, null, null, null, null], "rewards": [-1, -2, 4, 16, 88], "path": ["0", "0", "1", "2", "3", "8", "10"], "rt": [10343, 113, 14, 55, 44], "actions": ["up", "up", "up", "left", "down"], "actionTimes": [13316, 13925, 14465, 15035, 15594], "queries": {"click": {"state": {"target": ["10", "9", "2", "3"], "time": [4635, 6485, 9615, 11576]}, "edge": {"target": [], "time": []}}, "mouseover": {"state": {"target": ["8", "10", "10", "8", "9", "3", "2", "3", "3"], "time": [3421, 4251, 4435, 4991, 5044, 9126, 9391, 9895, 10855]}, "edge": {"target": [], "time": []}}, "mouseout": {"state": {"target": ["5", "7", "1", "0", "8", "10", "10", "8", "9", "3", "2", "3"], "time": [1154, 1815, 1950, 2994, 3635, 4320, 4988, 5022, 9082, 9178, 9709, 10006]}, "edge": {"target": [], "time": []}}}, "displayed_time": "16.98", "trialTime": 17485, "trial_type": "mouselab-mdp", "trial_index": 43, "time_elapsed": 1065848, "internal_node_id": "0.0-4.0-1.0-34.0"}}, {"uniqueid": "w34625717:a70687295", "current_trial": 44, "dateTime": 1691166797069, "trialdata": {"revealed_states": [], "clicked_states": ["10", "9", "6", "5"], "num_clicks_accrued": [0, 0, 0, 0, 0, 0, 0, 0, 0, 0, 0, 0, 0], "stateRewards": ["", -1, 2, 7, 8, 75, 67, -11, 6, 52, -17, 38, -1, 4, -8, 14, 74, -37, -17, -12, 52, 55, 71, -2, -1, -5, 2, 21, 6, -88, -14, 64, -61, -47], "withholdReward": false, "trial_id": "mdp_trial_36", "block": "test", "trialIndex": 37, "score": 85.4, "costs": -5.6, "simulationMode": [null, null, null, null, null], "rewards": [-1, 2, 7, 8, 75], "path": ["0", "0", "1", "2", "3", "4", "5"], "rt": [12505, 41, 86, 47, 83], "actions": ["up", "up", "up", "right", "up"], "actionTimes": [14699, 15255, 15835, 16384, 16984], "queries": {"click": {"state": {"target": ["10", "9", "6", "5"], "time": [3135, 5096, 8885, 11635]}, "edge": {"target": [], "time": []}}, "mouseover": {"state": {"target": ["10", "10", "8", "9", "9", "11", "6", "5", "6", "16", "15"], "time": [2572, 2939, 3555, 3605, 4272, 5506, 8692, 9335, 13516, 13626, 14064]}, "edge": {"target": [], "time": []}}, "mouseout": {"state": {"target": ["3", "2", "1", "10", "10", "8", "9", "9", "11", "6", "5", "5", "6", "16"], "time": [525, 711, 1141, 2607, 3242, 3570, 3654, 5405, 7943, 8989, 11686, 13468, 13550, 14031]}, "edge": {"target": [], "time": []}}}, "displayed_time": "17.50", "trialTime": 18115, "trial_type": "mouselab-mdp", "trial_index": 44, "time_elapsed": 1084438, "internal_node_id": "0.0-4.0-1.0-35.0"}}, {"uniqueid": "w34625717:a70687295", "current_trial": 45, "dateTime": 1691166829708, "trialdata": {"revealed_states": [], "clicked_states": ["17", "16", "18", "20", "21", "22", "6", "5", "7", "9", "11", "10"], "num_clicks_accrued": [0, 0, 0, 0, 0, 0, 0, 0, 0, 0, 0, 0, 0], "stateRewards": ["", 2, 3, -1, 6, 44, -4, -59, -14, -3, 64, 16, 1, -3, 3, 6, 3, 49, 19, 3, -49, -14, -86, 1, 2, -3, -8, -33, 14, 32, -13, -77, -47, -67], "withholdReward": false, "trial_id": "mdp_trial_37", "block": "test", "trialIndex": 38, "score": 37.2, "costs": -16.8, "simulationMode": [null, null, null, null, null], "rewards": [2, 3, -1, -14, 64], "path": ["0", "0", "1", "2", "3", "8", "10"], "rt": [26324, 31, 40, 80, 10], "actions": ["up", "up", "up", "left", "down"], "actionTimes": [28684, 29231, 29791, 30372, 30911], "queries": {"click": {"state": {"target": ["17", "16", "18", "20", "21", "22", "6", "5", "7", "9", "11", "10"], "time": [3755, 5649, 7800, 9671, 11556, 13462, 15441, 17399, 19460, 21399, 23320, 25336]}, "edge": {"target": [], "time": []}}, "mouseover": {"state": {"target": ["12", "13", "14", "17", "16", "18", "14", "14", "18", "14", "20", "19", "21", "22", "13", "18", "6", "5", "4", "7", "3", "9", "9", "8", "11", "10", "27"], "time": [2687, 2839, 2990, 3555, 4179, 5981, 6398, 7083, 7584, 8152, 9151, 10055, 10418, 11889, 13971, 14005, 15099, 15855, 17706, 17857, 19741, 20147, 20576, 21775, 22461, 23759, 26481]}, "edge": {"target": [], "time": []}}, "mouseout": {"state": {"target": ["15", "14", "22", "0", "12", "13", "14", "17", "16", "18", "14", "14", "18", "14", "20", "20", "19", "21", "22", "13", "18", "6", "5", "4", "7", "3", "9", "9", "8", "11", "10"], "time": [861, 896, 959, 1866, 2809, 2939, 3057, 3961, 5933, 6204, 6631, 7117, 8116, 8215, 9774, 10036, 10075, 11791, 13944, 14002, 14352, 15506, 17677, 17788, 19540, 20116, 20197, 21725, 21858, 23620, 25862]}, "edge": {"target": [], "time": []}}}, "displayed_time": "31.42", "trialTime": 32102, "trial_type": "mouselab-mdp", "trial_index": 45, "time_elapsed": 1117077, "internal_node_id": "0.0-4.0-1.0-36.0"}}, {"uniqueid": "w34625717:a70687295", "current_trial": 46, "dateTime": 1691166847717, "trialdata": {"revealed_states": [], "clicked_states": ["27", "26", "24"], "num_clicks_accrued": [0, 0, 0, 0, 0, 0, 0, 0, 0, 0, 0, 0, 0], "stateRewards": ["", -1, -1, 7, -15, -43, -21, -84, -9, -45, -66, 2, 1, -2, 2, 8, -27, 44, -52, -5, -84, 11, 53, 1, 4, -4, 16, 83, -82, -15, -16, 68, -43, 81], "withholdReward": false, "trial_id": "mdp_trial_38", "block": "test", "trialIndex": 39, "score": 95.8, "costs": -4.199999999999999, "simulationMode": [null, null, null, null, null], "rewards": [1, 4, -4, 16, 83], "path": ["0", "0", "23", "24", "25", "26", "27"], "rt": [8079, 12, 60, 84, 73], "actions": ["left", "left", "left", "up", "up"], "actionTimes": [11032, 11581, 12169, 12780, 13348], "queries": {"click": {"state": {"target": ["27", "26", "24"], "time": [4074, 7269, 9130]}, "edge": {"target": [], "time": []}}, "mouseover": {"state": {"target": ["28", "26", "27", "28", "28", "24", "26", "24", "25"], "time": [2973, 3106, 3766, 4984, 6387, 6518, 7223, 7868, 9543]}, "edge": {"target": [], "time": []}}, "mouseout": {"state": {"target": ["27", "28", "23", "0", "28", "26", "27", "27", "28", "28", "24", "26", "24"], "time": [1436, 1581, 2057, 2970, 3102, 3442, 4117, 4534, 6222, 6485, 6538, 7603, 9211]}, "edge": {"target": [], "time": []}}}, "displayed_time": "16.95", "trialTime": 17509, "trial_type": "mouselab-mdp", "trial_index": 46, "time_elapsed": 1135087, "internal_node_id": "0.0-4.0-1.0-37.0"}}, {"uniqueid": "w34625717:a70687295", "current_trial": 47, "dateTime": 1691166871280, "trialdata": {"revealed_states": [], "clicked_states": ["33", "31", "32", "28", "27", "29"], "num_clicks_accrued": [0, 0, 0, 0, 0, 0, 0, 0, 0, 0, 0, 0, 0], "stateRewards": ["", -1, -4, -1, -11, 43, 69, 39, 4, 17, -20, -82, -2, -1, 4, 8, -79, 24, -79, 11, 36, 64, 41, 2, 4, -1, 11, -79, -47, 75, -3, 63, -36, -19], "withholdReward": false, "trial_id": "mdp_trial_39", "block": "test", "trialIndex": 40, "score": 82.6, "costs": -8.4, "simulationMode": [null, null, null, null, null], "rewards": [2, 4, -1, 11, 75], "path": ["0", "0", "23", "24", "25", "26", "29"], "rt": [17691, 23, 74, 41, 33], "actions": ["left", "left", "left", "up", "left"], "actionTimes": [19577, 20103, 20715, 21276, 21835], "queries": {"click": {"state": {"target": ["33", "31", "32", "28", "27", "29"], "time": [2785, 4685, 6753, 9906, 11808, 13714]}, "edge": {"target": [], "time": []}}, "mouseover": {"state": {"target": ["23", "31", "30", "33", "30", "31", "32", "32", "30", "25", "27", "28", "28", "28", "27", "27", "29", "26", "1", "18", "22", "22", "24", "24"], "time": [1950, 2024, 2095, 2437, 3359, 3516, 5070, 6019, 7152, 7187, 7971, 8211, 8960, 9764, 10308, 10940, 12216, 14168, 14214, 14250, 15308, 16409, 17360, 18041]}, "edge": {"target": [], "time": []}}, "mouseout": {"state": {"target": ["25", "31", "1", "0", "23", "31", "30", "33", "30", "31", "31", "32", "32", "30", "25", "27", "28", "28", "28", "27", "27", "29", "26", "28", "1", "18", "22", "22", "24"], "time": [466, 563, 1211, 1938, 1964, 2063, 2390, 3337, 3432, 4792, 5034, 5119, 6822, 7171, 7206, 8104, 8343, 9006, 9999, 10327, 12130, 14163, 14182, 14198, 14234, 14272, 15717, 16469, 17392]}, "edge": {"target": [], "time": []}}}, "displayed_time": "22.35", "trialTime": 22975, "trial_type": "mouselab-mdp", "trial_index": 47, "time_elapsed": 1158650, "internal_node_id": "0.0-4.0-1.0-38.0"}}, {"uniqueid": "w34625717:a70687295", "current_trial": 48, "dateTime": 1691166905533, "trialdata": {"revealed_states": [], "clicked_states": ["21", "20", "22", "18", "17", "16", "6", "5", "7", "9", "10", "11", "27", "25"], "num_clicks_accrued": [0, 0, 0, 0, 0, 0, 0, 0, 0, 0, 0, 0, 0], "stateRewards": ["", -1, -4, 8, 8, -68, 47, 24, -7, -61, 49, -69, -1, -1, 8, -7, 42, 1, -45, -11, 10, -63, -6, 1, 4, 6, -16, 79, -37, -58, -12, 81, 18, -53], "withholdReward": false, "trial_id": "mdp_trial_40", "block": "test", "trialIndex": 41, "score": 54.400000000000006, "costs": -19.599999999999998, "simulationMode": [null, null, null, null, null, null], "rewards": [1, 4, 6, -16, 79], "path": ["0", "0", "23", "24", "25", "26", "27"], "rt": [28296, 500, 107, 54, 65, 34], "actions": ["left", "left", "left", "left", "up", "up"], "actionTimes": [29744, 30257, 30867, 31437, 32025, 32564], "queries": {"click": {"state": {"target": ["21", "20", "22", "18", "17", "16", "6", "5", "7", "9", "10", "11", "27", "25"], "time": [2255, 3922, 5772, 7654, 9592, 11532, 13422, 15468, 17420, 19385, 21326, 23148, 25120, 28388]}, "edge": {"target": [], "time": []}}, "mouseover": {"state": {"target": ["12", "22", "21", "20", "20", "19", "22", "13", "18", "15", "17", "16", "6", "5", "5", "4", "7", "3", "9", "8", "10", "11", "11", "27", "27", "28", "25"], "time": [1617, 1717, 2017, 2703, 3087, 4341, 4409, 6280, 6777, 8097, 8514, 9957, 12494, 13787, 14207, 15761, 15879, 17869, 17947, 19647, 20454, 21760, 22172, 23734, 24203, 25783, 28162]}, "edge": {"target": [], "time": []}}, "mouseout": {"state": {"target": ["24", "1", "0", "12", "22", "21", "20", "20", "19", "22", "13", "18", "15", "17", "16", "6", "5", "5", "4", "7", "3", "9", "8", "10", "11", "11", "27", "27", "28"], "time": [456, 726, 1599, 1650, 1783, 2652, 2770, 4322, 4373, 6257, 6489, 8063, 8430, 9644, 11936, 13743, 13837, 15745, 15829, 17823, 17900, 19630, 19681, 21384, 21816, 23658, 23769, 25401, 28027]}, "edge": {"target": [], "time": []}}}, "displayed_time": "33.06", "trialTime": 33746, "trial_type": "mouselab-mdp", "trial_index": 48, "time_elapsed": 1192901, "internal_node_id": "0.0-4.0-1.0-39.0"}}, {"uniqueid": "w34625717:a70687295", "current_trial": 49, "dateTime": 1691166963698, "trialdata": {"rt": 58118, "response": {"Q0": "$-2 to $2", "Q1": "$-16 to $16", "Q2": "$-88 to $88", "Q3": "The cost was always $1.4.", "Q4": "Slightly motivated"}, "question_order": [0, 1, 2, 3, 4], "trial_id": "final_quiz_control", "trial_type": "survey-multi-choice", "trial_index": 49, "time_elapsed": 1251069, "internal_node_id": "0.0-4.0-2.0"}}, {"uniqueid": "w34625717:a70687295", "current_trial": 50, "dateTime": 1691167091899, "trialdata": {"rt": 128180, "response": {"Q0": "I tried to find a high value exit node, and if I found one quickly, I'd check the nodes leading to it, otherwise I'd just go straight to the best node I could find.", "Q1": "I found it was better to just check the nodes on the edge before anything closer to the starting point", "Q2": "Not difficult"}, "trial_id": "self_report_control", "trial_type": "survey-text", "trial_index": 50, "time_elapsed": 1379270, "internal_node_id": "0.0-4.0-3.0"}}, {"uniqueid": "w34625717:a70687295", "current_trial": 51, "dateTime": 1691167130198, "trialdata": {"rt": 38267, "response": {"gender": "female", "age": "38", "colorblind": "0", "effort": "0"}, "trial_type": "survey-html-form", "trial_index": 51, "time_elapsed": 1417568, "internal_node_id": "0.0-4.0-4.0"}}, {"uniqueid": "w34625717:a70687295", "current_trial": 52, "dateTime": 1691167177923, "trialdata": {"rt": 47705, "response": {"Q0": "It was easy to understand", "Q1": "I don't believe I've done this before.", "Q2": ""}, "trial_type": "survey-text", "trial_index": 52, "time_elapsed": 1465294, "internal_node_id": "0.0-4.0-5.0"}}, {"uniqueid": "w34625717:a70687295", "current_trial": 53, "dateTime": 1691167185146, "trialdata": {"rt": 7215, "stimulus": "Press 'Finish HIT' in order to reach the completion code. Once the data has been saved, you will receive the code either in this window or in the original browser window where you started the experiment.\n", "response": 0, "trial_type": "html-button-response", "trial_index": 53, "time_elapsed": 1472517, "internal_node_id": "0.0-5.0"}}, {"uniqueid": "w34625717:a70687295", "current_trial": 54, "dateTime": 1691167186152, "trialdata": {"success": true, "trial_type": "fullscreen", "trial_index": 54, "time_elapsed": 1473523, "internal_node_id": "0.0-6.0"}}], "questiondata": {"params": {"CODE": "C6DMOQA6", "MIN_TIME": 14, "inspectCost": 1, "startTime": "Fri Aug 04 2023 17:15:12 GMT+0100 (British Summer Time)", "bonusRate": 0.002, "variance": "1_2_4_8_44", "branching": "31123"}, "final_score": 2179.4}, "eventdata": [{"eventtype": "initialized", "value": null, "timestamp": 1691165711624, "interval": 0}, {"eventtype": "window_resize", "value": [1037, 794], "timestamp": 1691165711625, "interval": 1}, {"eventtype": "window_resize", "value": [1037, 794], "timestamp": 1691165711945, "interval": 320}, {"eventtype": "window_resize", "value": [1368, 912], "timestamp": 1691165715164, "interval": 3219}, {"eventtype": "focus", "value": "off", "timestamp": 1691165719167, "interval": 4003}, {"eventtype": "focus", "value": "on", "timestamp": 1691165731062, "interval": 11895}, {"eventtype": "focus", "value": "off", "timestamp": 1691165745594, "interval": 14532}, {"eventtype": "focus", "value": "on", "timestamp": 1691165770946, "interval": 25352}, {"eventtype": "window_resize", "value": [1037, 794], "timestamp": 1691166654784, "interval": 883838}, {"eventtype": "window_resize", "value": [1368, 806], "timestamp": 1691166659796, "interval": 5012}, {"eventtype": "window_resize", "value": [1368, 912], "timestamp": 1691166663801, "interval": 4005}, {"eventtype": "focus", "value": "off", "timestamp": 1691167182771, "interval": 518970}, {"eventtype": "focus", "value": "on", "timestamp": 1691167185116, "interval": 2345}], "useragent": "Mozilla/5.0 (Windows NT 10.0; Win64; x64) AppleWebKit/537.36 (KHTML, like Gecko) Chrome/115.0.0.0 Safari/537.36", "mode": "live", "id": "w34625717:a70687295", "status": "user data saved", "Beginhit": "2023-08-04 16:15:10.365099", "Beginexp": "2023-08-04 16:15:15.702512", "Endhit": "2023-08-04 16:39:46.47949", "psiturkStatus": 3, "browser": "<redacted>", "platform": "windows", "language": "en-GB"}