{"condition": 1, "counterbalance": 0, "assignmentId": "a85242058", "workerId": "w83968328", "hitId": "h75067254", "currenttrial": 62, "bonus": 0, "data": [{"uniqueid": "w83968328:a85242058", "current_trial": 0, "dateTime": 1693581342054, "trialdata": {"success": true, "trial_type": "fullscreen", "trial_index": 0, "time_elapsed": 18231, "internal_node_id": "0.0-0.0"}}, {"uniqueid": "w83968328:a85242058", "current_trial": 1, "dateTime": 1693581371705, "trialdata": {"view_history": [{"page_index": 0, "viewing_time": 29627}], "rt": 29631, "trial_id": "exp_instructions_misaligned", "trial_type": "instructions", "trial_index": 1, "time_elapsed": 47883, "internal_node_id": "0.0-1.0"}}, {"uniqueid": "w83968328:a85242058", "current_trial": 2, "dateTime": 1693581749453, "trialdata": {"view_history": [{"page_index": 0, "viewing_time": 94211}, {"page_index": 1, "viewing_time": 107904}, {"page_index": 2, "viewing_time": 47431}, {"page_index": 3, "viewing_time": 128190}], "rt": 377737, "trial_id": "mouselab_instructions_1_misaligned", "trial_type": "instructions", "trial_index": 2, "time_elapsed": 425631, "internal_node_id": "0.0-2.0-1.0"}}, {"uniqueid": "w83968328:a85242058", "current_trial": 3, "dateTime": 1693581771884, "trialdata": {"revealed_states": [], "clicked_states": [], "num_clicks_accrued": [0, 0, 0, 0, 0, 0, 0, 0, 0, 0, 0, 0, 0], "stateRewards": ["", -10, -10, 10, -10, -10, 10, -10, 10, 10, 10, -10, -10, 10, -10, -10, -10, -10, -10, 10, -10, 10, -10, 10, -10, 10, 10, -10, -10, 10, 10, 10, -10, 10], "withholdReward": false, "trial_id": "practice_1", "block": "test", "trialIndex": 0, "score": -6.5, "costs": 0, "simulationMode": [null, null, null, null, null], "rewards": [-10, -10, 10, -10, 10], "path": ["0", "0", "1", "2", "3", "4", "6"], "rt": [2264, 167, 252, 2419, 160], "actions": ["up", "up", "up", "right", "right"], "actionTimes": [7749, 8434, 9189, 12119, 12808], "queries": {"click": {"state": {"target": [], "time": []}, "edge": {"target": [], "time": []}}, "mouseover": {"state": {"target": [], "time": []}, "edge": {"target": [], "time": []}}, "mouseout": {"state": {"target": ["0", "0", "1", "7", "15", "13", "22"], "time": [4312, 19182, 19211, 19296, 20499, 20531, 20546]}, "edge": {"target": [], "time": []}}}, "displayed_time": "13.33", "trialTime": 21479, "trial_type": "mouselab-mdp", "trial_index": 3, "time_elapsed": 448060, "internal_node_id": "0.0-2.0-2.0-0.0"}}, {"uniqueid": "w83968328:a85242058", "current_trial": 4, "dateTime": 1693581783309, "trialdata": {"revealed_states": [], "clicked_states": [], "num_clicks_accrued": [0, 0, 0, 0, 0, 0, 0, 0, 0, 0, 0, 0, 0], "stateRewards": ["", -10, 10, -10, 10, 10, -10, 10, 10, -10, -10, 10, -10, -10, 10, 10, -10, 10, 10, -10, 10, -10, 10, -10, 10, -10, 10, -10, -10, 10, -10, -10, 10, 10], "withholdReward": false, "trial_id": "practice_2", "block": "test", "trialIndex": 1, "score": -6.5, "costs": 0, "simulationMode": [null, null, null, null, null], "rewards": [-10, 10, -10, -10, 10], "path": ["0", "0", "23", "24", "25", "30", "32"], "rt": [378, 313, 125, 171, 127], "actions": ["left", "left", "left", "down", "down"], "actionTimes": [4068, 4911, 5551, 6246, 6885], "queries": {"click": {"state": {"target": [], "time": []}, "edge": {"target": [], "time": []}}, "mouseover": {"state": {"target": [], "time": []}, "edge": {"target": [], "time": []}}, "mouseout": {"state": {"target": ["0", "12", "13"], "time": [9145, 9570, 9604]}, "edge": {"target": [], "time": []}}}, "displayed_time": "7.41", "trialTime": 10864, "trial_type": "mouselab-mdp", "trial_index": 4, "time_elapsed": 459485, "internal_node_id": "0.0-2.0-2.0-1.0"}}, {"uniqueid": "w83968328:a85242058", "current_trial": 5, "dateTime": 1693581940029, "trialdata": {"view_history": [{"page_index": 0, "viewing_time": 140603}, {"page_index": 1, "viewing_time": 16101}], "rt": 156706, "trial_id": "mouselab_instructions_2_misaligned", "trial_type": "instructions", "trial_index": 5, "time_elapsed": 616206, "internal_node_id": "0.0-2.0-3.0"}}, {"uniqueid": "w83968328:a85242058", "current_trial": 6, "dateTime": 1693582100699, "trialdata": {"rt": 160658, "response": {"Q0": "The cost for clicking on nodes may vary between nodes.", "Q1": "The better I perform the higher my bonus will be.", "Q2": "No, the amount of cash at each node of the web may be different each time.", "Q3": "To finish the game in the shortest amount of time.", "Q4": "Only before moving the spider.", "Q5": "3 seconds"}, "question_order": [0, 1, 2, 3, 4, 5], "correct": {"Q0": "The cost for clicking on nodes may vary between nodes.", "Q1": "The better I perform the higher my bonus will be.", "Q2": "No, the amount of cash at each node of the web may be different each time.", "Q3": "To get the highest total score.", "Q4": "Only before moving the spider.", "Q5": "3 seconds"}, "trial_id": "mouselab_quiz_misaligned", "trial_type": "survey-multi-choice", "trial_index": 6, "time_elapsed": 776876, "internal_node_id": "0.0-2.0-4.0"}}, {"uniqueid": "w83968328:a85242058", "current_trial": 7, "dateTime": 1693582112891, "trialdata": {"success": true, "trial_type": "fullscreen", "trial_index": 7, "time_elapsed": 789069, "internal_node_id": "0.0-2.1-0.1-0.1"}}, {"uniqueid": "w83968328:a85242058", "current_trial": 8, "dateTime": 1693582264393, "trialdata": {"view_history": [{"page_index": 0, "viewing_time": 138534}, {"page_index": 1, "viewing_time": 8470}, {"page_index": 2, "viewing_time": 2801}, {"page_index": 3, "viewing_time": 1682}], "rt": 151488, "trial_id": "mouselab_instructions_1_misaligned", "trial_type": "instructions", "trial_index": 8, "time_elapsed": 940571, "internal_node_id": "0.0-2.1-1.1"}}, {"uniqueid": "w83968328:a85242058", "current_trial": 9, "dateTime": 1693582298583, "trialdata": {"revealed_states": [], "clicked_states": [], "num_clicks_accrued": [0, 0, 0, 0, 0, 0, 0, 0, 0, 0, 0, 0, 0], "stateRewards": ["", -10, -10, 10, -10, -10, 10, -10, 10, 10, 10, -10, -10, 10, -10, -10, -10, -10, -10, 10, -10, 10, -10, 10, -10, 10, 10, -10, -10, 10, 10, 10, -10, 10], "withholdReward": false, "trial_id": "practice_1", "block": "test", "trialIndex": 2, "score": 13.5, "costs": 0, "simulationMode": [null, null, null, null, null], "rewards": [-10, 10, -10, 10, 10], "path": ["0", "0", "12", "13", "14", "19", "21"], "rt": [4862, 75, 527, 16756, 241], "actions": ["right", "right", "right", "down", "down"], "actionTimes": [9577, 10169, 11222, 28501, 29250], "queries": {"click": {"state": {"target": [], "time": []}, "edge": {"target": [], "time": []}}, "mouseover": {"state": {"target": ["0"], "time": [6456]}, "edge": {"target": [], "time": []}}, "mouseout": {"state": {"target": ["0", "0", "0", "12", "13", "17", "15", "14"], "time": [2137, 5068, 6489, 14906, 14922, 16155, 16305, 24117]}, "edge": {"target": [], "time": []}}}, "displayed_time": "29.77", "trialTime": 33613, "trial_type": "mouselab-mdp", "trial_index": 9, "time_elapsed": 974759, "internal_node_id": "0.0-2.1-2.1-0.1"}}, {"uniqueid": "w83968328:a85242058", "current_trial": 10, "dateTime": 1693582319088, "trialdata": {"revealed_states": [], "clicked_states": ["3", "6", "11", "28"], "num_clicks_accrued": [0, 0, 0, 0, 0, 0, 0, 0, 0, 0, 0, 0, 0], "stateRewards": ["", -10, 10, -10, 10, 10, -10, 10, 10, -10, -10, 10, -10, -10, 10, 10, -10, 10, 10, -10, 10, -10, 10, -10, 10, -10, 10, -10, -10, 10, -10, -10, 10, 10], "withholdReward": false, "trial_id": "practice_2", "block": "test", "trialIndex": 3, "score": 11.5, "costs": -2, "simulationMode": [null, null, null, null, null], "rewards": [-10, 10, -10, 10, 10], "path": ["0", "0", "1", "2", "3", "8", "11"], "rt": [7719, 88, 103, 1710, 384], "actions": ["up", "up", "up", "left", "left"], "actionTimes": [9706, 10318, 10932, 13157, 14046], "queries": {"click": {"state": {"target": ["3", "6", "11", "28"], "time": [4197, 5475, 6830, 8173]}, "edge": {"target": [], "time": []}}, "mouseover": {"state": {"target": ["23", "3", "4", "6", "8", "11", "28", "1"], "time": [3124, 3492, 4961, 5018, 6300, 6458, 7891, 9130]}, "edge": {"target": [], "time": []}}, "mouseout": {"state": {"target": ["22", "0", "23", "3", "4", "6", "3", "8", "11", "11", "28", "1", "18", "13"], "time": [953, 3072, 3192, 4944, 4978, 6209, 6284, 6358, 7014, 7460, 9079, 9197, 18191, 18891]}, "edge": {"target": [], "time": []}}}, "displayed_time": "14.56", "trialTime": 19938, "trial_type": "mouselab-mdp", "trial_index": 10, "time_elapsed": 995264, "internal_node_id": "0.0-2.1-2.1-1.1"}}, {"uniqueid": "w83968328:a85242058", "current_trial": 11, "dateTime": 1693582326964, "trialdata": {"view_history": [{"page_index": 0, "viewing_time": 4512}, {"page_index": 1, "viewing_time": 3348}], "rt": 7861, "trial_id": "mouselab_instructions_2_misaligned", "trial_type": "instructions", "trial_index": 11, "time_elapsed": 1003142, "internal_node_id": "0.0-2.1-3.1"}}, {"uniqueid": "w83968328:a85242058", "current_trial": 12, "dateTime": 1693582364814, "trialdata": {"rt": 37833, "response": {"Q0": "The cost for clicking on nodes may vary between nodes.", "Q1": "The better I perform the higher my bonus will be.", "Q2": "No, the amount of cash at each node of the web may be different each time.", "Q3": "To get the highest total score.", "Q4": "Only before moving the spider.", "Q5": "3 seconds"}, "question_order": [0, 1, 2, 3, 4, 5], "correct": {"Q0": "The cost for clicking on nodes may vary between nodes.", "Q1": "The better I perform the higher my bonus will be.", "Q2": "No, the amount of cash at each node of the web may be different each time.", "Q3": "To get the highest total score.", "Q4": "Only before moving the spider.", "Q5": "3 seconds"}, "trial_id": "mouselab_quiz_misaligned", "trial_type": "survey-multi-choice", "trial_index": 12, "time_elapsed": 1040992, "internal_node_id": "0.0-2.1-4.1"}}, {"uniqueid": "w83968328:a85242058", "current_trial": 13, "dateTime": 1693582379635, "trialdata": {"rt": 14798, "response": {"Q0": "Not sure"}, "question_order": [0], "trial_id": "repeat_check", "trial_type": "survey-multi-choice", "trial_index": 13, "time_elapsed": 1055812, "internal_node_id": "0.0-4.0-0.0"}}, {"uniqueid": "w83968328:a85242058", "current_trial": 14, "dateTime": 1693582488829, "trialdata": {"rt": 109173, "stimulus": "\n<h1> Get ready to start the game! </h1>\n\nThank you for reading the instructions. Get ready start with the 40 rounds of this game.\n<br><br>\nIf you need to take a break, feel free to take one after the end of a round, before continuing to the next one.\n<br><br>\nRemember, the more money the spider gets, the bigger your bonus will be!\n<br><br>\n<div style='text-align: center;'>Press <code>space</code> to begin.</div>\n\n<br><br>\n(If, at any point, the <code>space</code> key does not take you to the next page, click once on the text and try again.)", "response": " ", "trial_id": "mdp_ready", "trial_type": "html-keyboard-response", "trial_index": 14, "time_elapsed": 1165006, "internal_node_id": "0.0-6.0-0.0"}}, {"uniqueid": "w83968328:a85242058", "current_trial": 15, "dateTime": 1693582513806, "trialdata": {"revealed_states": [], "clicked_states": ["16", "14"], "num_clicks_accrued": [0, 0, 0, 0, 0, 0, 0, 0, 0, 0, 0, 0, 0], "stateRewards": ["", 1, -1, 4, 5, -32, 18, 20, 6, -88, -74, 9, -2, 1, -2, -14, 34, -77, -38, -1, 80, -36, 73, 2, 3, -8, 10, -48, -73, -71, -11, -22, 20, 54], "withholdReward": false, "trial_id": "mdp_trial_1", "block": "test", "trialIndex": 4, "score": 13.899999999999999, "costs": -3.0999999999999996, "simulationMode": [null, null, null, null, null], "rewards": [-2, 1, -2, -14, 34], "path": ["0", "0", "12", "13", "14", "15", "16"], "rt": [7261, 60, 274, 124, 63], "actions": ["right", "right", "right", "up", "up"], "actionTimes": [11157, 11729, 12544, 13194, 13783], "queries": {"click": {"state": {"target": ["16", "14"], "time": [6611, 9556]}, "edge": {"target": [], "time": []}}, "mouseover": {"state": {"target": ["16", "17", "14"], "time": [6226, 7268, 9121]}, "edge": {"target": [], "time": []}}, "mouseout": {"state": {"target": ["0", "16", "17", "14"], "time": [5868, 7151, 8935, 9748]}, "edge": {"target": [], "time": []}}}, "displayed_time": "17.90", "trialTime": 24372, "trial_type": "mouselab-mdp", "trial_index": 15, "time_elapsed": 1189981, "internal_node_id": "0.0-6.0-1.0-0.0"}}, {"uniqueid": "w83968328:a85242058", "current_trial": 16, "dateTime": 1693582545587, "trialdata": {"revealed_states": [], "clicked_states": ["9", "27", "17", "20", "32"], "num_clicks_accrued": [0, 0, 0, 0, 0, 0, 0, 0, 0, 0, 0, 0, 0], "stateRewards": ["", -1, 3, -4, -14, 78, 67, 2, 13, -32, 28, 39, -2, 1, -4, -4, -4, -42, -86, 11, 64, -29, -32, -1, -4, 2, -7, 5, 68, -61, 2, -21, 85, 50], "withholdReward": false, "trial_id": "mdp_trial_2", "block": "test", "trialIndex": 5, "score": -33.75, "costs": -10.75, "simulationMode": [null, null, null, null, null, null], "rewards": [-2, 1, -4, 11, -29], "path": ["0", "0", "12", "13", "14", "19", "21"], "rt": [16876, 562, 168, 114, 54, 76], "actions": ["right", "right", "right", "right", "down", "down"], "actionTimes": [19152, 19720, 20420, 21050, 21624, 22214], "queries": {"click": {"state": {"target": ["9", "27", "17", "20", "32"], "time": [3743, 7321, 10794, 13610, 17040]}, "edge": {"target": [], "time": []}}, "mouseover": {"state": {"target": ["1", "10", "8", "9", "11", "27", "5", "5", "6", "16", "17", "20", "19", "22", "31", "32"], "time": [3000, 3082, 3167, 3400, 4353, 4568, 8084, 8572, 8884, 8934, 9500, 12349, 14317, 14350, 14667, 14899]}, "edge": {"target": [], "time": []}}, "mouseout": {"state": {"target": ["14", "1", "10", "8", "9", "11", "27", "5", "5", "6", "16", "17", "20", "19", "22", "31"], "time": [1091, 3018, 3116, 3317, 4334, 4385, 8037, 8100, 8866, 8902, 8974, 12061, 14299, 14333, 14367, 14768]}, "edge": {"target": [], "time": []}}}, "displayed_time": "22.74", "trialTime": 31077, "trial_type": "mouselab-mdp", "trial_index": 16, "time_elapsed": 1221765, "internal_node_id": "0.0-6.0-1.0-1.0"}}, {"uniqueid": "w83968328:a85242058", "current_trial": 17, "dateTime": 1693582572408, "trialdata": {"revealed_states": [], "clicked_states": ["2", "26", "32"], "num_clicks_accrued": [0, 0, 0, 0, 0, 0, 0, 0, 0, 0, 0, 0, 0], "stateRewards": ["", 2, -1, 5, 8, 75, -35, -77, 1, -9, -81, -58, 1, 2, -7, 5, 77, -16, 19, 16, -10, -18, 40, -2, 3, 7, -5, 64, 1, -62, 10, 27, 10, 65], "withholdReward": false, "trial_id": "mdp_trial_3", "block": "test", "trialIndex": 6, "score": 23.95, "costs": -4.05, "simulationMode": [null, null, null, null, null], "rewards": [-2, 3, 7, 10, 10], "path": ["0", "0", "23", "24", "25", "30", "32"], "rt": [11847, 345, 95, 185, 216], "actions": ["left", "left", "left", "down", "down"], "actionTimes": [14034, 14890, 15504, 16234, 16964], "queries": {"click": {"state": {"target": ["2", "26", "32"], "time": [3549, 5701, 7011]}, "edge": {"target": [], "time": []}}, "mouseover": {"state": {"target": ["1", "2", "10", "28", "26", "25", "30", "32", "30", "23", "30"], "time": [2939, 3106, 4145, 4358, 5322, 6358, 6407, 6542, 10446, 12158, 12855]}, "edge": {"target": [], "time": []}}, "mouseout": {"state": {"target": ["32", "24", "23", "0", "1", "2", "10", "28", "26", "25", "30", "32", "30", "23"], "time": [414, 764, 821, 2909, 2990, 4125, 4160, 4495, 6341, 6375, 6440, 7940, 10457, 12323]}, "edge": {"target": [], "time": []}}}, "displayed_time": "17.48", "trialTime": 26105, "trial_type": "mouselab-mdp", "trial_index": 17, "time_elapsed": 1248585, "internal_node_id": "0.0-6.0-1.0-2.0"}}, {"uniqueid": "w83968328:a85242058", "current_trial": 18, "dateTime": 1693582614353, "trialdata": {"revealed_states": [], "clicked_states": ["4", "9", "26", "20", "21", "32"], "num_clicks_accrued": [0, 0, 0, 0, 0, 0, 0, 0, 0, 0, 0, 0, 0], "stateRewards": ["", -2, -4, -2, -13, -15, 87, -19, -6, -80, 30, 12, 1, 1, -8, 2, 55, 56, 15, 11, -68, -7, 55, -2, 3, -3, -3, 48, 62, 4, 1, -3, 69, -33], "withholdReward": false, "trial_id": "mdp_trial_4", "block": "test", "trialIndex": 7, "score": 56.3, "costs": -11.700000000000001, "simulationMode": [null, null, null, null, null], "rewards": [-2, 3, -3, 1, 69], "path": ["0", "0", "23", "24", "25", "30", "32"], "rt": [22334, 96, 230, 214, 161], "actions": ["left", "left", "left", "down", "down"], "actionTimes": [24873, 25481, 26232, 26967, 27648], "queries": {"click": {"state": {"target": ["4", "9", "26", "20", "21", "32"], "time": [3713, 5521, 9590, 12442, 16350, 20666]}, "edge": {"target": [], "time": []}}, "mouseover": {"state": {"target": ["1", "2", "3", "4", "9", "11", "27", "26", "23", "13", "20", "21", "32"], "time": [3065, 3098, 3199, 3317, 4600, 8953, 9115, 9299, 11725, 11753, 12099, 16033, 20316]}, "edge": {"target": [], "time": []}}, "mouseout": {"state": {"target": ["30", "24", "23", "18", "0", "1", "2", "3", "4", "9", "11", "27", "26", "26", "23", "13", "20", "21", "32"], "time": [772, 797, 814, 1403, 3044, 3082, 3132, 3250, 3907, 8933, 8970, 9215, 9790, 10816, 11748, 11766, 13584, 17448, 24265]}, "edge": {"target": [], "time": []}}}, "displayed_time": "28.17", "trialTime": 41191, "trial_type": "mouselab-mdp", "trial_index": 18, "time_elapsed": 1290529, "internal_node_id": "0.0-6.0-1.0-3.0"}}, {"uniqueid": "w83968328:a85242058", "current_trial": 19, "dateTime": 1693582649193, "trialdata": {"revealed_states": [], "clicked_states": ["9", "29"], "num_clicks_accrued": [0, 0, 0, 0, 0, 0, 0, 0, 0, 0, 0, 0, 0], "stateRewards": ["", 2, 3, -2, -8, -8, -41, 74, 15, -23, -80, 1, 1, 3, 3, -15, -63, -78, 67, 13, 75, -41, 86, 2, -2, 6, -3, -8, -49, 50, -6, 83, 74, 80], "withholdReward": false, "trial_id": "mdp_trial_5", "block": "test", "trialIndex": 8, "score": 48.7, "costs": -4.3, "simulationMode": [null, null, null, null, null], "rewards": [2, -2, 6, -3, 50], "path": ["0", "0", "23", "24", "25", "26", "29"], "rt": [10059, 141, 84, 304, 91], "actions": ["left", "left", "left", "up", "left"], "actionTimes": [11816, 12501, 13124, 13966, 14568], "queries": {"click": {"state": {"target": ["9", "29"], "time": [3120, 7627]}, "edge": {"target": [], "time": []}}, "mouseover": {"state": {"target": ["10", "8", "9", "8", "27", "29", "26", "28"], "time": [2405, 2438, 2688, 6825, 6971, 7304, 8656, 8690]}, "edge": {"target": [], "time": []}}, "mouseout": {"state": {"target": ["12", "0", "10", "8", "9", "8", "27", "29", "26", "28", "2", "7"], "time": [704, 2361, 2421, 2488, 4127, 6855, 7175, 7813, 8673, 8724, 32471, 32520]}, "edge": {"target": [], "time": []}}}, "displayed_time": "15.76", "trialTime": 34037, "trial_type": "mouselab-mdp", "trial_index": 19, "time_elapsed": 1325369, "internal_node_id": "0.0-6.0-1.0-4.0"}}, {"uniqueid": "w83968328:a85242058", "current_trial": 20, "dateTime": 1693582680524, "trialdata": {"revealed_states": [], "clicked_states": ["29", "17", "20"], "num_clicks_accrued": [0, 0, 0, 0, 0, 0, 0, 0, 0, 0, 0, 0, 0], "stateRewards": ["", 1, -3, -6, -5, 47, 80, -29, 11, -71, 10, -29, -2, 3, -6, 12, 2, -78, -6, 8, 34, -16, -5, -1, 3, 3, -13, 84, -36, -62, -3, -27, 66, 15], "withholdReward": false, "trial_id": "mdp_trial_6", "block": "test", "trialIndex": 9, "score": -19.45, "costs": -6.449999999999999, "simulationMode": [null, null, null, null, null], "rewards": [-2, 3, -6, 8, -16], "path": ["0", "0", "12", "13", "14", "19", "21"], "rt": [14224, 137, 170, 128, 128], "actions": ["right", "right", "right", "down", "down"], "actionTimes": [16033, 16689, 17375, 18015, 18664], "queries": {"click": {"state": {"target": ["29", "17", "20"], "time": [3518, 7660, 11863]}, "edge": {"target": [], "time": []}}, "mouseover": {"state": {"target": ["23", "24", "29", "26", "28", "1", "18", "15", "17", "20", "20"], "time": [2841, 2879, 3197, 4369, 4426, 4460, 7030, 7068, 7313, 11463, 11547]}, "edge": {"target": [], "time": []}}, "mouseout": {"state": {"target": ["1", "0", "23", "24", "29", "26", "28", "1", "18", "15", "17", "20", "20"], "time": [596, 2825, 2856, 2914, 4364, 4403, 4450, 7004, 7063, 7179, 11246, 11481, 12883]}, "edge": {"target": [], "time": []}}}, "displayed_time": "19.18", "trialTime": 30396, "trial_type": "mouselab-mdp", "trial_index": 20, "time_elapsed": 1356700, "internal_node_id": "0.0-6.0-1.0-5.0"}}, {"uniqueid": "w83968328:a85242058", "current_trial": 21, "dateTime": 1693582713036, "trialdata": {"revealed_states": [], "clicked_states": ["29", "33", "21"], "num_clicks_accrued": [0, 0, 0, 0, 0, 0, 0, 0, 0, 0, 0, 0, 0], "stateRewards": ["", -2, 1, -8, 12, -65, -79, 16, 7, -80, -17, -45, -2, 2, -5, -2, -85, 23, -4, -7, 48, 27, -76, 2, 3, 5, 2, 43, 71, -13, 7, -49, 59, -31], "withholdReward": false, "trial_id": "mdp_trial_7", "block": "test", "trialIndex": 10, "score": 8.55, "costs": -6.449999999999999, "simulationMode": [null, null, null, null, null], "rewards": [-2, 2, -5, -7, 27], "path": ["0", "0", "12", "13", "14", "19", "21"], "rt": [13138, 146, 350, 240, 160], "actions": ["right", "right", "right", "down", "down"], "actionTimes": [14509, 15176, 16046, 16821, 17505], "queries": {"click": {"state": {"target": ["29", "33", "21"], "time": [2665, 6095, 10627]}, "edge": {"target": [], "time": []}}, "mouseover": {"state": {"target": ["26", "29", "33", "30", "20", "20", "21"], "time": [2126, 2308, 3478, 6819, 9541, 9891, 10258]}, "edge": {"target": [], "time": []}}, "mouseout": {"state": {"target": ["0", "23", "26", "29", "33", "30", "20", "20", "21"], "time": [190, 340, 2208, 3294, 6814, 6849, 9641, 10025, 11426]}, "edge": {"target": [], "time": []}}}, "displayed_time": "18.03", "trialTime": 31671, "trial_type": "mouselab-mdp", "trial_index": 21, "time_elapsed": 1389212, "internal_node_id": "0.0-6.0-1.0-6.0"}}, {"uniqueid": "w83968328:a85242058", "current_trial": 22, "dateTime": 1693582732138, "trialdata": {"revealed_states": [], "clicked_states": ["9", "6"], "num_clicks_accrued": [0, 0, 0, 0, 0, 0, 0, 0, 0, 0, 0, 0, 0], "stateRewards": ["", 1, -1, 8, -3, 38, 85, -20, -4, 8, 23, 73, 2, -4, 6, -13, 44, 7, -28, -11, -77, 45, -69, 1, -1, -7, -11, 75, -51, -87, 7, 36, -53, -26], "withholdReward": false, "trial_id": "mdp_trial_8", "block": "test", "trialIndex": 11, "score": 85.7, "costs": -4.3, "simulationMode": [null, null, null, null, null], "rewards": [1, -1, 8, -3, 85], "path": ["0", "0", "1", "2", "3", "4", "6"], "rt": [9291, 165, 313, 426, 160], "actions": ["up", "up", "up", "right", "right"], "actionTimes": [11197, 11882, 12712, 13666, 14341], "queries": {"click": {"state": {"target": ["9", "6"], "time": [3141, 6529]}, "edge": {"target": [], "time": []}}, "mouseover": {"state": {"target": ["8", "9", "6"], "time": [2503, 2601, 5462]}, "edge": {"target": [], "time": []}}, "mouseout": {"state": {"target": ["0", "8", "9", "6", "2", "0"], "time": [2423, 2534, 3781, 7296, 16928, 17228]}, "edge": {"target": [], "time": []}}}, "displayed_time": "15.90", "trialTime": 18244, "trial_type": "mouselab-mdp", "trial_index": 22, "time_elapsed": 1408314, "internal_node_id": "0.0-6.0-1.0-7.0"}}, {"uniqueid": "w83968328:a85242058", "current_trial": 23, "dateTime": 1693582752560, "trialdata": {"revealed_states": [], "clicked_states": ["17", "16"], "num_clicks_accrued": [0, 0, 0, 0, 0, 0, 0, 0, 0, 0, 0, 0, 0], "stateRewards": ["", 2, 2, 3, -15, 23, -14, 73, -7, -32, -20, -6, 1, 1, -5, -12, 73, 6, -84, 11, -81, -57, 13, -2, -1, -4, -8, -52, -58, 49, 13, 5, -41, -41], "withholdReward": false, "trial_id": "mdp_trial_9", "block": "test", "trialIndex": 12, "score": 53.7, "costs": -4.3, "simulationMode": [null, null, null, null, null], "rewards": [1, 1, -5, -12, 73], "path": ["0", "0", "12", "13", "14", "15", "16"], "rt": [10212, 151, 258, 199, 112], "actions": ["right", "right", "right", "up", "up"], "actionTimes": [13155, 13821, 14595, 15335, 15966], "queries": {"click": {"state": {"target": ["17", "16"], "time": [5109, 8954]}, "edge": {"target": [], "time": []}}, "mouseover": {"state": {"target": ["18", "15", "17", "15", "16"], "time": [4077, 4115, 4766, 8439, 8566]}, "edge": {"target": [], "time": []}}, "mouseout": {"state": {"target": ["0", "18", "15", "17", "15", "16"], "time": [4049, 4098, 4433, 6071, 8482, 10218]}, "edge": {"target": [], "time": []}}}, "displayed_time": "16.94", "trialTime": 19424, "trial_type": "mouselab-mdp", "trial_index": 23, "time_elapsed": 1428737, "internal_node_id": "0.0-6.0-1.0-8.0"}}, {"uniqueid": "w83968328:a85242058", "current_trial": 24, "dateTime": 1693582787927, "trialdata": {"revealed_states": [], "clicked_states": ["33", "6"], "num_clicks_accrued": [0, 0, 0, 0, 0, 0, 0, 0, 0, 0, 0, 0, 0], "stateRewards": ["", -2, 3, 8, -9, 59, 41, -50, -1, 82, 66, 33, 2, -2, 7, 8, 1, -38, 12, -16, 24, -37, 67, 1, 4, -2, 5, 35, -83, 28, 8, -27, 69, -64], "withholdReward": false, "trial_id": "mdp_trial_10", "block": "test", "trialIndex": 13, "score": 36.7, "costs": -4.3, "simulationMode": [null, null, null, null, null], "rewards": [-2, 3, 8, -9, 41], "path": ["0", "0", "1", "2", "3", "4", "6"], "rt": [11257, 77, 135, 252, 141], "actions": ["up", "up", "up", "right", "right"], "actionTimes": [12836, 13440, 14096, 14846, 15500], "queries": {"click": {"state": {"target": ["33", "6"], "time": [4377, 8777]}, "edge": {"target": [], "time": []}}, "mouseover": {"state": {"target": ["26", "26", "33", "31", "12", "18", "6"], "time": [2882, 3447, 4021, 5243, 7722, 7755, 8105]}, "edge": {"target": [], "time": []}}, "mouseout": {"state": {"target": ["26", "26", "33", "31", "12", "18", "6"], "time": [3090, 3522, 5224, 5262, 7739, 7772, 9691]}, "edge": {"target": [], "time": []}}}, "displayed_time": "16.02", "trialTime": 34497, "trial_type": "mouselab-mdp", "trial_index": 24, "time_elapsed": 1464103, "internal_node_id": "0.0-6.0-1.0-9.0"}}, {"uniqueid": "w83968328:a85242058", "current_trial": 25, "dateTime": 1693582824027, "trialdata": {"revealed_states": [], "clicked_states": ["27", "16", "32", "33", "20"], "num_clicks_accrued": [0, 0, 0, 0, 0, 0, 0, 0, 0, 0, 0, 0, 0], "stateRewards": ["", -1, -2, 4, 9, 10, -75, 39, 16, -43, 88, -19, -1, 1, 2, 4, -31, 10, 73, 12, 41, -64, -81, -2, 2, -6, 1, -81, -1, -26, 3, -59, -3, -20], "withholdReward": false, "trial_id": "mdp_trial_11", "block": "test", "trialIndex": 14, "score": 44.25, "costs": -10.75, "simulationMode": [null, null, null, null, null], "rewards": [-1, 1, 2, 12, 41], "path": ["0", "0", "12", "13", "14", "19", "20"], "rt": [22717, 123, 248, 128, 1029], "actions": ["right", "right", "right", "down", "right"], "actionTimes": [25064, 25706, 26464, 27095, 28645], "queries": {"click": {"state": {"target": ["27", "16", "32", "33", "20"], "time": [3876, 7864, 11943, 16220, 20685]}, "edge": {"target": [], "time": []}}, "mouseover": {"state": {"target": ["26", "27", "10", "16", "1", "23", "24", "30", "32", "33", "30", "31", "20"], "time": [3214, 3596, 4651, 7480, 11198, 11229, 11263, 11513, 11612, 15879, 19529, 19562, 20262]}, "edge": {"target": [], "time": []}}, "mouseout": {"state": {"target": ["26", "27", "10", "16", "1", "23", "24", "30", "32", "32", "33", "30", "31", "20"], "time": [3330, 4632, 4671, 8631, 11213, 11246, 11329, 11547, 13234, 15630, 19495, 19546, 19580, 22249]}, "edge": {"target": [], "time": []}}}, "displayed_time": "29.15", "trialTime": 35170, "trial_type": "mouselab-mdp", "trial_index": 25, "time_elapsed": 1500203, "internal_node_id": "0.0-6.0-1.0-10.0"}}, {"uniqueid": "w83968328:a85242058", "current_trial": 26, "dateTime": 1693582860246, "trialdata": {"revealed_states": [], "clicked_states": ["5", "9"], "num_clicks_accrued": [0, 0, 0, 0, 0, 0, 0, 0, 0, 0, 0, 0, 0], "stateRewards": ["", 2, -3, -8, 14, -7, -51, 73, 2, 36, 36, -43, -1, 3, -4, 1, 6, 87, -65, 15, 61, -42, -83, -1, 3, -2, -7, 30, -48, 35, 13, 26, 60, 78], "withholdReward": false, "trial_id": "mdp_trial_12", "block": "test", "trialIndex": 15, "score": 24.7, "costs": -4.3, "simulationMode": [null, null, null, null, null], "rewards": [2, -3, -8, 2, 36], "path": ["0", "0", "1", "2", "3", "8", "9"], "rt": [8799, 201, 311, 164, 161], "actions": ["up", "up", "up", "left", "up"], "actionTimes": [10986, 11706, 12530, 13216, 13900], "queries": {"click": {"state": {"target": ["5", "9"], "time": [3570, 7001]}, "edge": {"target": [], "time": []}}, "mouseover": {"state": {"target": ["5", "9", "8"], "time": [3298, 4485, 7736]}, "edge": {"target": [], "time": []}}, "mouseout": {"state": {"target": ["19", "0", "0", "5", "9", "8", "3"], "time": [717, 947, 2771, 4268, 7719, 7758, 34230]}, "edge": {"target": [], "time": []}}}, "displayed_time": "16.19", "trialTime": 35296, "trial_type": "mouselab-mdp", "trial_index": 26, "time_elapsed": 1536422, "internal_node_id": "0.0-6.0-1.0-11.0"}}, {"uniqueid": "w83968328:a85242058", "current_trial": 27, "dateTime": 1693582880120, "trialdata": {"revealed_states": [], "clicked_states": ["27", "21"], "num_clicks_accrued": [0, 0, 0, 0, 0, 0, 0, 0, 0, 0, 0, 0, 0], "stateRewards": ["", 2, 4, 7, -6, -76, -81, 2, 5, -66, -3, 36, -2, -4, 6, -2, -69, 4, -49, -6, 67, 38, -67, 2, 1, 1, 6, -68, -21, 52, -16, -16, 6, -70], "withholdReward": false, "trial_id": "mdp_trial_13", "block": "test", "trialIndex": 16, "score": 27.7, "costs": -4.3, "simulationMode": [null, null, null, null, null], "rewards": [-2, -4, 6, -6, 38], "path": ["0", "0", "12", "13", "14", "19", "21"], "rt": [8782, 72, 293, 136, 161], "actions": ["right", "right", "right", "down", "down"], "actionTimes": [11268, 11884, 12689, 13348, 14023], "queries": {"click": {"state": {"target": ["27", "21"], "time": [4114, 7453]}, "edge": {"target": [], "time": []}}, "mouseover": {"state": {"target": ["23", "28", "26", "27", "1", "12", "22", "19", "21"], "time": [3305, 3331, 3442, 3660, 4696, 4750, 5660, 5684, 6127]}, "edge": {"target": [], "time": []}}, "mouseout": {"state": {"target": ["2", "1", "0", "0", "23", "28", "26", "27", "1", "12", "22", "19", "21"], "time": [1108, 1157, 1357, 3288, 3325, 3376, 3591, 4644, 4715, 4787, 5679, 5737, 7668]}, "edge": {"target": [], "time": []}}}, "displayed_time": "16.49", "trialTime": 18913, "trial_type": "mouselab-mdp", "trial_index": 27, "time_elapsed": 1556296, "internal_node_id": "0.0-6.0-1.0-12.0"}}, {"uniqueid": "w83968328:a85242058", "current_trial": 28, "dateTime": 1693582924010, "trialdata": {"revealed_states": [], "clicked_states": ["6", "11", "25", "29", "33", "32", "21"], "num_clicks_accrued": [0, 0, 0, 0, 0, 0, 0, 0, 0, 0, 0, 0, 0], "stateRewards": ["", 2, 3, -1, 16, -78, -11, 46, 2, -20, 79, -67, 2, 3, 2, 11, -83, -42, -58, -11, -67, -22, 55, 2, -1, -1, -16, -83, -82, 23, -11, -29, 13, 13], "withholdReward": false, "trial_id": "mdp_trial_14", "block": "test", "trialIndex": 17, "score": -6.850000000000001, "costs": -13.850000000000001, "simulationMode": [null, null, null, null, null], "rewards": [2, -1, -1, -16, 23], "path": ["0", "0", "23", "24", "25", "26", "29"], "rt": [29019, 161, 234, 616, 45], "actions": ["left", "left", "left", "up", "left"], "actionTimes": [32286, 32961, 33716, 34848, 35409], "queries": {"click": {"state": {"target": ["6", "11", "25", "29", "33", "32", "21"], "time": [4917, 8939, 13095, 14971, 19589, 24024, 28141]}, "edge": {"target": [], "time": []}}, "mouseover": {"state": {"target": ["1", "5", "6", "3", "8", "11", "28", "26", "25", "29", "33", "32", "21"], "time": [4007, 4095, 4595, 8212, 8263, 8664, 12360, 12396, 12812, 14728, 19228, 23629, 27645]}, "edge": {"target": [], "time": []}}, "mouseout": {"state": {"target": ["19", "12", "1", "5", "6", "3", "8", "11", "11", "28", "26", "25", "29", "33", "32", "21"], "time": [1962, 2045, 4029, 4228, 5847, 8230, 8312, 9146, 9547, 12377, 12445, 14388, 15964, 20664, 25029, 28342]}, "edge": {"target": [], "time": []}}}, "displayed_time": "35.95", "trialTime": 42841, "trial_type": "mouselab-mdp", "trial_index": 28, "time_elapsed": 1600186, "internal_node_id": "0.0-6.0-1.0-13.0"}}, {"uniqueid": "w83968328:a85242058", "current_trial": 29, "dateTime": 1693582942716, "trialdata": {"revealed_states": [], "clicked_states": [], "num_clicks_accrued": [0, 0, 0, 0, 0, 0, 0, 0, 0, 0, 0, 0, 0], "stateRewards": ["", -1, -3, -7, -7, -76, 30, -49, 11, -70, 56, 2, 1, 4, -3, -14, -59, -83, -25, -9, -21, -67, -73, -2, 4, 4, -9, -11, -32, 60, 9, -87, 22, -64], "withholdReward": false, "trial_id": "mdp_trial_15", "block": "test", "trialIndex": 18, "score": -72, "costs": 0, "simulationMode": [null, null, null, null, null], "rewards": [-2, 4, 4, 9, -87], "path": ["0", "0", "23", "24", "25", "30", "31"], "rt": [8758, 701, 246, 229, 413], "actions": ["left", "left", "left", "down", "right"], "actionTimes": [10970, 12189, 12949, 13697, 14632], "queries": {"click": {"state": {"target": [], "time": []}, "edge": {"target": [], "time": []}}, "mouseover": {"state": {"target": ["1", "7", "16", "18", "12"], "time": [5414, 5482, 5897, 8963, 9013]}, "edge": {"target": [], "time": []}}, "mouseout": {"state": {"target": ["14", "13", "0", "1", "7", "16", "18"], "time": [834, 862, 5391, 5447, 5514, 7830, 8981]}, "edge": {"target": [], "time": []}}}, "displayed_time": "16.21", "trialTime": 17637, "trial_type": "mouselab-mdp", "trial_index": 29, "time_elapsed": 1618892, "internal_node_id": "0.0-6.0-1.0-14.0"}}, {"uniqueid": "w83968328:a85242058", "current_trial": 30, "dateTime": 1693582962348, "trialdata": {"revealed_states": [], "clicked_states": ["11", "6"], "num_clicks_accrued": [0, 0, 0, 0, 0, 0, 0, 0, 0, 0, 0, 0, 0], "stateRewards": ["", -1, -3, -6, 14, 41, 18, 63, -14, 80, 21, 17, -2, -4, -2, -5, 13, 70, 8, -4, -64, -10, -20, 2, -1, 4, -1, -17, -55, 42, -7, 47, 54, 15], "withholdReward": false, "trial_id": "mdp_trial_16", "block": "test", "trialIndex": 19, "score": 17.7, "costs": -4.3, "simulationMode": [null, null, null, null, null], "rewards": [-1, -3, -6, 14, 18], "path": ["0", "0", "1", "2", "3", "4", "6"], "rt": [8571, 121, 113, 190, 118], "actions": ["up", "up", "up", "right", "right"], "actionTimes": [10457, 11102, 11727, 12437, 13067], "queries": {"click": {"state": {"target": ["11", "6"], "time": [3160, 6418]}, "edge": {"target": [], "time": []}}, "mouseover": {"state": {"target": ["11", "8", "6", "4"], "time": [2710, 3996, 4412, 9894]}, "edge": {"target": [], "time": []}}, "mouseout": {"state": {"target": ["12", "11", "8", "6", "4", "7", "12"], "time": [859, 3977, 4017, 9827, 18017, 18060, 18343]}, "edge": {"target": [], "time": []}}}, "displayed_time": "15.89", "trialTime": 18579, "trial_type": "mouselab-mdp", "trial_index": 30, "time_elapsed": 1638523, "internal_node_id": "0.0-6.0-1.0-15.0"}}, {"uniqueid": "w83968328:a85242058", "current_trial": 31, "dateTime": 1693583008893, "trialdata": {"revealed_states": [], "clicked_states": ["20", "16", "5", "9", "32", "33", "29", "27", "17"], "num_clicks_accrued": [0, 0, 0, 0, 0, 0, 0, 0, 0, 0, 0, 0, 0], "stateRewards": ["", 1, -3, 4, 13, -72, 52, 5, 5, -58, 5, 14, 2, 1, 3, -14, -86, -4, 73, 6, -58, -50, 49, 2, -3, -4, 2, 33, -41, 42, -11, 81, 45, 53], "withholdReward": false, "trial_id": "mdp_trial_17", "block": "test", "trialIndex": 20, "score": 17.650000000000006, "costs": -19.349999999999998, "simulationMode": [null, null, null, null, null], "rewards": [2, -3, -4, -11, 53], "path": ["0", "0", "23", "24", "25", "30", "33"], "rt": [34621, 158, 230, 160, 190], "actions": ["left", "left", "left", "down", "left"], "actionTimes": [36741, 37442, 38196, 38877, 39591], "queries": {"click": {"state": {"target": ["20", "16", "5", "9", "32", "33", "29", "27", "17"], "time": [3507, 7136, 10539, 14339, 17604, 21031, 24660, 28482, 32610]}, "edge": {"target": [], "time": []}}, "mouseover": {"state": {"target": ["12", "20", "20", "19", "16", "6", "5", "8", "9", "30", "32", "33", "29", "27", "17", "17"], "time": [2736, 2831, 3149, 4334, 5899, 7798, 8198, 11349, 13996, 15181, 15639, 18602, 22457, 27879, 31712, 32332]}, "edge": {"target": [], "time": []}}, "mouseout": {"state": {"target": ["12", "12", "0", "0", "12", "20", "20", "19", "16", "6", "5", "8", "9", "30", "32", "33", "29", "27", "17"], "time": [451, 802, 962, 2731, 2762, 2880, 4315, 4370, 7764, 8098, 10730, 13880, 15098, 15531, 18364, 22257, 27796, 31576, 31962]}, "edge": {"target": [], "time": []}}}, "displayed_time": "40.13", "trialTime": 45581, "trial_type": "mouselab-mdp", "trial_index": 31, "time_elapsed": 1685069, "internal_node_id": "0.0-6.0-1.0-16.0"}}, {"uniqueid": "w83968328:a85242058", "current_trial": 32, "dateTime": 1693583035634, "trialdata": {"revealed_states": [], "clicked_states": ["17", "6", "9", "29"], "num_clicks_accrued": [0, 0, 0, 0, 0, 0, 0, 0, 0, 0, 0, 0, 0], "stateRewards": ["", -2, 1, -3, -16, -39, -52, 30, -7, -41, -59, 11, 2, 1, 8, 2, -11, -26, -42, -13, 87, -59, -48, -1, -1, -1, 16, -79, 31, 50, -1, -84, 34, -82], "withholdReward": false, "trial_id": "mdp_trial_18", "block": "test", "trialIndex": 21, "score": 54.4, "costs": -8.6, "simulationMode": [null, null, null, null, null], "rewards": [-1, -1, -1, 16, 50], "path": ["0", "0", "23", "24", "25", "26", "29"], "rt": [15710, 154, 239, 199, 127], "actions": ["left", "left", "left", "up", "left"], "actionTimes": [17708, 18388, 19153, 19883, 20523], "queries": {"click": {"state": {"target": ["17", "6", "9", "29"], "time": [3777, 7095, 10362, 13660]}, "edge": {"target": [], "time": []}}, "mouseover": {"state": {"target": ["12", "17", "16", "6", "6", "9", "11", "27", "29", "25", "31"], "time": [2742, 3259, 4594, 4794, 5428, 8195, 11047, 11262, 11513, 14463, 14502]}, "edge": {"target": [], "time": []}}, "mouseout": {"state": {"target": ["17", "15", "12", "0", "12", "17", "16", "6", "6", "9", "11", "27", "29", "25", "31"], "time": [728, 758, 859, 2593, 2776, 3968, 4630, 4861, 7322, 11019, 11071, 11361, 14445, 14483, 14534]}, "edge": {"target": [], "time": []}}}, "displayed_time": "21.05", "trialTime": 25681, "trial_type": "mouselab-mdp", "trial_index": 32, "time_elapsed": 1711809, "internal_node_id": "0.0-6.0-1.0-17.0"}}, {"uniqueid": "w83968328:a85242058", "current_trial": 33, "dateTime": 1693583055192, "trialdata": {"revealed_states": [], "clicked_states": ["5"], "num_clicks_accrued": [0, 0, 0, 0, 0, 0, 0, 0, 0, 0, 0, 0, 0], "stateRewards": ["", 1, 1, 7, -11, 80, -20, -53, -14, 3, 31, 27, 2, -1, -8, -10, 33, 41, 86, 9, 78, -37, -13, -1, -2, -6, -8, -80, 75, 4, -16, -49, -74, 24], "withholdReward": false, "trial_id": "mdp_trial_19", "block": "test", "trialIndex": 22, "score": 75.85, "costs": -2.15, "simulationMode": [null, null, null, null, null], "rewards": [1, 1, 7, -11, 80], "path": ["0", "0", "1", "2", "3", "4", "5"], "rt": [5804, 314, 302, 365, 253], "actions": ["up", "up", "up", "right", "up"], "actionTimes": [7860, 8688, 9509, 10389, 11161], "queries": {"click": {"state": {"target": ["5"], "time": [3752]}, "edge": {"target": [], "time": []}}, "mouseover": {"state": {"target": ["1", "4", "5", "9", "27", "26", "33"], "time": [2978, 3303, 3403, 4587, 5663, 5687, 6120]}, "edge": {"target": [], "time": []}}, "mouseout": {"state": {"target": ["0", "1", "4", "5", "9", "27", "26", "33", "30", "24", "23", "0"], "time": [1250, 3018, 3319, 4439, 5621, 5682, 5707, 16137, 16253, 16369, 16853, 16886]}, "edge": {"target": [], "time": []}}}, "displayed_time": "16.06", "trialTime": 18323, "trial_type": "mouselab-mdp", "trial_index": 33, "time_elapsed": 1731368, "internal_node_id": "0.0-6.0-1.0-18.0"}}, {"uniqueid": "w83968328:a85242058", "current_trial": 34, "dateTime": 1693583081730, "trialdata": {"revealed_states": [], "clicked_states": ["5", "9"], "num_clicks_accrued": [0, 0, 0, 0, 0, 0, 0, 0, 0, 0, 0, 0, 0], "stateRewards": ["", -2, 2, 5, -14, -56, 64, 84, -5, 52, 39, 85, -2, 1, 7, 8, 21, 29, -78, -9, -10, -69, 10, -2, -1, -7, 15, 72, 20, 41, -2, 52, 80, 22], "withholdReward": false, "trial_id": "mdp_trial_20", "block": "test", "trialIndex": 23, "score": 47.7, "costs": -4.3, "simulationMode": [null, null, null, null, null], "rewards": [-2, 2, 5, -5, 52], "path": ["0", "0", "1", "2", "3", "8", "9"], "rt": [9054, 183, 209, 213, 182], "actions": ["up", "up", "up", "left", "up"], "actionTimes": [16279, 16974, 17699, 18447, 19139], "queries": {"click": {"state": {"target": ["5", "9"], "time": [8759, 12112]}, "edge": {"target": [], "time": []}}, "mouseover": {"state": {"target": ["1", "7", "4", "5", "9", "8", "28", "24", "30", "32"], "time": [7853, 8155, 8203, 8386, 9505, 13043, 13069, 13092, 13969, 14271]}, "edge": {"target": [], "time": []}}, "mouseout": {"state": {"target": ["0", "0", "1", "7", "4", "5", "9", "8", "28", "24", "30"], "time": [1135, 7319, 7887, 8186, 8303, 9439, 13038, 13064, 13088, 13943, 14121]}, "edge": {"target": [], "time": []}}}, "displayed_time": "21.23", "trialTime": 25394, "trial_type": "mouselab-mdp", "trial_index": 34, "time_elapsed": 1757905, "internal_node_id": "0.0-6.0-1.0-19.0"}}, {"uniqueid": "w83968328:a85242058", "current_trial": 35, "dateTime": 1693583101721, "trialdata": {"revealed_states": [], "clicked_states": ["6"], "num_clicks_accrued": [0, 0, 0, 0, 0, 0, 0, 0, 0, 0, 0, 0, 0], "stateRewards": ["", -2, 1, -5, 2, -68, 80, 33, 10, 67, -59, 20, -1, -3, 3, 14, 74, -2, 24, -16, 63, 80, 46, -1, 4, 6, 12, 83, -38, -43, -4, 43, 14, -79], "withholdReward": false, "trial_id": "mdp_trial_21", "block": "test", "trialIndex": 24, "score": 73.85, "costs": -2.15, "simulationMode": [null, null, null, null, null], "rewards": [-2, 1, -5, 2, 80], "path": ["0", "0", "1", "2", "3", "4", "6"], "rt": [5652, 128, 113, 270, 216], "actions": ["up", "up", "up", "right", "right"], "actionTimes": [8423, 9072, 9708, 10498, 11228], "queries": {"click": {"state": {"target": ["6"], "time": [4275]}, "edge": {"target": [], "time": []}}, "mouseover": {"state": {"target": ["1", "4", "6", "2", "24", "25", "30", "33"], "time": [3550, 3608, 3924, 4927, 4987, 5041, 5200, 5508]}, "edge": {"target": [], "time": []}}, "mouseout": {"state": {"target": ["32", "12", "12", "1", "4", "6", "2", "24", "25", "30", "33", "30", "31"], "time": [1093, 1340, 1523, 3574, 3673, 4908, 4946, 5007, 5060, 5299, 17256, 17289, 17524]}, "edge": {"target": [], "time": []}}}, "displayed_time": "16.77", "trialTime": 18908, "trial_type": "mouselab-mdp", "trial_index": 35, "time_elapsed": 1777897, "internal_node_id": "0.0-6.0-1.0-20.0"}}, {"uniqueid": "w83968328:a85242058", "current_trial": 36, "dateTime": 1693583126259, "trialdata": {"revealed_states": [], "clicked_states": ["20", "16"], "num_clicks_accrued": [0, 0, 0, 0, 0, 0, 0, 0, 0, 0, 0, 0, 0], "stateRewards": ["", 2, 3, 8, 14, 69, -27, 17, 2, -71, -65, -10, 2, -3, 7, 8, 65, -10, 65, -12, 73, -12, 13, -2, -2, 6, 10, -79, -69, -18, 10, -85, 67, 74], "withholdReward": false, "trial_id": "mdp_trial_22", "block": "test", "trialIndex": 25, "score": 62.7, "costs": -4.3, "simulationMode": [null, null, null, null, null, null], "rewards": [2, -3, 7, -12, 73], "path": ["0", "0", "12", "13", "14", "19", "20"], "rt": [6931, 1576, 280, 252, 158, 228], "actions": ["right", "right", "right", "right", "down", "right"], "actionTimes": [13070, 14653, 15499, 16272, 16944, 17699], "queries": {"click": {"state": {"target": ["20", "16"], "time": [8439, 11720]}, "edge": {"target": [], "time": []}}, "mouseover": {"state": {"target": ["4", "6", "15", "14", "20", "16"], "time": [6983, 7319, 7482, 7616, 8133, 10225]}, "edge": {"target": [], "time": []}}, "mouseout": {"state": {"target": ["0", "0", "4", "6", "15", "14", "20"], "time": [5147, 6925, 7000, 7365, 7533, 7666, 9384]}, "edge": {"target": [], "time": []}}}, "displayed_time": "20.14", "trialTime": 23239, "trial_type": "mouselab-mdp", "trial_index": 36, "time_elapsed": 1802435, "internal_node_id": "0.0-6.0-1.0-21.0"}}, {"uniqueid": "w83968328:a85242058", "current_trial": 37, "dateTime": 1693583146608, "trialdata": {"revealed_states": [], "clicked_states": ["11"], "num_clicks_accrued": [0, 0, 0, 0, 0, 0, 0, 0, 0, 0, 0, 0, 0], "stateRewards": ["", 1, 1, 1, 15, -76, 52, -32, 14, -57, 37, 49, 1, -4, -3, 6, 83, -76, 25, 9, 36, -1, -17, -1, 4, 4, -2, -22, -21, 58, -15, -57, 49, -24], "withholdReward": false, "trial_id": "mdp_trial_23", "block": "test", "trialIndex": 26, "score": 63.85, "costs": -2.15, "simulationMode": [null, null, null, null, null], "rewards": [1, 1, 1, 14, 49], "path": ["0", "0", "1", "2", "3", "8", "11"], "rt": [5493, 96, 186, 25, 96], "actions": ["up", "up", "up", "left", "left"], "actionTimes": [7668, 8283, 8987, 9527, 10148], "queries": {"click": {"state": {"target": ["11"], "time": [3636]}, "edge": {"target": [], "time": []}}, "mouseover": {"state": {"target": ["1", "2", "4", "11", "27", "29"], "time": [2880, 2902, 2999, 3314, 4365, 4769]}, "edge": {"target": [], "time": []}}, "mouseout": {"state": {"target": ["16", "0", "1", "2", "4", "11", "27", "29", "27", "23", "0"], "time": [593, 2862, 2897, 2931, 3015, 4316, 4468, 15036, 15314, 16697, 16730]}, "edge": {"target": [], "time": []}}}, "displayed_time": "16.18", "trialTime": 19204, "trial_type": "mouselab-mdp", "trial_index": 37, "time_elapsed": 1822784, "internal_node_id": "0.0-6.0-1.0-22.0"}}, {"uniqueid": "w83968328:a85242058", "current_trial": 38, "dateTime": 1693583167412, "trialdata": {"revealed_states": [], "clicked_states": ["5"], "num_clicks_accrued": [0, 0, 0, 0, 0, 0, 0, 0, 0, 0, 0, 0, 0], "stateRewards": ["", -2, 4, -5, -12, 85, -24, -18, -15, -78, -22, 26, -1, -1, 2, 14, -45, 52, -23, 7, -33, 24, -6, -2, -4, 5, -7, -16, 36, -39, 5, 71, -87, -23], "withholdReward": false, "trial_id": "mdp_trial_24", "block": "test", "trialIndex": 27, "score": 67.85, "costs": -2.15, "simulationMode": [null, null, null, null, null], "rewards": [-2, 4, -5, -12, 85], "path": ["0", "0", "1", "2", "3", "4", "5"], "rt": [5112, 115, 198, 224, 161], "actions": ["up", "up", "up", "right", "up"], "actionTimes": [8379, 9037, 9754, 10499, 11184], "queries": {"click": {"state": {"target": ["5"], "time": [4408]}, "edge": {"target": [], "time": []}}, "mouseover": {"state": {"target": ["1", "5", "5", "5", "33", "32"], "time": [3718, 3819, 3972, 4142, 5052, 5429]}, "edge": {"target": [], "time": []}}, "mouseout": {"state": {"target": ["0", "1", "5", "5", "5", "33"], "time": [3685, 3737, 3908, 3990, 4970, 5087]}, "edge": {"target": [], "time": []}}}, "displayed_time": "17.27", "trialTime": 19327, "trial_type": "mouselab-mdp", "trial_index": 38, "time_elapsed": 1843587, "internal_node_id": "0.0-6.0-1.0-23.0"}}, {"uniqueid": "w83968328:a85242058", "current_trial": 39, "dateTime": 1693583191411, "trialdata": {"revealed_states": [], "clicked_states": ["6", "33", "27"], "num_clicks_accrued": [0, 0, 0, 0, 0, 0, 0, 0, 0, 0, 0, 0, 0], "stateRewards": ["", 1, 4, 7, -16, -84, -6, -46, -12, -7, -49, -26, -1, 2, -4, 2, 22, 37, -64, 1, 88, -13, -10, 1, -4, -2, 5, 2, -10, -34, 9, 66, 55, 38], "withholdReward": false, "trial_id": "mdp_trial_25", "block": "test", "trialIndex": 28, "score": 35.55, "costs": -6.449999999999999, "simulationMode": [null, null, null, null, null], "rewards": [1, -4, -2, 9, 38], "path": ["0", "0", "23", "24", "25", "30", "33"], "rt": [12690, 185, 167, 107, 420], "actions": ["left", "left", "left", "down", "left"], "actionTimes": [14925, 15622, 16302, 16927, 17872], "queries": {"click": {"state": {"target": ["6", "33", "27"], "time": [3714, 7044, 10644]}, "edge": {"target": [], "time": []}}, "mouseover": {"state": {"target": ["7", "6", "6", "1", "33", "28", "27"], "time": [3013, 3163, 3363, 4534, 5033, 8770, 8859]}, "edge": {"target": [], "time": []}}, "mouseout": {"state": {"target": ["32", "32", "31", "23", "0", "7", "6", "6", "1", "33", "28", "27", "11", "8", "2"], "time": [569, 789, 851, 903, 2983, 3030, 3231, 4515, 4555, 7781, 8806, 22153, 22229, 22312, 22480]}, "edge": {"target": [], "time": []}}}, "displayed_time": "18.39", "trialTime": 22808, "trial_type": "mouselab-mdp", "trial_index": 39, "time_elapsed": 1867587, "internal_node_id": "0.0-6.0-1.0-24.0"}}, {"uniqueid": "w83968328:a85242058", "current_trial": 40, "dateTime": 1693583219328, "trialdata": {"revealed_states": [], "clicked_states": ["27", "5", "21", "32"], "num_clicks_accrued": [0, 0, 0, 0, 0, 0, 0, 0, 0, 0, 0, 0, 0], "stateRewards": ["", -2, 3, -1, 2, -72, 63, 20, -1, 62, -66, 39, -2, 3, -6, 14, 22, 47, 1, 8, -49, -1, -41, 2, 2, -6, -16, -64, -60, -34, 16, 54, 22, -7], "withholdReward": false, "trial_id": "mdp_trial_26", "block": "test", "trialIndex": 29, "score": 27.4, "costs": -8.6, "simulationMode": [null, null, null, null, null], "rewards": [2, 2, -6, 16, 22], "path": ["0", "0", "23", "24", "25", "30", "32"], "rt": [15295, 125, 121, 81, 264], "actions": ["left", "left", "left", "down", "down"], "actionTimes": [18428, 19075, 19722, 20316, 21097], "queries": {"click": {"state": {"target": ["27", "5", "21", "32"], "time": [4388, 7679, 10984, 14340]}, "edge": {"target": [], "time": []}}, "mouseover": {"state": {"target": ["27", "5", "5", "6", "16", "15", "19", "21", "32", "14", "17"], "time": [4096, 4982, 5398, 8386, 8446, 9123, 9154, 9515, 12249, 14999, 15288]}, "edge": {"target": [], "time": []}}, "mouseout": {"state": {"target": ["1", "0", "27", "5", "5", "6", "16", "15", "19", "21", "32", "14", "17"], "time": [2028, 3709, 4974, 5024, 8365, 8408, 8467, 9147, 9179, 11749, 14898, 15241, 25863]}, "edge": {"target": [], "time": []}}}, "displayed_time": "21.64", "trialTime": 26826, "trial_type": "mouselab-mdp", "trial_index": 40, "time_elapsed": 1895505, "internal_node_id": "0.0-6.0-1.0-25.0"}}, {"uniqueid": "w83968328:a85242058", "current_trial": 41, "dateTime": 1693583239677, "trialdata": {"revealed_states": [], "clicked_states": ["11", "6"], "num_clicks_accrued": [0, 0, 0, 0, 0, 0, 0, 0, 0, 0, 0, 0, 0], "stateRewards": ["", -1, 3, 1, -7, 56, 76, 57, 3, 11, -9, 14, 1, -2, 2, 8, -77, -3, 79, -5, 88, 24, -66, -2, -1, 7, -7, -30, 14, -76, 11, -36, 28, -6], "withholdReward": false, "trial_id": "mdp_trial_27", "block": "test", "trialIndex": 30, "score": 67.7, "costs": -4.3, "simulationMode": [null, null, null, null, null], "rewards": [-1, 3, 1, -7, 76], "path": ["0", "0", "1", "2", "3", "4", "6"], "rt": [9018, 78, 88, 93, 62], "actions": ["up", "up", "up", "right", "right"], "actionTimes": [10809, 11403, 12013, 12618, 13242], "queries": {"click": {"state": {"target": ["11", "6"], "time": [3571, 6976]}, "edge": {"target": [], "time": []}}, "mouseover": {"state": {"target": ["2", "3", "3", "8", "11", "5", "6", "16", "17"], "time": [2689, 2723, 2964, 3006, 3187, 4825, 5209, 7670, 7957]}, "edge": {"target": [], "time": []}}, "mouseout": {"state": {"target": ["0", "2", "3", "3", "8", "11", "5", "6", "16"], "time": [886, 2707, 2741, 2988, 3055, 4789, 4846, 7647, 7691]}, "edge": {"target": [], "time": []}}}, "displayed_time": "15.79", "trialTime": 19272, "trial_type": "mouselab-mdp", "trial_index": 41, "time_elapsed": 1915855, "internal_node_id": "0.0-6.0-1.0-26.0"}}, {"uniqueid": "w83968328:a85242058", "current_trial": 42, "dateTime": 1693583263886, "trialdata": {"revealed_states": [], "clicked_states": ["11", "6", "20"], "num_clicks_accrued": [0, 0, 0, 0, 0, 0, 0, 0, 0, 0, 0, 0, 0], "stateRewards": ["", 1, -2, -8, -13, 4, 34, -84, -4, -49, 88, -70, -1, 3, -4, 10, -77, 13, -34, 15, -21, -16, 27, 1, -2, 8, -8, -6, 38, -26, 6, -15, 66, -3], "withholdReward": false, "trial_id": "mdp_trial_28", "block": "test", "trialIndex": 31, "score": 5.550000000000001, "costs": -6.449999999999999, "simulationMode": [null, null, null, null, null], "rewards": [1, -2, -8, -13, 34], "path": ["0", "0", "1", "2", "3", "4", "6"], "rt": [11362, 98, 54, 482, 213], "actions": ["up", "up", "up", "right", "right"], "actionTimes": [13352, 13983, 14632, 15639, 16367], "queries": {"click": {"state": {"target": ["11", "6", "20"], "time": [3231, 6557, 10083]}, "edge": {"target": [], "time": []}}, "mouseover": {"state": {"target": ["2", "8", "11", "6", "20"], "time": [2668, 2766, 2918, 3966, 7655]}, "edge": {"target": [], "time": []}}, "mouseout": {"state": {"target": ["17", "15", "0", "2", "8", "11", "6", "20"], "time": [330, 481, 2628, 2715, 2850, 3444, 7245, 11011]}, "edge": {"target": [], "time": []}}}, "displayed_time": "16.90", "trialTime": 22889, "trial_type": "mouselab-mdp", "trial_index": 42, "time_elapsed": 1940062, "internal_node_id": "0.0-6.0-1.0-27.0"}}, {"uniqueid": "w83968328:a85242058", "current_trial": 43, "dateTime": 1693583287393, "trialdata": {"revealed_states": [], "clicked_states": ["29"], "num_clicks_accrued": [0, 0, 0, 0, 0, 0, 0, 0, 0, 0, 0, 0, 0], "stateRewards": ["", -1, 3, 1, -11, -22, -36, 19, -5, -70, -52, 50, -2, -4, 4, -2, -41, -83, 29, -2, 22, 10, -6, -2, 3, -2, 14, 54, 44, 77, -9, -65, -37, -40], "withholdReward": false, "trial_id": "mdp_trial_29", "block": "test", "trialIndex": 32, "score": 87.85, "costs": -2.15, "simulationMode": [null, null, null, null, null], "rewards": [-2, 3, -2, 14, 77], "path": ["0", "0", "23", "24", "25", "26", "29"], "rt": [5002, 187, 237, 208, 64], "actions": ["left", "left", "left", "up", "left"], "actionTimes": [7108, 7814, 8564, 9283, 9892], "queries": {"click": {"state": {"target": ["29"], "time": [3251]}, "edge": {"target": [], "time": []}}, "mouseover": {"state": {"target": ["26", "29", "32"], "time": [2670, 2822, 5039]}, "edge": {"target": [], "time": []}}, "mouseout": {"state": {"target": ["15", "18", "1", "26", "29", "32"], "time": [619, 653, 819, 2720, 3626, 21441]}, "edge": {"target": [], "time": []}}}, "displayed_time": "16.11", "trialTime": 22252, "trial_type": "mouselab-mdp", "trial_index": 43, "time_elapsed": 1963569, "internal_node_id": "0.0-6.0-1.0-28.0"}}, {"uniqueid": "w83968328:a85242058", "current_trial": 44, "dateTime": 1693583315540, "trialdata": {"revealed_states": [], "clicked_states": ["29", "5", "9"], "num_clicks_accrued": [0, 0, 0, 0, 0, 0, 0, 0, 0, 0, 0, 0, 0], "stateRewards": ["", -1, -2, -1, -10, -57, 73, -72, -16, 75, -14, -46, -2, -3, -7, -1, -61, -60, 76, -4, 50, 4, 14, 2, 2, -7, 12, -65, -32, 15, -8, -76, -25, -61], "withholdReward": false, "trial_id": "mdp_trial_30", "block": "test", "trialIndex": 33, "score": 48.55, "costs": -6.449999999999999, "simulationMode": [null, null, null, null, null], "rewards": [-1, -2, -1, -16, 75], "path": ["0", "0", "1", "2", "3", "8", "9"], "rt": [12043, 121, 214, 160, 196], "actions": ["up", "up", "up", "left", "up"], "actionTimes": [15384, 16019, 16744, 17423, 18160], "queries": {"click": {"state": {"target": ["29", "5", "9"], "time": [4830, 8245, 11559]}, "edge": {"target": [], "time": []}}, "mouseover": {"state": {"target": ["28", "26", "29", "26", "6", "5", "9", "25", "30", "32"], "time": [4243, 4315, 4576, 5400, 5795, 6123, 9008, 12085, 12153, 12493]}, "edge": {"target": [], "time": []}}, "mouseout": {"state": {"target": ["0", "28", "26", "29", "26", "6", "5", "9", "25", "30"], "time": [1958, 4311, 4393, 5381, 5424, 5834, 8797, 12028, 12108, 12388]}, "edge": {"target": [], "time": []}}}, "displayed_time": "18.68", "trialTime": 26943, "trial_type": "mouselab-mdp", "trial_index": 44, "time_elapsed": 1991717, "internal_node_id": "0.0-6.0-1.0-29.0"}}, {"uniqueid": "w83968328:a85242058", "current_trial": 45, "dateTime": 1693583337327, "trialdata": {"revealed_states": [], "clicked_states": ["21"], "num_clicks_accrued": [0, 0, 0, 0, 0, 0, 0, 0, 0, 0, 0, 0, 0], "stateRewards": ["", -1, 3, -7, 16, -32, -74, -48, 2, 10, 15, -30, 1, 1, -2, 10, 12, -83, 67, 13, -66, 47, 65, -2, 4, 2, -14, -8, -57, 24, 9, 65, 12, 46], "withholdReward": false, "trial_id": "mdp_trial_31", "block": "test", "trialIndex": 34, "score": 57.85, "costs": -2.15, "simulationMode": [null, null, null, null, null], "rewards": [1, 1, -2, 13, 47], "path": ["0", "0", "12", "13", "14", "19", "21"], "rt": [5180, 133, 124, 108, 173], "actions": ["right", "right", "right", "down", "down"], "actionTimes": [9435, 10084, 10725, 11358, 12075], "queries": {"click": {"state": {"target": ["21"], "time": [5548]}, "edge": {"target": [], "time": []}}, "mouseover": {"state": {"target": ["12", "13", "19", "21", "20"], "time": [4814, 4848, 5079, 5229, 7008]}, "edge": {"target": [], "time": []}}, "mouseout": {"state": {"target": ["32", "12", "0", "23", "0", "12", "13", "19", "21"], "time": [1657, 2588, 2644, 2898, 4796, 4830, 4896, 5145, 6448]}, "edge": {"target": [], "time": []}}}, "displayed_time": "18.26", "trialTime": 20617, "trial_type": "mouselab-mdp", "trial_index": 45, "time_elapsed": 2013504, "internal_node_id": "0.0-6.0-1.0-30.0"}}, {"uniqueid": "w83968328:a85242058", "current_trial": 46, "dateTime": 1693583359988, "trialdata": {"revealed_states": [], "clicked_states": ["11"], "num_clicks_accrued": [0, 0, 0, 0, 0, 0, 0, 0, 0, 0, 0, 0, 0], "stateRewards": ["", -1, -3, -3, 1, -38, 2, -53, -2, -1, -81, 70, -1, 1, -5, -9, 46, 15, 35, -1, -22, 38, 59, -2, 4, -8, 13, 1, -83, -43, 4, 76, 13, 48], "withholdReward": false, "trial_id": "mdp_trial_32", "block": "test", "trialIndex": 35, "score": 58.85, "costs": -2.15, "simulationMode": [null, null, null, null, null], "rewards": [-1, -3, -3, -2, 70], "path": ["0", "0", "1", "2", "3", "8", "11"], "rt": [5318, 212, 279, 323, 198], "actions": ["up", "up", "up", "left", "left"], "actionTimes": [8239, 8969, 9768, 10613, 11325], "queries": {"click": {"state": {"target": ["11"], "time": [4231]}, "edge": {"target": [], "time": []}}, "mouseover": {"state": {"target": ["1", "2", "3", "8", "11", "5", "2", "28", "30", "32"], "time": [3551, 3587, 3684, 3750, 3917, 4891, 5621, 5676, 6118, 6408]}, "edge": {"target": [], "time": []}}, "mouseout": {"state": {"target": ["20", "12", "1", "2", "3", "8", "11", "5", "2", "28", "30", "32"], "time": [766, 985, 3569, 3634, 3717, 3835, 4836, 4998, 5645, 5717, 6308, 6569]}, "edge": {"target": [], "time": []}}}, "displayed_time": "16.92", "trialTime": 21382, "trial_type": "mouselab-mdp", "trial_index": 46, "time_elapsed": 2036165, "internal_node_id": "0.0-6.0-1.0-31.0"}}, {"uniqueid": "w83968328:a85242058", "current_trial": 47, "dateTime": 1693583402696, "trialdata": {"revealed_states": [], "clicked_states": ["11", "29", "17", "20", "21", "32", "5", "9"], "num_clicks_accrued": [0, 0, 0, 0, 0, 0, 0, 0, 0, 0, 0, 0, 0], "stateRewards": ["", 1, -2, -3, 14, -42, -87, -37, -11, -50, 33, -44, -2, 4, -7, 13, 48, -75, -66, 12, 23, -2, 82, 1, -4, 3, 12, 51, -15, -26, -11, -52, -29, 82], "withholdReward": false, "trial_id": "mdp_trial_33", "block": "test", "trialIndex": 36, "score": -94.2, "costs": -17.2, "simulationMode": [null, null, null, null, null], "rewards": [1, -2, -3, 14, -87], "path": ["0", "0", "1", "2", "3", "4", "6"], "rt": [29822, 717, 236, 112, 146], "actions": ["up", "up", "up", "right", "right"], "actionTimes": [32235, 33469, 34239, 34863, 35519], "queries": {"click": {"state": {"target": ["11", "29", "17", "20", "21", "32", "5", "9"], "time": [3504, 6752, 10020, 13367, 17001, 20340, 23637, 27751]}, "edge": {"target": [], "time": []}}, "mouseover": {"state": {"target": ["10", "11", "25", "29", "28", "17", "20", "21", "32", "33", "25", "5", "5", "9", "3", "4", "16"], "time": [2949, 3215, 4223, 4821, 7169, 7656, 10761, 14006, 17985, 21876, 22268, 22758, 23249, 27465, 28554, 28585, 29018]}, "edge": {"target": [], "time": []}}, "mouseout": {"state": {"target": ["31", "23", "0", "10", "11", "25", "29", "28", "17", "20", "21", "32", "33", "25", "5", "5", "5", "9", "9", "3", "4"], "time": [697, 730, 2843, 2999, 3985, 4617, 6950, 7191, 10500, 13884, 17569, 21701, 22112, 22293, 22900, 24750, 27181, 27948, 28533, 28580, 28607]}, "edge": {"target": [], "time": []}}}, "displayed_time": "36.03", "trialTime": 41404, "trial_type": "mouselab-mdp", "trial_index": 47, "time_elapsed": 2078872, "internal_node_id": "0.0-6.0-1.0-32.0"}}, {"uniqueid": "w83968328:a85242058", "current_trial": 48, "dateTime": 1693583438213, "trialdata": {"revealed_states": [], "clicked_states": ["6", "9", "29", "33", "20", "21"], "num_clicks_accrued": [0, 0, 0, 0, 0, 0, 0, 0, 0, 0, 0, 0, 0], "stateRewards": ["", -1, 3, 2, 9, 41, 4, -46, -12, -54, -87, -25, 2, 3, -1, 11, -77, 12, -33, -9, -32, 35, 72, 1, 3, -7, 4, 37, 65, -73, 6, 77, -43, 8], "withholdReward": false, "trial_id": "mdp_trial_34", "block": "test", "trialIndex": 37, "score": 17.1, "costs": -12.9, "simulationMode": [null, null, null, null, null], "rewards": [2, 3, -1, -9, 35], "path": ["0", "0", "12", "13", "14", "19", "21"], "rt": [22028, 33, 131, 20, 61], "actions": ["right", "right", "right", "down", "down"], "actionTimes": [24017, 24564, 25195, 25733, 26328], "queries": {"click": {"state": {"target": ["6", "9", "29", "33", "20", "21"], "time": [3269, 6564, 9870, 13167, 16618, 20019]}, "edge": {"target": [], "time": []}}, "mouseover": {"state": {"target": ["7", "6", "6", "4", "9", "11", "27", "29", "30", "32", "33", "20", "21", "19", "17"], "time": [2611, 2660, 2977, 3871, 4110, 7068, 7130, 7465, 10684, 10763, 12512, 14002, 17462, 20533, 20786]}, "edge": {"target": [], "time": []}}, "mouseout": {"state": {"target": ["16", "12", "7", "6", "6", "4", "9", "11", "27", "29", "30", "32", "33", "20", "21", "19"], "time": [76, 776, 2630, 2678, 3846, 3894, 7047, 7091, 7353, 10346, 10706, 11867, 13563, 17297, 20494, 20558]}, "edge": {"target": [], "time": []}}}, "displayed_time": "26.85", "trialTime": 34089, "trial_type": "mouselab-mdp", "trial_index": 48, "time_elapsed": 2114390, "internal_node_id": "0.0-6.0-1.0-33.0"}}, {"uniqueid": "w83968328:a85242058", "current_trial": 49, "dateTime": 1693583459426, "trialdata": {"revealed_states": [], "clicked_states": ["11", "20"], "num_clicks_accrued": [0, 0, 0, 0, 0, 0, 0, 0, 0, 0, 0, 0, 0], "stateRewards": ["", -2, 4, -7, -3, -76, 39, -28, 10, 14, 12, 60, 2, -3, 6, -10, 88, -34, -41, -3, 72, -13, -56, 1, 3, 2, 8, -51, 23, -57, 1, 14, -46, -16], "withholdReward": false, "trial_id": "mdp_trial_35", "block": "test", "trialIndex": 38, "score": 60.7, "costs": -4.3, "simulationMode": [null, null, null, null, null, null], "rewards": [-2, 4, -7, 10, 60], "path": ["0", "0", "1", "2", "3", "8", "11"], "rt": [5839, 859, 165, 276, 188, 149], "actions": ["up", "up", "up", "up", "left", "left"], "actionTimes": [8133, 9000, 9717, 10524, 11239, 11914], "queries": {"click": {"state": {"target": ["11", "20"], "time": [3807, 7027]}, "edge": {"target": [], "time": []}}, "mouseover": {"state": {"target": ["10", "11", "11", "7", "14", "20", "20"], "time": [3078, 3126, 3528, 4212, 4265, 4533, 4931]}, "edge": {"target": [], "time": []}}, "mouseout": {"state": {"target": ["17", "7", "0", "10", "11", "11", "11", "7", "14", "20"], "time": [885, 1060, 3058, 3098, 3146, 4011, 4207, 4244, 4511, 4591]}, "edge": {"target": [], "time": []}}}, "displayed_time": "16.31", "trialTime": 19899, "trial_type": "mouselab-mdp", "trial_index": 49, "time_elapsed": 2135602, "internal_node_id": "0.0-6.0-1.0-34.0"}}, {"uniqueid": "w83968328:a85242058", "current_trial": 50, "dateTime": 1693583487366, "trialdata": {"revealed_states": [], "clicked_states": ["20", "33", "6", "11"], "num_clicks_accrued": [0, 0, 0, 0, 0, 0, 0, 0, 0, 0, 0, 0, 0], "stateRewards": ["", 1, 2, -3, -5, 66, -50, -47, -5, 1, 28, -27, 1, 1, -1, -6, 37, -25, 56, 1, -82, -66, -40, -1, -4, -7, 15, -61, -23, 26, 10, 14, -56, 29], "withholdReward": false, "trial_id": "mdp_trial_36", "block": "test", "trialIndex": 39, "score": 18.4, "costs": -8.6, "simulationMode": [null, null, null, null, null], "rewards": [-1, -4, -7, 10, 29], "path": ["0", "0", "23", "24", "25", "30", "33"], "rt": [15761, 118, 209, 156, 251], "actions": ["left", "left", "left", "down", "left"], "actionTimes": [18331, 18966, 19701, 20386, 21161], "queries": {"click": {"state": {"target": ["20", "33", "6", "11"], "time": [3862, 7129, 10885, 14862]}, "edge": {"target": [], "time": []}}, "mouseover": {"state": {"target": ["20", "22", "31", "30", "33", "26", "4", "6", "3", "8", "11", "23"], "time": [3556, 4396, 4492, 4795, 4960, 7670, 7790, 8207, 14191, 14240, 14589, 15634]}, "edge": {"target": [], "time": []}}, "mouseout": {"state": {"target": ["20", "20", "0", "20", "22", "31", "30", "33", "26", "4", "6", "6", "3", "8", "11", "23"], "time": [604, 721, 3228, 4374, 4418, 4774, 4874, 7352, 7694, 8144, 11073, 11791, 14221, 14259, 15599, 15658]}, "edge": {"target": [], "time": []}}}, "displayed_time": "21.68", "trialTime": 26286, "trial_type": "mouselab-mdp", "trial_index": 50, "time_elapsed": 2163542, "internal_node_id": "0.0-6.0-1.0-35.0"}}, {"uniqueid": "w83968328:a85242058", "current_trial": 51, "dateTime": 1693583516568, "trialdata": {"revealed_states": [], "clicked_states": ["11", "21"], "num_clicks_accrued": [0, 0, 0, 0, 0, 0, 0, 0, 0, 0, 0, 0, 0], "stateRewards": ["", -1, 1, 8, -3, -24, 11, -65, -6, -77, 48, 44, -2, 1, -2, -7, -55, -35, 33, 8, -28, 19, -53, -1, -1, -5, -5, -70, 10, 44, 8, -58, -70, 51], "withholdReward": false, "trial_id": "mdp_trial_37", "block": "test", "trialIndex": 40, "score": 41.7, "costs": -4.3, "simulationMode": [null, null, null, null, null], "rewards": [-1, 1, 8, -6, 44], "path": ["0", "0", "1", "2", "3", "8", "11"], "rt": [8592, 123, 122, 89, 131], "actions": ["up", "up", "up", "left", "left"], "actionTimes": [11054, 11703, 12363, 12970, 13612], "queries": {"click": {"state": {"target": ["11", "21"], "time": [3788, 7184]}, "edge": {"target": [], "time": []}}, "mouseover": {"state": {"target": ["1", "8", "11", "12", "22", "21"], "time": [3187, 3275, 3475, 4761, 4794, 5211]}, "edge": {"target": [], "time": []}}, "mouseout": {"state": {"target": ["0", "1", "8", "11", "12", "22", "21"], "time": [1239, 3206, 3293, 4329, 4789, 4816, 7408]}, "edge": {"target": [], "time": []}}}, "displayed_time": "16.46", "trialTime": 27642, "trial_type": "mouselab-mdp", "trial_index": 51, "time_elapsed": 2192744, "internal_node_id": "0.0-6.0-1.0-36.0"}}, {"uniqueid": "w83968328:a85242058", "current_trial": 52, "dateTime": 1693583560108, "trialdata": {"revealed_states": [], "clicked_states": ["29", "5", "11"], "num_clicks_accrued": [0, 0, 0, 0, 0, 0, 0, 0, 0, 0, 0, 0, 0], "stateRewards": ["", 2, -1, 1, 10, -52, 86, -22, -2, -14, -63, 38, 1, 3, 7, -8, 11, -32, -27, 9, -71, 40, -87, -2, -1, 5, -7, 12, 31, -57, 13, 86, -58, 29], "withholdReward": false, "trial_id": "mdp_trial_38", "block": "test", "trialIndex": 41, "score": 31.55, "costs": -6.449999999999999, "simulationMode": [null, null, null, null, null], "rewards": [2, -1, 1, -2, 38], "path": ["0", "0", "1", "2", "3", "8", "11"], "rt": [12585, 69, 76, 65, 90], "actions": ["up", "up", "up", "left", "left"], "actionTimes": [14569, 15173, 15773, 16346, 16952], "queries": {"click": {"state": {"target": ["29", "5", "11"], "time": [3435, 7419, 10723]}, "edge": {"target": [], "time": []}}, "mouseover": {"state": {"target": ["24", "25", "29", "28", "15", "17", "16", "6", "5", "9", "11", "10", "23", "31", "32"], "time": [2540, 2825, 3074, 3947, 4259, 4418, 6755, 6807, 7124, 8909, 9347, 11583, 11893, 11928, 12262]}, "edge": {"target": [], "time": []}}, "mouseout": {"state": {"target": ["22", "0", "24", "25", "29", "28", "15", "17", "16", "6", "5", "9", "11", "11", "10", "23", "31", "32"], "time": [576, 2476, 2773, 2991, 3933, 3998, 4283, 6734, 6774, 6841, 8827, 8950, 10942, 11561, 11607, 11923, 11958, 41506]}, "edge": {"target": [], "time": []}}}, "displayed_time": "17.48", "trialTime": 42115, "trial_type": "mouselab-mdp", "trial_index": 52, "time_elapsed": 2236284, "internal_node_id": "0.0-6.0-1.0-37.0"}}, {"uniqueid": "w83968328:a85242058", "current_trial": 53, "dateTime": 1693583584185, "trialdata": {"revealed_states": [], "clicked_states": ["11", "17", "21"], "num_clicks_accrued": [0, 0, 0, 0, 0, 0, 0, 0, 0, 0, 0, 0, 0], "stateRewards": ["", 2, 3, 6, -5, -74, -53, 17, -12, 46, 44, 18, -2, 4, 1, -8, 22, -23, -49, 9, -45, 55, 81, 1, -1, -7, -16, -83, -71, -45, 2, 51, 82, 61], "withholdReward": false, "trial_id": "mdp_trial_39", "block": "test", "trialIndex": 42, "score": 60.55, "costs": -6.449999999999999, "simulationMode": [null, null, null, null, null], "rewards": [-2, 4, 1, 9, 55], "path": ["0", "0", "12", "13", "14", "19", "21"], "rt": [12261, 121, 152, 65, 122], "actions": ["right", "right", "right", "down", "down"], "actionTimes": [15605, 16235, 16900, 17478, 18119], "queries": {"click": {"state": {"target": ["11", "17", "21"], "time": [4607, 8006, 11366]}, "edge": {"target": [], "time": []}}, "mouseover": {"state": {"target": ["1", "8", "11", "8", "4", "16", "17", "21", "32", "32"], "time": [4040, 4094, 4343, 5450, 5480, 5632, 5856, 8815, 12291, 12898]}, "edge": {"target": [], "time": []}}, "mouseout": {"state": {"target": ["0", "1", "1", "8", "11", "8", "4", "16", "17", "21", "32", "32"], "time": [1892, 2174, 4076, 4209, 5445, 5475, 5502, 5762, 8445, 11902, 12390, 21332]}, "edge": {"target": [], "time": []}}}, "displayed_time": "18.63", "trialTime": 22645, "trial_type": "mouselab-mdp", "trial_index": 53, "time_elapsed": 2260360, "internal_node_id": "0.0-6.0-1.0-38.0"}}, {"uniqueid": "w83968328:a85242058", "current_trial": 54, "dateTime": 1693583607575, "trialdata": {"revealed_states": [], "clicked_states": ["32"], "num_clicks_accrued": [0, 0, 0, 0, 0, 0, 0, 0, 0, 0, 0, 0, 0], "stateRewards": ["", 1, 1, -7, -9, -44, 24, -83, -15, 44, -24, 72, -2, -3, 4, -5, 57, 55, 29, -11, 22, 12, -25, -1, 2, 7, 12, 33, -8, 47, -4, 8, 50, -4], "withholdReward": false, "trial_id": "mdp_trial_40", "block": "test", "trialIndex": 43, "score": 51.85, "costs": -2.15, "simulationMode": [null, null, null, null, null], "rewards": [-1, 2, 7, -4, 50], "path": ["0", "0", "23", "24", "25", "30", "32"], "rt": [5554, 148, 129, 117, 191], "actions": ["left", "left", "left", "down", "down"], "actionTimes": [7669, 8339, 8989, 9645, 10349], "queries": {"click": {"state": {"target": ["32"], "time": [3282]}, "edge": {"target": [], "time": []}}, "mouseover": {"state": {"target": ["23", "31", "32", "16", "16"], "time": [2678, 2709, 3004, 4174, 4666]}, "edge": {"target": [], "time": []}}, "mouseout": {"state": {"target": ["0", "23", "31", "32", "16"], "time": [851, 2705, 2755, 3484, 4219]}, "edge": {"target": [], "time": []}}}, "displayed_time": "16.12", "trialTime": 21748, "trial_type": "mouselab-mdp", "trial_index": 54, "time_elapsed": 2283752, "internal_node_id": "0.0-6.0-1.0-39.0"}}, {"uniqueid": "w83968328:a85242058", "current_trial": 55, "dateTime": 1693583740374, "trialdata": {"rt": 132472, "response": {"Q0": "$-2 to $2", "Q1": "$-32 to $32", "Q2": "$-88 to $88", "Q3": "The cost for clicking on nodes varied between nodes.", "Q4": "Very motivated"}, "question_order": [0, 1, 2, 3, 4], "trial_id": "final_quiz_control", "trial_type": "survey-multi-choice", "trial_index": 55, "time_elapsed": 2416551, "internal_node_id": "0.0-6.0-2.0"}}, {"uniqueid": "w83968328:a85242058", "current_trial": 56, "dateTime": 1693583820053, "trialdata": {"rt": 79469, "response": {"Q0": "i targeted the nodes at the extreme end", "Q1": "yes i stopped concentrating on the nodes in the middle", "Q2": "i found it easy"}, "trial_id": "self_report_control", "trial_type": "survey-text", "trial_index": 56, "time_elapsed": 2496231, "internal_node_id": "0.0-6.0-3.0"}}, {"uniqueid": "w83968328:a85242058", "current_trial": 57, "dateTime": 1693583886269, "trialdata": {"rt": 66205, "response": {"Q0": "Strongly disagree", "Q1": "Neither disagree nor agree", "Q2": "Neither disagree nor agree", "Q3": "Agree", "Q4": "Strongly disagree", "Q5": "Agree", "Q6": "Strongly disagree"}, "question_order": [0, 1, 2, 3, 4, 5, 6], "trial_id": "self_report_2", "trial_type": "survey-multi-choice", "trial_index": 57, "time_elapsed": 2562447, "internal_node_id": "0.0-6.0-4.0"}}, {"uniqueid": "w83968328:a85242058", "current_trial": 58, "dateTime": 1693583978304, "trialdata": {"rt": 91961, "response": {"gender": "female", "age": "27", "colorblind": "0", "effort": "0"}, "trial_type": "survey-html-form", "trial_index": 58, "time_elapsed": 2654482, "internal_node_id": "0.0-6.0-5.0"}}, {"uniqueid": "w83968328:a85242058", "current_trial": 59, "dateTime": 1693584009741, "trialdata": {"rt": 31417, "response": {"Q0": "no", "Q1": "yes", "Q2": "it was fun"}, "trial_type": "survey-text", "trial_index": 59, "time_elapsed": 2685919, "internal_node_id": "0.0-6.0-6.0"}}, {"uniqueid": "w83968328:a85242058", "current_trial": 60, "dateTime": 1693584067575, "trialdata": {"rt": 57815, "stimulus": "<h1>Completion Code Instructions (1/2)</h1>\n<br><br><br><br>\nYou have reached the end of the experiment! The completion code consists of two parts: (1) a code with 2 characters (2) a code with 6 characters. On this page, you will receive the second part of the code. The first part of the completion code will be on the next page.\n<br><br>\nThe second part of your completion code is: <b>EWEK22</b>\n<br><br>\nPlease note this down. Then, press 'Next' in order to find the first part of your completion code. Once the data has been saved, you will receive this code either in this window or in the original browser window where you started the experiment.\n <br><br>\n<h2 style='color: red;'>Note: this is <strong>NOT</strong> the full completion code. Copy this down and click 'Next' to get the full completion code on the next page.</h2>", "response": 0, "trial_type": "html-button-response", "trial_index": 60, "time_elapsed": 2743753, "internal_node_id": "0.0-6.0-7.0"}}, {"uniqueid": "w83968328:a85242058", "current_trial": 61, "dateTime": 1693584068585, "trialdata": {"success": true, "trial_type": "fullscreen", "trial_index": 61, "time_elapsed": 2744762, "internal_node_id": "0.0-7.0"}}], "questiondata": {"params": {"CODE": "C6DMOQA6", "MIN_TIME": 14, "inspectCost": 1, "startTime": "Fri Sep 01 2023 17:15:22 GMT+0200 (South Africa Standard Time)", "bonusRate": 0.002, "variance": "1_2_4_8_44", "branching": "31123"}, "final_score": 1350.6}, "eventdata": [{"eventtype": "initialized", "value": null, "timestamp": 1693581321085, "interval": 0}, {"eventtype": "window_resize", "value": [1024, 646], "timestamp": 1693581321085, "interval": 0}, {"eventtype": "window_resize", "value": [1024, 646], "timestamp": 1693581321876, "interval": 791}, {"eventtype": "window_resize", "value": [1366, 662], "timestamp": 1693581326502, "interval": 4626}, {"eventtype": "window_resize", "value": [1366, 768], "timestamp": 1693581341299, "interval": 14797}, {"eventtype": "focus", "value": "off", "timestamp": 1693582107511, "interval": 766212}, {"eventtype": "focus", "value": "on", "timestamp": 1693582107513, "interval": 2}, {"eventtype": "window_resize", "value": [1366, 662], "timestamp": 1693582107733, "interval": 220}, {"eventtype": "window_resize", "value": [1366, 768], "timestamp": 1693582112112, "interval": 4379}, {"eventtype": "window_resize", "value": [1366, 662], "timestamp": 1693584068555, "interval": 1956443}], "useragent": "Mozilla/5.0 (Windows NT 10.0; Win64; x64) AppleWebKit/537.36 (KHTML, like Gecko) Chrome/116.0.0.0 Safari/537.36", "mode": "live", "id": "w83968328:a85242058", "status": "user data saved", "Beginhit": "2023-09-01 15:15:13.584577", "Beginexp": "2023-09-01 15:15:38.975849", "Endhit": "2023-09-01 16:01:07.152388", "psiturkStatus": 3, "browser": "<redacted>", "platform": "windows", "language": "en-US", "excludeReason": "alreadyparticipated"}