{"condition": 0, "counterbalance": 0, "assignmentId": "a93498435", "workerId": "w26789306", "hitId": "h72893745", "currenttrial": 7, "bonus": 0, "data": [{"uniqueid": "w26789306:a93498435", "current_trial": 0, "dateTime": 1693480985544, "trialdata": {"success": true, "trial_type": "fullscreen", "trial_index": 0, "time_elapsed": 8739, "internal_node_id": "0.0-0.0"}}, {"uniqueid": "w26789306:a93498435", "current_trial": 1, "dateTime": 1693481019229, "trialdata": {"view_history": [{"page_index": 0, "viewing_time": 33644}], "rt": 33648, "trial_id": "exp_instructions_control", "trial_type": "instructions", "trial_index": 1, "time_elapsed": 42428, "internal_node_id": "0.0-1.0"}}, {"uniqueid": "w26789306:a93498435", "current_trial": 2, "dateTime": 1693481368119, "trialdata": {"view_history": [{"page_index": 0, "viewing_time": 143480}, {"page_index": 1, "viewing_time": 105327}, {"page_index": 2, "viewing_time": 33448}, {"page_index": 3, "viewing_time": 66623}], "rt": 348880, "trial_id": "mouselab_instructions_1_control", "trial_type": "instructions", "trial_index": 2, "time_elapsed": 391317, "internal_node_id": "0.0-2.0-1.0"}}, {"uniqueid": "w26789306:a93498435", "current_trial": 3, "dateTime": 1693481534560, "trialdata": {"revealed_states": [], "clicked_states": [], "num_clicks_accrued": [0, 0, 0, 0, 0, 0, 0, 0, 0, 0, 0, 0, 0], "stateRewards": ["", -10, 10, -10, 10, -10, -10, 10, -10, -10, 10, -10, -10, 10, 10, 10, 10, -10, -10, -10, -10, 10, 10, -10, 10, -10, -10, -10, 10, 10, -10, -10, -10, -10], "withholdReward": false, "trial_id": "practice_1", "block": "test", "trialIndex": 0, "score": -6.5, "costs": 0, "simulationMode": [null, null, null, null, null], "rewards": [-10, 10, -10, 10, -10], "path": ["0", "0", "1", "2", "3", "4", "6"], "rt": [115620, 605, 142, 2279, 46], "actions": ["up", "up", "up", "right", "right"], "actionTimes": [122754, 124020, 124788, 127707, 128346], "queries": {"click": {"state": {"target": [], "time": []}, "edge": {"target": [], "time": []}}, "mouseover": {"state": {"target": ["0", "12", "1", "1", "0", "1", "2", "3", "2", "1", "12", "0", "1", "1", "2", "1", "1", "3", "2", "1", "1", "12", "12", "0", "0", "1", "2", "1", "0", "31", "25", "0", "23", "1", "2", "1", "1", "12", "12", "0", "0", "1", "0", "20", "1", "32", "26", "28", "1", "1", "1", "1", "2", "23"], "time": [7329, 9445, 11763, 12431, 14011, 19848, 20325, 20441, 22391, 23133, 31691, 32119, 32246, 35981, 36538, 41169, 45767, 47117, 49662, 49725, 50241, 58829, 59535, 60006, 63927, 68396, 68903, 69816, 69958, 71320, 79662, 81563, 83477, 88483, 88813, 89486, 91367, 92237, 95245, 95324, 98933, 99052, 110541, 111583, 111663, 112675, 114696, 116298, 117014, 118144, 118729, 121019, 121120, 121213]}, "edge": {"target": [], "time": []}}, "mouseout": {"state": {"target": ["23", "0", "12", "1", "1", "0", "1", "2", "3", "2", "1", "12", "0", "1", "1", "2", "1", "1", "3", "2", "1", "1", "12", "12", "0", "0", "1", "2", "1", "0", "31", "25", "0", "23", "1", "2", "1", "1", "12", "12", "0", "0", "1", "0", "20", "1", "32", "26", "28", "1", "1", "1", "1", "2", "23", "28", "1", "2", "4", "4", "3", "4", "10", "10"], "time": [3293, 7903, 9889, 11936, 12607, 14415, 19902, 20412, 22342, 23064, 23207, 32039, 32209, 32892, 36258, 37101, 41319, 46460, 47327, 49700, 49767, 51322, 58891, 59730, 60553, 63966, 68484, 69769, 69883, 70024, 71399, 79780, 82235, 83901, 88740, 89324, 90050, 91826, 92319, 95298, 95381, 99017, 99378, 110619, 111639, 111720, 112798, 116242, 116342, 117160, 118368, 119676, 121097, 121196, 121809, 132803, 133727, 134224, 135778, 141616, 141979, 143414, 153729, 154664]}, "edge": {"target": [], "time": []}}}, "displayed_time": "128.96", "trialTime": 162749, "trial_type": "mouselab-mdp", "trial_index": 3, "time_elapsed": 557753, "internal_node_id": "0.0-2.0-2.0-0.0"}}, {"uniqueid": "w26789306:a93498435", "current_trial": 4, "dateTime": 1693481585801, "trialdata": {"revealed_states": [], "clicked_states": [], "num_clicks_accrued": [0, 0, 0, 0, 0, 0, 0, 0, 0, 0, 0, 0, 0], "stateRewards": ["", 10, -10, 10, -10, 10, -10, -10, -10, -10, 10, 10, -10, -10, 10, -10, 10, -10, 10, -10, 10, -10, -10, 10, 10, -10, 10, 10, -10, 10, 10, 10, -10, 10], "withholdReward": false, "trial_id": "practice_2", "block": "test", "trialIndex": 1, "score": 13.5, "costs": 0, "simulationMode": [null, null, null, null, null], "rewards": [10, -10, 10, -10, 10], "path": ["0", "0", "1", "2", "3", "8", "11"], "rt": [157, 8337, 903, 2103, 71], "actions": ["up", "up", "up", "left", "left"], "actionTimes": [20962, 29893, 31417, 34146, 34820], "queries": {"click": {"state": {"target": [], "time": []}, "edge": {"target": [], "time": []}}, "mouseover": {"state": {"target": [], "time": []}, "edge": {"target": [], "time": []}}, "mouseout": {"state": {"target": ["4", "5", "1", "0", "0", "0"], "time": [1741, 1828, 12994, 14044, 18719, 23037]}, "edge": {"target": [], "time": []}}}, "displayed_time": "35.50", "trialTime": 48010, "trial_type": "mouselab-mdp", "trial_index": 4, "time_elapsed": 608997, "internal_node_id": "0.0-2.0-2.0-1.0"}}, {"uniqueid": "w26789306:a93498435", "current_trial": 5, "dateTime": 1693481789553, "trialdata": {"view_history": [{"page_index": 0, "viewing_time": 184814}, {"page_index": 1, "viewing_time": 18911}], "rt": 203727, "trial_id": "mouselab_instructions_2_control", "trial_type": "instructions", "trial_index": 5, "time_elapsed": 812752, "internal_node_id": "0.0-2.0-3.0"}}, {"uniqueid": "w26789306:a93498435", "current_trial": 6, "dateTime": 1693481923680, "trialdata": {"rt": 134105, "response": {"Q0": "There is no cost for clicking on nodes.", "Q1": "The better I perform the higher my bonus will be.", "Q2": "No, the amount of cash at each node of the web may be different each time.", "Q3": "To get the highest total score.", "Q4": "Only before moving the spider.", "Q5": "3 seconds"}, "question_order": [0, 1, 2, 3, 4, 5], "correct": {"Q0": "The cost for clicking on nodes may vary between nodes.", "Q1": "The better I perform the higher my bonus will be.", "Q2": "No, the amount of cash at each node of the web may be different each time.", "Q3": "To get the highest total score.", "Q4": "Only before moving the spider.", "Q5": "3 seconds"}, "trial_id": "mouselab_quiz_control", "trial_type": "survey-multi-choice", "trial_index": 6, "time_elapsed": 946878, "internal_node_id": "0.0-2.0-4.0"}}], "questiondata": {"params": {"CODE": "C6DMOQA6", "MIN_TIME": 14, "inspectCost": 1, "startTime": "Thu Aug 31 2023 13:22:53 GMT+0200 (South Africa Standard Time)", "bonusRate": 0.002, "variance": "1_2_4_8_44", "branching": "31123"}}, "eventdata": [{"eventtype": "initialized", "value": null, "timestamp": 1693480972378, "interval": 0}, {"eventtype": "window_resize", "value": [1024, 654], "timestamp": 1693480972379, "interval": 1}, {"eventtype": "window_resize", "value": [1024, 654], "timestamp": 1693480973388, "interval": 1009}, {"eventtype": "window_resize", "value": [1366, 768], "timestamp": 1693480984895, "interval": 11507}, {"eventtype": "window_resize", "value": [1024, 654], "timestamp": 1693481757711, "interval": 772816}, {"eventtype": "focus", "value": "off", "timestamp": 1693481935378, "interval": 177667}, {"eventtype": "focus", "value": "on", "timestamp": 1693481935379, "interval": 1}], "useragent": "Mozilla/5.0 (Windows NT 10.0; Win64; x64) AppleWebKit/537.36 (KHTML, like Gecko) Chrome/116.0.0.0 Safari/537.36", "mode": "live", "id": "w26789306:a93498435", "status": "user data saved", "Beginhit": "2023-08-31 11:22:46.390417", "Beginexp": "2023-08-31 11:23:05.361338", "Endhit": null, "psiturkStatus": 6, "browser": "<redacted>", "platform": "windows", "language": "en-US", "excludeReason": "quizfail"}