{"condition": 1, "counterbalance": 0, "assignmentId": "a92001354", "workerId": "w47054978", "hitId": "h35634542", "currenttrial": 62, "bonus": 0, "data": [{"uniqueid": "w47054978:a92001354", "current_trial": 0, "dateTime": 1691485448012, "trialdata": {"success": true, "trial_type": "fullscreen", "trial_index": 0, "time_elapsed": 9781, "internal_node_id": "0.0-0.0"}}, {"uniqueid": "w47054978:a92001354", "current_trial": 1, "dateTime": 1691485487393, "trialdata": {"view_history": [{"page_index": 0, "viewing_time": 39374}], "rt": 39375, "trial_id": "exp_instructions_misaligned", "trial_type": "instructions", "trial_index": 1, "time_elapsed": 49163, "internal_node_id": "0.0-1.0"}}, {"uniqueid": "w47054978:a92001354", "current_trial": 2, "dateTime": 1691485497480, "trialdata": {"success": true, "trial_type": "fullscreen", "trial_index": 2, "time_elapsed": 59250, "internal_node_id": "0.0-2.0-0.0"}}, {"uniqueid": "w47054978:a92001354", "current_trial": 3, "dateTime": 1691485808127, "trialdata": {"view_history": [{"page_index": 0, "viewing_time": 93917}, {"page_index": 1, "viewing_time": 109376}, {"page_index": 2, "viewing_time": 41976}, {"page_index": 3, "viewing_time": 65376}], "rt": 310645, "trial_id": "mouselab_instructions_1_misaligned", "trial_type": "instructions", "trial_index": 3, "time_elapsed": 369897, "internal_node_id": "0.0-2.0-1.0"}}, {"uniqueid": "w47054978:a92001354", "current_trial": 4, "dateTime": 1691485916523, "trialdata": {"revealed_states": [], "clicked_states": ["12", "13", "14", "1", "3", "2", "23", "24", "25", "30", "31", "26", "27", "4", "8", "11", "9", "6", "15", "17", "19", "22", "21", "20", "29", "28", "33", "32", "10", "7", "5", "16", "18"], "num_clicks_accrued": [0, 0, 0, 0, 0, 0, 0, 0, 0, 0, 0, 0, 0], "stateRewards": ["", -10, 10, 10, -10, -10, 10, -10, 10, 10, -10, 10, -10, 10, -10, -10, -10, -10, -10, -10, -10, -10, -10, -10, 10, -10, 10, 10, -10, -10, -10, 10, 10, 10], "withholdReward": false, "trial_id": "practice_1", "block": "test", "trialIndex": 0, "score": -3, "costs": -16.5, "simulationMode": [null, null, null, null, null], "rewards": [-10, 10, 10, -10, 10], "path": ["0", "0", "1", "2", "3", "4", "6"], "rt": [85277, 743, 413, 1910, 672], "actions": ["up", "up", "up", "right", "right"], "actionTimes": [94161, 95403, 96323, 98740, 99922], "queries": {"click": {"state": {"target": ["12", "13", "14", "1", "3", "2", "23", "24", "25", "30", "31", "26", "27", "4", "8", "11", "9", "6", "15", "17", "19", "22", "21", "20", "29", "28", "33", "32", "10", "7", "5", "16", "18"], "time": [11673, 13177, 14616, 18457, 19793, 20813, 23936, 25737, 28177, 29214, 31041, 34888, 36009, 46138, 48489, 51433, 53345, 57368, 62922, 64016, 67273, 68293, 71657, 72969, 74609, 75849, 78754, 79774, 81289, 82369, 84025, 85105, 86209]}, "edge": {"target": [], "time": []}}, "mouseover": {"state": {"target": ["0", "12", "12", "13", "13", "14", "19", "19", "23", "0", "24", "23", "1", "2", "3", "2", "7", "12", "13", "25", "24", "24", "23", "24", "24", "25", "30", "31", "24", "26", "29", "26", "27", "29", "29", "26", "1", "18", "18", "12", "7", "6", "16", "16", "7", "4", "4", "3", "8", "11", "9", "18", "7", "6", "31", "13", "14", "15", "17", "16", "14", "19", "20", "22", "21", "20", "19", "25", "29", "26", "28", "27", "1", "24", "30", "33", "32", "10", "2", "7", "6", "5", "16", "15", "18", "15", "12", "1", "1", "1"], "time": [10320, 10485, 10667, 12159, 12474, 13644, 15729, 15995, 16480, 16947, 17198, 17282, 17465, 19086, 19537, 20140, 21278, 21777, 22058, 22993, 23076, 23193, 23411, 24297, 25315, 26168, 28706, 29694, 31912, 32529, 32695, 32964, 35304, 37172, 40478, 40546, 40596, 41447, 41947, 42201, 42699, 42767, 43317, 44935, 45305, 45489, 45589, 47709, 47827, 51050, 52903, 55909, 56293, 57078, 59684, 61838, 62205, 62640, 63679, 66231, 66764, 67000, 67802, 68038, 71374, 72428, 73600, 73968, 74163, 75169, 75438, 76853, 77921, 77989, 78155, 78339, 79460, 81044, 81881, 82000, 83251, 83716, 84836, 85640, 85741, 90244, 90447, 90931, 91215, 91583]}, "edge": {"target": [], "time": []}}, "mouseout": {"state": {"target": ["14", "17", "15", "18", "6", "18", "18", "18", "13", "19", "22", "0", "0", "12", "12", "13", "13", "14", "19", "19", "23", "0", "24", "23", "1", "2", "3", "3", "2", "2", "7", "12", "13", "25", "24", "24", "23", "24", "24", "25", "30", "31", "24", "26", "29", "26", "27", "27", "29", "29", "26", "1", "18", "18", "12", "7", "6", "16", "16", "7", "4", "4", "3", "8", "11", "9", "18", "7", "6", "31", "13", "14", "15", "17", "17", "16", "14", "19", "20", "19", "22", "22", "21", "20", "19", "25", "29", "26", "28", "27", "1", "24", "30", "33", "32", "10", "2", "7", "6", "5", "16", "16", "15", "18", "15", "12", "1", "1", "1", "0"], "time": [null, 13, 1030, 1232, 4782, 5007, 6524, 7410, 7459, 7661, 7713, 8147, 10351, 10535, 12140, 12176, 13525, 15679, 15862, 16379, 16764, 16998, 17249, 17416, 18986, 19119, 19899, 20106, 20915, 21242, 21445, 21992, 22292, 23061, 23097, 23310, 24133, 25114, 26118, 28575, 29560, 31829, 32444, 32579, 32851, 35025, 36131, 37106, 37206, 40530, 40563, 40613, 41480, 42049, 42532, 42716, 42951, 43334, 44989, 45388, 45556, 47675, 47810, 50849, 52654, 54325, 56259, 56394, 59415, 59934, 61873, 62307, 63643, 64155, 65928, 66331, 66931, 67770, 67906, 67986, 68410, 70572, 72315, 73566, 73830, 73989, 75086, 75320, 76652, 77620, 77938, 78005, 78305, 79292, 80277, 81813, 81964, 82982, 83567, 84436, 85253, 85571, 85674, 86875, 90261, 90664, 90999, 91348, 102682, 103675]}, "edge": {"target": [], "time": []}}}, "displayed_time": "100.42", "trialTime": 107010, "trial_type": "mouselab-mdp", "trial_index": 4, "time_elapsed": 478293, "internal_node_id": "0.0-2.0-2.0-0.0"}}, {"uniqueid": "w47054978:a92001354", "current_trial": 5, "dateTime": 1691485958799, "trialdata": {"revealed_states": [], "clicked_states": ["23", "25", "24", "30", "33", "2", "3", "1"], "num_clicks_accrued": [0, 0, 0, 0, 0, 0, 0, 0, 0, 0, 0, 0, 0], "stateRewards": ["", 10, -10, -10, -10, 10, 10, -10, -10, 10, -10, -10, -10, -10, -10, -10, -10, 10, -10, 10, -10, -10, 10, -10, -10, 10, 10, 10, 10, 10, -10, -10, -10, 10], "withholdReward": false, "trial_id": "practice_2", "block": "test", "trialIndex": 1, "score": -10.5, "costs": -4, "simulationMode": [null, null, null, null, null], "rewards": [-10, -10, 10, -10, 10], "path": ["0", "0", "23", "24", "25", "30", "33"], "rt": [22163, 421, 365, 490, 1175], "actions": ["left", "left", "left", "down", "left"], "actionTimes": [24178, 25111, 25977, 26971, 28652], "queries": {"click": {"state": {"target": ["23", "25", "24", "30", "33", "2", "3", "1"], "time": [4014, 6470, 9263, 12119, 13142, 16263, 17990, 19854]}, "edge": {"target": [], "time": []}}, "mouseover": {"state": {"target": ["23", "24", "24", "25", "25", "24", "31", "30", "30", "33", "31", "7", "4", "3", "3", "2", "3", "1", "24"], "time": [3475, 4963, 5612, 5830, 6131, 7051, 10209, 10473, 11023, 12262, 13798, 14547, 14615, 14650, 14815, 14982, 16754, 18725, 20944]}, "edge": {"target": [], "time": []}}, "mouseout": {"state": {"target": ["1", "23", "0", "23", "24", "24", "25", "25", "24", "31", "30", "30", "33", "30", "31", "7", "4", "3", "3", "2", "3", "2", "1", "24"], "time": [767, 952, 3176, 4533, 5196, 5780, 5930, 7001, 9659, 10356, 10674, 12246, 13630, 13764, 13848, 14581, 14632, 14666, 14831, 16637, 18474, 18575, 20762, 21144]}, "edge": {"target": [], "time": []}}}, "displayed_time": "29.17", "trialTime": 41908, "trial_type": "mouselab-mdp", "trial_index": 5, "time_elapsed": 520568, "internal_node_id": "0.0-2.0-2.0-1.0"}}, {"uniqueid": "w47054978:a92001354", "current_trial": 6, "dateTime": 1691486033087, "trialdata": {"view_history": [{"page_index": 0, "viewing_time": 66268}, {"page_index": 1, "viewing_time": 8016}], "rt": 74284, "trial_id": "mouselab_instructions_2_misaligned", "trial_type": "instructions", "trial_index": 6, "time_elapsed": 594857, "internal_node_id": "0.0-2.0-3.0"}}, {"uniqueid": "w47054978:a92001354", "current_trial": 7, "dateTime": 1691486108600, "trialdata": {"rt": 75506, "response": {"Q0": "There is no cost for clicking on nodes.", "Q1": "The better I perform the higher my bonus will be.", "Q2": "No, the structure of the web will be different each time.", "Q3": "To get the highest total score.", "Q4": "Only before moving the spider.", "Q5": "3 seconds"}, "question_order": [0, 1, 2, 3, 4, 5], "correct": {"Q0": "The cost for clicking on nodes may vary between nodes.", "Q1": "The better I perform the higher my bonus will be.", "Q2": "No, the amount of cash at each node of the web may be different each time.", "Q3": "To get the highest total score.", "Q4": "Only before moving the spider.", "Q5": "3 seconds"}, "trial_id": "mouselab_quiz_misaligned", "trial_type": "survey-multi-choice", "trial_index": 7, "time_elapsed": 670370, "internal_node_id": "0.0-2.0-4.0"}}, {"uniqueid": "w47054978:a92001354", "current_trial": 8, "dateTime": 1691486122080, "trialdata": {"success": true, "trial_type": "fullscreen", "trial_index": 8, "time_elapsed": 683850, "internal_node_id": "0.0-2.1-0.1"}}, {"uniqueid": "w47054978:a92001354", "current_trial": 9, "dateTime": 1691486257951, "trialdata": {"view_history": [{"page_index": 0, "viewing_time": 32060}, {"page_index": 1, "viewing_time": 25824}, {"page_index": 2, "viewing_time": 19912}, {"page_index": 3, "viewing_time": 58072}], "rt": 135868, "trial_id": "mouselab_instructions_1_misaligned", "trial_type": "instructions", "trial_index": 9, "time_elapsed": 819721, "internal_node_id": "0.0-2.1-1.1"}}, {"uniqueid": "w47054978:a92001354", "current_trial": 10, "dateTime": 1691486318070, "trialdata": {"revealed_states": [], "clicked_states": ["12", "13", "14", "15", "17", "23", "24", "25", "30", "31", "26", "29", "27"], "num_clicks_accrued": [0, 0, 0, 0, 0, 0, 0, 0, 0, 0, 0, 0, 0], "stateRewards": ["", -10, 10, 10, -10, -10, 10, -10, 10, 10, -10, 10, -10, 10, -10, -10, -10, -10, -10, -10, -10, -10, -10, -10, 10, -10, 10, 10, -10, -10, -10, 10, 10, 10], "withholdReward": false, "trial_id": "practice_1", "block": "test", "trialIndex": 2, "score": 7, "costs": -6.5, "simulationMode": [null, null, null, null, null], "rewards": [-10, 10, -10, 10, 10], "path": ["0", "0", "23", "24", "25", "26", "27"], "rt": [41425, 492, 453, 1112, 421], "actions": ["left", "left", "left", "up", "up"], "actionTimes": [47359, 48349, 49309, 50922, 51851], "queries": {"click": {"state": {"target": ["12", "13", "14", "15", "17", "23", "24", "25", "30", "31", "26", "29", "27"], "time": [13406, 16997, 18741, 20605, 21757, 25613, 27445, 28989, 30317, 31359, 34637, 37725, 42453]}, "edge": {"target": [], "time": []}}, "mouseover": {"state": {"target": ["0", "12", "13", "14", "14", "13", "14", "13", "14", "14", "15", "17", "23", "23", "24", "23", "24", "25", "30", "31", "25", "26", "29", "29", "28", "27", "28", "27", "28", "28", "0", "0", "23"], "time": [10472, 11277, 13983, 15249, 15434, 15901, 16454, 16688, 17243, 18089, 20027, 21131, 24034, 24352, 24720, 25171, 26024, 27780, 29785, 30717, 33571, 33822, 35025, 35309, 38782, 39399, 39917, 41654, 44141, 44260, 45077, 45145, 45595]}, "edge": {"target": [], "time": []}}, "mouseout": {"state": {"target": ["23", "24", "26", "27", "27", "24", "23", "0", "0", "12", "13", "14", "14", "13", "14", "13", "14", "14", "14", "15", "17", "23", "23", "24", "23", "24", "25", "30", "31", "25", "26", "29", "29", "28", "27", "28", "27", "28", "28", "0", "0", "23", "0", "12"], "time": [985, 1038, 1137, 3170, 4526, 5013, 5078, 5412, 11225, 13899, 15233, 15301, 15868, 16335, 16636, 17192, 17991, 18885, 19832, 21098, 22452, 24069, 24687, 25004, 25958, 27743, 29714, 30636, 33420, 33772, 34975, 35092, 38333, 39165, 39850, 41601, 43258, 44226, 44432, 45110, 45161, 50487, 53892, 55136]}, "edge": {"target": [], "time": []}}}, "displayed_time": "52.35", "trialTime": 59721, "trial_type": "mouselab-mdp", "trial_index": 10, "time_elapsed": 879839, "internal_node_id": "0.0-2.1-2.1-0.1"}}, {"uniqueid": "w47054978:a92001354", "current_trial": 11, "dateTime": 1691486378658, "trialdata": {"revealed_states": [], "clicked_states": ["12", "13", "14", "1", "2", "3", "4", "23", "24", "25", "30", "33", "26", "29"], "num_clicks_accrued": [0, 0, 0, 0, 0, 0, 0, 0, 0, 0, 0, 0, 0], "stateRewards": ["", 10, -10, -10, -10, 10, 10, -10, -10, 10, -10, -10, -10, -10, -10, -10, -10, 10, -10, 10, -10, -10, 10, -10, -10, 10, 10, 10, 10, 10, -10, -10, -10, 10], "withholdReward": false, "trial_id": "practice_2", "block": "test", "trialIndex": 3, "score": 6.5, "costs": -7, "simulationMode": [null, null, null, null, null], "rewards": [-10, -10, 10, 10, 10], "path": ["0", "0", "23", "24", "25", "26", "29"], "rt": [40066, 51, 45, 3031, 1316], "actions": ["left", "left", "left", "up", "left"], "actionTimes": [44325, 44886, 45447, 49001, 50829], "queries": {"click": {"state": {"target": ["12", "13", "14", "1", "2", "3", "4", "23", "24", "25", "30", "33", "26", "29"], "time": [7119, 8735, 10760, 14254, 15855, 17639, 21001, 25647, 27287, 28806, 32495, 34807, 38632, 40671]}, "edge": {"target": [], "time": []}}, "mouseover": {"state": {"target": ["0", "12", "12", "13", "14", "12", "0", "1", "2", "3", "4", "5", "3", "10", "28", "24", "23", "24", "25", "30", "33", "26", "27", "29"], "time": [5501, 5935, 6153, 7693, 9463, 12316, 12365, 13819, 14605, 16326, 19981, 21905, 23468, 23588, 24005, 24573, 25226, 26978, 27748, 32155, 34344, 37066, 39020, 40123]}, "edge": {"target": [], "time": []}}, "mouseout": {"state": {"target": ["12", "0", "0", "0", "12", "12", "13", "14", "13", "12", "0", "1", "2", "3", "4", "5", "3", "10", "28", "24", "23", "24", "25", "25", "30", "30", "33", "26", "27", "29", "22", "21", "21", "20"], "time": [1072, 2941, 3195, 5901, 5985, 7441, 9145, 12180, 12232, 12332, 12383, 14423, 16208, 19931, 21703, 23435, 23490, 23655, 24039, 24656, 26844, 27698, 31136, 32054, 32586, 34276, 36146, 38853, 40071, 48207, 53512, 55300, 55956, 60011]}, "edge": {"target": [], "time": []}}}, "displayed_time": "51.33", "trialTime": 60192, "trial_type": "mouselab-mdp", "trial_index": 11, "time_elapsed": 940428, "internal_node_id": "0.0-2.1-2.1-1.1"}}, {"uniqueid": "w47054978:a92001354", "current_trial": 12, "dateTime": 1691486410470, "trialdata": {"view_history": [{"page_index": 0, "viewing_time": 29976}, {"page_index": 1, "viewing_time": 1832}], "rt": 31808, "trial_id": "mouselab_instructions_2_misaligned", "trial_type": "instructions", "trial_index": 12, "time_elapsed": 972240, "internal_node_id": "0.0-2.1-3.1"}}, {"uniqueid": "w47054978:a92001354", "current_trial": 13, "dateTime": 1691486463562, "trialdata": {"rt": 53087, "response": {"Q0": "The cost for clicking on nodes may vary between nodes.", "Q1": "The better I perform the higher my bonus will be.", "Q2": "No, the amount of cash at each node of the web may be different each time.", "Q3": "To get the highest total score.", "Q4": "Only before moving the spider.", "Q5": "3 seconds"}, "question_order": [0, 1, 2, 3, 4, 5], "correct": {"Q0": "The cost for clicking on nodes may vary between nodes.", "Q1": "The better I perform the higher my bonus will be.", "Q2": "No, the amount of cash at each node of the web may be different each time.", "Q3": "To get the highest total score.", "Q4": "Only before moving the spider.", "Q5": "3 seconds"}, "trial_id": "mouselab_quiz_misaligned", "trial_type": "survey-multi-choice", "trial_index": 13, "time_elapsed": 1025332, "internal_node_id": "0.0-2.1-4.1"}}, {"uniqueid": "w47054978:a92001354", "current_trial": 14, "dateTime": 1691486508334, "trialdata": {"rt": 44758, "stimulus": "\n<h1> Get ready to start the game! </h1>\n\nThank you for reading the instructions. Get ready start with the 40 rounds of this game.\n<br><br>\nIf you need to take a break, feel free to take one after the end of a round, before continuing to the next one.\n<br><br>\nRemember, the more money the spider gets, the bigger your bonus will be!\n<br><br>\n<div style='text-align: center;'>Press <code>space</code> to begin.</div>\n\n<br><br>\n(If, at any point, the <code>space</code> key does not take you to the next page, click once on the text and try again.)", "response": " ", "trial_id": "mdp_ready", "trial_type": "html-keyboard-response", "trial_index": 14, "time_elapsed": 1070104, "internal_node_id": "0.0-4.0-0.0"}}, {"uniqueid": "w47054978:a92001354", "current_trial": 15, "dateTime": 1691486543287, "trialdata": {"revealed_states": [], "clicked_states": [], "num_clicks_accrued": [0, 0, 0, 0, 0, 0, 0, 0, 0, 0, 0, 0, 0], "stateRewards": ["", -2, -2, -3, -6, -15, -11, 41, -12, -63, -76, 2, -2, -3, 8, 9, -36, -2, -18, -16, -32, -85, -17, -2, 1, 5, -16, 82, 35, -88, -1, 80, -82, -20], "withholdReward": false, "trial_id": "mdp_trial_1", "block": "test", "trialIndex": 4, "score": -45, "costs": 0, "simulationMode": [null, null, null, null, null], "rewards": [-2, -3, 8, -16, -32], "path": ["0", "0", "12", "13", "14", "19", "20"], "rt": [14411, 509, 409, 853, 2143], "actions": ["right", "right", "right", "down", "right"], "actionTimes": [20376, 21394, 22311, 23673, 26319], "queries": {"click": {"state": {"target": [], "time": []}, "edge": {"target": [], "time": []}}, "mouseover": {"state": {"target": ["1", "2", "1", "0", "0", "0"], "time": [7352, 10592, 12357, 12496, 13462, 15817]}, "edge": {"target": [], "time": []}}, "mouseout": {"state": {"target": ["7", "18", "15", "17", "17", "19", "22", "0", "0", "1", "2", "1", "0", "0", "0", "12", "12", "6", "16"], "time": [1369, 2321, 2374, 2491, 3141, 3726, 4043, 4879, 7267, 10509, 12325, 12395, 12562, 15393, 28858, 29345, 30030, 30566, 30749]}, "edge": {"target": [], "time": []}}}, "displayed_time": "26.83", "trialTime": 34516, "trial_type": "mouselab-mdp", "trial_index": 15, "time_elapsed": 1105056, "internal_node_id": "0.0-4.0-1.0-0.0"}}, {"uniqueid": "w47054978:a92001354", "current_trial": 16, "dateTime": 1691486608875, "trialdata": {"revealed_states": [], "clicked_states": ["1", "2", "3", "4", "8", "11", "9", "12", "13", "14", "15", "17", "19", "20", "21", "23", "24", "25", "30", "33", "29", "5"], "num_clicks_accrued": [0, 0, 0, 0, 0, 0, 0, 0, 0, 0, 0, 0, 0], "stateRewards": ["", 1, -3, -6, -5, 47, 80, -29, 11, -71, 10, -29, -2, 3, -6, 12, 2, -78, -6, 8, 34, -16, -5, -1, 3, 3, -13, 84, -36, -62, -3, -27, 66, 15], "withholdReward": false, "trial_id": "mdp_trial_2", "block": "test", "trialIndex": 5, "score": -11.099999999999994, "costs": -28.099999999999994, "simulationMode": [null, null, null, null, null], "rewards": [-1, 3, 3, -3, 15], "path": ["0", "0", "23", "24", "25", "30", "33"], "rt": [53438, 438, 421, 1266, 1306], "actions": ["left", "left", "left", "down", "left"], "actionTimes": [55106, 56054, 56986, 58762, 60574], "queries": {"click": {"state": {"target": ["1", "2", "3", "4", "8", "11", "9", "12", "13", "14", "15", "17", "19", "20", "21", "23", "24", "25", "30", "33", "29", "5"], "time": [3683, 5418, 6754, 8483, 11177, 12681, 16058, 19642, 20793, 21873, 23296, 25121, 28849, 30433, 33432, 36385, 37537, 39096, 40289, 41282, 44377, 48137]}, "edge": {"target": [], "time": []}}, "mouseover": {"state": {"target": ["0", "1", "2", "3", "4", "5", "10", "8", "11", "9", "2", "1", "13", "12", "13", "14", "19", "15", "17", "17", "19", "21", "20", "19", "19", "20", "22", "21", "0", "23", "24", "25", "24", "23", "24", "25", "30", "33", "29", "26", "29", "26", "29", "26", "27", "10", "8", "5", "5", "6", "18", "12", "0"], "time": [2115, 2599, 4255, 6079, 7094, 9155, 9931, 10633, 11638, 13472, 18210, 18249, 18851, 19232, 20187, 21290, 22274, 22990, 23594, 23843, 26332, 26384, 27033, 27333, 28384, 29738, 31996, 32160, 34768, 34851, 35387, 35703, 35817, 36102, 36905, 37922, 39658, 40971, 42118, 42899, 43700, 43801, 44070, 44953, 46741, 47002, 47189, 47557, 47807, 49032, 51697, 52232, 52566]}, "edge": {"target": [], "time": []}}, "mouseout": {"state": {"target": ["31", "23", "12", "0", "1", "2", "2", "3", "3", "4", "5", "10", "8", "11", "9", "2", "1", "13", "12", "13", "14", "19", "14", "15", "17", "17", "19", "21", "20", "19", "19", "20", "19", "22", "21", "0", "23", "24", "25", "24", "23", "24", "25", "30", "33", "29", "26", "29", "26", "29", "26", "27", "10", "8", "5", "5", "6", "18", "12", "0", "0", "14", "20"], "time": [560, 744, 878, 2432, 4089, 5553, 6010, 6852, 7076, 8830, 9765, 10147, 11485, 13390, 18049, 18231, 18265, 18900, 20137, 21240, 22226, 22743, 22858, 23561, 23644, 26134, 26357, 26515, 27267, 28166, 29471, 31610, 31809, 32017, 34417, 34784, 35266, 35687, 35801, 36038, 36704, 37856, 39442, 40794, 41412, 42748, 43484, 43752, 43968, 44869, 46590, 46965, 47018, 47372, 47573, 48793, 51547, 51811, 52483, 61818, 61902, 62035, 62120]}, "edge": {"target": [], "time": []}}}, "displayed_time": "61.07", "trialTime": 65124, "trial_type": "mouselab-mdp", "trial_index": 16, "time_elapsed": 1170644, "internal_node_id": "0.0-4.0-1.0-1.0"}}, {"uniqueid": "w47054978:a92001354", "current_trial": 17, "dateTime": 1691486648618, "trialdata": {"revealed_states": [], "clicked_states": ["17", "20", "32"], "num_clicks_accrued": [0, 0, 0, 0, 0, 0, 0, 0, 0, 0, 0, 0, 0], "stateRewards": ["", -1, 1, -2, 5, 73, 15, 61, 8, 7, 38, 76, 2, 2, -4, -6, -6, -26, 43, -5, -45, -85, -35, -2, 1, -4, 15, -10, 69, 72, -11, 84, -49, -38], "withholdReward": false, "trial_id": "mdp_trial_3", "block": "test", "trialIndex": 6, "score": 69.55, "costs": -6.449999999999999, "simulationMode": [null, null, null, null, null], "rewards": [-1, 1, -2, 5, 73], "path": ["0", "0", "1", "2", "3", "4", "5"], "rt": [22128, 1244, 540, 1768, 1236], "actions": ["up", "up", "up", "right", "up"], "actionTimes": [23826, 25581, 26628, 28893, 30631], "queries": {"click": {"state": {"target": ["17", "20", "32"], "time": [3623, 6431, 11640]}, "edge": {"target": [], "time": []}}, "mouseover": {"state": {"target": ["0", "12", "13", "14", "17", "20", "19", "22", "32", "33", "25", "33", "23", "0", "0", "1"], "time": [2120, 2738, 2853, 2875, 3038, 4512, 7934, 7970, 8404, 13075, 15696, 17032, 20724, 20824, 21058, 21425]}, "edge": {"target": [], "time": []}}, "mouseout": {"state": {"target": ["23", "0", "12", "13", "14", "17", "20", "19", "22", "32", "33", "25", "33", "23", "0", "0", "1", "12", "13", "20"], "time": [1131, 2602, 2837, 2871, 2889, 4208, 7865, 7966, 8000, 12875, 15627, 16430, 20651, 20740, 20945, 21092, 32528, 32631, 32648, 32683]}, "edge": {"target": [], "time": []}}}, "displayed_time": "31.14", "trialTime": 39289, "trial_type": "mouselab-mdp", "trial_index": 17, "time_elapsed": 1210388, "internal_node_id": "0.0-4.0-1.0-2.0"}}, {"uniqueid": "w47054978:a92001354", "current_trial": 18, "dateTime": 1691486681079, "trialdata": {"revealed_states": [], "clicked_states": ["5", "9", "11", "27"], "num_clicks_accrued": [0, 0, 0, 0, 0, 0, 0, 0, 0, 0, 0, 0, 0], "stateRewards": ["", 2, -3, -2, 14, -4, 85, 46, 15, -28, 41, 31, -1, -1, -1, 5, 62, 79, 57, 12, -73, -64, 86, -1, 1, -3, -5, 68, 11, -32, 8, -80, -21, -56], "withholdReward": false, "trial_id": "mdp_trial_4", "block": "test", "trialIndex": 7, "score": 51.4, "costs": -8.6, "simulationMode": [null, null, null, null, null], "rewards": [-1, 1, -3, -5, 68], "path": ["0", "0", "23", "24", "25", "26", "27"], "rt": [17204, 4144, 414, 1256, 425], "actions": ["left", "left", "left", "up", "up"], "actionTimes": [18770, 23425, 24349, 26112, 27047], "queries": {"click": {"state": {"target": ["5", "9", "11", "27"], "time": [2748, 5955, 8724, 11532]}, "edge": {"target": [], "time": []}}, "mouseover": {"state": {"target": ["1", "2", "3", "5", "9", "11", "27", "25", "24", "23", "1", "0"], "time": [1968, 2003, 2070, 2104, 3292, 6932, 9869, 12411, 12479, 12526, 12775, 16664]}, "edge": {"target": [], "time": []}}, "mouseout": {"state": {"target": ["0", "1", "2", "3", "5", "9", "11", "11", "27", "25", "24", "23", "1", "0", "0", "21"], "time": [1935, 1984, 2037, 2086, 3173, 6613, 8825, 9819, 12145, 12440, 12509, 12559, 16328, 16798, 28821, 29406]}, "edge": {"target": [], "time": []}}}, "displayed_time": "27.56", "trialTime": 32019, "trial_type": "mouselab-mdp", "trial_index": 18, "time_elapsed": 1242849, "internal_node_id": "0.0-4.0-1.0-3.0"}}, {"uniqueid": "w47054978:a92001354", "current_trial": 19, "dateTime": 1691486723332, "trialdata": {"revealed_states": [], "clicked_states": ["20", "17", "16", "6", "5", "9", "11", "27"], "num_clicks_accrued": [0, 0, 0, 0, 0, 0, 0, 0, 0, 0, 0, 0, 0], "stateRewards": ["", -1, 2, -2, 13, -56, -28, 10, 14, 53, -80, -29, 1, -3, -3, -14, 14, 9, -40, -9, 18, 18, 48, 1, 1, 1, -9, 64, -39, -9, 7, -52, -78, 7], "withholdReward": false, "trial_id": "mdp_trial_5", "block": "test", "trialIndex": 8, "score": 40.8, "costs": -17.2, "simulationMode": [null, null, null, null, null], "rewards": [1, 1, 1, -9, 64], "path": ["0", "0", "23", "24", "25", "26", "27"], "rt": [30228, 250, 304, 1396, 276], "actions": ["left", "left", "left", "up", "up"], "actionTimes": [32186, 32943, 33748, 35642, 36425], "queries": {"click": {"state": {"target": ["20", "17", "16", "6", "5", "9", "11", "27"], "time": [4145, 7337, 11047, 13896, 17168, 20592, 23472, 26712]}, "edge": {"target": [], "time": []}}, "mouseover": {"state": {"target": ["0", "0", "0", "12", "13", "14", "20", "20", "17", "16", "6", "4", "6", "5", "9", "11", "27", "29", "26", "28", "23", "0", "0"], "time": [2325, 3044, 3227, 3295, 3331, 3350, 3678, 3846, 6503, 8323, 11768, 11815, 12113, 14905, 18093, 21900, 24576, 27341, 30398, 30450, 30533, 30567, 30818]}, "edge": {"target": [], "time": []}}, "mouseout": {"state": {"target": ["32", "31", "0", "0", "0", "0", "12", "13", "14", "20", "20", "17", "17", "16", "6", "4", "6", "5", "9", "11", "27", "29", "26", "28", "23", "0", "0", "12", "17"], "time": [786, 939, 972, 2909, 3094, 3278, 3328, 3346, 3378, 3761, 6252, 7404, 8156, 11139, 11797, 11997, 14010, 17744, 21716, 24172, 27177, 30348, 30434, 30468, 30549, 30634, 37746, 37779, 37833]}, "edge": {"target": [], "time": []}}}, "displayed_time": "36.93", "trialTime": 41795, "trial_type": "mouselab-mdp", "trial_index": 19, "time_elapsed": 1285101, "internal_node_id": "0.0-4.0-1.0-4.0"}}, {"uniqueid": "w47054978:a92001354", "current_trial": 20, "dateTime": 1691486745245, "trialdata": {"revealed_states": [], "clicked_states": ["5", "9"], "num_clicks_accrued": [0, 0, 0, 0, 0, 0, 0, 0, 0, 0, 0, 0, 0], "stateRewards": ["", -1, -3, -7, -4, -85, -70, 79, 8, 84, -66, 42, 2, -2, -3, -16, -54, -66, 68, -3, 21, -14, 7, -2, -1, -3, -8, 75, 80, 86, -7, -84, 73, -16], "withholdReward": false, "trial_id": "mdp_trial_6", "block": "test", "trialIndex": 9, "score": 76.7, "costs": -4.3, "simulationMode": [null, null, null, null, null], "rewards": [-1, -3, -7, 8, 84], "path": ["0", "0", "1", "2", "3", "8", "9"], "rt": [10334, 469, 1009, 624, 940], "actions": ["up", "up", "up", "left", "up"], "actionTimes": [12342, 13322, 14836, 15966, 17418], "queries": {"click": {"state": {"target": ["5", "9"], "time": [3462, 6876]}, "edge": {"target": [], "time": []}}, "mouseover": {"state": {"target": ["0", "1", "7", "4", "5", "5", "9", "11", "8"], "time": [2472, 2696, 2730, 2763, 2813, 3129, 4184, 7411, 10609]}, "edge": {"target": [], "time": []}}, "mouseout": {"state": {"target": ["13", "12", "0", "0", "0", "1", "7", "4", "5", "5", "9", "11", "8", "10", "18"], "time": [889, 905, 1274, 1458, 2661, 2712, 2746, 2779, 2862, 4032, 7326, 10593, 10662, 19046, 19093]}, "edge": {"target": [], "time": []}}}, "displayed_time": "17.93", "trialTime": 21441, "trial_type": "mouselab-mdp", "trial_index": 20, "time_elapsed": 1307014, "internal_node_id": "0.0-4.0-1.0-5.0"}}, {"uniqueid": "w47054978:a92001354", "current_trial": 21, "dateTime": 1691486777134, "trialdata": {"revealed_states": [], "clicked_states": ["5", "9", "11", "27", "10"], "num_clicks_accrued": [0, 0, 0, 0, 0, 0, 0, 0, 0, 0, 0, 0, 0], "stateRewards": ["", 1, -2, -8, -13, 4, 34, -84, -4, -49, 88, -70, -1, 3, -4, 10, -77, 13, -34, 15, -21, -16, 27, 1, -2, 8, -8, -6, 38, -26, 6, -15, 66, -3], "withholdReward": false, "trial_id": "mdp_trial_7", "block": "test", "trialIndex": 10, "score": 64.25, "costs": -10.75, "simulationMode": [null, null, null, null, null], "rewards": [1, -2, -8, -4, 88], "path": ["0", "0", "1", "2", "3", "8", "10"], "rt": [19542, 439, 429, 948, 404], "actions": ["up", "up", "up", "left", "down"], "actionTimes": [21891, 22833, 23756, 25211, 26120], "queries": {"click": {"state": {"target": ["5", "9", "11", "27", "10"], "time": [3505, 6809, 10161, 13275, 16449]}, "edge": {"target": [], "time": []}}, "mouseover": {"state": {"target": ["7", "4", "5", "9", "11", "27", "10", "10", "29", "26", "3"], "time": [2915, 2949, 3216, 5162, 7430, 10616, 13923, 14274, 17866, 19919, 20250]}, "edge": {"target": [], "time": []}}, "mouseout": {"state": {"target": ["12", "0", "7", "4", "5", "9", "11", "27", "10", "10", "29", "26", "10", "3", "18", "20", "22"], "time": [1308, 1446, 2931, 3066, 4890, 7360, 10482, 13773, 14026, 17232, 19915, 19932, 20051, 20267, 27997, 28200, 28267]}, "edge": {"target": [], "time": []}}}, "displayed_time": "26.62", "trialTime": 31423, "trial_type": "mouselab-mdp", "trial_index": 21, "time_elapsed": 1338903, "internal_node_id": "0.0-4.0-1.0-6.0"}}, {"uniqueid": "w47054978:a92001354", "current_trial": 22, "dateTime": 1691486812391, "trialdata": {"revealed_states": [], "clicked_states": ["10", "11", "9", "5", "6"], "num_clicks_accrued": [0, 0, 0, 0, 0, 0, 0, 0, 0, 0, 0, 0, 0], "stateRewards": ["", 1, -4, -6, -1, -21, 17, -72, 10, 77, 67, -46, -1, 4, -2, 14, -66, -49, -45, -15, -52, 23, -67, 2, -2, -2, 15, -3, 45, -64, 5, -44, 83, 61], "withholdReward": false, "trial_id": "mdp_trial_8", "block": "test", "trialIndex": 11, "score": 67.25, "costs": -10.75, "simulationMode": [null, null, null, null, null], "rewards": [1, -4, -6, 10, 77], "path": ["0", "0", "1", "2", "3", "8", "9"], "rt": [25500, 247, 244, 769, 397], "actions": ["up", "up", "up", "left", "up"], "actionTimes": [27286, 28036, 28785, 30060, 30962], "queries": {"click": {"state": {"target": ["10", "11", "9", "5", "6"], "time": [4185, 8344, 12512, 17794, 22160]}, "edge": {"target": [], "time": []}}, "mouseover": {"state": {"target": ["12", "17", "6", "5", "7", "1", "2", "10", "8", "11", "9", "9", "5", "5", "6", "6"], "time": [2232, 2350, 2533, 2884, 3102, 3518, 3587, 3719, 5011, 5776, 9482, 12270, 12956, 13740, 21537, 21805]}, "edge": {"target": [], "time": []}}, "mouseout": {"state": {"target": ["12", "7", "12", "17", "6", "5", "7", "1", "2", "10", "8", "11", "9", "9", "5", "5", "6", "6", "21"], "time": [360, 744, 2249, 2399, 2551, 2934, 3118, 3568, 3605, 4889, 5582, 9365, 11685, 12873, 13059, 21486, 21622, 32375, 33612]}, "edge": {"target": [], "time": []}}}, "displayed_time": "31.46", "trialTime": 34767, "trial_type": "mouselab-mdp", "trial_index": 22, "time_elapsed": 1374160, "internal_node_id": "0.0-4.0-1.0-7.0"}}, {"uniqueid": "w47054978:a92001354", "current_trial": 23, "dateTime": 1691486853321, "trialdata": {"revealed_states": [], "clicked_states": ["20", "21", "22", "17", "16", "18", "6"], "num_clicks_accrued": [0, 0, 0, 0, 0, 0, 0, 0, 0, 0, 0, 0, 0], "stateRewards": ["", 1, -4, 6, -3, 40, 76, -51, 5, -24, -63, 44, -2, -2, 8, 1, 76, -85, -58, 10, 59, 20, 11, -2, 3, -3, 3, -82, -10, 54, -7, -57, -6, -32], "withholdReward": false, "trial_id": "mdp_trial_9", "block": "test", "trialIndex": 12, "score": 65.95, "costs": -15.05, "simulationMode": [null, null, null, null, null], "rewards": [-2, -2, 8, 1, 76], "path": ["0", "0", "12", "13", "14", "15", "16"], "rt": [30725, 268, 289, 811, 431], "actions": ["right", "right", "right", "up", "up"], "actionTimes": [32061, 32837, 33622, 34950, 35892], "queries": {"click": {"state": {"target": ["20", "21", "22", "17", "16", "18", "6"], "time": [2850, 6897, 10529, 13922, 17977, 22824, 26553]}, "edge": {"target": [], "time": []}}, "mouseover": {"state": {"target": ["0", "12", "13", "14", "20", "21", "21", "22", "13", "14", "17", "16", "18", "18", "6"], "time": [1644, 1982, 2048, 2187, 2533, 6140, 6374, 7962, 11167, 11252, 11719, 17731, 19051, 21603, 26231]}, "edge": {"target": [], "time": []}}, "mouseout": {"state": {"target": ["22", "0", "0", "12", "13", "14", "20", "21", "21", "22", "13", "14", "17", "16", "18", "18", "6", "6", "17"], "time": [510, 907, 1965, 2015, 2115, 2249, 6090, 6157, 7460, 11073, 11186, 11269, 17045, 18867, 19087, 26130, 29837, 37623, 37821]}, "edge": {"target": [], "time": []}}}, "displayed_time": "36.39", "trialTime": 40442, "trial_type": "mouselab-mdp", "trial_index": 23, "time_elapsed": 1415090, "internal_node_id": "0.0-4.0-1.0-8.0"}}, {"uniqueid": "w47054978:a92001354", "current_trial": 24, "dateTime": 1691486902135, "trialdata": {"revealed_states": [], "clicked_states": ["20", "21", "22", "17", "16", "6", "18", "5"], "num_clicks_accrued": [0, 0, 0, 0, 0, 0, 0, 0, 0, 0, 0, 0, 0], "stateRewards": ["", 2, -1, -4, -13, 74, 77, 3, 2, -43, -2, -11, 2, 3, 7, 11, -26, -29, -33, -3, -3, -13, -3, 1, 3, -7, 14, -59, 33, 9, -5, 34, 79, 68], "withholdReward": false, "trial_id": "mdp_trial_10", "block": "test", "trialIndex": 13, "score": 43.8, "costs": -17.2, "simulationMode": [null, null, null, null, null], "rewards": [2, -1, -4, -13, 77], "path": ["0", "0", "1", "2", "3", "4", "6"], "rt": [38281, 90, 199, 996, 277], "actions": ["up", "up", "up", "right", "right"], "actionTimes": [40418, 41016, 41711, 43207, 43996], "queries": {"click": {"state": {"target": ["20", "21", "22", "17", "16", "6", "18", "5"], "time": [3376, 6959, 11384, 14856, 19864, 23922, 28158, 31831]}, "edge": {"target": [], "time": []}}, "mouseover": {"state": {"target": ["12", "13", "14", "19", "20", "21", "22", "22", "14", "17", "16", "18", "16", "6", "16", "6", "18", "7", "4", "4", "6", "5", "1", "18"], "time": [2693, 2728, 2762, 2896, 2961, 4700, 7525, 7808, 12615, 13750, 15710, 16173, 18498, 18893, 19611, 23687, 27727, 28831, 29148, 29466, 29833, 30223, 36714, 37748]}, "edge": {"target": [], "time": []}}, "mouseout": {"state": {"target": ["0", "12", "13", "14", "19", "20", "21", "22", "22", "14", "17", "16", "18", "16", "6", "16", "16", "6", "18", "7", "4", "4", "6", "5", "5", "1", "18", "6"], "time": [2660, 2709, 2745, 2778, 2912, 4600, 7326, 7623, 11980, 12699, 15507, 15873, 16207, 18677, 19327, 19950, 22953, 27559, 28614, 28931, 29202, 29599, 29899, 33841, 36594, 36730, 37832, 45677]}, "edge": {"target": [], "time": []}}}, "displayed_time": "44.50", "trialTime": 48334, "trial_type": "mouselab-mdp", "trial_index": 24, "time_elapsed": 1463905, "internal_node_id": "0.0-4.0-1.0-9.0"}}, {"uniqueid": "w47054978:a92001354", "current_trial": 25, "dateTime": 1691486933201, "trialdata": {"revealed_states": [], "clicked_states": ["5", "6", "7", "10"], "num_clicks_accrued": [0, 0, 0, 0, 0, 0, 0, 0, 0, 0, 0, 0, 0], "stateRewards": ["", 1, 2, 2, -15, -84, 28, -26, 13, 31, 86, 30, -2, 1, -1, -8, 66, -40, -1, -10, -32, 57, -17, 1, 2, -2, 9, -23, 77, 85, 12, -32, -62, -35], "withholdReward": false, "trial_id": "mdp_trial_11", "block": "test", "trialIndex": 14, "score": 95.4, "costs": -8.6, "simulationMode": [null, null, null, null, null], "rewards": [1, 2, 2, 13, 86], "path": ["0", "0", "1", "2", "3", "8", "10"], "rt": [19703, 4, 48, 923, 601], "actions": ["up", "up", "up", "left", "down"], "actionTimes": [21613, 22125, 22683, 24113, 25223], "queries": {"click": {"state": {"target": ["5", "6", "7", "10"], "time": [3882, 8298, 12274, 16873]}, "edge": {"target": [], "time": []}}, "mouseover": {"state": {"target": ["0", "2", "2", "5", "9", "3", "6", "16", "15", "3", "6", "7", "2", "8", "10", "10"], "time": [2404, 3039, 3390, 3525, 5163, 7331, 7366, 7449, 7582, 7816, 7983, 12010, 15682, 16067, 16337, 16584]}, "edge": {"target": [], "time": []}}, "mouseout": {"state": {"target": ["22", "0", "0", "2", "2", "5", "5", "9", "3", "6", "16", "15", "3", "6", "7", "2", "8", "10", "10", "3"], "time": [617, 801, 2605, 3057, 3440, 4001, 5029, 7298, 7348, 7383, 7516, 7700, 7950, 11877, 15548, 15733, 16320, 16368, 17488, 27053]}, "edge": {"target": [], "time": []}}}, "displayed_time": "25.74", "trialTime": 30547, "trial_type": "mouselab-mdp", "trial_index": 25, "time_elapsed": 1494971, "internal_node_id": "0.0-4.0-1.0-10.0"}}, {"uniqueid": "w47054978:a92001354", "current_trial": 26, "dateTime": 1691486996013, "trialdata": {"revealed_states": [], "clicked_states": ["21", "22", "20", "16", "6", "5", "7", "17", "18"], "num_clicks_accrued": [0, 0, 0, 0, 0, 0, 0, 0, 0, 0, 0, 0, 0], "stateRewards": ["", -2, 1, -7, 9, 8, 25, 61, -7, -17, 69, -81, 1, 4, -4, -11, 16, 67, 44, 3, 6, -45, -54, -2, 3, 6, -11, -15, 32, -47, 3, -39, -6, -88], "withholdReward": false, "trial_id": "mdp_trial_12", "block": "test", "trialIndex": 15, "score": 42.650000000000006, "costs": -19.349999999999998, "simulationMode": [null, null, null, null, null], "rewards": [-2, 1, -7, 9, 61], "path": ["0", "0", "1", "2", "3", "4", "7"], "rt": [50392, 47, 110, 1764, 1158], "actions": ["up", "up", "up", "right", "down"], "actionTimes": [52061, 52623, 53250, 55522, 57188], "queries": {"click": {"state": {"target": ["21", "22", "20", "16", "6", "5", "7", "17", "18"], "time": [3966, 8613, 12940, 16933, 20937, 24748, 28181, 31981, 36917]}, "edge": {"target": [], "time": []}}, "mouseover": {"state": {"target": ["12", "22", "12", "22", "21", "19", "20", "19", "22", "22", "19", "22", "22", "19", "20", "19", "19", "20", "19", "18", "16", "16", "6", "6", "5", "4", "7", "17", "15", "18", "1", "1", "23", "10", "8", "8", "9", "3", "7", "15", "17", "17"], "time": [2448, 2583, 3100, 3451, 3653, 5040, 5273, 7309, 7377, 7827, 7861, 7944, 8311, 11619, 11935, 12236, 12505, 12637, 13393, 16294, 16344, 16661, 20335, 20636, 24393, 27419, 27542, 28919, 35282, 35800, 40660, 41159, 41712, 42181, 42214, 42263, 43097, 44751, 44837, 44952, 45502, 46554]}, "edge": {"target": [], "time": []}}, "mouseout": {"state": {"target": ["17", "13", "12", "0", "12", "22", "12", "22", "21", "19", "20", "19", "22", "22", "19", "22", "22", "22", "19", "20", "19", "22", "19", "20", "19", "22", "18", "16", "16", "6", "6", "5", "4", "7", "17", "15", "18", "1", "1", "23", "10", "8", "8", "9", "3", "7", "15", "17", "17", "17"], "time": [527, 577, 629, 2397, 2516, 2850, 3368, 3501, 4859, 5210, 7259, 7360, 7393, 7844, 7903, 7961, 8999, 11600, 11885, 12219, 12269, 12287, 12521, 13374, 13430, 13447, 16310, 16378, 20269, 20386, 22090, 27340, 27502, 28537, 35249, 35583, 40391, 40960, 41261, 42095, 42197, 42247, 42380, 44667, 44769, 44854, 45004, 46420, 50519, 59564]}, "edge": {"target": [], "time": []}}}, "displayed_time": "57.70", "trialTime": 62288, "trial_type": "mouselab-mdp", "trial_index": 26, "time_elapsed": 1557782, "internal_node_id": "0.0-4.0-1.0-11.0"}}, {"uniqueid": "w47054978:a92001354", "current_trial": 27, "dateTime": 1691487045908, "trialdata": {"revealed_states": [], "clicked_states": ["21", "20", "22", "17", "16", "18", "6", "5", "7", "9"], "num_clicks_accrued": [0, 0, 0, 0, 0, 0, 0, 0, 0, 0, 0, 0, 0], "stateRewards": ["", -1, -3, -6, 14, 41, 18, 63, -14, 80, 21, 17, -2, -4, -2, -5, 13, 70, 8, -4, -64, -10, -20, 2, -1, 4, -1, -17, -55, 42, -7, 47, 54, 15], "withholdReward": false, "trial_id": "mdp_trial_13", "block": "test", "trialIndex": 16, "score": 34.5, "costs": -21.499999999999996, "simulationMode": [null, null, null, null, null], "rewards": [-1, -3, -6, -14, 80], "path": ["0", "0", "1", "2", "3", "8", "9"], "rt": [38299, 49, 88, 885, 743], "actions": ["up", "up", "up", "left", "up"], "actionTimes": [39527, 40091, 40698, 42080, 43338], "queries": {"click": {"state": {"target": ["21", "20", "22", "17", "16", "18", "6", "5", "7", "9"], "time": [2314, 5625, 8466, 11796, 16065, 19521, 22746, 26058, 29490, 33738]}, "edge": {"target": [], "time": []}}, "mouseover": {"state": {"target": ["0", "22", "21", "20", "19", "22", "14", "17", "16", "16", "16", "18", "6", "5", "7", "3", "9", "8", "10"], "time": [1726, 1827, 1860, 3381, 5838, 6024, 9394, 9728, 12584, 12937, 15621, 18295, 22434, 25042, 27413, 33290, 33473, 37664, 37716]}, "edge": {"target": [], "time": []}}, "mouseout": {"state": {"target": ["0", "22", "21", "20", "19", "22", "14", "17", "16", "16", "16", "18", "6", "5", "7", "3", "9", "8", "10"], "time": [1760, 1844, 2981, 5806, 5954, 9330, 9416, 12267, 12618, 15535, 18245, 20132, 24858, 26546, 33054, 33357, 37646, 37698, 44762]}, "edge": {"target": [], "time": []}}}, "displayed_time": "43.85", "trialTime": 49102, "trial_type": "mouselab-mdp", "trial_index": 27, "time_elapsed": 1607677, "internal_node_id": "0.0-4.0-1.0-12.0"}}, {"uniqueid": "w47054978:a92001354", "current_trial": 28, "dateTime": 1691487086398, "trialdata": {"revealed_states": [], "clicked_states": ["21", "20", "17", "16", "6", "5", "7"], "num_clicks_accrued": [0, 0, 0, 0, 0, 0, 0, 0, 0, 0, 0, 0, 0], "stateRewards": ["", -2, -4, 2, 10, -17, 18, 73, 11, -32, 23, -13, -2, -4, 7, 12, -25, 66, -23, 15, 40, -76, -9, 1, 2, -7, -5, -20, 24, 3, -5, 16, -73, 70], "withholdReward": false, "trial_id": "mdp_trial_14", "block": "test", "trialIndex": 17, "score": 63.95, "costs": -15.05, "simulationMode": [null, null, null, null, null], "rewards": [-2, -4, 2, 10, 73], "path": ["0", "0", "1", "2", "3", "4", "7"], "rt": [30555, 285, 93, 840, 336], "actions": ["up", "up", "up", "right", "down"], "actionTimes": [32303, 33096, 33685, 35034, 35895], "queries": {"click": {"state": {"target": ["21", "20", "17", "16", "6", "5", "7"], "time": [3236, 7827, 11686, 16228, 19612, 23123, 26603]}, "edge": {"target": [], "time": []}}, "mouseover": {"state": {"target": ["0", "21", "20", "20", "17", "17", "16", "6", "5", "4", "7", "2", "3", "9"], "time": [2307, 2942, 4350, 7070, 11108, 11426, 14542, 18033, 20212, 23603, 24021, 27327, 29395, 29780]}, "edge": {"target": [], "time": []}}, "mouseout": {"state": {"target": ["0", "21", "20", "20", "17", "17", "16", "6", "5", "4", "7", "2", "3", "9", "3", "14", "21"], "time": [2558, 3898, 6918, 7905, 11184, 12213, 16351, 19980, 23536, 23687, 27112, 29282, 29612, 37709, 37744, 37813, 38864]}, "edge": {"target": [], "time": []}}}, "displayed_time": "36.40", "trialTime": 39922, "trial_type": "mouselab-mdp", "trial_index": 28, "time_elapsed": 1648168, "internal_node_id": "0.0-4.0-1.0-13.0"}}, {"uniqueid": "w47054978:a92001354", "current_trial": 29, "dateTime": 1691487118977, "trialdata": {"revealed_states": [], "clicked_states": ["17", "21", "32", "33", "31"], "num_clicks_accrued": [0, 0, 0, 0, 0, 0, 0, 0, 0, 0, 0, 0, 0], "stateRewards": ["", 1, 3, -2, 15, 51, 15, -19, 11, 67, -45, -73, 2, 4, -2, -13, 36, 9, -28, 10, -30, 31, 16, 1, 2, -1, -16, 14, -22, 36, -1, 88, -5, 45], "withholdReward": false, "trial_id": "mdp_trial_15", "block": "test", "trialIndex": 18, "score": 78.25, "costs": -10.75, "simulationMode": [null, null, null, null, null], "rewards": [1, 2, -1, -1, 88], "path": ["0", "0", "23", "24", "25", "30", "31"], "rt": [22667, 52, 48, 708, 557], "actions": ["left", "left", "left", "down", "right"], "actionTimes": [24604, 25169, 25730, 26959, 28028], "queries": {"click": {"state": {"target": ["17", "21", "32", "33", "31"], "time": [3995, 8546, 12657, 16027, 19705]}, "edge": {"target": [], "time": []}}, "mouseover": {"state": {"target": ["0", "12", "13", "14", "17", "15", "15", "14", "21", "32", "32", "33", "33", "30", "31", "25", "29", "23"], "time": [1958, 3084, 3218, 3334, 3686, 5376, 7525, 7560, 8027, 12001, 12420, 14809, 15178, 18849, 19412, 20240, 20804, 23257]}, "edge": {"target": [], "time": []}}, "mouseout": {"state": {"target": ["23", "0", "0", "12", "13", "14", "17", "15", "15", "14", "21", "32", "32", "33", "33", "30", "31", "25", "29", "23", "0", "10", "8", "9", "5"], "time": [1060, 1093, 3000, 3184, 3301, 3501, 4994, 5457, 7542, 7577, 11551, 12018, 13773, 14960, 18817, 19015, 20138, 20274, 23207, 23275, 29307, 29520, 29554, 29587, 29704]}, "edge": {"target": [], "time": []}}}, "displayed_time": "28.54", "trialTime": 32026, "trial_type": "mouselab-mdp", "trial_index": 29, "time_elapsed": 1680746, "internal_node_id": "0.0-4.0-1.0-14.0"}}, {"uniqueid": "w47054978:a92001354", "current_trial": 30, "dateTime": 1691487172056, "trialdata": {"revealed_states": [], "clicked_states": ["5", "9", "11", "27", "29", "33", "32", "31", "28", "21", "20"], "num_clicks_accrued": [0, 0, 0, 0, 0, 0, 0, 0, 0, 0, 0, 0, 0], "stateRewards": ["", 1, 1, 1, 15, -76, 52, -32, 14, -57, 37, 49, 1, -4, -3, 6, 83, -76, 25, 9, 36, -1, -17, -1, 4, 4, -2, -22, -21, 58, -15, -57, 49, -24], "withholdReward": false, "trial_id": "mdp_trial_16", "block": "test", "trialIndex": 19, "score": 39.35000000000001, "costs": -23.649999999999995, "simulationMode": [null, null, null, null, null], "rewards": [-1, 4, 4, -2, 58], "path": ["0", "0", "23", "24", "25", "26", "29"], "rt": [43519, 456, 361, 960, 354], "actions": ["left", "left", "left", "up", "left"], "actionTimes": [44901, 45879, 46744, 48211, 49082], "queries": {"click": {"state": {"target": ["5", "9", "11", "27", "29", "33", "32", "31", "28", "21", "20"], "time": [3112, 6784, 10416, 13816, 17072, 21384, 24703, 28768, 32167, 36311, 39897]}, "edge": {"target": [], "time": []}}, "mouseover": {"state": {"target": ["1", "2", "5", "9", "11", "27", "29", "33", "26", "33", "32", "31", "24", "28", "28", "26", "29", "21", "20", "19", "22"], "time": [2403, 2539, 2857, 6463, 7719, 11078, 14399, 18896, 20725, 21092, 23501, 28306, 29982, 30063, 30370, 33853, 34374, 36057, 39163, 40368, 40457]}, "edge": {"target": [], "time": []}}, "mouseout": {"state": {"target": ["1", "1", "2", "5", "5", "9", "11", "11", "27", "29", "29", "33", "26", "33", "32", "31", "24", "28", "28", "28", "26", "29", "21", "20", "19", "22", "0", "12", "13", "14"], "time": [183, 2490, 2723, 3250, 4061, 7219, 10545, 10742, 14065, 17195, 17444, 20407, 20759, 23300, 25037, 29930, 30030, 30118, 32569, 33816, 34355, 35488, 38817, 40302, 40421, 42339, 50484, 50518, 50535, 50571]}, "edge": {"target": [], "time": []}}}, "displayed_time": "49.59", "trialTime": 52496, "trial_type": "mouselab-mdp", "trial_index": 30, "time_elapsed": 1733825, "internal_node_id": "0.0-4.0-1.0-15.0"}}, {"uniqueid": "w47054978:a92001354", "current_trial": 31, "dateTime": 1691487196758, "trialdata": {"revealed_states": [], "clicked_states": ["29", "33", "32"], "num_clicks_accrued": [0, 0, 0, 0, 0, 0, 0, 0, 0, 0, 0, 0, 0], "stateRewards": ["", -2, -1, -4, -15, -14, -67, 32, -3, -59, 63, 31, 2, -1, -7, -15, 71, -66, -27, -3, -54, -39, 72, 2, 1, 1, -13, 77, -40, 35, -9, 35, 75, 57], "withholdReward": false, "trial_id": "mdp_trial_17", "block": "test", "trialIndex": 20, "score": 63.55, "costs": -6.449999999999999, "simulationMode": [null, null, null, null, null], "rewards": [2, 1, 1, -9, 75], "path": ["0", "0", "23", "24", "25", "30", "32"], "rt": [14665, 5, 922, 746, 194], "actions": ["left", "left", "left", "down", "down"], "actionTimes": [16659, 17165, 18598, 19841, 20543], "queries": {"click": {"state": {"target": ["29", "33", "32"], "time": [3760, 7403, 11184]}, "edge": {"target": [], "time": []}}, "mouseover": {"state": {"target": ["0", "12", "18", "1", "24", "29", "33", "32", "32", "31", "31"], "time": [2113, 2525, 2608, 2742, 2792, 3542, 7166, 7820, 8190, 11551, 15017]}, "edge": {"target": [], "time": []}}, "mouseout": {"state": {"target": ["21", "12", "0", "23", "0", "12", "18", "1", "24", "29", "33", "33", "32", "32", "31", "31", "22"], "time": [452, 803, 1088, 1256, 2506, 2557, 2659, 2759, 2810, 6700, 7420, 7737, 7858, 11415, 14814, 15034, 22495]}, "edge": {"target": [], "time": []}}}, "displayed_time": "21.05", "trialTime": 24110, "trial_type": "mouselab-mdp", "trial_index": 31, "time_elapsed": 1758527, "internal_node_id": "0.0-4.0-1.0-16.0"}}, {"uniqueid": "w47054978:a92001354", "current_trial": 32, "dateTime": 1691487218739, "trialdata": {"revealed_states": [], "clicked_states": ["5"], "num_clicks_accrued": [0, 0, 0, 0, 0, 0, 0, 0, 0, 0, 0, 0, 0], "stateRewards": ["", 1, -1, 8, 4, 76, -33, -17, -3, -1, -54, -74, -2, 2, -5, 13, -51, 63, 83, 1, 84, 29, -36, 2, -1, 7, -12, -10, -44, -43, -14, 8, -69, 19], "withholdReward": false, "trial_id": "mdp_trial_18", "block": "test", "trialIndex": 21, "score": 85.85, "costs": -2.15, "simulationMode": [null, null, null, null, null], "rewards": [1, -1, 8, 4, 76], "path": ["0", "0", "1", "2", "3", "4", "5"], "rt": [6520, 275, 98, 1040, 345], "actions": ["up", "up", "up", "right", "up"], "actionTimes": [8183, 8961, 9586, 11130, 11987], "queries": {"click": {"state": {"target": ["5"], "time": [3149]}, "edge": {"target": [], "time": []}}, "mouseover": {"state": {"target": ["4", "5", "4", "6"], "time": [2500, 2768, 5844, 6225]}, "edge": {"target": [], "time": []}}, "mouseout": {"state": {"target": ["22", "13", "18", "4", "5", "4", "6", "6", "17"], "time": [262, 295, 346, 2533, 4227, 6193, 6843, 17308, 18381]}, "edge": {"target": [], "time": []}}}, "displayed_time": "15.66", "trialTime": 21401, "trial_type": "mouselab-mdp", "trial_index": 32, "time_elapsed": 1780509, "internal_node_id": "0.0-4.0-1.0-17.0"}}, {"uniqueid": "w47054978:a92001354", "current_trial": 33, "dateTime": 1691487259852, "trialdata": {"revealed_states": [], "clicked_states": ["5", "9", "11", "27", "29", "33"], "num_clicks_accrued": [0, 0, 0, 0, 0, 0, 0, 0, 0, 0, 0, 0, 0], "stateRewards": ["", -2, -4, 6, 14, -34, 49, 36, -8, -3, 32, -4, 1, -2, 1, -8, -20, -71, -57, -7, -86, -62, -16, -2, -3, -5, 11, 23, -21, 53, 5, -5, 85, 73], "withholdReward": false, "trial_id": "mdp_trial_19", "block": "test", "trialIndex": 22, "score": 55.1, "costs": -12.9, "simulationMode": [null, null, null, null, null], "rewards": [-2, -3, -5, 5, 73], "path": ["0", "0", "23", "24", "25", "30", "33"], "rt": [29321, 12, 1105, 517, 670], "actions": ["left", "left", "left", "down", "left"], "actionTimes": [31463, 31975, 33603, 34617, 35789], "queries": {"click": {"state": {"target": ["5", "9", "11", "27", "29", "33"], "time": [5151, 9415, 13227, 17175, 21039, 26134]}, "edge": {"target": [], "time": []}}, "mouseover": {"state": {"target": ["0", "1", "2", "3", "5", "9", "11", "11", "27", "27", "29", "33", "32", "32"], "time": [2831, 3249, 3287, 3335, 3633, 9178, 12770, 12986, 16327, 16593, 20501, 25077, 26817, 27308]}, "edge": {"target": [], "time": []}}, "mouseout": {"state": {"target": ["20", "31", "23", "0", "1", "2", "3", "5", "9", "11", "11", "11", "27", "27", "29", "33", "32", "32"], "time": [841, 1045, 1327, 3199, 3283, 3318, 3450, 8459, 12685, 12786, 13364, 16275, 16376, 20451, 24742, 26683, 26864, 38017]}, "edge": {"target": [], "time": []}}}, "displayed_time": "36.29", "trialTime": 40482, "trial_type": "mouselab-mdp", "trial_index": 33, "time_elapsed": 1821621, "internal_node_id": "0.0-4.0-1.0-18.0"}}, {"uniqueid": "w47054978:a92001354", "current_trial": 34, "dateTime": 1691487282277, "trialdata": {"revealed_states": [], "clicked_states": ["6", "5"], "num_clicks_accrued": [0, 0, 0, 0, 0, 0, 0, 0, 0, 0, 0, 0, 0], "stateRewards": ["", -2, -1, 3, -3, 71, -58, -21, 7, -10, -75, -37, 2, 4, -1, -12, -79, -29, -48, 3, -41, -10, -30, -1, -2, 1, -15, 13, 66, 22, -1, -42, -86, -55], "withholdReward": false, "trial_id": "mdp_trial_20", "block": "test", "trialIndex": 23, "score": 63.7, "costs": -4.3, "simulationMode": [null, null, null, null, null], "rewards": [-2, -1, 3, -3, 71], "path": ["0", "0", "1", "2", "3", "4", "5"], "rt": [12266, 305, 372, 607, 1240], "actions": ["up", "up", "up", "right", "up"], "actionTimes": [13494, 14298, 15166, 16269, 18008], "queries": {"click": {"state": {"target": ["6", "5"], "time": [3243, 8145]}, "edge": {"target": [], "time": []}}, "mouseover": {"state": {"target": ["7", "6", "5"], "time": [2432, 2898, 6723]}, "edge": {"target": [], "time": []}}, "mouseout": {"state": {"target": ["7", "6", "5", "3", "2", "18", "17"], "time": [2599, 6572, 11466, 19497, 19536, 19617, 19817]}, "edge": {"target": [], "time": []}}}, "displayed_time": "18.52", "trialTime": 21791, "trial_type": "mouselab-mdp", "trial_index": 34, "time_elapsed": 1844047, "internal_node_id": "0.0-4.0-1.0-19.0"}}, {"uniqueid": "w47054978:a92001354", "current_trial": 35, "dateTime": 1691487315269, "trialdata": {"revealed_states": [], "clicked_states": ["20", "21", "32", "33", "31"], "num_clicks_accrued": [0, 0, 0, 0, 0, 0, 0, 0, 0, 0, 0, 0, 0], "stateRewards": ["", 1, -1, 1, 13, 31, -56, 72, 2, 41, 5, 63, -2, -3, -2, 3, -71, -26, 52, 13, -31, 24, -67, 2, -2, 5, 4, 66, 43, 72, 9, 86, -26, 44], "withholdReward": false, "trial_id": "mdp_trial_21", "block": "test", "trialIndex": 24, "score": 89.25, "costs": -10.75, "simulationMode": [null, null, null, null, null], "rewards": [2, -2, 5, 9, 86], "path": ["0", "0", "23", "24", "25", "30", "31"], "rt": [22378, 51, 258, 671, 711], "actions": ["left", "left", "left", "down", "right"], "actionTimes": [23898, 24461, 25234, 26420, 27644], "queries": {"click": {"state": {"target": ["20", "21", "32", "33", "31"], "time": [3017, 7386, 11721, 15040, 18234]}, "edge": {"target": [], "time": []}}, "mouseover": {"state": {"target": ["12", "19", "20", "21", "21", "32", "32", "33", "30", "31", "31", "14", "19", "22", "22", "12", "22"], "time": [2291, 2444, 2513, 6384, 7035, 10959, 11561, 13217, 15344, 15433, 15906, 18949, 19243, 19321, 19641, 21799, 22017]}, "edge": {"target": [], "time": []}}, "mouseout": {"state": {"target": ["20", "19", "22", "12", "0", "12", "19", "20", "21", "21", "32", "32", "33", "30", "31", "31", "14", "19", "22", "22", "12", "22", "19"], "time": [337, 371, 387, 671, 1010, 2308, 2492, 6334, 6785, 7806, 11008, 12899, 15323, 15363, 15609, 18870, 19112, 19277, 19362, 21681, 21900, 29195, 29228]}, "edge": {"target": [], "time": []}}}, "displayed_time": "28.15", "trialTime": 32383, "trial_type": "mouselab-mdp", "trial_index": 35, "time_elapsed": 1877039, "internal_node_id": "0.0-4.0-1.0-20.0"}}, {"uniqueid": "w47054978:a92001354", "current_trial": 36, "dateTime": 1691487338927, "trialdata": {"revealed_states": [], "clicked_states": ["5", "9", "10"], "num_clicks_accrued": [0, 0, 0, 0, 0, 0, 0, 0, 0, 0, 0, 0, 0], "stateRewards": ["", -1, 4, -6, -5, -22, -38, -38, -2, -56, 88, 14, -1, -1, -7, -6, 61, -60, 21, 11, 57, 31, -30, -2, -2, 6, -9, -44, -70, -44, -15, 34, 16, -78], "withholdReward": false, "trial_id": "mdp_trial_22", "block": "test", "trialIndex": 25, "score": 76.55, "costs": -6.449999999999999, "simulationMode": [null, null, null, null, null], "rewards": [-1, 4, -6, -2, 88], "path": ["0", "0", "1", "2", "3", "8", "10"], "rt": [13690, 68, 133, 1128, 276], "actions": ["up", "up", "up", "left", "down"], "actionTimes": [15419, 15994, 16627, 18256, 19039], "queries": {"click": {"state": {"target": ["5", "9", "10"], "time": [3392, 7408, 10695]}, "edge": {"target": [], "time": []}}, "mouseover": {"state": {"target": ["1", "2", "3", "5", "4", "9", "8", "10", "2", "7", "3"], "time": [2275, 2492, 2560, 3114, 3981, 6917, 7927, 8289, 11353, 11663, 14515]}, "edge": {"target": [], "time": []}}, "mouseout": {"state": {"target": ["20", "14", "0", "23", "24", "24", "23", "0", "1", "2", "3", "5", "4", "9", "8", "10", "2", "7", "3", "6"], "time": [301, 386, 653, 687, 737, 853, 1053, 2173, 2342, 2541, 2592, 3953, 4391, 7888, 8084, 11232, 11491, 14346, 20525, 20728]}, "edge": {"target": [], "time": []}}}, "displayed_time": "19.55", "trialTime": 23055, "trial_type": "mouselab-mdp", "trial_index": 36, "time_elapsed": 1900696, "internal_node_id": "0.0-4.0-1.0-21.0"}}, {"uniqueid": "w47054978:a92001354", "current_trial": 37, "dateTime": 1691487415798, "trialdata": {"revealed_states": [], "clicked_states": ["31", "32", "33", "29", "28", "9", "11", "27", "10", "5", "6", "7", "16", "17", "20", "21"], "num_clicks_accrued": [0, 0, 0, 0, 0, 0, 0, 0, 0, 0, 0, 0, 0], "stateRewards": ["", 2, -3, 5, 11, -79, 54, 11, -9, -78, 33, 22, -2, -1, 2, 14, 43, 34, 1, 10, 49, -65, 39, -1, 1, -1, 3, -16, -2, 11, 2, 12, 48, -65], "withholdReward": false, "trial_id": "mdp_trial_23", "block": "test", "trialIndex": 26, "score": 34.60000000000001, "costs": -34.39999999999999, "simulationMode": [null, null, null, null, null], "rewards": [2, -3, 5, 11, 54], "path": ["0", "0", "1", "2", "3", "4", "6"], "rt": [65497, 698, 337, 725, 378], "actions": ["up", "up", "up", "right", "right"], "actionTimes": [68126, 69327, 70165, 71392, 72276], "queries": {"click": {"state": {"target": ["31", "32", "33", "29", "28", "9", "11", "27", "10", "5", "6", "7", "16", "17", "20", "21"], "time": [4723, 8850, 13292, 17731, 21299, 25297, 29131, 32515, 35708, 39739, 43163, 46819, 50274, 53859, 57564, 61435]}, "edge": {"target": [], "time": []}}, "mouseover": {"state": {"target": ["23", "24", "31", "31", "30", "30", "32", "30", "33", "33", "25", "26", "29", "26", "28", "10", "8", "9", "11", "27", "10", "1", "10", "3", "5", "6", "7", "16", "16", "17", "17", "20", "20", "21", "22", "22", "13", "18"], "time": [3690, 3841, 3941, 4308, 8081, 8366, 8516, 12156, 12210, 12574, 16830, 17100, 17434, 20371, 20574, 24697, 24783, 24899, 28824, 29911, 33287, 33469, 34587, 39129, 39378, 41914, 43975, 47222, 48048, 50754, 51892, 56680, 57247, 61190, 65414, 65547, 66316, 66583]}, "edge": {"target": [], "time": []}}, "mouseout": {"state": {"target": ["16", "23", "0", "23", "24", "31", "31", "30", "30", "32", "30", "33", "33", "25", "26", "29", "29", "26", "28", "10", "8", "9", "11", "11", "27", "10", "1", "10", "10", "3", "5", "6", "7", "16", "16", "17", "17", "20", "20", "20", "21", "22", "22", "13", "18"], "time": [947, 1450, 1668, 3822, 3924, 3958, 8064, 8149, 8467, 9290, 12190, 12242, 15683, 16864, 17368, 17849, 20332, 20527, 21710, 24731, 24833, 28673, 29252, 29578, 32918, 33412, 33788, 36899, 39027, 39145, 41870, 43456, 47115, 47276, 50538, 50878, 54196, 56697, 57682, 58307, 65264, 65464, 66266, 66366, 66617]}, "edge": {"target": [], "time": []}}}, "displayed_time": "72.78", "trialTime": 76258, "trial_type": "mouselab-mdp", "trial_index": 37, "time_elapsed": 1977568, "internal_node_id": "0.0-4.0-1.0-22.0"}}, {"uniqueid": "w47054978:a92001354", "current_trial": 38, "dateTime": 1691487464404, "trialdata": {"revealed_states": [], "clicked_states": ["17", "16", "20", "22", "21", "18", "33", "31"], "num_clicks_accrued": [0, 0, 0, 0, 0, 0, 0, 0, 0, 0, 0, 0, 0], "stateRewards": ["", -2, -2, -7, -13, -10, 49, -68, -1, 84, 70, 88, 1, 4, 4, 12, -57, 25, 30, 8, -1, -77, 57, 2, 3, 2, 3, -18, -80, 23, -15, -41, 70, 11], "withholdReward": false, "trial_id": "mdp_trial_24", "block": "test", "trialIndex": 27, "score": 56.8, "costs": -17.2, "simulationMode": [null, null, null, null, null], "rewards": [1, 4, 4, 8, 57], "path": ["0", "0", "12", "13", "14", "19", "22"], "rt": [36808, 6, 81, 645, 1072], "actions": ["right", "right", "right", "down", "left"], "actionTimes": [38517, 39032, 39625, 40773, 42352], "queries": {"click": {"state": {"target": ["17", "16", "20", "22", "21", "18", "33", "31"], "time": [2924, 6948, 11933, 16076, 20157, 25645, 29459, 33403]}, "edge": {"target": [], "time": []}}, "mouseover": {"state": {"target": ["12", "13", "14", "17", "16", "18", "14", "20", "19", "22", "21", "22", "18", "18", "32", "33", "30", "31", "19"], "time": [2245, 2267, 2300, 2629, 6655, 10212, 11147, 11232, 15372, 15507, 19031, 24190, 25142, 25277, 27642, 29166, 32792, 32858, 37065]}, "edge": {"target": [], "time": []}}, "mouseout": {"state": {"target": ["15", "18", "12", "13", "14", "17", "16", "18", "14", "20", "19", "22", "21", "22", "18", "18", "32", "33", "30", "31", "19"], "time": [525, 624, 2263, 2284, 2331, 6319, 7395, 11096, 11198, 15322, 15407, 18882, 23837, 24524, 25176, 26939, 27696, 32774, 32824, 34332, 37217]}, "edge": {"target": [], "time": []}}}, "displayed_time": "42.85", "trialTime": 47985, "trial_type": "mouselab-mdp", "trial_index": 38, "time_elapsed": 2026174, "internal_node_id": "0.0-4.0-1.0-23.0"}}, {"uniqueid": "w47054978:a92001354", "current_trial": 39, "dateTime": 1691487484500, "trialdata": {"revealed_states": [], "clicked_states": ["5"], "num_clicks_accrued": [0, 0, 0, 0, 0, 0, 0, 0, 0, 0, 0, 0, 0], "stateRewards": ["", -1, 3, -4, -14, 78, 67, 2, 13, -32, 28, 39, -2, 1, -4, -4, -4, -42, -86, 11, 64, -29, -32, -1, -4, 2, -7, 5, 68, -61, 2, -21, 85, 50], "withholdReward": false, "trial_id": "mdp_trial_25", "block": "test", "trialIndex": 28, "score": 59.85, "costs": -2.15, "simulationMode": [null, null, null, null, null], "rewards": [-1, 3, -4, -14, 78], "path": ["0", "0", "1", "2", "3", "4", "5"], "rt": [5951, 49, 65, 991, 869], "actions": ["up", "up", "up", "right", "up"], "actionTimes": [7327, 7886, 8465, 9962, 11340], "queries": {"click": {"state": {"target": ["5"], "time": [2774]}, "edge": {"target": [], "time": []}}, "mouseover": {"state": {"target": ["7", "5", "3"], "time": [2163, 2550, 5517]}, "edge": {"target": [], "time": []}}, "mouseout": {"state": {"target": ["18", "23", "23", "7", "5", "3", "4", "6", "12"], "time": [310, 378, 711, 2213, 5493, 5541, 14338, 17025, 17095]}, "edge": {"target": [], "time": []}}}, "displayed_time": "15.38", "trialTime": 19451, "trial_type": "mouselab-mdp", "trial_index": 39, "time_elapsed": 2046269, "internal_node_id": "0.0-4.0-1.0-24.0"}}, {"uniqueid": "w47054978:a92001354", "current_trial": 40, "dateTime": 1691487534043, "trialdata": {"revealed_states": [], "clicked_states": ["5", "9", "11", "10", "7", "6", "17", "20", "21"], "num_clicks_accrued": [0, 0, 0, 0, 0, 0, 0, 0, 0, 0, 0, 0, 0], "stateRewards": ["", -2, -3, -7, 7, -54, -69, -4, -14, -77, 22, 40, -2, -1, 5, 6, -35, 50, -60, 10, -28, 75, 57, 1, -4, -2, 2, 68, 34, -18, 12, 3, -21, -43], "withholdReward": false, "trial_id": "mdp_trial_26", "block": "test", "trialIndex": 29, "score": 67.65, "costs": -19.349999999999998, "simulationMode": [null, null, null, null, null], "rewards": [-2, -1, 5, 10, 75], "path": ["0", "0", "12", "13", "14", "19", "21"], "rt": [37722, 367, 366, 839, 215], "actions": ["right", "right", "right", "down", "down"], "actionTimes": [39081, 39962, 40830, 42191, 42918], "queries": {"click": {"state": {"target": ["5", "9", "11", "10", "7", "6", "17", "20", "21"], "time": [2971, 6843, 10483, 13859, 17186, 20706, 24472, 28579, 33899]}, "edge": {"target": [], "time": []}}, "mouseover": {"state": {"target": ["5", "9", "11", "10", "2", "7", "6", "6", "17", "20", "14", "15", "12", "0", "23", "24", "21"], "time": [2682, 6189, 10264, 12861, 14199, 14750, 17692, 17917, 24209, 28166, 32009, 32442, 32628, 32648, 32670, 32707, 33462]}, "edge": {"target": [], "time": []}}, "mouseout": {"state": {"target": ["0", "5", "9", "11", "10", "2", "7", "6", "6", "17", "20", "14", "15", "12", "0", "23", "24", "21"], "time": [809, 5989, 7214, 11619, 14177, 14222, 17556, 17732, 21124, 24850, 31941, 32076, 32543, 32644, 32665, 32690, 32724, 35076]}, "edge": {"target": [], "time": []}}}, "displayed_time": "43.42", "trialTime": 48887, "trial_type": "mouselab-mdp", "trial_index": 40, "time_elapsed": 2095813, "internal_node_id": "0.0-4.0-1.0-25.0"}}, {"uniqueid": "w47054978:a92001354", "current_trial": 41, "dateTime": 1691487566921, "trialdata": {"revealed_states": [], "clicked_states": ["9", "11", "10", "28"], "num_clicks_accrued": [0, 0, 0, 0, 0, 0, 0, 0, 0, 0, 0, 0, 0], "stateRewards": ["", 2, 4, -6, -13, -75, -81, 30, 7, 5, 59, -65, -1, -1, 7, 14, -38, 36, -41, 1, -54, -5, 64, 2, -1, 5, 6, -19, 79, 11, 16, -33, -50, 58], "withholdReward": false, "trial_id": "mdp_trial_27", "block": "test", "trialIndex": 30, "score": 82.4, "costs": -8.6, "simulationMode": [null, null, null, null, null], "rewards": [2, -1, 5, 6, 79], "path": ["0", "0", "23", "24", "25", "26", "28"], "rt": [21106, 220, 344, 793, 803], "actions": ["left", "left", "left", "up", "right"], "actionTimes": [22677, 23404, 24244, 25546, 26874], "queries": {"click": {"state": {"target": ["9", "11", "10", "28"], "time": [2937, 7248, 12232, 17456]}, "edge": {"target": [], "time": []}}, "mouseover": {"state": {"target": ["1", "2", "8", "9", "26", "27", "11", "28", "24", "10", "28", "28", "10", "24", "28"], "time": [2267, 2317, 2385, 2636, 6725, 6845, 6928, 7737, 7802, 8957, 11154, 11370, 11904, 13054, 13239]}, "edge": {"target": [], "time": []}}, "mouseout": {"state": {"target": ["14", "13", "12", "0", "0", "1", "2", "8", "9", "26", "27", "11", "28", "24", "10", "28", "28", "10", "24", "28", "0"], "time": [530, 563, 580, 786, 1064, 2287, 2337, 2419, 4394, 6794, 6877, 7657, 7778, 7880, 11086, 11170, 11853, 12613, 13189, 19586, 28985]}, "edge": {"target": [], "time": []}}}, "displayed_time": "27.38", "trialTime": 32251, "trial_type": "mouselab-mdp", "trial_index": 41, "time_elapsed": 2128691, "internal_node_id": "0.0-4.0-1.0-26.0"}}, {"uniqueid": "w47054978:a92001354", "current_trial": 42, "dateTime": 1691487596132, "trialdata": {"revealed_states": [], "clicked_states": ["21", "32", "31", "33"], "num_clicks_accrued": [0, 0, 0, 0, 0, 0, 0, 0, 0, 0, 0, 0, 0], "stateRewards": ["", -2, -1, -2, -15, 87, 57, 29, -10, 77, -80, -7, 1, -3, 6, 14, -11, 87, -59, 4, -71, 16, -11, 2, 2, -7, 2, -47, 61, 50, 14, -20, 17, 81], "withholdReward": false, "trial_id": "mdp_trial_28", "block": "test", "trialIndex": 31, "score": 83.4, "costs": -8.6, "simulationMode": [null, null, null, null, null], "rewards": [2, 2, -7, 14, 81], "path": ["0", "0", "23", "24", "25", "30", "33"], "rt": [18174, 212, 256, 650, 910], "actions": ["left", "left", "left", "down", "left"], "actionTimes": [19553, 20266, 21027, 22193, 23601], "queries": {"click": {"state": {"target": ["21", "32", "31", "33"], "time": [2813, 7286, 10916, 14550]}, "edge": {"target": [], "time": []}}, "mouseover": {"state": {"target": ["0", "22", "21", "32", "31", "33", "29", "25", "24", "19", "20", "22"], "time": [1993, 2145, 2445, 6771, 10644, 14169, 15267, 15914, 15943, 16005, 16033, 18026]}, "edge": {"target": [], "time": []}}, "mouseout": {"state": {"target": ["0", "0", "22", "21", "32", "31", "33", "29", "25", "24", "19", "20", "22", "19"], "time": [789, 2095, 2161, 3426, 8610, 13852, 15029, 15456, 15939, 15966, 16029, 16164, 24889, 25107]}, "edge": {"target": [], "time": []}}}, "displayed_time": "24.11", "trialTime": 28539, "trial_type": "mouselab-mdp", "trial_index": 42, "time_elapsed": 2157901, "internal_node_id": "0.0-4.0-1.0-27.0"}}, {"uniqueid": "w47054978:a92001354", "current_trial": 43, "dateTime": 1691487643187, "trialdata": {"revealed_states": [], "clicked_states": ["5", "9", "11", "10", "7", "27"], "num_clicks_accrued": [0, 0, 0, 0, 0, 0, 0, 0, 0, 0, 0, 0, 0], "stateRewards": ["", -2, 2, 2, -6, 9, 37, 50, -13, -7, -18, -75, -2, -4, 4, 7, 23, -57, -66, -7, -81, -48, -76, 1, 1, -8, 1, 51, -2, 70, 14, 59, 71, -37], "withholdReward": false, "trial_id": "mdp_trial_29", "block": "test", "trialIndex": 32, "score": 33.1, "costs": -12.9, "simulationMode": [null, null, null, null, null], "rewards": [-2, 2, 2, -6, 50], "path": ["0", "0", "1", "2", "3", "4", "7"], "rt": [35759, 26, 50, 1231, 500], "actions": ["up", "up", "up", "right", "down"], "actionTimes": [37849, 38401, 38959, 40733, 41746], "queries": {"click": {"state": {"target": ["5", "9", "11", "10", "7", "27"], "time": [4079, 7678, 10928, 14536, 18014, 21347]}, "edge": {"target": [], "time": []}}, "mouseover": {"state": {"target": ["7", "4", "5", "9", "11", "10", "7", "1", "24", "25", "29", "29", "27", "29", "29"], "time": [2997, 3065, 3266, 7373, 8024, 12031, 16727, 18347, 18473, 18579, 18728, 18944, 20192, 25141, 27363]}, "edge": {"target": [], "time": []}}, "mouseout": {"state": {"target": ["0", "7", "4", "5", "9", "11", "10", "7", "1", "24", "25", "29", "29", "27", "29", "29", "33", "30"], "time": [2578, 3031, 3201, 4922, 7982, 11239, 14954, 18267, 18398, 18533, 18609, 18846, 19867, 22528, 27044, 44594, 44932, 45017]}, "edge": {"target": [], "time": []}}}, "displayed_time": "42.25", "trialTime": 46419, "trial_type": "mouselab-mdp", "trial_index": 43, "time_elapsed": 2204956, "internal_node_id": "0.0-4.0-1.0-28.0"}}, {"uniqueid": "w47054978:a92001354", "current_trial": 44, "dateTime": 1691487671909, "trialdata": {"revealed_states": [], "clicked_states": ["28", "31", "27", "29"], "num_clicks_accrued": [0, 0, 0, 0, 0, 0, 0, 0, 0, 0, 0, 0, 0], "stateRewards": ["", 1, 2, -6, -13, -51, 22, -4, -12, -44, -12, 6, -2, -2, -2, -14, -46, -4, -77, -2, 36, -79, 41, 2, -4, 2, -6, -55, 59, 70, -5, 39, -19, 24], "withholdReward": false, "trial_id": "mdp_trial_30", "block": "test", "trialIndex": 33, "score": 55.4, "costs": -8.6, "simulationMode": [null, null, null, null, null], "rewards": [2, -4, 2, -6, 70], "path": ["0", "0", "23", "24", "25", "26", "29"], "rt": [19836, 34, 30, 920, 731], "actions": ["left", "left", "left", "up", "left"], "actionTimes": [21069, 21641, 22194, 23639, 24882], "queries": {"click": {"state": {"target": ["28", "31", "27", "29"], "time": [3040, 7993, 12554, 15985]}, "edge": {"target": [], "time": []}}, "mouseover": {"state": {"target": ["23", "25", "29", "28", "25", "30", "31", "31", "30", "32", "26", "29", "27", "29", "33", "33"], "time": [1834, 1901, 2252, 2786, 5747, 7031, 7179, 7584, 10331, 10449, 11773, 11905, 12322, 15301, 17488, 17902]}, "edge": {"target": [], "time": []}}, "mouseout": {"state": {"target": ["0", "23", "25", "29", "28", "25", "30", "31", "31", "30", "32", "26", "29", "27", "27", "29", "33", "33", "21"], "time": [630, 1866, 1921, 2436, 5618, 6979, 7130, 7297, 10253, 10391, 11370, 11821, 12138, 12688, 14194, 17166, 17676, 26016, 26700]}, "edge": {"target": [], "time": []}}}, "displayed_time": "25.39", "trialTime": 27951, "trial_type": "mouselab-mdp", "trial_index": 44, "time_elapsed": 2233678, "internal_node_id": "0.0-4.0-1.0-29.0"}}, {"uniqueid": "w47054978:a92001354", "current_trial": 45, "dateTime": 1691487708311, "trialdata": {"revealed_states": [], "clicked_states": ["5", "6", "17", "20", "22", "18"], "num_clicks_accrued": [0, 0, 0, 0, 0, 0, 0, 0, 0, 0, 0, 0, 0], "stateRewards": ["", -1, 3, -7, 16, -32, -74, -48, 2, 10, 15, -30, 1, 1, -2, 10, 12, -83, 67, 13, -66, 47, 65, -2, 4, 2, -14, -8, -57, 24, 9, 65, 12, 46], "withholdReward": false, "trial_id": "mdp_trial_31", "block": "test", "trialIndex": 34, "score": 64.1, "costs": -12.9, "simulationMode": [null, null, null, null, null], "rewards": [1, 1, -2, 10, 67], "path": ["0", "0", "12", "13", "14", "15", "18"], "rt": [25773, 117, 235, 827, 832], "actions": ["right", "right", "right", "up", "left"], "actionTimes": [27103, 27729, 28460, 29787, 31128], "queries": {"click": {"state": {"target": ["5", "6", "17", "20", "22", "18"], "time": [2636, 6588, 10002, 13683, 18244, 22491]}, "edge": {"target": [], "time": []}}, "mouseover": {"state": {"target": ["1", "7", "4", "5", "6", "15", "17", "17", "20", "21", "22", "21", "22", "22", "12", "18", "12", "13"], "time": [1749, 1849, 1934, 2318, 6058, 7045, 7651, 9782, 13239, 14325, 15596, 17148, 17765, 17984, 21772, 22091, 25365, 26015]}, "edge": {"target": [], "time": []}}, "mouseout": {"state": {"target": ["12", "1", "7", "4", "5", "6", "15", "17", "17", "20", "21", "22", "21", "22", "22", "12", "18", "12", "13", "20"], "time": [329, 1798, 1884, 2118, 3544, 6942, 7084, 8566, 10273, 14002, 14849, 17047, 17698, 17799, 18808, 21908, 24987, 25398, 32277, 32349]}, "edge": {"target": [], "time": []}}}, "displayed_time": "31.63", "trialTime": 35628, "trial_type": "mouselab-mdp", "trial_index": 45, "time_elapsed": 2270080, "internal_node_id": "0.0-4.0-1.0-30.0"}}, {"uniqueid": "w47054978:a92001354", "current_trial": 46, "dateTime": 1691487750896, "trialdata": {"revealed_states": [], "clicked_states": ["22", "31", "20", "33", "32", "21", "17", "16"], "num_clicks_accrued": [0, 0, 0, 0, 0, 0, 0, 0, 0, 0, 0, 0, 0], "stateRewards": ["", -2, 2, -5, -6, 10, -66, -58, -10, -11, -63, -70, -1, -4, -5, 7, 66, -64, -43, -3, 45, -37, 4, -2, -2, -6, -4, -30, 33, 43, 15, -32, -65, -59], "withholdReward": false, "trial_id": "mdp_trial_32", "block": "test", "trialIndex": 35, "score": 45.8, "costs": -17.2, "simulationMode": [null, null, null, null, null], "rewards": [-1, -4, -5, 7, 66], "path": ["0", "0", "12", "13", "14", "15", "16"], "rt": [34076, 7, 35, 783, 418], "actions": ["right", "right", "right", "up", "up"], "actionTimes": [35221, 35754, 36298, 37583, 38505], "queries": {"click": {"state": {"target": ["22", "31", "20", "33", "32", "21", "17", "16"], "time": [2949, 6669, 10868, 15221, 18701, 22298, 26133, 29965]}, "edge": {"target": [], "time": []}}, "mouseover": {"state": {"target": ["0", "12", "13", "19", "22", "31", "32", "21", "20", "32", "33", "32", "21", "17", "16", "16", "18"], "time": [1938, 1989, 2027, 2240, 2674, 6348, 10055, 10273, 10675, 14399, 14982, 18256, 19275, 25792, 29345, 29746, 32637]}, "edge": {"target": [], "time": []}}, "mouseout": {"state": {"target": ["0", "0", "0", "12", "13", "19", "22", "31", "32", "21", "20", "20", "32", "33", "32", "21", "17", "16", "16", "16", "18", "14"], "time": [203, 519, 1972, 2023, 2092, 2574, 3546, 8977, 10240, 10292, 11351, 14331, 14449, 17914, 19017, 23516, 28658, 29378, 30109, 31243, 40099, 40184]}, "edge": {"target": [], "time": []}}}, "displayed_time": "39.02", "trialTime": 41879, "trial_type": "mouselab-mdp", "trial_index": 46, "time_elapsed": 2312665, "internal_node_id": "0.0-4.0-1.0-31.0"}}, {"uniqueid": "w47054978:a92001354", "current_trial": 47, "dateTime": 1691487790010, "trialdata": {"revealed_states": [], "clicked_states": ["5", "6", "9", "11", "10", "7"], "num_clicks_accrued": [0, 0, 0, 0, 0, 0, 0, 0, 0, 0, 0, 0, 0], "stateRewards": ["", -2, 4, -7, -3, -76, 39, -28, 10, 14, 12, 60, 2, -3, 6, -10, 88, -34, -41, -3, 72, -13, -56, 1, 3, 2, 8, -51, 23, -57, 1, 14, -46, -16], "withholdReward": false, "trial_id": "mdp_trial_33", "block": "test", "trialIndex": 36, "score": 52.1, "costs": -12.9, "simulationMode": [null, null, null, null, null], "rewards": [-2, 4, -7, 10, 60], "path": ["0", "0", "1", "2", "3", "8", "11"], "rt": [26474, 347, 65, 756, 29], "actions": ["up", "up", "up", "left", "left"], "actionTimes": [27653, 28508, 29081, 30336, 30877], "queries": {"click": {"state": {"target": ["5", "6", "9", "11", "10", "7"], "time": [2615, 6687, 10575, 14079, 19063, 23079]}, "edge": {"target": [], "time": []}}, "mouseover": {"state": {"target": ["1", "2", "5", "6", "4", "3", "8", "11", "9", "11", "10", "2", "7"], "time": [1800, 1870, 2352, 6409, 9801, 9918, 9988, 10052, 10286, 13576, 15412, 22476, 22760]}, "edge": {"target": [], "time": []}}, "mouseout": {"state": {"target": ["0", "1", "2", "5", "6", "4", "3", "8", "11", "9", "9", "11", "10", "2", "7"], "time": [564, 1851, 1891, 4108, 9752, 9869, 9985, 10007, 10202, 11426, 13211, 14691, 22159, 22510, 26551]}, "edge": {"target": [], "time": []}}}, "displayed_time": "31.41", "trialTime": 38418, "trial_type": "mouselab-mdp", "trial_index": 47, "time_elapsed": 2351779, "internal_node_id": "0.0-4.0-1.0-32.0"}}, {"uniqueid": "w47054978:a92001354", "current_trial": 48, "dateTime": 1691487838730, "trialdata": {"revealed_states": [], "clicked_states": ["5", "9", "10", "7", "17", "16", "18", "21", "20", "31"], "num_clicks_accrued": [0, 0, 0, 0, 0, 0, 0, 0, 0, 0, 0, 0, 0], "stateRewards": ["", 1, 1, -5, 8, -6, 45, 16, -6, -7, -22, -38, -1, -4, 8, -11, -16, 21, -45, -15, -59, -32, 42, -1, 3, 6, 11, -7, 34, -27, -8, 85, 43, -9], "withholdReward": false, "trial_id": "mdp_trial_34", "block": "test", "trialIndex": 37, "score": 63.5, "costs": -21.499999999999996, "simulationMode": [null, null, null, null, null], "rewards": [-1, 3, 6, -8, 85], "path": ["0", "0", "23", "24", "25", "30", "31"], "rt": [38160, 489, 328, 588, 410], "actions": ["left", "left", "left", "down", "right"], "actionTimes": [39930, 40933, 41771, 42871, 43790], "queries": {"click": {"state": {"target": ["5", "9", "10", "7", "17", "16", "18", "21", "20", "31"], "time": [3082, 6935, 11588, 15323, 18755, 22052, 25298, 28570, 32051, 35243]}, "edge": {"target": [], "time": []}}, "mouseover": {"state": {"target": ["1", "7", "5", "9", "11", "11", "10", "2", "7", "15", "17", "16", "18", "18", "19", "21", "20", "19", "31", "30"], "time": [2275, 2343, 2845, 6566, 10225, 10676, 11277, 14820, 14919, 17353, 18325, 19722, 22697, 23428, 25668, 26082, 29297, 32441, 34674, 38319]}, "edge": {"target": [], "time": []}}, "mouseout": {"state": {"target": ["16", "24", "23", "1", "7", "5", "5", "9", "11", "11", "10", "2", "7", "15", "17", "16", "18", "18", "19", "21", "20", "19", "31", "30", "31"], "time": [754, 972, 1056, 2293, 2479, 3227, 6517, 7476, 10243, 11110, 14801, 14839, 15883, 17391, 19398, 22298, 22856, 25550, 25710, 28924, 32398, 32489, 37778, 38516, 38616]}, "edge": {"target": [], "time": []}}}, "displayed_time": "44.31", "trialTime": 47967, "trial_type": "mouselab-mdp", "trial_index": 48, "time_elapsed": 2400499, "internal_node_id": "0.0-4.0-1.0-33.0"}}, {"uniqueid": "w47054978:a92001354", "current_trial": 49, "dateTime": 1691487881093, "trialdata": {"revealed_states": [], "clicked_states": ["27", "10", "7", "16", "17", "5", "6", "9"], "num_clicks_accrued": [0, 0, 0, 0, 0, 0, 0, 0, 0, 0, 0, 0, 0], "stateRewards": ["", 2, -1, -1, 7, 11, -40, -22, -2, 69, 37, 8, -2, 4, -8, -12, -2, -72, -3, -12, 17, 63, 12, 1, 3, -7, 6, 25, 61, 61, -9, 28, -17, 27], "withholdReward": false, "trial_id": "mdp_trial_35", "block": "test", "trialIndex": 38, "score": 49.8, "costs": -17.2, "simulationMode": [null, null, null, null, null], "rewards": [2, -1, -1, -2, 69], "path": ["0", "0", "1", "2", "3", "8", "9"], "rt": [33891, 317, 139, 780, 340], "actions": ["up", "up", "up", "left", "up"], "actionTimes": [34915, 35743, 36398, 37674, 38539], "queries": {"click": {"state": {"target": ["27", "10", "7", "16", "17", "5", "6", "9"], "time": [3191, 7232, 10864, 14767, 18327, 22151, 26007, 29927]}, "edge": {"target": [], "time": []}}, "mouseover": {"state": {"target": ["1", "2", "3", "11", "27", "2", "7", "2", "10", "2", "7", "16", "17", "17", "19", "13", "18", "7", "4", "5", "6", "4", "3", "9", "11"], "time": [1850, 1903, 1969, 2285, 2852, 6461, 6498, 6762, 6945, 9589, 10402, 14461, 17203, 17478, 19012, 20045, 20564, 21441, 21591, 21893, 25698, 29257, 29325, 29491, 33181]}, "edge": {"target": [], "time": []}}, "mouseout": {"state": {"target": ["0", "1", "2", "3", "11", "27", "2", "7", "2", "10", "2", "7", "7", "16", "16", "17", "17", "19", "13", "18", "7", "4", "5", "6", "4", "3", "9", "11", "7", "12"], "time": [447, 1883, 1936, 2018, 2402, 6427, 6495, 6661, 6895, 9544, 10352, 11004, 14292, 14907, 17147, 17237, 18698, 19983, 20071, 20622, 21508, 21808, 25016, 29223, 29291, 29375, 30659, 39882, 40063, 40179]}, "edge": {"target": [], "time": []}}}, "displayed_time": "39.05", "trialTime": 41590, "trial_type": "mouselab-mdp", "trial_index": 49, "time_elapsed": 2442862, "internal_node_id": "0.0-4.0-1.0-34.0"}}, {"uniqueid": "w47054978:a92001354", "current_trial": 50, "dateTime": 1691487933260, "trialdata": {"revealed_states": [], "clicked_states": ["32", "31", "27", "29", "33", "28", "9", "5", "6", "16", "17"], "num_clicks_accrued": [0, 0, 0, 0, 0, 0, 0, 0, 0, 0, 0, 0, 0], "stateRewards": ["", -1, -4, -6, -15, 21, -67, -63, 9, 51, 69, -14, -1, 3, 8, -8, 39, 72, 63, 15, 19, 47, 15, 1, 4, 5, 16, -18, 34, 35, -14, -80, 40, 1], "withholdReward": false, "trial_id": "mdp_trial_36", "block": "test", "trialIndex": 39, "score": 50.35000000000001, "costs": -23.649999999999995, "simulationMode": [null, null, null, null, null], "rewards": [-1, 3, 8, -8, 72], "path": ["0", "0", "12", "13", "14", "15", "17"], "rt": [42788, 14, 21, 832, 767], "actions": ["right", "right", "right", "up", "right"], "actionTimes": [44336, 44862, 45401, 46746, 48021], "queries": {"click": {"state": {"target": ["32", "31", "27", "29", "33", "28", "9", "5", "6", "16", "17"], "time": [2764, 6867, 11331, 15156, 18756, 22012, 25139, 29101, 32428, 35827, 39180]}, "edge": {"target": [], "time": []}}, "mouseover": {"state": {"target": ["0", "32", "31", "30", "33", "29", "27", "26", "29", "33", "25", "24", "28", "8", "9", "5", "6", "6", "16", "16", "17", "17", "20"], "time": [2020, 2220, 5404, 10270, 10472, 10626, 11022, 14594, 14879, 18536, 19589, 19845, 20203, 22931, 23117, 26616, 29634, 30317, 34028, 34321, 36289, 36541, 40880]}, "edge": {"target": [], "time": []}}, "mouseout": {"state": {"target": ["20", "19", "0", "32", "31", "30", "33", "29", "27", "26", "29", "33", "25", "24", "28", "8", "9", "5", "5", "6", "6", "16", "16", "17", "17", "20"], "time": [432, 550, 2088, 3498, 10235, 10304, 10521, 10805, 12947, 14696, 15700, 18895, 19613, 19888, 22332, 23054, 26517, 29221, 29571, 29723, 33985, 34092, 36113, 36438, 39522, 49498]}, "edge": {"target": [], "time": []}}}, "displayed_time": "48.55", "trialTime": 51474, "trial_type": "mouselab-mdp", "trial_index": 50, "time_elapsed": 2495029, "internal_node_id": "0.0-4.0-1.0-35.0"}}, {"uniqueid": "w47054978:a92001354", "current_trial": 51, "dateTime": 1691487965762, "trialdata": {"revealed_states": [], "clicked_states": ["9", "31"], "num_clicks_accrued": [0, 0, 0, 0, 0, 0, 0, 0, 0, 0, 0, 0, 0], "stateRewards": ["", 2, 3, 8, 14, 69, -27, 17, 2, -71, -65, -10, 2, -3, 7, 8, 65, -10, 65, -12, 73, -12, 13, -2, -2, 6, 10, -79, -69, -18, 10, -85, 67, 74], "withholdReward": false, "trial_id": "mdp_trial_37", "block": "test", "trialIndex": 40, "score": -71.3, "costs": -4.3, "simulationMode": [null, null, null, null, null], "rewards": [-2, -2, 6, 10, -79], "path": ["0", "0", "23", "24", "25", "26", "27"], "rt": [19179, 120, 419, 778, 449], "actions": ["left", "left", "left", "up", "up"], "actionTimes": [20808, 21433, 22353, 23631, 24584], "queries": {"click": {"state": {"target": ["9", "31"], "time": [2957, 6709]}, "edge": {"target": [], "time": []}}, "mouseover": {"state": {"target": ["2", "3", "9", "31", "12", "13", "13", "32", "29", "27"], "time": [2467, 2571, 2686, 6493, 10184, 10336, 10552, 10619, 11521, 12239]}, "edge": {"target": [], "time": []}}, "mouseout": {"state": {"target": ["20", "19", "13", "2", "3", "9", "31", "12", "13", "13", "32", "29", "27", "18"], "time": [113, 147, 281, 2517, 2636, 3369, 7179, 10217, 10385, 10586, 10655, 12005, 25983, 26085]}, "edge": {"target": [], "time": []}}}, "displayed_time": "25.09", "trialTime": 31802, "trial_type": "mouselab-mdp", "trial_index": 51, "time_elapsed": 2527531, "internal_node_id": "0.0-4.0-1.0-36.0"}}, {"uniqueid": "w47054978:a92001354", "current_trial": 52, "dateTime": 1691488016352, "trialdata": {"revealed_states": [], "clicked_states": ["21", "17", "20", "16", "18", "22", "31", "32", "33", "29", "27"], "num_clicks_accrued": [0, 0, 0, 0, 0, 0, 0, 0, 0, 0, 0, 0, 0], "stateRewards": ["", -1, 2, -6, 6, 43, 78, 78, -2, 55, -29, -17, -2, -4, 1, -15, 13, 7, -79, 8, -28, -68, 36, -1, -3, 3, -16, 84, -18, 87, 10, 32, 13, -81], "withholdReward": false, "trial_id": "mdp_trial_38", "block": "test", "trialIndex": 41, "score": 46.35000000000001, "costs": -23.649999999999995, "simulationMode": [null, null, null, null, null], "rewards": [-1, -3, 3, -16, 87], "path": ["0", "0", "23", "24", "25", "26", "29"], "rt": [38578, 365, 340, 783, 565], "actions": ["left", "left", "left", "up", "left"], "actionTimes": [39469, 40352, 41217, 42502, 43570], "queries": {"click": {"state": {"target": ["21", "17", "20", "16", "18", "22", "31", "32", "33", "29", "27"], "time": [2490, 6313, 9377, 12377, 15434, 18594, 22312, 25424, 28530, 31610, 34690]}, "edge": {"target": [], "time": []}}, "mouseover": {"state": {"target": ["21", "20", "17", "20", "16", "16", "18", "13", "22", "31", "32", "33", "29", "27", "27"], "time": [2283, 4061, 6008, 7306, 9858, 10605, 13397, 15985, 16634, 19573, 23089, 25961, 29135, 32142, 32447]}, "edge": {"target": [], "time": []}}, "mouseout": {"state": {"target": ["0", "21", "20", "17", "20", "16", "16", "18", "13", "22", "31", "32", "33", "29", "27", "27", "10", "12", "21"], "time": [129, 3728, 5774, 7205, 9547, 10151, 12929, 15884, 16028, 18911, 22878, 25583, 28833, 32057, 32168, 44787, 44872, 44921, 45004]}, "edge": {"target": [], "time": []}}}, "displayed_time": "44.07", "trialTime": 49708, "trial_type": "mouselab-mdp", "trial_index": 52, "time_elapsed": 2578122, "internal_node_id": "0.0-4.0-1.0-37.0"}}, {"uniqueid": "w47054978:a92001354", "current_trial": 53, "dateTime": 1691488048056, "trialdata": {"revealed_states": [], "clicked_states": ["9", "10", "7", "6", "5", "11"], "num_clicks_accrued": [0, 0, 0, 0, 0, 0, 0, 0, 0, 0, 0, 0, 0], "stateRewards": ["", -1, 1, 3, -8, -23, -15, -14, -11, -23, 58, 68, 1, 3, 5, 12, -17, -41, -7, -10, -4, 82, 10, 1, 4, -4, 11, 73, 55, -55, -1, -86, -86, 54], "withholdReward": false, "trial_id": "mdp_trial_39", "block": "test", "trialIndex": 42, "score": 47.1, "costs": -12.9, "simulationMode": [null, null, null, null, null], "rewards": [-1, 1, 3, -11, 68], "path": ["0", "0", "1", "2", "3", "8", "11"], "rt": [22802, 461, 194, 699, 182], "actions": ["up", "up", "up", "left", "left"], "actionTimes": [24231, 25200, 25900, 27106, 27792], "queries": {"click": {"state": {"target": ["9", "10", "7", "6", "5", "11"], "time": [2662, 5942, 9442, 12710, 15974, 19278]}, "edge": {"target": [], "time": []}}, "mouseover": {"state": {"target": ["1", "2", "3", "9", "9", "8", "10", "1", "7", "6", "4", "5", "3", "11", "27"], "time": [1835, 1890, 1957, 2070, 2417, 4669, 4902, 6807, 7198, 11469, 14292, 14510, 16646, 16992, 21293]}, "edge": {"target": [], "time": []}}, "mouseout": {"state": {"target": ["12", "1", "2", "3", "9", "9", "8", "10", "1", "7", "6", "6", "4", "5", "3", "11", "27", "1"], "time": [364, 1869, 1936, 1978, 2241, 4642, 4714, 6254, 6835, 9936, 12858, 13912, 14423, 16533, 16670, 21185, 29089, 29176]}, "edge": {"target": [], "time": []}}}, "displayed_time": "28.30", "trialTime": 30944, "trial_type": "mouselab-mdp", "trial_index": 53, "time_elapsed": 2609825, "internal_node_id": "0.0-4.0-1.0-38.0"}}, {"uniqueid": "w47054978:a92001354", "current_trial": 54, "dateTime": 1691488076584, "trialdata": {"revealed_states": [], "clicked_states": ["21", "22", "32", "31", "27"], "num_clicks_accrued": [0, 0, 0, 0, 0, 0, 0, 0, 0, 0, 0, 0, 0], "stateRewards": ["", -1, -4, -3, 1, -45, -67, -24, 14, 32, 22, 22, -1, 1, -5, -7, 72, 84, -79, -5, 19, -40, -2, -1, -2, 8, -3, 84, -25, -28, 11, 64, -66, 77], "withholdReward": false, "trial_id": "mdp_trial_40", "block": "test", "trialIndex": 43, "score": 75.25, "costs": -10.75, "simulationMode": [null, null, null, null, null], "rewards": [-1, -2, 8, -3, 84], "path": ["0", "0", "23", "24", "25", "26", "27"], "rt": [18316, 9, 907, 1403, 401], "actions": ["left", "left", "left", "up", "up"], "actionTimes": [19857, 20376, 21805, 23720, 24623], "queries": {"click": {"state": {"target": ["21", "22", "32", "31", "27"], "time": [2722, 6081, 9169, 12353, 15451]}, "edge": {"target": [], "time": []}}, "mouseover": {"state": {"target": ["21", "22", "22", "32", "30", "31", "25", "26", "27", "23"], "time": [2455, 3678, 4200, 6850, 9651, 9720, 13206, 13457, 13779, 16030]}, "edge": {"target": [], "time": []}}, "mouseout": {"state": {"target": ["15", "13", "12", "0", "21", "22", "22", "32", "30", "31", "25", "26", "27", "23"], "time": [617, 667, 786, 2039, 3413, 3768, 6196, 9192, 9675, 12659, 13433, 13545, 15984, 16056]}, "edge": {"target": [], "time": []}}}, "displayed_time": "25.13", "trialTime": 27793, "trial_type": "mouselab-mdp", "trial_index": 54, "time_elapsed": 2638353, "internal_node_id": "0.0-4.0-1.0-39.0"}}, {"uniqueid": "w47054978:a92001354", "current_trial": 55, "dateTime": 1691488177884, "trialdata": {"rt": 101291, "response": {"Q0": "$-2 to $2", "Q1": "$-4 to $4", "Q2": "$-16 to $16", "Q3": "The cost for clicking on nodes varied between nodes.", "Q4": "Very motivated"}, "question_order": [0, 1, 2, 3, 4], "trial_id": "final_quiz_control", "trial_type": "survey-multi-choice", "trial_index": 55, "time_elapsed": 2739654, "internal_node_id": "0.0-4.0-2.0"}}, {"uniqueid": "w47054978:a92001354", "current_trial": 56, "dateTime": 1691488323931, "trialdata": {"rt": 146034, "response": {"Q0": "I searched for the highest score at the edge of the web", "Q1": "Just searched end of the web for highest scores", "Q2": "The end amounts varied a lot"}, "trial_id": "self_report_control", "trial_type": "survey-text", "trial_index": 56, "time_elapsed": 2885701, "internal_node_id": "0.0-4.0-3.0"}}, {"uniqueid": "w47054978:a92001354", "current_trial": 57, "dateTime": 1691488403931, "trialdata": {"rt": 79992, "response": {"Q0": "Disagree", "Q1": "Neither disagree nor agree", "Q2": "Neither disagree nor agree", "Q3": "Disagree", "Q4": "Neither disagree nor agree", "Q5": "Agree", "Q6": "Disagree"}, "question_order": [0, 1, 2, 3, 4, 5, 6], "trial_id": "self_report_2", "trial_type": "survey-multi-choice", "trial_index": 57, "time_elapsed": 2965701, "internal_node_id": "0.0-4.0-4.0"}}, {"uniqueid": "w47054978:a92001354", "current_trial": 58, "dateTime": 1691488434260, "trialdata": {"rt": 30319, "response": {"gender": "male", "age": "66", "colorblind": "0", "effort": "0"}, "trial_type": "survey-html-form", "trial_index": 58, "time_elapsed": 2996029, "internal_node_id": "0.0-4.0-5.0"}}, {"uniqueid": "w47054978:a92001354", "current_trial": 59, "dateTime": 1691488472466, "trialdata": {"rt": 38195, "response": {"Q0": "no", "Q1": "no", "Q2": "none"}, "trial_type": "survey-text", "trial_index": 59, "time_elapsed": 3034236, "internal_node_id": "0.0-4.0-6.0"}}, {"uniqueid": "w47054978:a92001354", "current_trial": 60, "dateTime": 1691488482507, "trialdata": {"rt": 10034, "stimulus": "Press 'Finish HIT' in order to reach the completion code. Once the data has been saved, you will receive the code either in this window or in the original browser window where you started the experiment.\n", "response": 0, "trial_type": "html-button-response", "trial_index": 60, "time_elapsed": 3044276, "internal_node_id": "0.0-5.0"}}, {"uniqueid": "w47054978:a92001354", "current_trial": 61, "dateTime": 1691488483511, "trialdata": {"success": true, "trial_type": "fullscreen", "trial_index": 61, "time_elapsed": 3045281, "internal_node_id": "0.0-6.0"}}], "questiondata": {"params": {"CODE": "C6DMOQA6", "MIN_TIME": 14, "inspectCost": 1, "startTime": "Tue Aug 08 2023 11:03:56 GMT+0200 (South Africa Standard Time)", "bonusRate": 0.002, "variance": "1_2_4_8_44", "branching": "31123"}, "final_score": 2107.95}, "eventdata": [{"eventtype": "initialized", "value": null, "timestamp": 1691485435626, "interval": 0}, {"eventtype": "window_resize", "value": [1366, 674], "timestamp": 1691485435626, "interval": 0}, {"eventtype": "window_resize", "value": [1366, 674], "timestamp": 1691485436155, "interval": 529}, {"eventtype": "window_resize", "value": [1366, 768], "timestamp": 1691485447251, "interval": 11096}, {"eventtype": "focus", "value": "off", "timestamp": 1691486119402, "interval": 672151}, {"eventtype": "focus", "value": "on", "timestamp": 1691486119403, "interval": 1}, {"eventtype": "window_resize", "value": [1366, 674], "timestamp": 1691486119611, "interval": 208}, {"eventtype": "window_resize", "value": [1366, 768], "timestamp": 1691486121301, "interval": 1690}, {"eventtype": "window_resize", "value": [1366, 674], "timestamp": 1691488482739, "interval": 2361438}], "useragent": "Mozilla/5.0 (Windows NT 10.0; Win64; x64) AppleWebKit/537.36 (KHTML, like Gecko) Chrome/115.0.0.0 Safari/537.36 Edg/115.0.1901.188", "mode": "live", "id": "w47054978:a92001354", "status": "user data saved", "Beginhit": "2023-08-08 09:03:39.417779", "Beginexp": "2023-08-08 09:03:55.296874", "Endhit": "2023-08-08 09:54:31.79824", "psiturkStatus": 3, "browser": "<redacted>", "platform": "windows", "language": "en-US"}