{"condition": 0, "counterbalance": 0, "assignmentId": "a60572999", "workerId": "w37383663", "hitId": "h34602071", "currenttrial": 61, "bonus": 0, "data": [{"uniqueid": "w37383663:a60572999", "current_trial": 0, "dateTime": 1691144026659, "trialdata": {"success": true, "trial_type": "fullscreen", "trial_index": 0, "time_elapsed": 7568, "internal_node_id": "0.0-0.0"}}, {"uniqueid": "w37383663:a60572999", "current_trial": 1, "dateTime": 1691144050508, "trialdata": {"view_history": [{"page_index": 0, "viewing_time": 23820}], "rt": 23820, "trial_id": "exp_instructions_control", "trial_type": "instructions", "trial_index": 1, "time_elapsed": 31417, "internal_node_id": "0.0-1.0"}}, {"uniqueid": "w37383663:a60572999", "current_trial": 2, "dateTime": 1691144055239, "trialdata": {"success": true, "trial_type": "fullscreen", "trial_index": 2, "time_elapsed": 36149, "internal_node_id": "0.0-2.0-0.0"}}, {"uniqueid": "w37383663:a60572999", "current_trial": 3, "dateTime": 1691144359980, "trialdata": {"view_history": [{"page_index": 0, "viewing_time": 113811}, {"page_index": 1, "viewing_time": 99889}, {"page_index": 2, "viewing_time": 35127}, {"page_index": 3, "viewing_time": 55904}], "rt": 304732, "trial_id": "mouselab_instructions_1_control", "trial_type": "instructions", "trial_index": 3, "time_elapsed": 340890, "internal_node_id": "0.0-2.0-1.0"}}, {"uniqueid": "w37383663:a60572999", "current_trial": 4, "dateTime": 1691144382210, "trialdata": {"revealed_states": [], "clicked_states": [], "num_clicks_accrued": [0, 0, 0, 0, 0, 0, 0, 0, 0, 0, 0, 0, 0], "stateRewards": ["", 10, 10, 10, -10, 10, -10, -10, -10, 10, 10, 10, 10, 10, 10, 10, 10, 10, -10, -10, 10, -10, 10, 10, -10, 10, 10, 10, -10, 10, 10, 10, 10, 10], "withholdReward": false, "trial_id": "practice_1", "block": "test", "trialIndex": 0, "score": 53.5, "costs": 0, "simulationMode": [null, null, null, null, null], "rewards": [10, 10, 10, 10, 10], "path": ["0", "0", "12", "13", "14", "15", "17"], "rt": [1885, 191, 171, 1311, 548], "actions": ["right", "right", "right", "up", "right"], "actionTimes": [6741, 7460, 8204, 10094, 11255], "queries": {"click": {"state": {"target": [], "time": []}, "edge": {"target": [], "time": []}}, "mouseover": {"state": {"target": [], "time": []}, "edge": {"target": [], "time": []}}, "mouseout": {"state": {"target": ["20", "0"], "time": [3258, 18570]}, "edge": {"target": [], "time": []}}}, "displayed_time": "11.78", "trialTime": 20896, "trial_type": "mouselab-mdp", "trial_index": 4, "time_elapsed": 363119, "internal_node_id": "0.0-2.0-2.0-0.0"}}, {"uniqueid": "w37383663:a60572999", "current_trial": 5, "dateTime": 1691144400883, "trialdata": {"revealed_states": [], "clicked_states": [], "num_clicks_accrued": [0, 0, 0, 0, 0, 0, 0, 0, 0, 0, 0, 0, 0], "stateRewards": ["", 10, 10, -10, -10, 10, -10, -10, -10, -10, 10, 10, 10, -10, -10, 10, 10, -10, -10, -10, 10, 10, 10, 10, 10, -10, -10, 10, -10, 10, 10, 10, 10, -10], "withholdReward": false, "trial_id": "practice_2", "block": "test", "trialIndex": 1, "score": -6.5, "costs": 0, "simulationMode": [null, null, null, null, null], "rewards": [10, -10, -10, -10, 10], "path": ["0", "0", "12", "13", "14", "19", "20"], "rt": [1364, 1079, 81, 485, 283], "actions": ["right", "right", "right", "down", "right"], "actionTimes": [5318, 6940, 7623, 8702, 9597], "queries": {"click": {"state": {"target": [], "time": []}, "edge": {"target": [], "time": []}}, "mouseover": {"state": {"target": [], "time": []}, "edge": {"target": [], "time": []}}, "mouseout": {"state": {"target": ["0", "0"], "time": [2461, 16681]}, "edge": {"target": [], "time": []}}}, "displayed_time": "10.18", "trialTime": 17782, "trial_type": "mouselab-mdp", "trial_index": 5, "time_elapsed": 381792, "internal_node_id": "0.0-2.0-2.0-1.0"}}, {"uniqueid": "w37383663:a60572999", "current_trial": 6, "dateTime": 1691144462709, "trialdata": {"view_history": [{"page_index": 0, "viewing_time": 47498}, {"page_index": 1, "viewing_time": 14320}], "rt": 61818, "trial_id": "mouselab_instructions_2_control", "trial_type": "instructions", "trial_index": 6, "time_elapsed": 443618, "internal_node_id": "0.0-2.0-3.0"}}, {"uniqueid": "w37383663:a60572999", "current_trial": 7, "dateTime": 1691144550414, "trialdata": {"rt": 87681, "response": {"Q0": "The cost for clicking on nodes may vary between nodes.", "Q1": "The better I perform the higher my bonus will be.", "Q2": "No, the amount of cash at each node of the web may be different each time.", "Q3": "To click on the least number of nodes.", "Q4": "Only before moving the spider.", "Q5": "3 seconds"}, "question_order": [0, 1, 2, 3, 4, 5], "correct": {"Q0": "The cost for clicking on nodes may vary between nodes.", "Q1": "The better I perform the higher my bonus will be.", "Q2": "No, the amount of cash at each node of the web may be different each time.", "Q3": "To get the highest total score.", "Q4": "Only before moving the spider.", "Q5": "3 seconds"}, "trial_id": "mouselab_quiz_control", "trial_type": "survey-multi-choice", "trial_index": 7, "time_elapsed": 531324, "internal_node_id": "0.0-2.0-4.0"}}, {"uniqueid": "w37383663:a60572999", "current_trial": 8, "dateTime": 1691144557774, "trialdata": {"success": true, "trial_type": "fullscreen", "trial_index": 8, "time_elapsed": 538684, "internal_node_id": "0.0-2.1-0.1"}}, {"uniqueid": "w37383663:a60572999", "current_trial": 9, "dateTime": 1691144730741, "trialdata": {"view_history": [{"page_index": 0, "viewing_time": 48475}, {"page_index": 1, "viewing_time": 87879}, {"page_index": 2, "viewing_time": 10960}, {"page_index": 3, "viewing_time": 25648}], "rt": 172963, "trial_id": "mouselab_instructions_1_control", "trial_type": "instructions", "trial_index": 9, "time_elapsed": 711651, "internal_node_id": "0.0-2.1-1.1"}}, {"uniqueid": "w37383663:a60572999", "current_trial": 10, "dateTime": 1691144743693, "trialdata": {"revealed_states": [], "clicked_states": [], "num_clicks_accrued": [0, 0, 0, 0, 0, 0, 0, 0, 0, 0, 0, 0, 0], "stateRewards": ["", 10, 10, 10, -10, 10, -10, -10, -10, 10, 10, 10, 10, 10, 10, 10, 10, 10, -10, -10, 10, -10, 10, 10, -10, 10, 10, 10, -10, 10, 10, 10, 10, 10], "withholdReward": false, "trial_id": "practice_1", "block": "test", "trialIndex": 2, "score": 53.5, "costs": 0, "simulationMode": [null, null, null, null, null], "rewards": [10, 10, 10, 10, 10], "path": ["0", "0", "12", "13", "14", "15", "17"], "rt": [1625, 291, 511, 364, 65], "actions": ["right", "right", "right", "up", "right"], "actionTimes": [4203, 5093, 6215, 7181, 7842], "queries": {"click": {"state": {"target": [], "time": []}, "edge": {"target": [], "time": []}}, "mouseover": {"state": {"target": ["20"], "time": [3443]}, "edge": {"target": [], "time": []}}, "mouseout": {"state": {"target": ["0", "20"], "time": [3364, 3493]}, "edge": {"target": [], "time": []}}}, "displayed_time": "8.38", "trialTime": 12041, "trial_type": "mouselab-mdp", "trial_index": 10, "time_elapsed": 724603, "internal_node_id": "0.0-2.1-2.1-0.1"}}, {"uniqueid": "w37383663:a60572999", "current_trial": 11, "dateTime": 1691144756445, "trialdata": {"revealed_states": [], "clicked_states": [], "num_clicks_accrued": [0, 0, 0, 0, 0, 0, 0, 0, 0, 0, 0, 0, 0], "stateRewards": ["", 10, 10, -10, -10, 10, -10, -10, -10, -10, 10, 10, 10, -10, -10, 10, 10, -10, -10, -10, 10, 10, 10, 10, 10, -10, -10, 10, -10, 10, 10, 10, 10, -10], "withholdReward": false, "trial_id": "practice_2", "block": "test", "trialIndex": 3, "score": -6.5, "costs": 0, "simulationMode": [null, null, null, null, null], "rewards": [10, 10, -10, -10, -10], "path": ["0", "0", "1", "2", "3", "4", "6"], "rt": [1447, 455, 571, 491, 67], "actions": ["up", "up", "up", "right", "right"], "actionTimes": [4398, 5444, 6563, 7647, 8308], "queries": {"click": {"state": {"target": [], "time": []}, "edge": {"target": [], "time": []}}, "mouseover": {"state": {"target": [], "time": []}, "edge": {"target": [], "time": []}}, "mouseout": {"state": {"target": ["12", "0"], "time": [1864, 2272]}, "edge": {"target": [], "time": []}}}, "displayed_time": "8.86", "trialTime": 11871, "trial_type": "mouselab-mdp", "trial_index": 11, "time_elapsed": 737355, "internal_node_id": "0.0-2.1-2.1-1.1"}}, {"uniqueid": "w37383663:a60572999", "current_trial": 12, "dateTime": 1691144787229, "trialdata": {"view_history": [{"page_index": 0, "viewing_time": 27432}, {"page_index": 1, "viewing_time": 3345}], "rt": 30778, "trial_id": "mouselab_instructions_2_control", "trial_type": "instructions", "trial_index": 12, "time_elapsed": 768139, "internal_node_id": "0.0-2.1-3.1"}}, {"uniqueid": "w37383663:a60572999", "current_trial": 13, "dateTime": 1691144849539, "trialdata": {"rt": 62291, "response": {"Q0": "The cost for clicking on nodes may vary between nodes.", "Q1": "The better I perform the higher my bonus will be.", "Q2": "No, the amount of cash at each node of the web may be different each time.", "Q3": "To get the highest total score.", "Q4": "Only before moving the spider.", "Q5": "3 seconds"}, "question_order": [0, 1, 2, 3, 4, 5], "correct": {"Q0": "The cost for clicking on nodes may vary between nodes.", "Q1": "The better I perform the higher my bonus will be.", "Q2": "No, the amount of cash at each node of the web may be different each time.", "Q3": "To get the highest total score.", "Q4": "Only before moving the spider.", "Q5": "3 seconds"}, "trial_id": "mouselab_quiz_control", "trial_type": "survey-multi-choice", "trial_index": 13, "time_elapsed": 830448, "internal_node_id": "0.0-2.1-4.1"}}, {"uniqueid": "w37383663:a60572999", "current_trial": 14, "dateTime": 1691144888194, "trialdata": {"rt": 38627, "stimulus": "\n<h1> Get ready to start the game! </h1>\n\nThank you for reading the instructions. Get ready start with the 40 rounds of this game.\n<br><br>\nIf you need to take a break, feel free to take one after the end of a round, before continuing to the next one.\n<br><br>\nRemember, the more money the spider gets, the bigger your bonus will be!\n<br><br>\n<div style='text-align: center;'>Press <code>space</code> to begin.</div>\n\n<br><br>\n(If, at any point, the <code>space</code> key does not take you to the next page, click once on the text and try again.)", "response": " ", "trial_id": "mdp_ready", "trial_type": "html-keyboard-response", "trial_index": 14, "time_elapsed": 869103, "internal_node_id": "0.0-4.0-0.0"}}, {"uniqueid": "w37383663:a60572999", "current_trial": 15, "dateTime": 1691144912718, "trialdata": {"revealed_states": [], "clicked_states": [], "num_clicks_accrued": [0, 0, 0, 0, 0, 0, 0, 0, 0, 0, 0, 0, 0], "stateRewards": ["", 1, -4, 6, -3, 40, 76, -51, 5, -24, -63, 44, -2, -2, 8, 1, 76, -85, -58, 10, 59, 20, 11, -2, 3, -3, 3, -82, -10, 54, -7, -57, -6, -32], "withholdReward": false, "trial_id": "mdp_trial_1", "block": "test", "trialIndex": 4, "score": -80, "costs": 0, "simulationMode": [null, null, null, null, null], "rewards": [-2, -2, 8, 1, -85], "path": ["0", "0", "12", "13", "14", "15", "17"], "rt": [3134, 698, 194, 428, 18], "actions": ["right", "right", "right", "up", "right"], "actionTimes": [9377, 10670, 11468, 12481, 13133], "queries": {"click": {"state": {"target": [], "time": []}, "edge": {"target": [], "time": []}}, "mouseover": {"state": {"target": [], "time": []}, "edge": {"target": [], "time": []}}, "mouseout": {"state": {"target": ["10", "1", "0", "0", "0", "0", "15", "17", "15", "18"], "time": [2084, 2367, 2444, 3147, 4192, 16519, 17048, 17355, 17844, 17914]}, "edge": {"target": [], "time": []}}}, "displayed_time": "20.76", "trialTime": 23626, "trial_type": "mouselab-mdp", "trial_index": 15, "time_elapsed": 893627, "internal_node_id": "0.0-4.0-1.0-0.0"}}, {"uniqueid": "w37383663:a60572999", "current_trial": 16, "dateTime": 1691144936362, "trialdata": {"revealed_states": [], "clicked_states": ["12"], "num_clicks_accrued": [0, 0, 0, 0, 0, 0, 0, 0, 0, 0, 0, 0, 0], "stateRewards": ["", 2, -3, -8, 14, -7, -51, 73, 2, 36, 36, -43, -1, 3, -4, 1, 6, 87, -65, 15, 61, -42, -83, -1, 3, -2, -7, 30, -48, 35, 13, 26, 60, 78], "withholdReward": false, "trial_id": "mdp_trial_2", "block": "test", "trialIndex": 5, "score": 89.6, "costs": -1.4, "simulationMode": [null, null, null, null, null], "rewards": [-1, 3, -2, 13, 78], "path": ["0", "0", "23", "24", "25", "30", "33"], "rt": [4957, 164, 399, 384, 271], "actions": ["left", "left", "left", "down", "left"], "actionTimes": [9281, 9982, 10949, 11944, 12816], "queries": {"click": {"state": {"target": ["12"], "time": [7326]}, "edge": {"target": [], "time": []}}, "mouseover": {"state": {"target": ["0", "12", "12", "0", "23"], "time": [5277, 6978, 7127, 8221, 8322]}, "edge": {"target": [], "time": []}}, "mouseout": {"state": {"target": ["0", "12", "12", "0", "23", "31", "30", "33", "30", "31"], "time": [5811, 7020, 8148, 8316, 8698, 16483, 16732, 17442, 17508, 17693]}, "edge": {"target": [], "time": []}}}, "displayed_time": "19.26", "trialTime": 22753, "trial_type": "mouselab-mdp", "trial_index": 16, "time_elapsed": 917272, "internal_node_id": "0.0-4.0-1.0-1.0"}}, {"uniqueid": "w37383663:a60572999", "current_trial": 17, "dateTime": 1691144957530, "trialdata": {"revealed_states": [], "clicked_states": ["23"], "num_clicks_accrued": [0, 0, 0, 0, 0, 0, 0, 0, 0, 0, 0, 0, 0], "stateRewards": ["", -1, 2, 7, 8, 75, 67, -11, 6, 52, -17, 38, -1, 4, -8, 14, 74, -37, -17, -12, 52, 55, 71, -2, -1, -5, 2, 21, 6, -88, -14, 64, -61, -47], "withholdReward": false, "trial_id": "mdp_trial_3", "block": "test", "trialIndex": 6, "score": 89.6, "costs": -1.4, "simulationMode": [null, null, null, null, null], "rewards": [-1, 2, 7, 8, 75], "path": ["0", "0", "1", "2", "3", "4", "5"], "rt": [4039, 178, 199, 801, 919], "actions": ["up", "up", "up", "right", "up"], "actionTimes": [7115, 7830, 8619, 10001, 11535], "queries": {"click": {"state": {"target": ["23"], "time": [4861]}, "edge": {"target": [], "time": []}}, "mouseover": {"state": {"target": ["23", "23"], "time": [4281, 4701]}, "edge": {"target": [], "time": []}}, "mouseout": {"state": {"target": ["31", "0", "23", "23", "0", "1", "0"], "time": [1594, 4081, 4369, 5659, 16025, 16897, 17084]}, "edge": {"target": [], "time": []}}}, "displayed_time": "18.04", "trialTime": 20231, "trial_type": "mouselab-mdp", "trial_index": 17, "time_elapsed": 938440, "internal_node_id": "0.0-4.0-1.0-2.0"}}, {"uniqueid": "w37383663:a60572999", "current_trial": 18, "dateTime": 1691144980455, "trialdata": {"revealed_states": [], "clicked_states": ["1"], "num_clicks_accrued": [0, 0, 0, 0, 0, 0, 0, 0, 0, 0, 0, 0, 0], "stateRewards": ["", 1, 1, 6, -14, -40, 37, 16, -13, 33, -68, 49, 2, 4, 3, 6, 55, 27, 32, 10, -65, 20, -87, 2, 1, -6, -5, -42, 12, 29, -8, 16, 76, -33], "withholdReward": false, "trial_id": "mdp_trial_4", "block": "test", "trialIndex": 7, "score": 19.6, "costs": -1.4, "simulationMode": [null, null, null, null, null], "rewards": [2, 1, -6, -5, 29], "path": ["0", "0", "23", "24", "25", "26", "29"], "rt": [3817, 440, 420, 532, 548], "actions": ["left", "left", "left", "up", "left"], "actionTimes": [8078, 9070, 10055, 11206, 12302], "queries": {"click": {"state": {"target": ["1"], "time": [6205]}, "edge": {"target": [], "time": []}}, "mouseover": {"state": {"target": ["0", "23", "1"], "time": [5448, 5733, 5926]}, "edge": {"target": [], "time": []}}, "mouseout": {"state": {"target": ["0", "0", "0", "23", "1"], "time": [3423, 5311, 5504, 5853, 6629]}, "edge": {"target": [], "time": []}}}, "displayed_time": "19.22", "trialTime": 22043, "trial_type": "mouselab-mdp", "trial_index": 18, "time_elapsed": 961365, "internal_node_id": "0.0-4.0-1.0-3.0"}}, {"uniqueid": "w37383663:a60572999", "current_trial": 19, "dateTime": 1691145001626, "trialdata": {"revealed_states": [], "clicked_states": [], "num_clicks_accrued": [0, 0, 0, 0, 0, 0, 0, 0, 0, 0, 0, 0, 0], "stateRewards": ["", 1, -4, -6, 11, -20, 8, -30, 1, -38, 88, 42, 2, 3, 5, -12, -8, -74, 30, -8, 67, -19, 42, 2, -1, 4, 13, 50, -68, 2, -8, -15, 87, -46], "withholdReward": false, "trial_id": "mdp_trial_5", "block": "test", "trialIndex": 8, "score": -46, "costs": 0, "simulationMode": [null, null, null, null, null], "rewards": [1, -4, -6, 1, -38], "path": ["0", "0", "1", "2", "3", "8", "9"], "rt": [1472, 379, 336, 254, 120], "actions": ["up", "up", "up", "left", "up"], "actionTimes": [4632, 5618, 6514, 7389, 8112], "queries": {"click": {"state": {"target": [], "time": []}, "edge": {"target": [], "time": []}}, "mouseover": {"state": {"target": ["12"], "time": [3234]}, "edge": {"target": [], "time": []}}, "mouseout": {"state": {"target": ["0", "12", "0"], "time": [3213, 10461, 16726]}, "edge": {"target": [], "time": []}}}, "displayed_time": "17.59", "trialTime": 19663, "trial_type": "mouselab-mdp", "trial_index": 19, "time_elapsed": 982536, "internal_node_id": "0.0-4.0-1.0-4.0"}}, {"uniqueid": "w37383663:a60572999", "current_trial": 20, "dateTime": 1691145020865, "trialdata": {"revealed_states": [], "clicked_states": [], "num_clicks_accrued": [0, 0, 0, 0, 0, 0, 0, 0, 0, 0, 0, 0, 0], "stateRewards": ["", 2, -4, -4, 13, -80, 62, 13, -11, 57, -13, -44, 1, 4, 3, -4, -29, -88, 15, 16, -58, 68, -45, -1, -3, -1, -9, -44, -86, -19, -7, -36, 59, 66], "withholdReward": false, "trial_id": "mdp_trial_6", "block": "test", "trialIndex": 9, "score": 54, "costs": 0, "simulationMode": [null, null, null, null, null], "rewards": [-1, -3, -1, -7, 66], "path": ["0", "0", "23", "24", "25", "30", "33"], "rt": [5417, 275, 209, 283, 208], "actions": ["left", "left", "left", "down", "left"], "actionTimes": [7143, 8019, 8833, 9694, 10433], "queries": {"click": {"state": {"target": [], "time": []}, "edge": {"target": [], "time": []}}, "mouseover": {"state": {"target": [], "time": []}, "edge": {"target": [], "time": []}}, "mouseout": {"state": {"target": ["0"], "time": [13258]}, "edge": {"target": [], "time": []}}}, "displayed_time": "16.30", "trialTime": 18372, "trial_type": "mouselab-mdp", "trial_index": 20, "time_elapsed": 1001775, "internal_node_id": "0.0-4.0-1.0-5.0"}}, {"uniqueid": "w37383663:a60572999", "current_trial": 21, "dateTime": 1691145041004, "trialdata": {"revealed_states": [], "clicked_states": [], "num_clicks_accrued": [0, 0, 0, 0, 0, 0, 0, 0, 0, 0, 0, 0, 0], "stateRewards": ["", 1, -1, 4, 5, -32, 18, 20, 6, -88, -74, 9, -2, 1, -2, -14, 34, -77, -38, -1, 80, -36, 73, 2, 3, -8, 10, -48, -73, -71, -11, -22, 20, 54], "withholdReward": false, "trial_id": "mdp_trial_7", "block": "test", "trialIndex": 10, "score": 40, "costs": 0, "simulationMode": [null, null, null, null, null], "rewards": [2, 3, -8, -11, 54], "path": ["0", "0", "23", "24", "25", "30", "33"], "rt": [1853, 213, 284, 727, 620], "actions": ["left", "left", "left", "down", "left"], "actionTimes": [4381, 5163, 6005, 7264, 8437], "queries": {"click": {"state": {"target": [], "time": []}, "edge": {"target": [], "time": []}}, "mouseover": {"state": {"target": [], "time": []}, "edge": {"target": [], "time": []}}, "mouseout": {"state": {"target": ["0"], "time": [12936]}, "edge": {"target": [], "time": []}}}, "displayed_time": "17.14", "trialTime": 19255, "trial_type": "mouselab-mdp", "trial_index": 21, "time_elapsed": 1021914, "internal_node_id": "0.0-4.0-1.0-6.0"}}, {"uniqueid": "w37383663:a60572999", "current_trial": 22, "dateTime": 1691145060855, "trialdata": {"revealed_states": [], "clicked_states": [], "num_clicks_accrued": [0, 0, 0, 0, 0, 0, 0, 0, 0, 0, 0, 0, 0], "stateRewards": ["", 1, -1, 1, -14, -10, 67, -28, -11, 72, 40, -65, -1, 1, 1, -2, 8, -55, 34, -10, 61, 33, -15, 2, -4, 7, 4, -75, 63, -21, -16, 61, 19, 21], "withholdReward": false, "trial_id": "mdp_trial_8", "block": "test", "trialIndex": 11, "score": 52, "costs": 0, "simulationMode": [null, null, null, null, null], "rewards": [-1, 1, 1, -10, 61], "path": ["0", "0", "12", "13", "14", "19", "20"], "rt": [1492, 177, 363, 525, 216], "actions": ["right", "right", "right", "down", "right"], "actionTimes": [4142, 4896, 5838, 6892, 7694], "queries": {"click": {"state": {"target": [], "time": []}, "edge": {"target": [], "time": []}}, "mouseover": {"state": {"target": [], "time": []}, "edge": {"target": [], "time": []}}, "mouseout": {"state": {"target": ["0", "0", "0", "0"], "time": [1024, 1505, 1836, 10499]}, "edge": {"target": [], "time": []}}}, "displayed_time": "17.07", "trialTime": 18979, "trial_type": "mouselab-mdp", "trial_index": 22, "time_elapsed": 1041764, "internal_node_id": "0.0-4.0-1.0-7.0"}}, {"uniqueid": "w37383663:a60572999", "current_trial": 23, "dateTime": 1691145080650, "trialdata": {"revealed_states": [], "clicked_states": [], "num_clicks_accrued": [0, 0, 0, 0, 0, 0, 0, 0, 0, 0, 0, 0, 0], "stateRewards": ["", 2, 3, -1, 16, -78, -11, 46, 2, -20, 79, -67, 2, 3, 2, 11, -83, -42, -58, -11, -67, -22, 55, 2, -1, -1, -16, -83, -82, 23, -11, -29, 13, 13], "withholdReward": false, "trial_id": "mdp_trial_9", "block": "test", "trialIndex": 12, "score": -24, "costs": 0, "simulationMode": [null, null, null, null, null], "rewards": [2, 3, 2, 11, -42], "path": ["0", "0", "12", "13", "14", "15", "17"], "rt": [929, 308, 345, 408, 622], "actions": ["right", "right", "right", "up", "right"], "actionTimes": [3302, 4199, 5073, 6018, 7221], "queries": {"click": {"state": {"target": [], "time": []}, "edge": {"target": [], "time": []}}, "mouseover": {"state": {"target": [], "time": []}, "edge": {"target": [], "time": []}}, "mouseout": {"state": {"target": ["0", "0"], "time": [1516, 9530]}, "edge": {"target": [], "time": []}}}, "displayed_time": "17.08", "trialTime": 18933, "trial_type": "mouselab-mdp", "trial_index": 23, "time_elapsed": 1061559, "internal_node_id": "0.0-4.0-1.0-8.0"}}, {"uniqueid": "w37383663:a60572999", "current_trial": 24, "dateTime": 1691145102305, "trialdata": {"revealed_states": [], "clicked_states": [], "num_clicks_accrued": [0, 0, 0, 0, 0, 0, 0, 0, 0, 0, 0, 0, 0], "stateRewards": ["", -2, 2, -5, -6, 10, -66, -58, -10, -11, -63, -70, -1, -4, -5, 7, 66, -64, -43, -3, 45, -37, 4, -2, -2, -6, -4, -30, 33, 43, 15, -32, -65, -59], "withholdReward": false, "trial_id": "mdp_trial_10", "block": "test", "trialIndex": 13, "score": -26, "costs": 0, "simulationMode": [null, null, null, null, null], "rewards": [-2, 2, -5, -10, -11], "path": ["0", "0", "1", "2", "3", "8", "9"], "rt": [1607, 50, 170, 460, 398], "actions": ["up", "up", "up", "left", "up"], "actionTimes": [4991, 5643, 6407, 7428, 8369], "queries": {"click": {"state": {"target": [], "time": []}, "edge": {"target": [], "time": []}}, "mouseover": {"state": {"target": [], "time": []}, "edge": {"target": [], "time": []}}, "mouseout": {"state": {"target": ["0", "0"], "time": [15643, 16515]}, "edge": {"target": [], "time": []}}}, "displayed_time": "18.25", "trialTime": 20181, "trial_type": "mouselab-mdp", "trial_index": 24, "time_elapsed": 1083214, "internal_node_id": "0.0-4.0-1.0-9.0"}}, {"uniqueid": "w37383663:a60572999", "current_trial": 25, "dateTime": 1691145121600, "trialdata": {"revealed_states": [], "clicked_states": [], "num_clicks_accrued": [0, 0, 0, 0, 0, 0, 0, 0, 0, 0, 0, 0, 0], "stateRewards": ["", 2, 3, 3, 10, 19, -21, 6, 9, 54, 68, 16, 2, 2, -6, -8, 40, -2, -75, -2, -42, 55, 59, -1, 2, 4, -14, 11, -34, -30, -6, 61, -53, 13], "withholdReward": false, "trial_id": "mdp_trial_11", "block": "test", "trialIndex": 14, "score": 51, "costs": 0, "simulationMode": [null, null, null, null, null], "rewards": [2, 2, -6, -2, 55], "path": ["0", "0", "12", "13", "14", "19", "21"], "rt": [1644, 453, 314, 291, 127], "actions": ["right", "right", "right", "down", "down"], "actionTimes": [3309, 4355, 5273, 6174, 6895], "queries": {"click": {"state": {"target": [], "time": []}, "edge": {"target": [], "time": []}}, "mouseover": {"state": {"target": [], "time": []}, "edge": {"target": [], "time": []}}, "mouseout": {"state": {"target": ["0", "0"], "time": [994, 11289]}, "edge": {"target": [], "time": []}}}, "displayed_time": "16.50", "trialTime": 18424, "trial_type": "mouselab-mdp", "trial_index": 25, "time_elapsed": 1102510, "internal_node_id": "0.0-4.0-1.0-10.0"}}, {"uniqueid": "w37383663:a60572999", "current_trial": 26, "dateTime": 1691145141338, "trialdata": {"revealed_states": [], "clicked_states": [], "num_clicks_accrued": [0, 0, 0, 0, 0, 0, 0, 0, 0, 0, 0, 0, 0], "stateRewards": ["", -1, 3, -5, -2, -13, -9, -34, -7, -81, 32, 35, -2, -2, 1, -14, -32, 81, 7, 4, 82, 56, -8, -1, 3, -8, 6, -24, -24, -53, 2, 38, 61, 54], "withholdReward": false, "trial_id": "mdp_trial_12", "block": "test", "trialIndex": 15, "score": -49, "costs": 0, "simulationMode": [null, null, null, null, null], "rewards": [-2, -2, 1, -14, -32], "path": ["0", "0", "12", "13", "14", "15", "16"], "rt": [912, 195, 610, 699, 353], "actions": ["right", "right", "right", "up", "up"], "actionTimes": [3207, 3996, 5138, 6450, 7344], "queries": {"click": {"state": {"target": [], "time": []}, "edge": {"target": [], "time": []}}, "mouseover": {"state": {"target": [], "time": []}, "edge": {"target": [], "time": []}}, "mouseout": {"state": {"target": ["0"], "time": [10065]}, "edge": {"target": [], "time": []}}}, "displayed_time": "17.02", "trialTime": 18838, "trial_type": "mouselab-mdp", "trial_index": 26, "time_elapsed": 1122248, "internal_node_id": "0.0-4.0-1.0-11.0"}}, {"uniqueid": "w37383663:a60572999", "current_trial": 27, "dateTime": 1691145160396, "trialdata": {"revealed_states": [], "clicked_states": [], "num_clicks_accrued": [0, 0, 0, 0, 0, 0, 0, 0, 0, 0, 0, 0, 0], "stateRewards": ["", -2, 2, 3, -7, 76, 63, 21, 15, 35, -8, -44, 1, 1, -2, -12, 23, 24, 76, -9, 46, 66, -49, -2, -1, 7, 12, 40, -71, -45, -6, 38, -49, 46], "withholdReward": false, "trial_id": "mdp_trial_13", "block": "test", "trialIndex": 16, "score": 37, "costs": 0, "simulationMode": [null, null, null, null, null], "rewards": [1, 1, -2, -9, 46], "path": ["0", "0", "12", "13", "14", "19", "20"], "rt": [414, 228, 58, 297, 445], "actions": ["right", "right", "right", "down", "right"], "actionTimes": [2068, 2829, 3596, 4448, 5492], "queries": {"click": {"state": {"target": [], "time": []}, "edge": {"target": [], "time": []}}, "mouseover": {"state": {"target": [], "time": []}, "edge": {"target": [], "time": []}}, "mouseout": {"state": {"target": ["0", "12"], "time": [7728, 8598]}, "edge": {"target": [], "time": []}}}, "displayed_time": "16.20", "trialTime": 18191, "trial_type": "mouselab-mdp", "trial_index": 27, "time_elapsed": 1141306, "internal_node_id": "0.0-4.0-1.0-12.0"}}, {"uniqueid": "w37383663:a60572999", "current_trial": 28, "dateTime": 1691145180077, "trialdata": {"revealed_states": [], "clicked_states": [], "num_clicks_accrued": [0, 0, 0, 0, 0, 0, 0, 0, 0, 0, 0, 0, 0], "stateRewards": ["", 2, -1, -2, -5, -47, -57, -33, -11, 31, -18, -72, -2, 1, -4, -8, -46, -53, -50, 15, -85, -9, 39, -2, -2, 1, 14, -1, -8, 53, -12, -41, -74, 62], "withholdReward": false, "trial_id": "mdp_trial_14", "block": "test", "trialIndex": 17, "score": -66, "costs": 0, "simulationMode": [null, null, null, null, null], "rewards": [-2, 1, -4, -8, -53], "path": ["0", "0", "12", "13", "14", "15", "17"], "rt": [579, 151, 248, 400, 243], "actions": ["right", "right", "right", "up", "right"], "actionTimes": [3298, 4060, 4895, 5918, 6753], "queries": {"click": {"state": {"target": [], "time": []}, "edge": {"target": [], "time": []}}, "mouseover": {"state": {"target": [], "time": []}, "edge": {"target": [], "time": []}}, "mouseout": {"state": {"target": ["0"], "time": [15244]}, "edge": {"target": [], "time": []}}}, "displayed_time": "17.25", "trialTime": 18804, "trial_type": "mouselab-mdp", "trial_index": 28, "time_elapsed": 1160987, "internal_node_id": "0.0-4.0-1.0-13.0"}}, {"uniqueid": "w37383663:a60572999", "current_trial": 29, "dateTime": 1691145200140, "trialdata": {"revealed_states": [], "clicked_states": ["23"], "num_clicks_accrued": [0, 0, 0, 0, 0, 0, 0, 0, 0, 0, 0, 0, 0], "stateRewards": ["", 2, -1, -1, -9, -81, -30, 55, -6, 78, 25, 62, 2, 4, -1, 9, -85, 1, -19, 1, -60, 12, -34, 1, 4, -1, -13, -24, -16, -83, -8, 16, 43, 9], "withholdReward": false, "trial_id": "mdp_trial_15", "block": "test", "trialIndex": 18, "score": -40.4, "costs": -1.4, "simulationMode": [null, null, null, null, null], "rewards": [2, -1, -1, -9, -30], "path": ["0", "0", "1", "2", "3", "4", "6"], "rt": [2775, 667, 634, 135, 847], "actions": ["up", "up", "up", "right", "right"], "actionTimes": [4875, 6106, 7270, 7948, 9384], "queries": {"click": {"state": {"target": ["23"], "time": [3189]}, "edge": {"target": [], "time": []}}, "mouseover": {"state": {"target": ["23", "0"], "time": [3011, 4019]}, "edge": {"target": [], "time": []}}, "mouseout": {"state": {"target": ["0", "23", "0"], "time": [1192, 3949, 11612]}, "edge": {"target": [], "time": []}}}, "displayed_time": "17.10", "trialTime": 19210, "trial_type": "mouselab-mdp", "trial_index": 29, "time_elapsed": 1181050, "internal_node_id": "0.0-4.0-1.0-14.0"}}, {"uniqueid": "w37383663:a60572999", "current_trial": 30, "dateTime": 1691145219694, "trialdata": {"revealed_states": [], "clicked_states": [], "num_clicks_accrued": [0, 0, 0, 0, 0, 0, 0, 0, 0, 0, 0, 0, 0], "stateRewards": ["", -1, 2, -7, -12, -62, 12, -13, 5, 77, -71, 83, 1, -4, 7, 15, -42, -87, -4, 5, -25, 44, 88, -1, 4, -5, -8, 14, 51, 8, -5, 83, -24, -19], "withholdReward": false, "trial_id": "mdp_trial_16", "block": "test", "trialIndex": 19, "score": -80, "costs": 0, "simulationMode": [null, null, null, null, null], "rewards": [-1, 2, -7, -12, -62], "path": ["0", "0", "1", "2", "3", "4", "5"], "rt": [1784, 370, 151, 142, 129], "actions": ["up", "up", "up", "right", "up"], "actionTimes": [3903, 4812, 5504, 6210, 6916], "queries": {"click": {"state": {"target": [], "time": []}, "edge": {"target": [], "time": []}}, "mouseover": {"state": {"target": [], "time": []}, "edge": {"target": [], "time": []}}, "mouseout": {"state": {"target": ["0", "11", "10", "1"], "time": [9521, 9606, 9881, 10118]}, "edge": {"target": [], "time": []}}}, "displayed_time": "16.95", "trialTime": 18622, "trial_type": "mouselab-mdp", "trial_index": 30, "time_elapsed": 1200603, "internal_node_id": "0.0-4.0-1.0-15.0"}}, {"uniqueid": "w37383663:a60572999", "current_trial": 31, "dateTime": 1691145238562, "trialdata": {"revealed_states": [], "clicked_states": [], "num_clicks_accrued": [0, 0, 0, 0, 0, 0, 0, 0, 0, 0, 0, 0, 0], "stateRewards": ["", 2, 2, 3, -15, 23, -14, 73, -7, -32, -20, -6, 1, 1, -5, -12, 73, 6, -84, 11, -81, -57, 13, -2, -1, -4, -8, -52, -58, 49, 13, 5, -41, -41], "withholdReward": false, "trial_id": "mdp_trial_17", "block": "test", "trialIndex": 20, "score": -35, "costs": 0, "simulationMode": [null, null, null, null, null], "rewards": [-2, -1, -4, 13, -41], "path": ["0", "0", "23", "24", "25", "30", "33"], "rt": [988, 190, 225, 417, 254], "actions": ["left", "left", "left", "down", "left"], "actionTimes": [2458, 3193, 3990, 4983, 5814], "queries": {"click": {"state": {"target": [], "time": []}, "edge": {"target": [], "time": []}}, "mouseover": {"state": {"target": [], "time": []}, "edge": {"target": [], "time": []}}, "mouseout": {"state": {"target": ["0", "0", "1", "2"], "time": [217, 8171, 8268, 8386]}, "edge": {"target": [], "time": []}}}, "displayed_time": "16.21", "trialTime": 18005, "trial_type": "mouselab-mdp", "trial_index": 31, "time_elapsed": 1219471, "internal_node_id": "0.0-4.0-1.0-16.0"}}, {"uniqueid": "w37383663:a60572999", "current_trial": 32, "dateTime": 1691145259706, "trialdata": {"revealed_states": [], "clicked_states": [], "num_clicks_accrued": [0, 0, 0, 0, 0, 0, 0, 0, 0, 0, 0, 0, 0], "stateRewards": ["", 1, 2, -3, 6, -88, 74, -45, 7, -46, 40, -77, 1, -4, 4, 3, 22, -25, -59, 8, -83, 19, -60, -1, -1, -1, -8, 26, -29, 64, -7, -88, -51, -55], "withholdReward": false, "trial_id": "mdp_trial_18", "block": "test", "trialIndex": 21, "score": -65, "costs": 0, "simulationMode": [null, null, null, null, null], "rewards": [-1, -1, -1, -7, -55], "path": ["0", "0", "23", "24", "25", "30", "33"], "rt": [1108, 24, 116, 240, 586], "actions": ["left", "left", "left", "down", "left"], "actionTimes": [2543, 3514, 4252, 5060, 6245], "queries": {"click": {"state": {"target": [], "time": []}, "edge": {"target": [], "time": []}}, "mouseover": {"state": {"target": [], "time": []}, "edge": {"target": [], "time": []}}, "mouseout": {"state": {"target": ["0", "0"], "time": [13384, 18737]}, "edge": {"target": [], "time": []}}}, "displayed_time": "15.99", "trialTime": 20272, "trial_type": "mouselab-mdp", "trial_index": 32, "time_elapsed": 1240615, "internal_node_id": "0.0-4.0-1.0-17.0"}}, {"uniqueid": "w37383663:a60572999", "current_trial": 33, "dateTime": 1691145279558, "trialdata": {"revealed_states": [], "clicked_states": [], "num_clicks_accrued": [0, 0, 0, 0, 0, 0, 0, 0, 0, 0, 0, 0, 0], "stateRewards": ["", 2, 4, -6, -13, -75, -81, 30, 7, 5, 59, -65, -1, -1, 7, 14, -38, 36, -41, 1, -54, -5, 64, 2, -1, 5, 6, -19, 79, 11, 16, -33, -50, 58], "withholdReward": false, "trial_id": "mdp_trial_19", "block": "test", "trialIndex": 22, "score": -22, "costs": 0, "simulationMode": [null, null, null, null, null], "rewards": [-1, -1, 7, 14, -41], "path": ["0", "0", "12", "13", "14", "15", "18"], "rt": [804, 492, 234, 1159, 1611], "actions": ["right", "right", "right", "up", "left"], "actionTimes": [2935, 4018, 4813, 6565, 8783], "queries": {"click": {"state": {"target": [], "time": []}, "edge": {"target": [], "time": []}}, "mouseover": {"state": {"target": [], "time": []}, "edge": {"target": [], "time": []}}, "mouseout": {"state": {"target": ["0", "1", "0"], "time": [15952, 16264, 16619]}, "edge": {"target": [], "time": []}}}, "displayed_time": "17.34", "trialTime": 18971, "trial_type": "mouselab-mdp", "trial_index": 33, "time_elapsed": 1260468, "internal_node_id": "0.0-4.0-1.0-18.0"}}, {"uniqueid": "w37383663:a60572999", "current_trial": 34, "dateTime": 1691145297780, "trialdata": {"revealed_states": [], "clicked_states": [], "num_clicks_accrued": [0, 0, 0, 0, 0, 0, 0, 0, 0, 0, 0, 0, 0], "stateRewards": ["", 1, -1, 8, -3, 38, 85, -20, -4, 8, 23, 73, 2, -4, 6, -13, 44, 7, -28, -11, -77, 45, -69, 1, -1, -7, -11, 75, -51, -87, 7, 36, -53, -26], "withholdReward": false, "trial_id": "mdp_trial_20", "block": "test", "trialIndex": 23, "score": -2, "costs": 0, "simulationMode": [null, null, null, null, null], "rewards": [2, -4, 6, -13, 7], "path": ["0", "0", "12", "13", "14", "15", "17"], "rt": [1380, 60, 174, 407, 101], "actions": ["right", "right", "right", "up", "right"], "actionTimes": [2684, 3298, 4043, 4982, 5659], "queries": {"click": {"state": {"target": [], "time": []}, "edge": {"target": [], "time": []}}, "mouseover": {"state": {"target": [], "time": []}, "edge": {"target": [], "time": []}}, "mouseout": {"state": {"target": ["0", "0"], "time": [273, 10102]}, "edge": {"target": [], "time": []}}}, "displayed_time": "15.79", "trialTime": 17344, "trial_type": "mouselab-mdp", "trial_index": 34, "time_elapsed": 1278690, "internal_node_id": "0.0-4.0-1.0-19.0"}}, {"uniqueid": "w37383663:a60572999", "current_trial": 35, "dateTime": 1691145317152, "trialdata": {"revealed_states": [], "clicked_states": [], "num_clicks_accrued": [0, 0, 0, 0, 0, 0, 0, 0, 0, 0, 0, 0, 0], "stateRewards": ["", -2, 1, -7, 9, 8, 25, 61, -7, -17, 69, -81, 1, 4, -4, -11, 16, 67, 44, 3, 6, -45, -54, -2, 3, 6, -11, -15, 32, -47, 3, -39, -6, -88], "withholdReward": false, "trial_id": "mdp_trial_21", "block": "test", "trialIndex": 24, "score": 10, "costs": 0, "simulationMode": [null, null, null, null, null], "rewards": [1, 4, -4, 3, 6], "path": ["0", "0", "12", "13", "14", "19", "20"], "rt": [1375, 217, 258, 548, 450], "actions": ["right", "right", "right", "down", "right"], "actionTimes": [2989, 3797, 4649, 5789, 6826], "queries": {"click": {"state": {"target": [], "time": []}, "edge": {"target": [], "time": []}}, "mouseover": {"state": {"target": [], "time": []}, "edge": {"target": [], "time": []}}, "mouseout": {"state": {"target": ["0", "0"], "time": [592, 9522]}, "edge": {"target": [], "time": []}}}, "displayed_time": "16.42", "trialTime": 18493, "trial_type": "mouselab-mdp", "trial_index": 35, "time_elapsed": 1298062, "internal_node_id": "0.0-4.0-1.0-20.0"}}, {"uniqueid": "w37383663:a60572999", "current_trial": 36, "dateTime": 1691145336785, "trialdata": {"revealed_states": [], "clicked_states": [], "num_clicks_accrued": [0, 0, 0, 0, 0, 0, 0, 0, 0, 0, 0, 0, 0], "stateRewards": ["", 2, 3, -2, -8, -8, -41, 74, 15, -23, -80, 1, 1, 3, 3, -15, -63, -78, 67, 13, 75, -41, 86, 2, -2, 6, -3, -8, -49, 50, -6, 83, 74, 80], "withholdReward": false, "trial_id": "mdp_trial_22", "block": "test", "trialIndex": 25, "score": -21, "costs": 0, "simulationMode": [null, null, null, null, null], "rewards": [1, 3, 3, 13, -41], "path": ["0", "0", "12", "13", "14", "19", "21"], "rt": [901, 263, 326, 129, 673], "actions": ["right", "right", "right", "down", "down"], "actionTimes": [3381, 4212, 5092, 5805, 7065], "queries": {"click": {"state": {"target": [], "time": []}, "edge": {"target": [], "time": []}}, "mouseover": {"state": {"target": [], "time": []}, "edge": {"target": [], "time": []}}, "mouseout": {"state": {"target": ["0"], "time": [1828]}, "edge": {"target": [], "time": []}}}, "displayed_time": "17.17", "trialTime": 18747, "trial_type": "mouselab-mdp", "trial_index": 36, "time_elapsed": 1317695, "internal_node_id": "0.0-4.0-1.0-21.0"}}, {"uniqueid": "w37383663:a60572999", "current_trial": 37, "dateTime": 1691145357994, "trialdata": {"revealed_states": [], "clicked_states": [], "num_clicks_accrued": [0, 0, 0, 0, 0, 0, 0, 0, 0, 0, 0, 0, 0], "stateRewards": ["", 1, 1, -2, 7, -31, -6, 76, 1, -36, -16, -53, 2, 1, 7, 13, -47, -10, 47, -7, 72, 46, -56, -2, -2, -2, 11, -80, 44, 38, 16, 67, 85, -78], "withholdReward": false, "trial_id": "mdp_trial_23", "block": "test", "trialIndex": 26, "score": -24, "costs": 0, "simulationMode": [null, null, null, null, null], "rewards": [1, 1, -2, 7, -31], "path": ["0", "0", "1", "2", "3", "4", "5"], "rt": [2135, 94, 66, 181, 482], "actions": ["up", "up", "up", "right", "up"], "actionTimes": [3736, 4383, 5060, 5784, 6859], "queries": {"click": {"state": {"target": [], "time": []}, "edge": {"target": [], "time": []}}, "mouseover": {"state": {"target": [], "time": []}, "edge": {"target": [], "time": []}}, "mouseout": {"state": {"target": ["0", "0"], "time": [986, 10991]}, "edge": {"target": [], "time": []}}}, "displayed_time": "15.87", "trialTime": 20269, "trial_type": "mouselab-mdp", "trial_index": 37, "time_elapsed": 1338902, "internal_node_id": "0.0-4.0-1.0-22.0"}}, {"uniqueid": "w37383663:a60572999", "current_trial": 38, "dateTime": 1691145377982, "trialdata": {"revealed_states": [], "clicked_states": [], "num_clicks_accrued": [0, 0, 0, 0, 0, 0, 0, 0, 0, 0, 0, 0, 0], "stateRewards": ["", -1, -2, -1, -10, -57, 73, -72, -16, 75, -14, -46, -2, -3, -7, -1, -61, -60, 76, -4, 50, 4, 14, 2, 2, -7, 12, -65, -32, 15, -8, -76, -25, -61], "withholdReward": false, "trial_id": "mdp_trial_24", "block": "test", "trialIndex": 27, "score": -34, "costs": 0, "simulationMode": [null, null, null, null, null], "rewards": [-1, -2, -1, -16, -14], "path": ["0", "0", "1", "2", "3", "8", "10"], "rt": [2636, 133, 105, 378, 314], "actions": ["up", "up", "up", "left", "down"], "actionTimes": [3975, 4710, 5387, 6338, 7192], "queries": {"click": {"state": {"target": [], "time": []}, "edge": {"target": [], "time": []}}, "mouseover": {"state": {"target": [], "time": []}, "edge": {"target": [], "time": []}}, "mouseout": {"state": {"target": ["0", "0", "23", "0"], "time": [9001, 10318, 18422, 18495]}, "edge": {"target": [], "time": []}}}, "displayed_time": "16.36", "trialTime": 19103, "trial_type": "mouselab-mdp", "trial_index": 38, "time_elapsed": 1358891, "internal_node_id": "0.0-4.0-1.0-23.0"}}, {"uniqueid": "w37383663:a60572999", "current_trial": 39, "dateTime": 1691145397123, "trialdata": {"revealed_states": [], "clicked_states": [], "num_clicks_accrued": [0, 0, 0, 0, 0, 0, 0, 0, 0, 0, 0, 0, 0], "stateRewards": ["", 1, 2, -8, 9, 18, -83, -11, 6, -64, -48, 17, -2, -2, -5, -3, -24, -3, -86, -2, 48, -41, -22, -2, 4, 7, 8, 81, 13, -48, 10, 61, 19, 57], "withholdReward": false, "trial_id": "mdp_trial_25", "block": "test", "trialIndex": 28, "score": 18, "costs": 0, "simulationMode": [null, null, null, null, null], "rewards": [1, 2, -8, 6, 17], "path": ["0", "0", "1", "2", "3", "8", "11"], "rt": [997, 151, 78, 329, 137], "actions": ["up", "up", "up", "left", "left"], "actionTimes": [2155, 2877, 3520, 4434, 5189], "queries": {"click": {"state": {"target": [], "time": []}, "edge": {"target": [], "time": []}}, "mouseover": {"state": {"target": [], "time": []}, "edge": {"target": [], "time": []}}, "mouseout": {"state": {"target": ["0", "12", "0", "1", "0"], "time": [null, null, 7682, 8457, 8563]}, "edge": {"target": [], "time": []}}}, "displayed_time": "15.89", "trialTime": 17991, "trial_type": "mouselab-mdp", "trial_index": 39, "time_elapsed": 1378032, "internal_node_id": "0.0-4.0-1.0-24.0"}}, {"uniqueid": "w37383663:a60572999", "current_trial": 40, "dateTime": 1691145417144, "trialdata": {"revealed_states": [], "clicked_states": [], "num_clicks_accrued": [0, 0, 0, 0, 0, 0, 0, 0, 0, 0, 0, 0, 0], "stateRewards": ["", -2, -4, 6, 14, -34, 49, 36, -8, -3, 32, -4, 1, -2, 1, -8, -20, -71, -57, -7, -86, -62, -16, -2, -3, -5, 11, 23, -21, 53, 5, -5, 85, 73], "withholdReward": false, "trial_id": "mdp_trial_26", "block": "test", "trialIndex": 29, "score": 50, "costs": 0, "simulationMode": [null, null, null, null, null], "rewards": [-2, -4, 6, 14, 36], "path": ["0", "0", "1", "2", "3", "4", "7"], "rt": [862, 86, 259, 127, 335], "actions": ["up", "up", "up", "right", "down"], "actionTimes": [2875, 3657, 4480, 5204, 6108], "queries": {"click": {"state": {"target": [], "time": []}, "edge": {"target": [], "time": []}}, "mouseover": {"state": {"target": [], "time": []}, "edge": {"target": [], "time": []}}, "mouseout": {"state": {"target": ["0", "0"], "time": [1290, 8879]}, "edge": {"target": [], "time": []}}}, "displayed_time": "17.19", "trialTime": 19130, "trial_type": "mouselab-mdp", "trial_index": 40, "time_elapsed": 1398053, "internal_node_id": "0.0-4.0-1.0-25.0"}}, {"uniqueid": "w37383663:a60572999", "current_trial": 41, "dateTime": 1691145436064, "trialdata": {"revealed_states": [], "clicked_states": [], "num_clicks_accrued": [0, 0, 0, 0, 0, 0, 0, 0, 0, 0, 0, 0, 0], "stateRewards": ["", -2, -3, -3, 9, 79, 67, 22, -15, -56, 27, -85, -2, 4, -4, -15, -20, -32, 60, 15, 71, 57, 17, 1, 2, -8, 15, -37, -81, 82, 15, 21, -3, 2], "withholdReward": false, "trial_id": "mdp_trial_27", "block": "test", "trialIndex": 30, "score": 31, "costs": 0, "simulationMode": [null, null, null, null, null], "rewards": [1, 2, -8, 15, 21], "path": ["0", "0", "23", "24", "25", "30", "31"], "rt": [1886, 53, 147, 1329, 519], "actions": ["left", "left", "left", "down", "right"], "actionTimes": [3429, 4120, 4882, 6801, 7857], "queries": {"click": {"state": {"target": [], "time": []}, "edge": {"target": [], "time": []}}, "mouseover": {"state": {"target": [], "time": []}, "edge": {"target": [], "time": []}}, "mouseout": {"state": {"target": ["0"], "time": [10640]}, "edge": {"target": [], "time": []}}}, "displayed_time": "16.33", "trialTime": 18028, "trial_type": "mouselab-mdp", "trial_index": 41, "time_elapsed": 1416974, "internal_node_id": "0.0-4.0-1.0-26.0"}}, {"uniqueid": "w37383663:a60572999", "current_trial": 42, "dateTime": 1691145455666, "trialdata": {"revealed_states": [], "clicked_states": [], "num_clicks_accrued": [0, 0, 0, 0, 0, 0, 0, 0, 0, 0, 0, 0, 0], "stateRewards": ["", 2, -1, 4, -9, -43, 7, 54, -13, 38, -40, -83, -1, 2, -8, -10, 34, -33, 11, -14, -79, 65, 26, 1, 2, 4, 10, 21, 1, 86, 4, -53, 28, -29], "withholdReward": false, "trial_id": "mdp_trial_28", "block": "test", "trialIndex": 31, "score": 103, "costs": 0, "simulationMode": [null, null, null, null, null], "rewards": [1, 2, 4, 10, 86], "path": ["0", "0", "23", "24", "25", "26", "29"], "rt": [993, 443, 348, 628, 580], "actions": ["left", "left", "left", "up", "left"], "actionTimes": [2750, 3739, 4696, 5862, 6975], "queries": {"click": {"state": {"target": [], "time": []}, "edge": {"target": [], "time": []}}, "mouseover": {"state": {"target": [], "time": []}, "edge": {"target": [], "time": []}}, "mouseout": {"state": {"target": ["0"], "time": [10382]}, "edge": {"target": [], "time": []}}}, "displayed_time": "16.99", "trialTime": 18705, "trial_type": "mouselab-mdp", "trial_index": 42, "time_elapsed": 1436576, "internal_node_id": "0.0-4.0-1.0-27.0"}}, {"uniqueid": "w37383663:a60572999", "current_trial": 43, "dateTime": 1691145474011, "trialdata": {"revealed_states": [], "clicked_states": [], "num_clicks_accrued": [0, 0, 0, 0, 0, 0, 0, 0, 0, 0, 0, 0, 0], "stateRewards": ["", 2, -3, -4, -1, 25, -16, 16, 10, -71, -20, -55, 1, 3, -4, -9, 1, 32, 11, -6, 32, -50, -41, -1, 4, 4, -8, 7, -81, 70, 2, -52, 45, -10], "withholdReward": false, "trial_id": "mdp_trial_29", "block": "test", "trialIndex": 32, "score": 6, "costs": 0, "simulationMode": [null, null, null, null, null], "rewards": [-1, 4, 4, -8, 7], "path": ["0", "0", "23", "24", "25", "26", "27"], "rt": [1286, 306, 335, 900, 466], "actions": ["left", "left", "left", "up", "up"], "actionTimes": [2613, 3468, 4392, 5861, 6852], "queries": {"click": {"state": {"target": [], "time": []}, "edge": {"target": [], "time": []}}, "mouseover": {"state": {"target": [], "time": []}, "edge": {"target": [], "time": []}}, "mouseout": {"state": {"target": ["0", "12"], "time": [8831, 9283]}, "edge": {"target": [], "time": []}}}, "displayed_time": "15.63", "trialTime": 17467, "trial_type": "mouselab-mdp", "trial_index": 43, "time_elapsed": 1454920, "internal_node_id": "0.0-4.0-1.0-28.0"}}, {"uniqueid": "w37383663:a60572999", "current_trial": 44, "dateTime": 1691145493681, "trialdata": {"revealed_states": [], "clicked_states": [], "num_clicks_accrued": [0, 0, 0, 0, 0, 0, 0, 0, 0, 0, 0, 0, 0], "stateRewards": ["", 1, 1, 4, 11, 83, -66, 18, -16, -23, 5, 25, 1, -3, 1, -12, 18, 24, -86, -11, -64, 36, 40, 2, 1, -6, 13, 55, 29, 72, -2, 81, -72, -41], "withholdReward": false, "trial_id": "mdp_trial_30", "block": "test", "trialIndex": 33, "score": 76, "costs": 0, "simulationMode": [null, null, null, null, null], "rewards": [2, 1, -6, -2, 81], "path": ["0", "0", "23", "24", "25", "30", "31"], "rt": [1708, 269, 223, 1079, 845], "actions": ["left", "left", "left", "down", "right"], "actionTimes": [3758, 4575, 5388, 7050, 8520], "queries": {"click": {"state": {"target": [], "time": []}, "edge": {"target": [], "time": []}}, "mouseover": {"state": {"target": [], "time": []}, "edge": {"target": [], "time": []}}, "mouseout": {"state": {"target": ["0", "0"], "time": [1424, 11140]}, "edge": {"target": [], "time": []}}}, "displayed_time": "17.28", "trialTime": 18820, "trial_type": "mouselab-mdp", "trial_index": 44, "time_elapsed": 1474591, "internal_node_id": "0.0-4.0-1.0-29.0"}}, {"uniqueid": "w37383663:a60572999", "current_trial": 45, "dateTime": 1691145512318, "trialdata": {"revealed_states": [], "clicked_states": [], "num_clicks_accrued": [0, 0, 0, 0, 0, 0, 0, 0, 0, 0, 0, 0, 0], "stateRewards": ["", -2, -2, -3, -6, -15, -11, 41, -12, -63, -76, 2, -2, -3, 8, 9, -36, -2, -18, -16, -32, -85, -17, -2, 1, 5, -16, 82, 35, -88, -1, 80, -82, -20], "withholdReward": false, "trial_id": "mdp_trial_31", "block": "test", "trialIndex": 34, "score": 23, "costs": 0, "simulationMode": [null, null, null, null, null], "rewards": [-2, 1, 5, -16, 35], "path": ["0", "0", "23", "24", "25", "26", "28"], "rt": [1123, 266, 266, 258, 647], "actions": ["left", "left", "left", "up", "right"], "actionTimes": [2481, 3337, 4185, 5030, 6306], "queries": {"click": {"state": {"target": [], "time": []}, "edge": {"target": [], "time": []}}, "mouseover": {"state": {"target": [], "time": []}, "edge": {"target": [], "time": []}}, "mouseout": {"state": {"target": ["0", "0"], "time": [657, 9008]}, "edge": {"target": [], "time": []}}}, "displayed_time": "16.24", "trialTime": 17746, "trial_type": "mouselab-mdp", "trial_index": 45, "time_elapsed": 1493227, "internal_node_id": "0.0-4.0-1.0-30.0"}}, {"uniqueid": "w37383663:a60572999", "current_trial": 46, "dateTime": 1691145530772, "trialdata": {"revealed_states": [], "clicked_states": [], "num_clicks_accrued": [0, 0, 0, 0, 0, 0, 0, 0, 0, 0, 0, 0, 0], "stateRewards": ["", 1, -3, -2, 14, 49, -40, -39, 2, 26, -61, 73, 1, -4, -8, 12, 79, 29, -65, -13, 55, -26, 27, -1, 3, 3, 9, -17, -60, -18, -8, 35, -88, 69], "withholdReward": false, "trial_id": "mdp_trial_32", "block": "test", "trialIndex": 35, "score": 66, "costs": 0, "simulationMode": [null, null, null, null, null], "rewards": [-1, 3, 3, -8, 69], "path": ["0", "0", "23", "24", "25", "30", "33"], "rt": [947, 285, 185, 435, 455], "actions": ["left", "left", "left", "down", "left"], "actionTimes": [2253, 3138, 3916, 4892, 5902], "queries": {"click": {"state": {"target": [], "time": []}, "edge": {"target": [], "time": []}}, "mouseover": {"state": {"target": [], "time": []}, "edge": {"target": [], "time": []}}, "mouseout": {"state": {"target": ["0"], "time": [8545]}, "edge": {"target": [], "time": []}}}, "displayed_time": "15.81", "trialTime": 17574, "trial_type": "mouselab-mdp", "trial_index": 46, "time_elapsed": 1511681, "internal_node_id": "0.0-4.0-1.0-31.0"}}, {"uniqueid": "w37383663:a60572999", "current_trial": 47, "dateTime": 1691145549624, "trialdata": {"revealed_states": [], "clicked_states": [], "num_clicks_accrued": [0, 0, 0, 0, 0, 0, 0, 0, 0, 0, 0, 0, 0], "stateRewards": ["", 1, 1, -5, 10, -31, 73, 14, -8, -23, 63, -70, -1, 2, 8, 7, 25, -59, 27, -10, -40, -71, -15, -2, 3, -8, -5, -19, 77, -34, 7, 67, 63, 19], "withholdReward": false, "trial_id": "mdp_trial_33", "block": "test", "trialIndex": 36, "score": 67, "costs": 0, "simulationMode": [null, null, null, null, null], "rewards": [-2, 3, -8, 7, 67], "path": ["0", "0", "23", "24", "25", "30", "31"], "rt": [1202, 262, 440, 368, 882], "actions": ["left", "left", "left", "down", "right"], "actionTimes": [2510, 3597, 4632, 5596, 7083], "queries": {"click": {"state": {"target": [], "time": []}, "edge": {"target": [], "time": []}}, "mouseover": {"state": {"target": [], "time": []}, "edge": {"target": [], "time": []}}, "mouseout": {"state": {"target": ["0", "13"], "time": [468, 9082]}, "edge": {"target": [], "time": []}}}, "displayed_time": "16.16", "trialTime": 17650, "trial_type": "mouselab-mdp", "trial_index": 47, "time_elapsed": 1530533, "internal_node_id": "0.0-4.0-1.0-32.0"}}, {"uniqueid": "w37383663:a60572999", "current_trial": 48, "dateTime": 1691145568269, "trialdata": {"revealed_states": [], "clicked_states": [], "num_clicks_accrued": [0, 0, 0, 0, 0, 0, 0, 0, 0, 0, 0, 0, 0], "stateRewards": ["", 2, -1, 8, -2, -16, 69, -39, -7, -13, -27, -86, 2, -2, 2, 13, -34, -16, -20, -5, 19, 81, 32, -2, -1, 2, -14, 20, 80, 58, 4, 70, 12, 73], "withholdReward": false, "trial_id": "mdp_trial_34", "block": "test", "trialIndex": 37, "score": 65, "costs": 0, "simulationMode": [null, null, null, null, null], "rewards": [-2, -1, 2, -14, 80], "path": ["0", "0", "23", "24", "25", "26", "28"], "rt": [903, 249, 333, 220, 255], "actions": ["left", "left", "left", "up", "right"], "actionTimes": [2347, 3192, 4100, 4908, 5749], "queries": {"click": {"state": {"target": [], "time": []}, "edge": {"target": [], "time": []}}, "mouseover": {"state": {"target": [], "time": []}, "edge": {"target": [], "time": []}}, "mouseout": {"state": {"target": ["0"], "time": [8578]}, "edge": {"target": [], "time": []}}}, "displayed_time": "16.24", "trialTime": 17742, "trial_type": "mouselab-mdp", "trial_index": 48, "time_elapsed": 1549177, "internal_node_id": "0.0-4.0-1.0-33.0"}}, {"uniqueid": "w37383663:a60572999", "current_trial": 49, "dateTime": 1691145586545, "trialdata": {"revealed_states": [], "clicked_states": [], "num_clicks_accrued": [0, 0, 0, 0, 0, 0, 0, 0, 0, 0, 0, 0, 0], "stateRewards": ["", -2, 2, 8, -6, -25, 3, 87, 2, -62, -2, 74, -2, -1, 2, -1, 79, 49, -37, -14, 5, 67, -9, -1, 2, -2, 5, 15, 38, 32, -14, -38, -38, 30], "withholdReward": false, "trial_id": "mdp_trial_35", "block": "test", "trialIndex": 38, "score": 47, "costs": 0, "simulationMode": [null, null, null, null, null], "rewards": [-2, -1, 2, -1, 49], "path": ["0", "0", "12", "13", "14", "15", "17"], "rt": [1021, 150, 339, 465, 189], "actions": ["right", "right", "right", "up", "right"], "actionTimes": [2279, 3027, 3908, 4940, 5678], "queries": {"click": {"state": {"target": [], "time": []}, "edge": {"target": [], "time": []}}, "mouseover": {"state": {"target": [], "time": []}, "edge": {"target": [], "time": []}}, "mouseout": {"state": {"target": ["0", "0"], "time": [454, 7938]}, "edge": {"target": [], "time": []}}}, "displayed_time": "15.71", "trialTime": 17313, "trial_type": "mouselab-mdp", "trial_index": 49, "time_elapsed": 1567455, "internal_node_id": "0.0-4.0-1.0-34.0"}}, {"uniqueid": "w37383663:a60572999", "current_trial": 50, "dateTime": 1691145604850, "trialdata": {"revealed_states": [], "clicked_states": [], "num_clicks_accrued": [0, 0, 0, 0, 0, 0, 0, 0, 0, 0, 0, 0, 0], "stateRewards": ["", 1, 1, -3, 7, 49, 78, 26, -5, 26, 48, -43, -1, -3, 2, -5, 4, -1, -60, 10, -35, 51, 81, -2, 1, -7, -5, -39, -86, -54, 4, -3, 74, 77], "withholdReward": false, "trial_id": "mdp_trial_36", "block": "test", "trialIndex": 39, "score": 59, "costs": 0, "simulationMode": [null, null, null, null, null], "rewards": [-1, -3, 2, 10, 51], "path": ["0", "0", "12", "13", "14", "19", "21"], "rt": [2519, 92, 88, 162, 146], "actions": ["right", "right", "right", "down", "down"], "actionTimes": [3757, 4408, 5070, 5837, 6571], "queries": {"click": {"state": {"target": [], "time": []}, "edge": {"target": [], "time": []}}, "mouseover": {"state": {"target": [], "time": []}, "edge": {"target": [], "time": []}}, "mouseout": {"state": {"target": ["0", "0"], "time": [308, 9390]}, "edge": {"target": [], "time": []}}}, "displayed_time": "15.83", "trialTime": 17424, "trial_type": "mouselab-mdp", "trial_index": 50, "time_elapsed": 1585759, "internal_node_id": "0.0-4.0-1.0-35.0"}}, {"uniqueid": "w37383663:a60572999", "current_trial": 51, "dateTime": 1691145624008, "trialdata": {"revealed_states": [], "clicked_states": [], "num_clicks_accrued": [0, 0, 0, 0, 0, 0, 0, 0, 0, 0, 0, 0, 0], "stateRewards": ["", -2, 3, -1, 2, -72, 63, 20, -1, 62, -66, 39, -2, 3, -6, 14, 22, 47, 1, 8, -49, -1, -41, 2, 2, -6, -16, -64, -60, -34, 16, 54, 22, -7], "withholdReward": false, "trial_id": "mdp_trial_37", "block": "test", "trialIndex": 40, "score": 31, "costs": 0, "simulationMode": [null, null, null, null, null], "rewards": [-2, 3, -6, 14, 22], "path": ["0", "0", "12", "13", "14", "15", "16"], "rt": [1439, 446, 776, 310, 1618], "actions": ["right", "right", "right", "up", "up"], "actionTimes": [2781, 3793, 5173, 6113, 8315], "queries": {"click": {"state": {"target": [], "time": []}, "edge": {"target": [], "time": []}}, "mouseover": {"state": {"target": [], "time": []}, "edge": {"target": [], "time": []}}, "mouseout": {"state": {"target": ["0", "0", "0", "0"], "time": [10150, 10589, 11149, 14241]}, "edge": {"target": [], "time": []}}}, "displayed_time": "16.10", "trialTime": 18253, "trial_type": "mouselab-mdp", "trial_index": 51, "time_elapsed": 1604916, "internal_node_id": "0.0-4.0-1.0-36.0"}}, {"uniqueid": "w37383663:a60572999", "current_trial": 52, "dateTime": 1691145644355, "trialdata": {"revealed_states": [], "clicked_states": [], "num_clicks_accrued": [0, 0, 0, 0, 0, 0, 0, 0, 0, 0, 0, 0, 0], "stateRewards": ["", -1, -3, -5, -14, -13, -47, 79, 8, -60, -64, 41, -1, 2, 3, 13, -46, 61, -79, -11, -64, -65, 23, 1, -2, 6, -14, 46, 32, 21, 7, 75, -66, 15], "withholdReward": false, "trial_id": "mdp_trial_38", "block": "test", "trialIndex": 41, "score": 78, "costs": 0, "simulationMode": [null, null, null, null, null], "rewards": [-1, 2, 3, 13, 61], "path": ["0", "0", "12", "13", "14", "15", "17"], "rt": [1917, 79, 128, 1547, 405], "actions": ["right", "right", "right", "up", "right"], "actionTimes": [3403, 4081, 4790, 6875, 7901], "queries": {"click": {"state": {"target": [], "time": []}, "edge": {"target": [], "time": []}}, "mouseover": {"state": {"target": [], "time": []}, "edge": {"target": [], "time": []}}, "mouseout": {"state": {"target": ["0", "0", "18"], "time": [698, 10882, 14927]}, "edge": {"target": [], "time": []}}}, "displayed_time": "16.43", "trialTime": 18069, "trial_type": "mouselab-mdp", "trial_index": 52, "time_elapsed": 1625264, "internal_node_id": "0.0-4.0-1.0-37.0"}}, {"uniqueid": "w37383663:a60572999", "current_trial": 53, "dateTime": 1691145662896, "trialdata": {"revealed_states": [], "clicked_states": [], "num_clicks_accrued": [0, 0, 0, 0, 0, 0, 0, 0, 0, 0, 0, 0, 0], "stateRewards": ["", 1, 2, 7, 13, 88, -71, 27, 3, 60, 5, -53, -2, 2, -6, -1, -30, 79, 47, -4, -14, 46, 68, 1, 1, 8, 10, -14, 86, 48, -11, -67, -44, 5], "withholdReward": false, "trial_id": "mdp_trial_39", "block": "test", "trialIndex": 42, "score": -24, "costs": 0, "simulationMode": [null, null, null, null, null], "rewards": [-2, 2, -6, -4, -14], "path": ["0", "0", "12", "13", "14", "19", "20"], "rt": [1069, 460, 189, 170, 1266], "actions": ["right", "right", "right", "down", "right"], "actionTimes": [2509, 3544, 4329, 5045, 6865], "queries": {"click": {"state": {"target": [], "time": []}, "edge": {"target": [], "time": []}}, "mouseover": {"state": {"target": [], "time": []}, "edge": {"target": [], "time": []}}, "mouseout": {"state": {"target": ["0"], "time": [9111]}, "edge": {"target": [], "time": []}}}, "displayed_time": "16.09", "trialTime": 17667, "trial_type": "mouselab-mdp", "trial_index": 53, "time_elapsed": 1643806, "internal_node_id": "0.0-4.0-1.0-38.0"}}, {"uniqueid": "w37383663:a60572999", "current_trial": 54, "dateTime": 1691145682925, "trialdata": {"revealed_states": [], "clicked_states": [], "num_clicks_accrued": [0, 0, 0, 0, 0, 0, 0, 0, 0, 0, 0, 0, 0], "stateRewards": ["", 2, -1, 5, 6, 10, 86, 55, 10, -45, 63, -71, 1, -2, 5, -8, -50, -72, 36, 15, 61, 12, 33, -1, -4, 6, 5, 79, -56, -21, -16, -87, 60, -81], "withholdReward": false, "trial_id": "mdp_trial_40", "block": "test", "trialIndex": 43, "score": -102, "costs": 0, "simulationMode": [null, null, null, null, null], "rewards": [-1, -4, 6, -16, -87], "path": ["0", "0", "23", "24", "25", "30", "31"], "rt": [1278, 3030, 320, 375, 936], "actions": ["left", "left", "left", "down", "right"], "actionTimes": [2668, 6282, 7140, 8117, 9626], "queries": {"click": {"state": {"target": [], "time": []}, "edge": {"target": [], "time": []}}, "mouseover": {"state": {"target": [], "time": []}, "edge": {"target": [], "time": []}}, "mouseout": {"state": {"target": ["0"], "time": [11211]}, "edge": {"target": [], "time": []}}}, "displayed_time": "16.10", "trialTime": 19163, "trial_type": "mouselab-mdp", "trial_index": 54, "time_elapsed": 1663835, "internal_node_id": "0.0-4.0-1.0-39.0"}}, {"uniqueid": "w37383663:a60572999", "current_trial": 55, "dateTime": 1691145789682, "trialdata": {"rt": 106737, "response": {"Q0": "$-2 to $2", "Q1": "$-4 to $4", "Q2": "$-32 to $32", "Q3": "The cost was always $1.4.", "Q4": "Very motivated"}, "question_order": [0, 1, 2, 3, 4], "trial_id": "final_quiz_control", "trial_type": "survey-multi-choice", "trial_index": 55, "time_elapsed": 1770591, "internal_node_id": "0.0-4.0-2.0"}}, {"uniqueid": "w37383663:a60572999", "current_trial": 56, "dateTime": 1691146004653, "trialdata": {"rt": 214922, "response": {"Q0": "There was no particular strategy, I kept going back to where I saw I gained more money after somewhile hoping to get more.", "Q1": "During my last 6 rounds it proven somehow useful because I kept getting some more money from the same nodes that I did before.", "Q2": "The fact that the risk of loss and gain seemed to be equal and random at each node."}, "trial_id": "self_report_control", "trial_type": "survey-text", "trial_index": 56, "time_elapsed": 1985563, "internal_node_id": "0.0-4.0-3.0"}}, {"uniqueid": "w37383663:a60572999", "current_trial": 57, "dateTime": 1691146056289, "trialdata": {"rt": 51613, "response": {"gender": "male", "age": "29", "colorblind": "0", "effort": "0"}, "trial_type": "survey-html-form", "trial_index": 57, "time_elapsed": 2037199, "internal_node_id": "0.0-4.0-4.0"}}, {"uniqueid": "w37383663:a60572999", "current_trial": 58, "dateTime": 1691146187538, "trialdata": {"rt": 131221, "response": {"Q0": "The cost of the nodes, I just clicked on a few starting nodes and saw that the cost was 1.4, so I stopped clicking and continued to play without using the node inspector.", "Q1": "No", "Q2": ""}, "trial_type": "survey-text", "trial_index": 58, "time_elapsed": 2168448, "internal_node_id": "0.0-4.0-5.0"}}, {"uniqueid": "w37383663:a60572999", "current_trial": 59, "dateTime": 1691146192319, "trialdata": {"rt": 4768, "stimulus": "Press 'Finish HIT' in order to reach the completion code. Once the data has been saved, you will receive the code either in this window or in the original browser window where you started the experiment.\n", "response": 0, "trial_type": "html-button-response", "trial_index": 59, "time_elapsed": 2173229, "internal_node_id": "0.0-5.0"}}, {"uniqueid": "w37383663:a60572999", "current_trial": 60, "dateTime": 1691146193345, "trialdata": {"success": true, "trial_type": "fullscreen", "trial_index": 60, "time_elapsed": 2174255, "internal_node_id": "0.0-6.0"}}], "questiondata": {"params": {"CODE": "C6DMOQA6", "MIN_TIME": 14, "inspectCost": 1, "startTime": "Fri Aug 04 2023 12:13:36 GMT+0200 (South Africa Standard Time)", "bonusRate": 0.002, "variance": "1_2_4_8_44", "branching": "31123"}, "final_score": 422.4}, "eventdata": [{"eventtype": "initialized", "value": null, "timestamp": 1691144015378, "interval": 0}, {"eventtype": "window_resize", "value": [1024, 640], "timestamp": 1691144015379, "interval": 1}, {"eventtype": "focus", "value": "on", "timestamp": 1691144015807, "interval": 428}, {"eventtype": "window_resize", "value": [1024, 640], "timestamp": 1691144016006, "interval": 199}, {"eventtype": "window_resize", "value": [1366, 768], "timestamp": 1691144026126, "interval": 10120}, {"eventtype": "focus", "value": "off", "timestamp": 1691144554977, "interval": 528851}, {"eventtype": "focus", "value": "on", "timestamp": 1691144554977, "interval": 0}, {"eventtype": "window_resize", "value": [1024, 640], "timestamp": 1691146193110, "interval": 1638133}], "useragent": "Mozilla/5.0 (Windows NT 10.0; Win64; x64; rv:109.0) Gecko/20100101 Firefox/116.0", "mode": "live", "id": "w37383663:a60572999", "status": "user data saved", "Beginhit": "2023-08-04 10:13:31.566089", "Beginexp": "2023-08-04 10:13:46.935951", "Endhit": "2023-08-04 10:49:57.749551", "psiturkStatus": 3, "browser": "<redacted>", "platform": "windows", "language": "en-US"}