{"condition": 1, "counterbalance": 0, "assignmentId": "a25213647", "workerId": "w70297030", "hitId": "h53493312", "currenttrial": 56, "bonus": 0, "data": [{"uniqueid": "w70297030:a25213647", "current_trial": 0, "dateTime": 1693391642944, "trialdata": {"success": true, "trial_type": "fullscreen", "trial_index": 0, "time_elapsed": 7633, "internal_node_id": "0.0-0.0"}}, {"uniqueid": "w70297030:a25213647", "current_trial": 1, "dateTime": 1693391678391, "trialdata": {"view_history": [{"page_index": 0, "viewing_time": 35445}], "rt": 35445, "trial_id": "exp_instructions_misaligned", "trial_type": "instructions", "trial_index": 1, "time_elapsed": 43080, "internal_node_id": "0.0-1.0"}}, {"uniqueid": "w70297030:a25213647", "current_trial": 2, "dateTime": 1693391927911, "trialdata": {"view_history": [{"page_index": 0, "viewing_time": 75663}, {"page_index": 1, "viewing_time": 97400}, {"page_index": 2, "viewing_time": 25160}, {"page_index": 3, "viewing_time": 51296}], "rt": 249519, "trial_id": "mouselab_instructions_1_misaligned", "trial_type": "instructions", "trial_index": 2, "time_elapsed": 292600, "internal_node_id": "0.0-2.0-1.0"}}, {"uniqueid": "w70297030:a25213647", "current_trial": 3, "dateTime": 1693391965213, "trialdata": {"revealed_states": [], "clicked_states": ["23", "13"], "num_clicks_accrued": [0, 0, 0, 0, 0, 0, 0, 0, 0, 0, 0, 0, 0], "stateRewards": ["", -10, -10, 10, 10, -10, 10, -10, 10, -10, -10, -10, -10, 10, 10, -10, 10, 10, 10, 10, 10, 10, 10, 10, -10, -10, -10, -10, -10, 10, -10, 10, 10, 10], "withholdReward": false, "trial_id": "practice_1", "block": "test", "trialIndex": 0, "score": -7.5, "costs": -1, "simulationMode": [null, null, null, null, null], "rewards": [10, -10, -10, -10, 10], "path": ["0", "0", "23", "24", "25", "30", "33"], "rt": [14223, 7491, 2172, 797, 363], "actions": ["left", "left", "left", "down", "left"], "actionTimes": [18470, 26452, 29123, 30419, 31284], "queries": {"click": {"state": {"target": ["23", "13"], "time": [7403, 15738]}, "edge": {"target": [], "time": []}}, "mouseover": {"state": {"target": ["23", "23", "0", "12", "13", "12", "0", "23"], "time": [6697, 14434, 14601, 14855, 15188, 16169, 16253, 16454]}, "edge": {"target": [], "time": []}}, "mouseout": {"state": {"target": ["0", "23", "23", "0", "12", "13", "12", "0", "23", "24", "25", "24", "25", "24", "23"], "time": [6626, 14422, 14501, 14755, 15040, 16120, 16220, 16387, 21512, 22776, 23564, 25479, 34641, 34706, 34805]}, "edge": {"target": [], "time": []}}}, "displayed_time": "31.79", "trialTime": 36516, "trial_type": "mouselab-mdp", "trial_index": 3, "time_elapsed": 329900, "internal_node_id": "0.0-2.0-2.0-0.0"}}, {"uniqueid": "w70297030:a25213647", "current_trial": 4, "dateTime": 1693391988797, "trialdata": {"revealed_states": [], "clicked_states": ["20", "3"], "num_clicks_accrued": [0, 0, 0, 0, 0, 0, 0, 0, 0, 0, 0, 0, 0], "stateRewards": ["", 10, -10, 10, -10, -10, -10, -10, 10, -10, 10, 10, 10, 10, 10, -10, 10, 10, 10, 10, -10, -10, 10, -10, -10, -10, 10, -10, 10, -10, 10, -10, -10, 10], "withholdReward": false, "trial_id": "practice_2", "block": "test", "trialIndex": 1, "score": 32.5, "costs": -1, "simulationMode": [null, null, null, null, null], "rewards": [10, -10, 10, 10, 10], "path": ["0", "0", "1", "2", "3", "8", "11"], "rt": [10066, 360, 231, 4871, 138], "actions": ["up", "up", "up", "left", "left"], "actionTimes": [12004, 12858, 13577, 18953, 19609], "queries": {"click": {"state": {"target": ["20", "3"], "time": [4287, 8048]}, "edge": {"target": [], "time": []}}, "mouseover": {"state": {"target": ["12", "13", "19", "20", "19", "22", "31", "24", "2", "2", "3", "2", "1"], "time": [2488, 2534, 2854, 3468, 5554, 6189, 6525, 6854, 7305, 7464, 7822, 9609, 10231]}, "edge": {"target": [], "time": []}}, "mouseout": {"state": {"target": ["0", "12", "13", "19", "20", "19", "22", "31", "24", "2", "2", "3", "3", "2", "1", "10", "11", "11", "11"], "time": [1316, 2500, 2620, 3401, 5419, 5591, 6204, 6727, 6942, 7338, 7745, 8147, 8723, 9891, 17732, 17986, 21160, 21987, 22304]}, "edge": {"target": [], "time": []}}}, "displayed_time": "20.11", "trialTime": 23458, "trial_type": "mouselab-mdp", "trial_index": 4, "time_elapsed": 353484, "internal_node_id": "0.0-2.0-2.0-1.0"}}, {"uniqueid": "w70297030:a25213647", "current_trial": 5, "dateTime": 1693392049415, "trialdata": {"view_history": [{"page_index": 0, "viewing_time": 49248}, {"page_index": 1, "viewing_time": 11368}], "rt": 60616, "trial_id": "mouselab_instructions_2_misaligned", "trial_type": "instructions", "trial_index": 5, "time_elapsed": 414104, "internal_node_id": "0.0-2.0-3.0"}}, {"uniqueid": "w70297030:a25213647", "current_trial": 6, "dateTime": 1693392146200, "trialdata": {"rt": 96782, "response": {"Q0": "The cost for clicking on nodes may vary between nodes.", "Q1": "The better I perform the higher my bonus will be.", "Q2": "No, the amount of cash at each node of the web may be different each time.", "Q3": "To get the highest total score.", "Q4": "Only before moving the spider.", "Q5": "3 seconds"}, "question_order": [0, 1, 2, 3, 4, 5], "correct": {"Q0": "The cost for clicking on nodes may vary between nodes.", "Q1": "The better I perform the higher my bonus will be.", "Q2": "No, the amount of cash at each node of the web may be different each time.", "Q3": "To get the highest total score.", "Q4": "Only before moving the spider.", "Q5": "3 seconds"}, "trial_id": "mouselab_quiz_misaligned", "trial_type": "survey-multi-choice", "trial_index": 6, "time_elapsed": 510889, "internal_node_id": "0.0-2.0-4.0"}}, {"uniqueid": "w70297030:a25213647", "current_trial": 7, "dateTime": 1693392153327, "trialdata": {"rt": 7122, "response": {"Q0": "No"}, "question_order": [0], "trial_id": "repeat_check", "trial_type": "survey-multi-choice", "trial_index": 7, "time_elapsed": 518016, "internal_node_id": "0.0-4.0-0.0"}}, {"uniqueid": "w70297030:a25213647", "current_trial": 8, "dateTime": 1693392170790, "trialdata": {"rt": 17460, "stimulus": "\n<h1> Get ready to start the game! </h1>\n\nThank you for reading the instructions. Get ready start with the 40 rounds of this game.\n<br><br>\nIf you need to take a break, feel free to take one after the end of a round, before continuing to the next one.\n<br><br>\nRemember, the more money the spider gets, the bigger your bonus will be!\n<br><br>\n<div style='text-align: center;'>Press <code>space</code> to begin.</div>\n\n<br><br>\n(If, at any point, the <code>space</code> key does not take you to the next page, click once on the text and try again.)", "response": " ", "trial_id": "mdp_ready", "trial_type": "html-keyboard-response", "trial_index": 8, "time_elapsed": 535479, "internal_node_id": "0.0-6.0-0.0"}}, {"uniqueid": "w70297030:a25213647", "current_trial": 9, "dateTime": 1693392196511, "trialdata": {"revealed_states": [], "clicked_states": ["6", "11", "32"], "num_clicks_accrued": [0, 0, 0, 0, 0, 0, 0, 0, 0, 0, 0, 0, 0], "stateRewards": ["", 2, 3, 8, 11, 25, -80, 6, -4, -56, 84, -23, -2, -4, -3, 4, -51, -9, -61, -15, -64, 67, -35, 1, -1, -7, -6, 83, 59, -15, 12, -79, 56, 41], "withholdReward": false, "trial_id": "mdp_trial_1", "block": "test", "trialIndex": 2, "score": 54.55, "costs": -6.449999999999999, "simulationMode": [null, null, null, null, null], "rewards": [1, -1, -7, 12, 56], "path": ["0", "0", "23", "24", "25", "30", "32"], "rt": [18389, 205, 169, 485, 77], "actions": ["left", "left", "left", "down", "down"], "actionTimes": [20203, 20899, 21563, 22547, 23123], "queries": {"click": {"state": {"target": ["6", "11", "32"], "time": [3664, 8760, 13592]}, "edge": {"target": [], "time": []}}, "mouseover": {"state": {"target": ["7", "4", "6", "8", "11", "28", "30", "32", "31", "25", "24", "23"], "time": [2957, 3124, 3474, 7745, 7845, 12667, 13000, 13351, 18106, 18156, 18322, 18389]}, "edge": {"target": [], "time": []}}, "mouseout": {"state": {"target": ["7", "1", "7", "4", "6", "8", "11", "28", "30", "32", "31", "25", "24"], "time": [989, 1188, 3057, 3274, 4376, 7795, 12483, 12701, 13117, 13724, 18123, 18272, 18372]}, "edge": {"target": [], "time": []}}}, "displayed_time": "23.61", "trialTime": 25595, "trial_type": "mouselab-mdp", "trial_index": 9, "time_elapsed": 561199, "internal_node_id": "0.0-6.0-1.0-0.0"}}, {"uniqueid": "w70297030:a25213647", "current_trial": 10, "dateTime": 1693392241052, "trialdata": {"revealed_states": [], "clicked_states": ["17", "29", "6", "30", "32", "21", "20"], "num_clicks_accrued": [0, 0, 0, 0, 0, 0, 0, 0, 0, 0, 0, 0, 0], "stateRewards": ["", -2, 2, 3, -7, -31, -33, 29, -8, -57, 50, -83, -1, -1, 5, 13, -23, -62, 25, 5, -66, -85, 14, 1, -2, -1, 16, 71, 33, -19, -14, 5, -43, 79], "withholdReward": false, "trial_id": "mdp_trial_2", "block": "test", "trialIndex": 3, "score": -76.45, "costs": -14.45, "simulationMode": [null, null, null, null, null], "rewards": [-2, 2, 3, -8, -57], "path": ["0", "0", "1", "2", "3", "8", "9"], "rt": [33212, 367, 379, 591, 315], "actions": ["up", "up", "up", "left", "up"], "actionTimes": [36032, 36904, 37784, 38864, 39671], "queries": {"click": {"state": {"target": ["17", "29", "6", "30", "32", "21", "20"], "time": [4776, 8872, 12552, 17368, 18575, 22584, 27040]}, "edge": {"target": [], "time": []}}, "mouseover": {"state": {"target": ["12", "22", "14", "15", "17", "17", "15", "29", "10", "3", "6", "7", "24", "30", "32", "30", "32", "21", "22", "19", "20", "19", "0", "23", "24", "25", "25", "28", "2", "7", "4", "3", "8", "11", "10", "2", "1"], "time": [3556, 3605, 3956, 4022, 4139, 4406, 5408, 8410, 11763, 11797, 12297, 16435, 16551, 16652, 16802, 17202, 17804, 22424, 26216, 26262, 26828, 30333, 30399, 30449, 30599, 30682, 30901, 31717, 31867, 32148, 32531, 32565, 32583, 32899, 34033, 34116, 35805]}, "edge": {"target": [], "time": []}}, "mouseout": {"state": {"target": ["23", "0", "12", "22", "14", "15", "17", "17", "15", "29", "10", "3", "6", "7", "24", "30", "32", "30", "32", "21", "22", "19", "20", "20", "19", "0", "23", "24", "25", "25", "28", "2", "7", "4", "3", "8", "11", "10", "2", "1", "12"], "time": [2220, 3539, 3589, 3789, 3989, 4039, 4189, 5374, 5441, 11647, 11781, 11814, 16385, 16452, 16585, 16669, 16919, 17737, 20589, 25878, 26245, 26628, 29932, 30315, 30349, 30416, 30565, 30632, 30782, 31667, 31733, 32114, 32264, 32548, 32581, 32882, 33933, 34083, 34133, 42925, 43042]}, "edge": {"target": [], "time": []}}}, "displayed_time": "40.17", "trialTime": 44408, "trial_type": "mouselab-mdp", "trial_index": 10, "time_elapsed": 605741, "internal_node_id": "0.0-6.0-1.0-1.0"}}, {"uniqueid": "w70297030:a25213647", "current_trial": 11, "dateTime": 1693392275828, "trialdata": {"revealed_states": [], "clicked_states": ["11", "17", "33", "21", "6", "5"], "num_clicks_accrued": [0, 0, 0, 0, 0, 0, 0, 0, 0, 0, 0, 0, 0], "stateRewards": ["", 1, -4, -6, -1, -21, 17, -72, 10, 77, 67, -46, -1, 4, -2, 14, -66, -49, -45, -15, -52, 23, -67, 2, -2, -2, 15, -3, 45, -64, 5, -44, 83, 61], "withholdReward": false, "trial_id": "mdp_trial_3", "block": "test", "trialIndex": 4, "score": 51.1, "costs": -12.9, "simulationMode": [null, null, null, null, null], "rewards": [2, -2, -2, 5, 61], "path": ["0", "0", "23", "24", "25", "30", "33"], "rt": [26950, 203, 317, 213, 151], "actions": ["left", "left", "left", "down", "left"], "actionTimes": [28881, 29584, 30400, 31113, 31768], "queries": {"click": {"state": {"target": ["11", "17", "33", "21", "6", "5"], "time": [3141, 7278, 11478, 16302, 20150, 24103]}, "edge": {"target": [], "time": []}}, "mouseover": {"state": {"target": ["1", "8", "11", "8", "3", "17", "25", "26", "33", "33", "30", "32", "19", "20", "21", "22", "6", "4", "3", "5", "4", "2", "1", "23", "10", "8", "8"], "time": [2603, 2803, 2953, 6373, 6391, 7041, 10477, 10744, 11028, 11228, 15232, 15599, 15867, 15916, 16154, 19486, 19870, 22223, 23457, 23958, 25276, 25427, 25459, 25726, 28362, 28395, 28646]}, "edge": {"target": [], "time": []}}, "mouseout": {"state": {"target": ["0", "1", "8", "11", "8", "3", "17", "25", "26", "33", "33", "30", "32", "19", "20", "21", "22", "6", "6", "4", "3", "5", "5", "4", "2", "1", "23", "10", "8", "8", "21", "22"], "time": [1468, 2620, 2853, 6340, 6390, 6407, 10394, 10494, 10861, 11045, 14815, 15499, 15733, 15883, 16071, 16426, 19520, 20266, 22157, 23424, 23491, 24219, 25209, 25359, 25443, 25476, 28245, 28378, 28429, 32883, 33901, 34035]}, "edge": {"target": [], "time": []}}}, "displayed_time": "32.27", "trialTime": 34641, "trial_type": "mouselab-mdp", "trial_index": 11, "time_elapsed": 640516, "internal_node_id": "0.0-6.0-1.0-2.0"}}, {"uniqueid": "w70297030:a25213647", "current_trial": 12, "dateTime": 1693392299840, "trialdata": {"revealed_states": [], "clicked_states": ["33", "5", "20", "21"], "num_clicks_accrued": [0, 0, 0, 0, 0, 0, 0, 0, 0, 0, 0, 0, 0], "stateRewards": ["", 1, -1, 1, 13, 31, -56, 72, 2, 41, 5, 63, -2, -3, -2, 3, -71, -26, 52, 13, -31, 24, -67, 2, -2, 5, 4, 66, 43, 72, 9, 86, -26, 44], "withholdReward": false, "trial_id": "mdp_trial_4", "block": "test", "trialIndex": 5, "score": 49.4, "costs": -8.6, "simulationMode": [null, null, null, null, null], "rewards": [2, -2, 5, 9, 44], "path": ["0", "0", "23", "24", "25", "30", "33"], "rt": [17244, 53, 135, 645, 198], "actions": ["left", "left", "left", "down", "left"], "actionTimes": [18648, 19192, 19840, 20984, 21672], "queries": {"click": {"state": {"target": ["33", "5", "20", "21"], "time": [3032, 6889, 10945, 14573]}, "edge": {"target": [], "time": []}}, "mouseover": {"state": {"target": ["26", "33", "33", "25", "10", "4", "5", "6", "14", "20", "20", "21"], "time": [2407, 2607, 2874, 6227, 6294, 6328, 6662, 10248, 10298, 10316, 10765, 14349]}, "edge": {"target": [], "time": []}}, "mouseout": {"state": {"target": ["0", "26", "33", "33", "25", "10", "4", "5", "6", "14", "20", "20", "21"], "time": [939, 2440, 2624, 6161, 6261, 6311, 6344, 10215, 10265, 10315, 10332, 14215, 17135]}, "edge": {"target": [], "time": []}}}, "displayed_time": "22.18", "trialTime": 23856, "trial_type": "mouselab-mdp", "trial_index": 12, "time_elapsed": 664529, "internal_node_id": "0.0-6.0-1.0-3.0"}}, {"uniqueid": "w70297030:a25213647", "current_trial": 13, "dateTime": 1693392324392, "trialdata": {"revealed_states": [], "clicked_states": ["17", "11", "33", "21"], "num_clicks_accrued": [0, 0, 0, 0, 0, 0, 0, 0, 0, 0, 0, 0, 0], "stateRewards": ["", 1, 4, -8, -13, -13, -87, -77, -10, -44, 54, 42, 2, -3, -4, 12, -9, -80, 52, 9, 84, -2, -65, 1, -4, -5, -6, 8, 80, 32, 13, -59, -5, -13], "withholdReward": false, "trial_id": "mdp_trial_5", "block": "test", "trialIndex": 6, "score": 20.4, "costs": -8.6, "simulationMode": [null, null, null, null, null], "rewards": [1, 4, -8, -10, 42], "path": ["0", "0", "1", "2", "3", "8", "11"], "rt": [17771, 79, 104, 168, 109], "actions": ["up", "up", "up", "left", "left"], "actionTimes": [19597, 20180, 20772, 21436, 22044], "queries": {"click": {"state": {"target": ["17", "11", "33", "21"], "time": [3153, 7025, 10849, 14905]}, "edge": {"target": [], "time": []}}, "mouseover": {"state": {"target": ["18", "17", "3", "8", "11", "27", "25", "33", "30", "21", "21", "24", "25"], "time": [2382, 2999, 6469, 6502, 6753, 10356, 10523, 10640, 14043, 14126, 14761, 18347, 18665]}, "edge": {"target": [], "time": []}}, "mouseout": {"state": {"target": ["0", "18", "17", "3", "8", "11", "27", "25", "33", "30", "21", "21", "24"], "time": [2286, 2398, 3261, 6486, 6669, 10323, 10390, 10573, 14014, 14060, 14143, 18014, 18631]}, "edge": {"target": [], "time": []}}}, "displayed_time": "22.54", "trialTime": 24412, "trial_type": "mouselab-mdp", "trial_index": 13, "time_elapsed": 689081, "internal_node_id": "0.0-6.0-1.0-4.0"}}, {"uniqueid": "w70297030:a25213647", "current_trial": 14, "dateTime": 1693392345848, "trialdata": {"revealed_states": [], "clicked_states": [], "num_clicks_accrued": [0, 0, 0, 0, 0, 0, 0, 0, 0, 0, 0, 0, 0], "stateRewards": ["", -2, 4, 3, 5, -61, 4, 30, 1, -47, 83, 10, 1, 4, 7, -14, 19, -74, -83, 6, -2, -2, -65, -1, -2, 4, -11, 12, -1, -68, 11, -38, -28, 66], "withholdReward": false, "trial_id": "mdp_trial_6", "block": "test", "trialIndex": 7, "score": 78, "costs": 0, "simulationMode": [null, null, null, null, null], "rewards": [-1, -2, 4, 11, 66], "path": ["0", "0", "23", "24", "25", "30", "33"], "rt": [13733, 31, 233, 171, 184], "actions": ["left", "left", "left", "down", "left"], "actionTimes": [15579, 16098, 16834, 17506, 18186], "queries": {"click": {"state": {"target": [], "time": []}, "edge": {"target": [], "time": []}}, "mouseover": {"state": {"target": ["23", "24", "29", "29", "26", "24", "23", "0"], "time": [4204, 4354, 5372, 5660, 9092, 9159, 9192, 10127]}, "edge": {"target": [], "time": []}}, "mouseout": {"state": {"target": ["25", "31", "0", "23", "24", "29", "29", "26", "24", "23"], "time": [767, 800, 4171, 4304, 4404, 5405, 9076, 9109, 9176, 9259]}, "edge": {"target": [], "time": []}}}, "displayed_time": "18.69", "trialTime": 21314, "trial_type": "mouselab-mdp", "trial_index": 14, "time_elapsed": 710537, "internal_node_id": "0.0-6.0-1.0-5.0"}}, {"uniqueid": "w70297030:a25213647", "current_trial": 15, "dateTime": 1693392363197, "trialdata": {"revealed_states": [], "clicked_states": ["17", "11"], "num_clicks_accrued": [0, 0, 0, 0, 0, 0, 0, 0, 0, 0, 0, 0, 0], "stateRewards": ["", -2, -3, 1, -7, 39, -67, 16, 5, -20, 73, 66, -1, 4, 5, -3, 23, -68, -87, -8, 3, -3, 17, 1, -4, -2, -13, -32, 34, 61, -5, -11, -18, 12], "withholdReward": false, "trial_id": "mdp_trial_7", "block": "test", "trialIndex": 8, "score": 62.7, "costs": -4.3, "simulationMode": [null, null, null, null, null], "rewards": [-2, -3, 1, 5, 66], "path": ["0", "0", "1", "2", "3", "8", "11"], "rt": [10148, 152, 293, 340, 114], "actions": ["up", "up", "up", "left", "left"], "actionTimes": [11670, 12325, 13117, 13949, 14557], "queries": {"click": {"state": {"target": ["17", "11"], "time": [3090, 6330]}, "edge": {"target": [], "time": []}}, "mouseover": {"state": {"target": ["12", "13", "14", "17", "15", "18", "10", "11", "5", "4", "7", "1"], "time": [2299, 2349, 2399, 2951, 3730, 3748, 3832, 4298, 9736, 10104, 10187, 10554]}, "edge": {"target": [], "time": []}}, "mouseout": {"state": {"target": ["0", "12", "13", "14", "17", "15", "18", "10", "11", "5", "4", "7", "1"], "time": [2266, 2332, 2365, 2432, 3714, 3747, 3771, 3864, 9436, 10087, 10153, 10254, 10792]}, "edge": {"target": [], "time": []}}}, "displayed_time": "15.52", "trialTime": 17205, "trial_type": "mouselab-mdp", "trial_index": 15, "time_elapsed": 727886, "internal_node_id": "0.0-6.0-1.0-6.0"}}, {"uniqueid": "w70297030:a25213647", "current_trial": 16, "dateTime": 1693392381789, "trialdata": {"revealed_states": [], "clicked_states": [], "num_clicks_accrued": [0, 0, 0, 0, 0, 0, 0, 0, 0, 0, 0, 0, 0], "stateRewards": ["", 2, -3, -8, 14, -7, -51, 73, 2, 36, 36, -43, -1, 3, -4, 1, 6, 87, -65, 15, 61, -42, -83, -1, 3, -2, -7, 30, -48, 35, 13, 26, 60, 78], "withholdReward": false, "trial_id": "mdp_trial_8", "block": "test", "trialIndex": 9, "score": -29, "costs": 0, "simulationMode": [null, null, null, null, null], "rewards": [-1, 3, -4, 15, -42], "path": ["0", "0", "12", "13", "14", "19", "21"], "rt": [9585, 120, 1, 298, 17], "actions": ["right", "right", "right", "down", "down"], "actionTimes": [11884, 12499, 12997, 13811, 14331], "queries": {"click": {"state": {"target": [], "time": []}, "edge": {"target": [], "time": []}}, "mouseover": {"state": {"target": ["18", "15", "17", "15", "18"], "time": [5270, 5288, 5821, 7672, 7739]}, "edge": {"target": [], "time": []}}, "mouseout": {"state": {"target": ["0", "18", "15", "17", "15", "18"], "time": [1917, 5287, 5304, 7605, 7722, 7773]}, "edge": {"target": [], "time": []}}}, "displayed_time": "16.30", "trialTime": 18451, "trial_type": "mouselab-mdp", "trial_index": 16, "time_elapsed": 746477, "internal_node_id": "0.0-6.0-1.0-7.0"}}, {"uniqueid": "w70297030:a25213647", "current_trial": 17, "dateTime": 1693392407717, "trialdata": {"revealed_states": [], "clicked_states": ["6", "29", "33", "20", "11"], "num_clicks_accrued": [0, 0, 0, 0, 0, 0, 0, 0, 0, 0, 0, 0, 0], "stateRewards": ["", 1, 4, 5, -5, 58, -80, 75, 6, 25, -39, 46, 2, -2, 4, 2, 59, 31, -22, -12, -61, 15, 72, 1, -2, -7, 8, 77, 76, -23, -7, 71, -15, -3], "withholdReward": false, "trial_id": "mdp_trial_9", "block": "test", "trialIndex": 10, "score": 51.25, "costs": -10.75, "simulationMode": [null, null, null, null, null], "rewards": [1, 4, 5, 6, 46], "path": ["0", "0", "1", "2", "3", "8", "11"], "rt": [20001, 110, 150, 12, 79], "actions": ["up", "up", "up", "left", "left"], "actionTimes": [21057, 21665, 22305, 22817, 23401], "queries": {"click": {"state": {"target": ["6", "29", "33", "20", "11"], "time": [2486, 5886, 9238, 12678, 16734]}, "edge": {"target": [], "time": []}}, "mouseover": {"state": {"target": ["28", "8", "6", "4", "3", "26", "29", "33", "30", "31", "22", "19", "20", "14", "2", "3", "4", "8", "11"], "time": [1650, 1750, 2300, 3552, 3685, 4619, 5353, 8973, 11260, 11310, 11560, 11645, 11827, 15781, 15880, 16047, 16114, 16403, 16548]}, "edge": {"target": [], "time": []}}, "mouseout": {"state": {"target": ["28", "8", "6", "4", "3", "26", "29", "29", "33", "30", "31", "22", "19", "20", "14", "2", "3", "4", "8"], "time": [1666, 1766, 3469, 3652, 3752, 4987, 6011, 8508, 9347, 11293, 11343, 11594, 11794, 15764, 15797, 15964, 16081, 16131, 16515]}, "edge": {"target": [], "time": []}}}, "displayed_time": "23.89", "trialTime": 25777, "trial_type": "mouselab-mdp", "trial_index": 17, "time_elapsed": 772406, "internal_node_id": "0.0-6.0-1.0-8.0"}}, {"uniqueid": "w70297030:a25213647", "current_trial": 18, "dateTime": 1693392435082, "trialdata": {"revealed_states": [], "clicked_states": ["32", "5", "17", "29", "21"], "num_clicks_accrued": [0, 0, 0, 0, 0, 0, 0, 0, 0, 0, 0, 0, 0], "stateRewards": ["", 1, -2, -8, -3, 31, -84, -55, -14, 15, -58, 17, -2, -3, 7, 7, -12, 48, 67, 4, -44, -68, 46, 2, 3, -5, -7, 76, 27, 5, 11, 57, 52, 59], "withholdReward": false, "trial_id": "mdp_trial_10", "block": "test", "trialIndex": 11, "score": 52.25, "costs": -10.75, "simulationMode": [null, null, null, null, null], "rewards": [2, 3, -5, 11, 52], "path": ["0", "0", "23", "24", "25", "30", "32"], "rt": [20681, 44, 166, 283, 603], "actions": ["left", "left", "left", "down", "down"], "actionTimes": [22169, 22704, 23361, 24144, 25249], "queries": {"click": {"state": {"target": ["32", "5", "17", "29", "21"], "time": [3022, 6630, 10381, 14341, 18549]}, "edge": {"target": [], "time": []}}, "mouseover": {"state": {"target": ["31", "32", "23", "1", "7", "4", "5", "5", "6", "17", "15", "24", "29", "25", "21"], "time": [2589, 2773, 5659, 5693, 5726, 5842, 6143, 6346, 9813, 10131, 13718, 13767, 14184, 17754, 18205]}, "edge": {"target": [], "time": []}}, "mouseout": {"state": {"target": ["11", "10", "1", "31", "32", "23", "1", "7", "4", "5", "5", "6", "17", "15", "24", "29", "29", "25", "21"], "time": [606, 689, 828, 2606, 5593, 5676, 5709, 5743, 5876, 6193, 9780, 9830, 13717, 13734, 13784, 14466, 17555, 17788, 18682]}, "edge": {"target": [], "time": []}}}, "displayed_time": "25.75", "trialTime": 27224, "trial_type": "mouselab-mdp", "trial_index": 18, "time_elapsed": 799771, "internal_node_id": "0.0-6.0-1.0-9.0"}}, {"uniqueid": "w70297030:a25213647", "current_trial": 19, "dateTime": 1693392452026, "trialdata": {"revealed_states": [], "clicked_states": ["17"], "num_clicks_accrued": [0, 0, 0, 0, 0, 0, 0, 0, 0, 0, 0, 0, 0], "stateRewards": ["", -2, -1, -2, -15, 87, 57, 29, -10, 77, -80, -7, 1, -3, 6, 14, -11, 87, -59, 4, -71, 16, -11, 2, 2, -7, 2, -47, 61, 50, 14, -20, 17, 81], "withholdReward": false, "trial_id": "mdp_trial_11", "block": "test", "trialIndex": 12, "score": 102.85, "costs": -2.15, "simulationMode": [null, null, null, null, null], "rewards": [1, -3, 6, 14, 87], "path": ["0", "0", "12", "13", "14", "15", "17"], "rt": [6214, 146, 239, 121, 128], "actions": ["right", "right", "right", "up", "right"], "actionTimes": [7540, 8179, 8907, 9523, 10147], "queries": {"click": {"state": {"target": ["17"], "time": [2432]}, "edge": {"target": [], "time": []}}, "mouseover": {"state": {"target": ["12", "17", "17"], "time": [1793, 1893, 2277]}, "edge": {"target": [], "time": []}}, "mouseout": {"state": {"target": ["12", "0", "12", "17", "17"], "time": [774, 1765, 1826, 1926, 6548]}, "edge": {"target": [], "time": []}}}, "displayed_time": "15.33", "trialTime": 16795, "trial_type": "mouselab-mdp", "trial_index": 19, "time_elapsed": 816715, "internal_node_id": "0.0-6.0-1.0-10.0"}}, {"uniqueid": "w70297030:a25213647", "current_trial": 20, "dateTime": 1693392472216, "trialdata": {"revealed_states": [], "clicked_states": ["5", "21", "29"], "num_clicks_accrued": [0, 0, 0, 0, 0, 0, 0, 0, 0, 0, 0, 0, 0], "stateRewards": ["", -1, -4, -1, -11, 43, 69, 39, 4, 17, -20, -82, -2, -1, 4, 8, -79, 24, -79, 11, 36, 64, 41, 2, 4, -1, 11, -79, -47, 75, -3, 63, -36, -19], "withholdReward": false, "trial_id": "mdp_trial_12", "block": "test", "trialIndex": 13, "score": 84.55, "costs": -6.449999999999999, "simulationMode": [null, null, null, null, null], "rewards": [2, 4, -1, 11, 75], "path": ["0", "0", "23", "24", "25", "26", "29"], "rt": [14417, 129, 151, 164, 146], "actions": ["left", "left", "left", "up", "left"], "actionTimes": [15611, 16242, 16880, 17544, 18192], "queries": {"click": {"state": {"target": ["5", "21", "29"], "time": [2984, 6823, 11143]}, "edge": {"target": [], "time": []}}, "mouseover": {"state": {"target": ["1", "4", "5", "15", "21", "31", "30", "33", "29", "25", "22"], "time": [2115, 2365, 2732, 6219, 6669, 9956, 9974, 10089, 10940, 11575, 11708]}, "edge": {"target": [], "time": []}}, "mouseout": {"state": {"target": ["13", "0", "1", "4", "5", "15", "21", "31", "30", "33", "29", "25", "22"], "time": [613, 930, 2132, 2382, 6152, 6236, 6900, 9973, 10023, 10573, 11558, 11591, 11858]}, "edge": {"target": [], "time": []}}}, "displayed_time": "18.68", "trialTime": 20040, "trial_type": "mouselab-mdp", "trial_index": 20, "time_elapsed": 836904, "internal_node_id": "0.0-6.0-1.0-11.0"}}, {"uniqueid": "w70297030:a25213647", "current_trial": 21, "dateTime": 1693392490552, "trialdata": {"revealed_states": [], "clicked_states": [], "num_clicks_accrued": [0, 0, 0, 0, 0, 0, 0, 0, 0, 0, 0, 0, 0], "stateRewards": ["", 2, 3, -1, 6, 44, -4, -59, -14, -3, 64, 16, 1, -3, 3, 6, 3, 49, 19, 3, -49, -14, -86, 1, 2, -3, -8, -33, 14, 32, -13, -77, -47, -67], "withholdReward": false, "trial_id": "mdp_trial_13", "block": "test", "trialIndex": 14, "score": -10, "costs": 0, "simulationMode": [null, null, null, null, null], "rewards": [1, -3, 3, 3, -14], "path": ["0", "0", "12", "13", "14", "19", "21"], "rt": [6178, 34, 236, 286, 358], "actions": ["right", "right", "right", "down", "down"], "actionTimes": [8647, 9183, 9935, 10719, 11575], "queries": {"click": {"state": {"target": [], "time": []}, "edge": {"target": [], "time": []}}, "mouseover": {"state": {"target": ["18", "16", "12"], "time": [4675, 5077, 6661]}, "edge": {"target": [], "time": []}}, "mouseout": {"state": {"target": ["0", "18", "16", "12"], "time": [4625, 4692, 6477, 6761]}, "edge": {"target": [], "time": []}}}, "displayed_time": "16.47", "trialTime": 18183, "trial_type": "mouselab-mdp", "trial_index": 21, "time_elapsed": 855241, "internal_node_id": "0.0-6.0-1.0-12.0"}}, {"uniqueid": "w70297030:a25213647", "current_trial": 22, "dateTime": 1693392511752, "trialdata": {"revealed_states": [], "clicked_states": ["29", "6", "21", "32"], "num_clicks_accrued": [0, 0, 0, 0, 0, 0, 0, 0, 0, 0, 0, 0, 0], "stateRewards": ["", 2, 4, -5, 7, 81, 35, 6, 11, 14, -72, 42, -1, 2, 3, -7, -77, -44, -40, -15, -85, 51, -32, -2, -1, -5, 7, -74, 47, 52, 16, -49, 48, -46], "withholdReward": false, "trial_id": "mdp_trial_14", "block": "test", "trialIndex": 15, "score": 42.4, "costs": -8.6, "simulationMode": [null, null, null, null, null], "rewards": [-2, -1, -5, 7, 52], "path": ["0", "0", "23", "24", "25", "26", "29"], "rt": [16027, 124, 171, 144, 110], "actions": ["left", "left", "left", "up", "left"], "actionTimes": [17218, 17834, 18498, 19138, 19738], "queries": {"click": {"state": {"target": ["29", "6", "21", "32"], "time": [2039, 5799, 9863, 13207]}, "edge": {"target": [], "time": []}}, "mouseover": {"state": {"target": ["28", "26", "29", "6", "6", "20", "21", "32"], "time": [1641, 1675, 1876, 5312, 5579, 9300, 9666, 11052]}, "edge": {"target": [], "time": []}}, "mouseout": {"state": {"target": ["28", "26", "29", "6", "6", "6", "20", "21", "32"], "time": [1658, 1808, 2148, 5329, 5916, 8832, 9500, 9979, 14839]}, "edge": {"target": [], "time": []}}}, "displayed_time": "20.23", "trialTime": 21034, "trial_type": "mouselab-mdp", "trial_index": 22, "time_elapsed": 876440, "internal_node_id": "0.0-6.0-1.0-13.0"}}, {"uniqueid": "w70297030:a25213647", "current_trial": 23, "dateTime": 1693392537736, "trialdata": {"revealed_states": [], "clicked_states": ["17", "9", "29", "32", "20"], "num_clicks_accrued": [0, 0, 0, 0, 0, 0, 0, 0, 0, 0, 0, 0, 0], "stateRewards": ["", 2, -1, 3, -12, -83, 6, -33, 9, 28, 24, -50, -2, -1, -2, -5, -87, 37, 82, 12, 80, -5, 10, -2, -3, -6, 9, 22, -1, 16, 9, 77, -62, 58], "withholdReward": false, "trial_id": "mdp_trial_15", "block": "test", "trialIndex": 16, "score": 76.25, "costs": -10.75, "simulationMode": [null, null, null, null, null], "rewards": [-2, -1, -2, 12, 80], "path": ["0", "0", "12", "13", "14", "19", "20"], "rt": [20126, 536, 165, 178, 158], "actions": ["right", "right", "right", "down", "right"], "actionTimes": [21135, 22175, 22839, 23519, 24167], "queries": {"click": {"state": {"target": ["17", "9", "29", "32", "20"], "time": [2182, 5468, 8900, 12315, 17500]}, "edge": {"target": [], "time": []}}, "mouseover": {"state": {"target": ["18", "15", "17", "7", "2", "11", "9", "9", "11", "29", "26", "10", "2", "2", "24", "32", "21", "20", "21", "20"], "time": [1585, 1618, 2019, 3137, 3237, 3554, 3821, 4054, 5873, 8108, 9292, 9343, 9361, 9643, 9977, 12078, 12612, 16065, 16666, 17345]}, "edge": {"target": [], "time": []}}, "mouseout": {"state": {"target": ["0", "18", "15", "17", "7", "2", "11", "9", "9", "11", "29", "26", "10", "2", "2", "24", "32", "21", "20", "21"], "time": [783, 1601, 1634, 2953, 3187, 3370, 3737, 3854, 5806, 6056, 9001, 9310, 9359, 9409, 9660, 10044, 12379, 12629, 16433, 16833]}, "edge": {"target": [], "time": []}}}, "displayed_time": "24.66", "trialTime": 25823, "trial_type": "mouselab-mdp", "trial_index": 23, "time_elapsed": 902425, "internal_node_id": "0.0-6.0-1.0-14.0"}}, {"uniqueid": "w70297030:a25213647", "current_trial": 24, "dateTime": 1693392556960, "trialdata": {"revealed_states": [], "clicked_states": ["16", "9", "32", "29"], "num_clicks_accrued": [0, 0, 0, 0, 0, 0, 0, 0, 0, 0, 0, 0, 0], "stateRewards": ["", 2, -4, 1, -12, -59, -53, -74, 16, -88, -66, 66, 1, -2, 8, -9, -14, 22, 25, -1, -39, 47, -14, -1, -1, -2, 1, -4, 52, -26, 15, -7, 46, 43], "withholdReward": false, "trial_id": "mdp_trial_16", "block": "test", "trialIndex": 17, "score": 48.4, "costs": -8.6, "simulationMode": [null, null, null, null, null], "rewards": [-1, -1, -2, 15, 46], "path": ["0", "0", "23", "24", "25", "30", "32"], "rt": [14432, 39, 33, 179, 48], "actions": ["left", "left", "left", "down", "down"], "actionTimes": [15668, 16204, 16748, 17444, 17981], "queries": {"click": {"state": {"target": ["16", "9", "32", "29"], "time": [2313, 6193, 9353, 12569]}, "edge": {"target": [], "time": []}}, "mouseover": {"state": {"target": ["1", "16", "7", "2", "10", "27", "11", "9", "11", "27", "33", "32", "33", "29", "25", "31"], "time": [1665, 2083, 4368, 4387, 4418, 4585, 5619, 6070, 8122, 8188, 8339, 9006, 10341, 10992, 13261, 13544]}, "edge": {"target": [], "time": []}}, "mouseout": {"state": {"target": ["20", "13", "12", "0", "1", "16", "7", "2", "10", "27", "11", "9", "11", "27", "33", "32", "32", "33", "29", "25"], "time": [597, 697, 880, 1598, 1682, 4318, 4385, 4402, 4435, 4618, 5669, 8055, 8139, 8205, 8439, 9430, 10108, 10608, 13210, 13277]}, "edge": {"target": [], "time": []}}}, "displayed_time": "18.50", "trialTime": 19068, "trial_type": "mouselab-mdp", "trial_index": 24, "time_elapsed": 921649, "internal_node_id": "0.0-6.0-1.0-15.0"}}, {"uniqueid": "w70297030:a25213647", "current_trial": 25, "dateTime": 1693392578400, "trialdata": {"revealed_states": [], "clicked_states": ["20", "9", "33", "17"], "num_clicks_accrued": [0, 0, 0, 0, 0, 0, 0, 0, 0, 0, 0, 0, 0], "stateRewards": ["", 2, 3, -3, 12, -43, 81, -82, -15, 58, -7, -75, -1, -1, 3, -5, 50, -25, -8, 4, 66, 65, -66, 2, -4, 2, -1, -10, 10, 37, 11, 88, -37, 8], "withholdReward": false, "trial_id": "mdp_trial_17", "block": "test", "trialIndex": 18, "score": 62.4, "costs": -8.6, "simulationMode": [null, null, null, null, null], "rewards": [-1, -1, 3, 4, 66], "path": ["0", "0", "12", "13", "14", "19", "20"], "rt": [15241, 519, 166, 235, 213], "actions": ["right", "right", "right", "down", "right"], "actionTimes": [16568, 17576, 18240, 18976, 19688], "queries": {"click": {"state": {"target": ["20", "9", "33", "17"], "time": [2565, 6492, 10220, 13477]}, "edge": {"target": [], "time": []}}, "mouseover": {"state": {"target": ["15", "17", "20", "13", "1", "27", "27", "8", "9", "11", "29", "33", "25", "24", "0", "12", "13", "14", "14", "15", "17", "15", "12"], "time": [1906, 1940, 2274, 5026, 5093, 5193, 5744, 5927, 6344, 8781, 9731, 10098, 12217, 12252, 12300, 12318, 12335, 12367, 12634, 12768, 13117, 14386, 14786]}, "edge": {"target": [], "time": []}}, "mouseout": {"state": {"target": ["31", "0", "15", "17", "20", "13", "1", "27", "27", "8", "9", "11", "29", "33", "25", "24", "0", "12", "13", "14", "14", "15", "17", "15", "12"], "time": [522, 821, 1923, 2056, 2666, 5043, 5110, 5210, 5760, 6077, 8664, 8797, 9798, 12034, 12251, 12267, 12317, 12334, 12354, 12401, 12734, 13018, 14353, 14419, 15087]}, "edge": {"target": [], "time": []}}}, "displayed_time": "20.18", "trialTime": 21280, "trial_type": "mouselab-mdp", "trial_index": 25, "time_elapsed": 943089, "internal_node_id": "0.0-6.0-1.0-16.0"}}, {"uniqueid": "w70297030:a25213647", "current_trial": 26, "dateTime": 1693392599160, "trialdata": {"revealed_states": [], "clicked_states": ["16", "32", "9", "20"], "num_clicks_accrued": [0, 0, 0, 0, 0, 0, 0, 0, 0, 0, 0, 0, 0], "stateRewards": ["", 2, 1, -3, 7, 46, 11, -36, 16, 71, 5, 1, 2, -2, -8, -3, -4, 6, 55, 7, 68, -54, 2, 1, 1, 6, -6, 42, -4, -84, -11, -65, 63, 25], "withholdReward": false, "trial_id": "mdp_trial_18", "block": "test", "trialIndex": 19, "score": 78.4, "costs": -8.6, "simulationMode": [null, null, null, null, null], "rewards": [2, 1, -3, 16, 71], "path": ["0", "0", "1", "2", "3", "8", "9"], "rt": [15199, 31, 145, 111, 15], "actions": ["up", "up", "up", "left", "up"], "actionTimes": [16219, 16738, 17386, 17986, 18490], "queries": {"click": {"state": {"target": ["16", "32", "9", "20"], "time": [1727, 5926, 9095, 12238]}, "edge": {"target": [], "time": []}}, "mouseover": {"state": {"target": ["12", "15", "15", "16", "7", "0", "31", "32", "32", "32", "32", "30", "24", "10", "3", "9", "5", "6", "20", "12", "1"], "time": [1240, 1357, 1524, 1607, 2992, 3142, 3326, 3559, 5012, 5327, 5804, 6646, 6679, 6713, 6763, 6996, 9616, 9699, 10884, 13052, 13403]}, "edge": {"target": [], "time": []}}, "mouseout": {"state": {"target": ["0", "12", "15", "15", "16", "7", "0", "31", "32", "32", "32", "32", "30", "24", "10", "3", "9", "5", "6", "20", "12", "1", "0"], "time": [1180, 1257, 1423, 1557, 2892, 3025, 3209, 3392, 4477, 5161, 5394, 6579, 6663, 6696, 6730, 6813, 9332, 9649, 9716, 12985, 13069, 13853, 19608]}, "edge": {"target": [], "time": []}}}, "displayed_time": "19.01", "trialTime": 20586, "trial_type": "mouselab-mdp", "trial_index": 26, "time_elapsed": 963849, "internal_node_id": "0.0-6.0-1.0-17.0"}}, {"uniqueid": "w70297030:a25213647", "current_trial": 27, "dateTime": 1693392617224, "trialdata": {"revealed_states": [], "clicked_states": ["29", "21", "17"], "num_clicks_accrued": [0, 0, 0, 0, 0, 0, 0, 0, 0, 0, 0, 0, 0], "stateRewards": ["", -1, -3, 3, 5, 56, 39, 50, -1, -80, 33, -46, 1, -2, -6, -8, 87, 48, 54, -11, -20, -64, -54, -2, 3, -7, -3, 12, 88, 35, -16, -46, -70, -3], "withholdReward": false, "trial_id": "mdp_trial_19", "block": "test", "trialIndex": 20, "score": 26.55, "costs": -6.449999999999999, "simulationMode": [null, null, null, null, null], "rewards": [1, -2, -6, -8, 48], "path": ["0", "0", "12", "13", "14", "15", "17"], "rt": [12774, 91, 235, 2, 136], "actions": ["right", "right", "right", "up", "right"], "actionTimes": [13888, 14480, 15208, 15708, 16360], "queries": {"click": {"state": {"target": ["29", "21", "17"], "time": [2516, 5917, 9836]}, "edge": {"target": [], "time": []}}, "mouseover": {"state": {"target": ["23", "24", "25", "29", "29", "30", "31", "21", "20", "17"], "time": [1474, 1507, 1525, 1858, 2408, 3476, 3543, 4077, 9098, 9749]}, "edge": {"target": [], "time": []}}, "mouseout": {"state": {"target": ["0", "23", "24", "25", "29", "29", "29", "30", "31", "21", "20"], "time": [1458, 1491, 1524, 1558, 1924, 2569, 3143, 3527, 3560, 8582, 9315]}, "edge": {"target": [], "time": []}}}, "displayed_time": "16.86", "trialTime": 17880, "trial_type": "mouselab-mdp", "trial_index": 27, "time_elapsed": 981913, "internal_node_id": "0.0-6.0-1.0-18.0"}}, {"uniqueid": "w70297030:a25213647", "current_trial": 28, "dateTime": 1693392633520, "trialdata": {"revealed_states": [], "clicked_states": ["5"], "num_clicks_accrued": [0, 0, 0, 0, 0, 0, 0, 0, 0, 0, 0, 0, 0], "stateRewards": ["", -2, 4, -5, -12, 85, -24, -18, -15, -78, -22, 26, -1, -1, 2, 14, -45, 52, -23, 7, -33, 24, -6, -2, -4, 5, -7, -16, 36, -39, 5, 71, -87, -23], "withholdReward": false, "trial_id": "mdp_trial_20", "block": "test", "trialIndex": 21, "score": 67.85, "costs": -2.15, "simulationMode": [null, null, null, null, null], "rewards": [-2, 4, -5, -12, 85], "path": ["0", "0", "1", "2", "3", "4", "5"], "rt": [6161, 107, 91, 139, 144], "actions": ["up", "up", "up", "right", "up"], "actionTimes": [7375, 7983, 8567, 9199, 9839], "queries": {"click": {"state": {"target": ["5"], "time": [2539]}, "edge": {"target": [], "time": []}}, "mouseover": {"state": {"target": ["1", "2", "4", "4", "5", "3", "24", "31", "31"], "time": [1584, 1701, 1835, 1918, 2352, 5672, 5889, 6056, 6289]}, "edge": {"target": [], "time": []}}, "mouseout": {"state": {"target": ["17", "1", "22", "12", "0", "1", "2", "4", "4", "5", "3", "24", "31", "31"], "time": [250, 333, 700, 917, 1518, 1618, 1801, 1885, 2002, 5639, 5689, 6022, 6107, 6323]}, "edge": {"target": [], "time": []}}}, "displayed_time": "15.21", "trialTime": 16135, "trial_type": "mouselab-mdp", "trial_index": 28, "time_elapsed": 998208, "internal_node_id": "0.0-6.0-1.0-19.0"}}, {"uniqueid": "w70297030:a25213647", "current_trial": 29, "dateTime": 1693392664272, "trialdata": {"revealed_states": [], "clicked_states": ["17", "32", "9", "6", "20", "29"], "num_clicks_accrued": [0, 0, 0, 0, 0, 0, 0, 0, 0, 0, 0, 0, 0], "stateRewards": ["", -2, 2, -5, -6, 10, -66, -58, -10, -11, -63, -70, -1, -4, -5, 7, 66, -64, -43, -3, 45, -37, 4, -2, -2, -6, -4, -30, 33, 43, 15, -32, -65, -59], "withholdReward": false, "trial_id": "mdp_trial_21", "block": "test", "trialIndex": 22, "score": 19.1, "costs": -12.9, "simulationMode": [null, null, null, null, null], "rewards": [-1, -4, -5, -3, 45], "path": ["0", "0", "12", "13", "14", "19", "20"], "rt": [25328, 42, 84, 180, 144], "actions": ["right", "right", "right", "down", "right"], "actionTimes": [26612, 27156, 27748, 28428, 29060], "queries": {"click": {"state": {"target": ["17", "32", "9", "6", "20", "29"], "time": [2594, 6609, 10177, 14184, 18009, 22991]}, "edge": {"target": [], "time": []}}, "mouseover": {"state": {"target": ["12", "13", "14", "17", "15", "18", "12", "0", "31", "30", "32", "33", "10", "8", "9", "8", "10", "3", "4", "6", "16", "20", "20", "10", "27", "29", "26", "24"], "time": [1688, 1720, 1787, 2494, 5708, 5741, 5807, 5874, 6076, 6226, 6342, 8177, 8945, 8995, 9345, 10830, 10980, 13517, 13582, 14022, 17403, 17486, 17836, 22407, 22625, 22841, 23709, 23742]}, "edge": {"target": [], "time": []}}, "mouseout": {"state": {"target": ["0", "0", "12", "13", "14", "17", "15", "18", "12", "0", "31", "30", "32", "33", "10", "8", "9", "9", "8", "10", "3", "4", "6", "6", "16", "20", "20", "10", "27", "29", "26", "24"], "time": [402, 1671, 1703, 1754, 1988, 5674, 5725, 5774, 5824, 5908, 6109, 6308, 8111, 8211, 8962, 9045, 10286, 10797, 10897, 10997, 13549, 13615, 14286, 17386, 17419, 17502, 22324, 22509, 22657, 23112, 23726, 23776]}, "edge": {"target": [], "time": []}}}, "displayed_time": "29.55", "trialTime": 30556, "trial_type": "mouselab-mdp", "trial_index": 29, "time_elapsed": 1028960, "internal_node_id": "0.0-6.0-1.0-20.0"}}, {"uniqueid": "w70297030:a25213647", "current_trial": 30, "dateTime": 1693392682160, "trialdata": {"revealed_states": [], "clicked_states": ["27", "21", "5"], "num_clicks_accrued": [0, 0, 0, 0, 0, 0, 0, 0, 0, 0, 0, 0, 0], "stateRewards": ["", 1, 3, 3, -10, 52, 68, 59, 12, 7, 49, 21, -2, -3, -4, -2, -2, 63, 63, -4, 44, 43, -76, -2, -3, -6, 13, 48, 36, 12, -5, -36, -33, -11], "withholdReward": false, "trial_id": "mdp_trial_22", "block": "test", "trialIndex": 23, "score": 42.55, "costs": -6.449999999999999, "simulationMode": [null, null, null, null, null], "rewards": [1, 3, 3, -10, 52], "path": ["0", "0", "1", "2", "3", "4", "5"], "rt": [12357, 10, 36, 287, 79], "actions": ["up", "up", "up", "right", "up"], "actionTimes": [13864, 14367, 14911, 15695, 16271], "queries": {"click": {"state": {"target": ["27", "21", "5"], "time": [2948, 6907, 10532]}, "edge": {"target": [], "time": []}}, "mouseover": {"state": {"target": ["23", "24", "26", "26", "27", "28", "21", "21", "22", "1", "2", "5", "3"], "time": [1909, 1943, 2159, 2578, 2744, 3361, 6397, 6764, 7565, 7649, 7667, 8733, 10902]}, "edge": {"target": [], "time": []}}, "mouseout": {"state": {"target": ["0", "23", "24", "26", "26", "27", "28", "21", "21", "22", "1", "2", "5", "5", "3"], "time": [1892, 1926, 1959, 2193, 2693, 3328, 3395, 6447, 7002, 7582, 7665, 7683, 10632, 10819, 10926]}, "edge": {"target": [], "time": []}}}, "displayed_time": "16.76", "trialTime": 17719, "trial_type": "mouselab-mdp", "trial_index": 30, "time_elapsed": 1046849, "internal_node_id": "0.0-6.0-1.0-21.0"}}, {"uniqueid": "w70297030:a25213647", "current_trial": 31, "dateTime": 1693392698736, "trialdata": {"revealed_states": [], "clicked_states": ["33", "17"], "num_clicks_accrued": [0, 0, 0, 0, 0, 0, 0, 0, 0, 0, 0, 0, 0], "stateRewards": ["", -1, 3, 8, 9, -53, 20, -84, 2, -28, -62, -31, -1, -2, -7, 2, 51, 58, 45, -4, -17, -41, 36, 2, -2, -7, -15, 29, -54, -37, -16, -43, 65, -17], "withholdReward": false, "trial_id": "mdp_trial_23", "block": "test", "trialIndex": 24, "score": 45.7, "costs": -4.3, "simulationMode": [null, null, null, null, null], "rewards": [-1, -2, -7, 2, 58], "path": ["0", "0", "12", "13", "14", "15", "17"], "rt": [8851, 105, 200, 108, 99], "actions": ["right", "right", "right", "up", "right"], "actionTimes": [10445, 11045, 11741, 12349, 12941], "queries": {"click": {"state": {"target": ["33", "17"], "time": [2873, 6129]}, "edge": {"target": [], "time": []}}, "mouseover": {"state": {"target": ["30", "33", "24", "23", "14", "17", "7", "8", "11", "27", "27", "1", "14"], "time": [2346, 2734, 4282, 4300, 4649, 5066, 7252, 7302, 7485, 7769, 7986, 9720, 9770]}, "edge": {"target": [], "time": []}}, "mouseout": {"state": {"target": ["0", "0", "23", "0", "30", "33", "24", "23", "14", "17", "7", "8", "11", "27", "27", "1", "14"], "time": [182, 327, 444, 1962, 2363, 2967, 4298, 4315, 4766, 7135, 7269, 7335, 7502, 7869, 9670, 9737, 9904]}, "edge": {"target": [], "time": []}}}, "displayed_time": "15.60", "trialTime": 16397, "trial_type": "mouselab-mdp", "trial_index": 31, "time_elapsed": 1063424, "internal_node_id": "0.0-6.0-1.0-22.0"}}, {"uniqueid": "w70297030:a25213647", "current_trial": 32, "dateTime": 1693392715784, "trialdata": {"revealed_states": [], "clicked_states": ["27", "22"], "num_clicks_accrued": [0, 0, 0, 0, 0, 0, 0, 0, 0, 0, 0, 0, 0], "stateRewards": ["", -1, 2, -2, 5, 80, -61, -27, 12, 44, -26, -75, -2, -4, 1, -16, 42, -49, -50, 4, -44, 2, 80, -2, -2, 5, -2, 59, 10, 24, 7, -48, -86, -44], "withholdReward": false, "trial_id": "mdp_trial_24", "block": "test", "trialIndex": 25, "score": 74.7, "costs": -4.3, "simulationMode": [null, null, null, null, null], "rewards": [-2, -4, 1, 4, 80], "path": ["0", "0", "12", "13", "14", "19", "22"], "rt": [8099, 200, 220, 199, 90], "actions": ["right", "right", "right", "down", "left"], "actionTimes": [9117, 9821, 10541, 11236, 11828], "queries": {"click": {"state": {"target": ["27", "22"], "time": [2090, 5186]}, "edge": {"target": [], "time": []}}, "mouseover": {"state": {"target": ["1", "2", "10", "27", "12", "19", "22", "22", "25"], "time": [1327, 1511, 1577, 1895, 2579, 3246, 3580, 3964, 6065]}, "edge": {"target": [], "time": []}}, "mouseout": {"state": {"target": ["13", "12", "0", "1", "2", "10", "27", "27", "12", "19", "22", "22", "25"], "time": [409, 576, 1210, 1344, 1560, 1594, 2200, 2529, 2596, 3563, 3613, 5949, 6082]}, "edge": {"target": [], "time": []}}}, "displayed_time": "15.02", "trialTime": 16877, "trial_type": "mouselab-mdp", "trial_index": 32, "time_elapsed": 1080472, "internal_node_id": "0.0-6.0-1.0-23.0"}}, {"uniqueid": "w70297030:a25213647", "current_trial": 33, "dateTime": 1693392732640, "trialdata": {"revealed_states": [], "clicked_states": ["20"], "num_clicks_accrued": [0, 0, 0, 0, 0, 0, 0, 0, 0, 0, 0, 0, 0], "stateRewards": ["", 1, -1, 4, 5, -32, 18, 20, 6, -88, -74, 9, -2, 1, -2, -14, 34, -77, -38, -1, 80, -36, 73, 2, 3, -8, 10, -48, -73, -71, -11, -22, 20, 54], "withholdReward": false, "trial_id": "mdp_trial_25", "block": "test", "trialIndex": 26, "score": 73.85, "costs": -2.15, "simulationMode": [null, null, null, null, null], "rewards": [-2, 1, -2, -1, 80], "path": ["0", "0", "12", "13", "14", "19", "20"], "rt": [5955, 107, 234, 204, 231], "actions": ["right", "right", "right", "down", "right"], "actionTimes": [7821, 8428, 9156, 9861, 10588], "queries": {"click": {"state": {"target": ["20"], "time": [3257]}, "edge": {"target": [], "time": []}}, "mouseover": {"state": {"target": ["12", "13", "14", "20", "14", "13", "1", "8", "9", "9", "12"], "time": [2314, 2332, 2349, 2915, 4166, 4184, 4217, 4383, 4650, 4951, 6969]}, "edge": {"target": [], "time": []}}, "mouseout": {"state": {"target": ["29", "1", "12", "13", "14", "20", "14", "13", "1", "8", "9", "9", "12"], "time": [1046, 1129, 2331, 2348, 2364, 3933, 4183, 4200, 4234, 4400, 4767, 6885, 6986]}, "edge": {"target": [], "time": []}}}, "displayed_time": "15.87", "trialTime": 16669, "trial_type": "mouselab-mdp", "trial_index": 33, "time_elapsed": 1097328, "internal_node_id": "0.0-6.0-1.0-24.0"}}, {"uniqueid": "w70297030:a25213647", "current_trial": 34, "dateTime": 1693392754623, "trialdata": {"revealed_states": [], "clicked_states": ["10", "7", "20", "33"], "num_clicks_accrued": [0, 0, 0, 0, 0, 0, 0, 0, 0, 0, 0, 0, 0], "stateRewards": ["", 2, -1, 4, -9, -43, 7, 54, -13, 38, -40, -83, -1, 2, -8, -10, 34, -33, 11, -14, -79, 65, 26, 1, 2, 4, 10, 21, 1, 86, 4, -53, 28, -29], "withholdReward": false, "trial_id": "mdp_trial_26", "block": "test", "trialIndex": 27, "score": 41.4, "costs": -8.6, "simulationMode": [null, null, null, null, null], "rewards": [2, -1, 4, -9, 54], "path": ["0", "0", "1", "2", "3", "4", "7"], "rt": [15478, 145, 167, 596, 183], "actions": ["up", "up", "up", "right", "down"], "actionTimes": [16743, 17390, 18046, 19142, 19814], "queries": {"click": {"state": {"target": ["10", "7", "20", "33"], "time": [2004, 6059, 9507, 12707]}, "edge": {"target": [], "time": []}}, "mouseover": {"state": {"target": ["10", "10", "2", "7", "7", "18", "12", "22", "19", "20", "19", "33", "24", "24", "31"], "time": [1494, 1778, 5315, 5465, 5949, 6700, 6917, 7267, 7320, 7684, 9937, 11655, 13323, 13457, 13507]}, "edge": {"target": [], "time": []}}, "mouseout": {"state": {"target": ["0", "1", "10", "1", "12", "10", "10", "2", "7", "7", "18", "12", "22", "19", "20", "19", "33", "24", "24", "31"], "time": [76, 242, 509, 559, 743, 1632, 5209, 5449, 5498, 6533, 6867, 6983, 7301, 7650, 9903, 9970, 12810, 13373, 13474, 13524]}, "edge": {"target": [], "time": []}}}, "displayed_time": "20.32", "trialTime": 21766, "trial_type": "mouselab-mdp", "trial_index": 34, "time_elapsed": 1119312, "internal_node_id": "0.0-6.0-1.0-25.0"}}, {"uniqueid": "w70297030:a25213647", "current_trial": 35, "dateTime": 1693392784575, "trialdata": {"revealed_states": [], "clicked_states": ["17", "28", "7", "5", "11", "21"], "num_clicks_accrued": [0, 0, 0, 0, 0, 0, 0, 0, 0, 0, 0, 0, 0], "stateRewards": ["", 1, 1, 1, -3, -7, -1, -41, -10, 20, -72, -63, 1, -4, -2, 2, -66, 30, -84, -2, 49, 23, 71, -1, -4, 4, -12, 67, 5, 18, -16, 88, 56, -5], "withholdReward": false, "trial_id": "mdp_trial_27", "block": "test", "trialIndex": 28, "score": 14.100000000000001, "costs": -12.9, "simulationMode": [null, null, null, null, null], "rewards": [1, -4, -2, 2, 30], "path": ["0", "0", "12", "13", "14", "15", "17"], "rt": [24345, 76, 197, 65, 96], "actions": ["right", "right", "right", "up", "right"], "actionTimes": [25948, 26523, 27211, 27779, 28379], "queries": {"click": {"state": {"target": ["17", "28", "7", "5", "11", "21"], "time": [2423, 6728, 10104, 13992, 17617, 21280]}, "edge": {"target": [], "time": []}}, "mouseover": {"state": {"target": ["13", "14", "17", "15", "18", "10", "28", "2", "7", "7", "4", "5", "8", "11", "10", "1", "12", "13", "19", "21", "31"], "time": [1954, 1972, 2188, 3806, 5075, 5892, 6609, 8011, 8678, 8878, 13332, 13783, 17270, 17370, 18204, 18271, 18588, 18671, 18921, 21073, 22191]}, "edge": {"target": [], "time": []}}, "mouseout": {"state": {"target": ["0", "13", "14", "17", "15", "18", "10", "28", "2", "7", "7", "7", "4", "5", "8", "11", "10", "1", "12", "13", "19", "21", "31"], "time": [1921, 1971, 1988, 3690, 4124, 5669, 5908, 6805, 8645, 8695, 13015, 13282, 13550, 17186, 17336, 18171, 18238, 18338, 18638, 18738, 19489, 22091, 24798]}, "edge": {"target": [], "time": []}}}, "displayed_time": "28.88", "trialTime": 29739, "trial_type": "mouselab-mdp", "trial_index": 35, "time_elapsed": 1149264, "internal_node_id": "0.0-6.0-1.0-26.0"}}, {"uniqueid": "w70297030:a25213647", "current_trial": 36, "dateTime": 1693392802087, "trialdata": {"revealed_states": [], "clicked_states": ["33", "20", "9"], "num_clicks_accrued": [0, 0, 0, 0, 0, 0, 0, 0, 0, 0, 0, 0, 0], "stateRewards": ["", -2, 3, -1, -9, 44, 48, -37, -3, 71, -39, 87, -1, 3, -4, 4, -21, 59, -15, -8, -1, 28, -38, 2, 4, 4, 8, -85, -72, -63, 14, 58, 63, -46], "withholdReward": false, "trial_id": "mdp_trial_28", "block": "test", "trialIndex": 29, "score": 61.55, "costs": -6.449999999999999, "simulationMode": [null, null, null, null, null], "rewards": [-2, 3, -1, -3, 71], "path": ["0", "0", "1", "2", "3", "8", "9"], "rt": [11600, 119, 278, 127, 125], "actions": ["up", "up", "up", "left", "up"], "actionTimes": [12942, 13549, 14325, 14941, 15557], "queries": {"click": {"state": {"target": ["33", "20", "9"], "time": [2330, 5529, 8746]}, "edge": {"target": [], "time": []}}, "mouseover": {"state": {"target": ["23", "24", "33", "30", "20", "19", "13", "8", "9", "9", "11", "27"], "time": [1616, 1666, 2039, 4170, 4670, 6622, 6656, 6739, 6772, 7223, 11493, 11710]}, "edge": {"target": [], "time": []}}, "mouseout": {"state": {"target": ["30", "31", "23", "0", "23", "24", "33", "30", "20", "19", "13", "8", "9", "9", "11", "27"], "time": [481, 548, 849, 1600, 1650, 1717, 2336, 4186, 6605, 6638, 6672, 6755, 6805, 11360, 11593, 11743]}, "edge": {"target": [], "time": []}}}, "displayed_time": "16.05", "trialTime": 17317, "trial_type": "mouselab-mdp", "trial_index": 36, "time_elapsed": 1166776, "internal_node_id": "0.0-6.0-1.0-27.0"}}, {"uniqueid": "w70297030:a25213647", "current_trial": 37, "dateTime": 1693392833367, "trialdata": {"revealed_states": [], "clicked_states": ["29", "17", "22", "9", "7", "21", "33"], "num_clicks_accrued": [0, 0, 0, 0, 0, 0, 0, 0, 0, 0, 0, 0, 0], "stateRewards": ["", 1, 2, -8, 9, 18, -83, -11, 6, -64, -48, 17, -2, -2, -5, -3, -24, -3, -86, -2, 48, -41, -22, -2, 4, 7, 8, 81, 13, -48, 10, 61, 19, 57], "withholdReward": false, "trial_id": "mdp_trial_29", "block": "test", "trialIndex": 30, "score": 60.95, "costs": -15.05, "simulationMode": [null, null, null, null, null], "rewards": [-2, 4, 7, 10, 57], "path": ["0", "0", "23", "24", "25", "30", "33"], "rt": [25489, 112, 231, 89, 129], "actions": ["left", "left", "left", "down", "left"], "actionTimes": [26666, 27281, 28001, 28593, 29217], "queries": {"click": {"state": {"target": ["29", "17", "22", "9", "7", "21", "33"], "time": [2095, 5685, 8861, 11974, 15102, 19502, 22653]}, "edge": {"target": [], "time": []}}, "mouseover": {"state": {"target": ["28", "29", "26", "7", "16", "17", "17", "19", "21", "22", "22", "28", "10", "2", "3", "9", "4", "7", "14", "19", "21", "13", "4", "5", "3", "10", "28", "24", "31", "30", "33", "30", "31", "24", "28", "28"], "time": [1543, 1876, 3895, 3962, 4029, 4396, 5539, 7367, 7632, 8383, 8739, 9618, 10135, 10186, 10271, 10686, 12487, 13255, 18009, 18076, 19395, 19978, 20278, 20662, 21399, 21418, 21447, 21496, 21546, 21763, 22130, 23381, 23465, 24115, 24566, 24833]}, "edge": {"target": [], "time": []}}, "mouseout": {"state": {"target": ["25", "31", "21", "22", "0", "28", "29", "26", "7", "16", "17", "17", "19", "21", "22", "22", "28", "10", "2", "3", "9", "4", "7", "14", "19", "21", "13", "7", "4", "5", "3", "10", "28", "24", "31", "30", "33", "33", "30", "31", "24", "28"], "time": [308, 357, 508, 574, 1476, 1576, 2214, 3912, 3979, 4062, 4629, 7048, 7382, 8333, 8549, 9334, 9668, 10169, 10258, 10569, 12420, 12520, 17526, 18042, 18126, 19619, 20012, 20063, 20429, 21380, 21416, 21431, 21479, 21513, 21597, 21797, 22735, 23348, 23415, 23949, 24166, 24599]}, "edge": {"target": [], "time": []}}}, "displayed_time": "29.71", "trialTime": 31089, "trial_type": "mouselab-mdp", "trial_index": 37, "time_elapsed": 1198056, "internal_node_id": "0.0-6.0-1.0-28.0"}}, {"uniqueid": "w70297030:a25213647", "current_trial": 38, "dateTime": 1693392853431, "trialdata": {"revealed_states": [], "clicked_states": ["17", "11", "29", "21"], "num_clicks_accrued": [0, 0, 0, 0, 0, 0, 0, 0, 0, 0, 0, 0, 0], "stateRewards": ["", 2, 2, 3, -15, 23, -14, 73, -7, -32, -20, -6, 1, 1, -5, -12, 73, 6, -84, 11, -81, -57, 13, -2, -1, -4, -8, -52, -58, 49, 13, 5, -41, -41], "withholdReward": false, "trial_id": "mdp_trial_30", "block": "test", "trialIndex": 31, "score": 25.4, "costs": -8.6, "simulationMode": [null, null, null, null, null], "rewards": [-2, -1, -4, -8, 49], "path": ["0", "0", "23", "24", "25", "26", "29"], "rt": [15027, 34, 37, 95, 31], "actions": ["left", "left", "left", "up", "left"], "actionTimes": [16207, 16734, 17270, 17878, 18398], "queries": {"click": {"state": {"target": ["17", "11", "29", "21"], "time": [2707, 6067, 9371, 12954]}, "edge": {"target": [], "time": []}}, "mouseover": {"state": {"target": ["13", "14", "14", "17", "16", "3", "9", "9", "11", "27", "29", "25", "24", "21"], "time": [1749, 1866, 2033, 2517, 4052, 4102, 4153, 4419, 4553, 7423, 7739, 11627, 11645, 11744]}, "edge": {"target": [], "time": []}}, "mouseout": {"state": {"target": ["28", "1", "18", "13", "14", "14", "17", "16", "3", "9", "9", "11", "11", "27", "29", "25", "24"], "time": [298, 381, 531, 1799, 1883, 2083, 4002, 4069, 4119, 4319, 4486, 6161, 7373, 7506, 11610, 11643, 11660]}, "edge": {"target": [], "time": []}}}, "displayed_time": "18.90", "trialTime": 19862, "trial_type": "mouselab-mdp", "trial_index": 38, "time_elapsed": 1218120, "internal_node_id": "0.0-6.0-1.0-29.0"}}, {"uniqueid": "w70297030:a25213647", "current_trial": 39, "dateTime": 1693392870975, "trialdata": {"revealed_states": [], "clicked_states": ["32", "16", "9"], "num_clicks_accrued": [0, 0, 0, 0, 0, 0, 0, 0, 0, 0, 0, 0, 0], "stateRewards": ["", 1, 1, -7, -9, -44, 24, -83, -15, 44, -24, 72, -2, -3, 4, -5, 57, 55, 29, -11, 22, 12, -25, -1, 2, 7, 12, 33, -8, 47, -4, 8, 50, -4], "withholdReward": false, "trial_id": "mdp_trial_31", "block": "test", "trialIndex": 32, "score": 44.55, "costs": -6.449999999999999, "simulationMode": [null, null, null, null, null], "rewards": [-2, -3, 4, -5, 57], "path": ["0", "0", "12", "13", "14", "15", "16"], "rt": [11620, 9, 581, 9, 84], "actions": ["right", "right", "right", "up", "up"], "actionTimes": [12969, 13472, 14560, 15072, 15664], "queries": {"click": {"state": {"target": ["32", "16", "9"], "time": [2277, 5781, 9301]}, "edge": {"target": [], "time": []}}, "mouseover": {"state": {"target": ["23", "32", "19", "20", "17", "16", "6", "9", "1"], "time": [1766, 2099, 4035, 4102, 5352, 5553, 7405, 7756, 9658]}, "edge": {"target": [], "time": []}}, "mouseout": {"state": {"target": ["21", "23", "0", "23", "32", "19", "20", "17", "16", "6", "9", "1"], "time": [364, 864, 1733, 1799, 3935, 4072, 5219, 5436, 7371, 7422, 9574, 9674]}, "edge": {"target": [], "time": []}}}, "displayed_time": "16.16", "trialTime": 17352, "trial_type": "mouselab-mdp", "trial_index": 39, "time_elapsed": 1235664, "internal_node_id": "0.0-6.0-1.0-30.0"}}, {"uniqueid": "w70297030:a25213647", "current_trial": 40, "dateTime": 1693392886983, "trialdata": {"revealed_states": [], "clicked_states": ["33"], "num_clicks_accrued": [0, 0, 0, 0, 0, 0, 0, 0, 0, 0, 0, 0, 0], "stateRewards": ["", -1, -1, 7, -15, -43, -21, -84, -9, -45, -66, 2, 1, -2, 2, 8, -27, 44, -52, -5, -84, 11, 53, 1, 4, -4, 16, 83, -82, -15, -16, 68, -43, 81], "withholdReward": false, "trial_id": "mdp_trial_32", "block": "test", "trialIndex": 33, "score": 63.85, "costs": -2.15, "simulationMode": [null, null, null, null, null], "rewards": [1, 4, -4, -16, 81], "path": ["0", "0", "23", "24", "25", "30", "33"], "rt": [5882, 103, 247, 56, 138], "actions": ["left", "left", "left", "down", "left"], "actionTimes": [6798, 7389, 8133, 8693, 9325], "queries": {"click": {"state": {"target": ["33"], "time": [2610]}, "edge": {"target": [], "time": []}}, "mouseover": {"state": {"target": ["0", "23", "31", "32", "33", "22", "19", "14", "18", "7", "4", "5", "5", "4", "2", "1"], "time": [1271, 1312, 1395, 1945, 2396, 3464, 3547, 3864, 4115, 4215, 4315, 4632, 5566, 5966, 6000, 6018]}, "edge": {"target": [], "time": []}}, "mouseout": {"state": {"target": ["0", "0", "23", "31", "32", "33", "22", "19", "14", "18", "7", "4", "5", "5", "4", "2", "1"], "time": [610, 1280, 1328, 1478, 2279, 2947, 3514, 3581, 4082, 4182, 4265, 4369, 4682, 5950, 5983, 6016, 6033]}, "edge": {"target": [], "time": []}}}, "displayed_time": "14.92", "trialTime": 15789, "trial_type": "mouselab-mdp", "trial_index": 40, "time_elapsed": 1251672, "internal_node_id": "0.0-6.0-1.0-31.0"}}, {"uniqueid": "w70297030:a25213647", "current_trial": 41, "dateTime": 1693392910959, "trialdata": {"revealed_states": [], "clicked_states": ["21", "9", "29", "17", "32"], "num_clicks_accrued": [0, 0, 0, 0, 0, 0, 0, 0, 0, 0, 0, 0, 0], "stateRewards": ["", -1, 1, 8, -3, -24, 11, -65, -6, -77, 48, 44, -2, 1, -2, -7, -55, -35, 33, 8, -28, 19, -53, -1, -1, -5, -5, -70, 10, 44, 8, -58, -70, 51], "withholdReward": false, "trial_id": "mdp_trial_33", "block": "test", "trialIndex": 34, "score": 21.25, "costs": -10.75, "simulationMode": [null, null, null, null, null], "rewards": [-1, -1, -5, -5, 44], "path": ["0", "0", "23", "24", "25", "26", "29"], "rt": [18656, 51, 108, 523, 82], "actions": ["left", "left", "left", "up", "left"], "actionTimes": [19602, 20146, 20770, 21786, 22362], "queries": {"click": {"state": {"target": ["21", "9", "29", "17", "32"], "time": [2118, 5926, 9406, 12823, 16398]}, "edge": {"target": [], "time": []}}, "mouseover": {"state": {"target": ["12", "14", "20", "21", "19", "14", "15", "4", "3", "9", "11", "29", "29", "15", "17", "17", "12", "0", "32"], "time": [1475, 1525, 1675, 1941, 5245, 5278, 5312, 5462, 5662, 5746, 8065, 8685, 9282, 10768, 10786, 11452, 15789, 15822, 16189]}, "edge": {"target": [], "time": []}}, "mouseout": {"state": {"target": ["0", "0", "12", "14", "20", "21", "19", "14", "15", "4", "3", "9", "11", "29", "29", "15", "17", "17", "12", "0"], "time": [507, 657, 1492, 1541, 1692, 2219, 5262, 5295, 5345, 5579, 5679, 8002, 8115, 8748, 10667, 10784, 10801, 15722, 15805, 15855]}, "edge": {"target": [], "time": []}}}, "displayed_time": "22.86", "trialTime": 23762, "trial_type": "mouselab-mdp", "trial_index": 41, "time_elapsed": 1275648, "internal_node_id": "0.0-6.0-1.0-32.0"}}, {"uniqueid": "w70297030:a25213647", "current_trial": 42, "dateTime": 1693392928423, "trialdata": {"revealed_states": [], "clicked_states": ["27", "32", "7"], "num_clicks_accrued": [0, 0, 0, 0, 0, 0, 0, 0, 0, 0, 0, 0, 0], "stateRewards": ["", -2, 1, -8, 12, -65, -79, 16, 7, -80, -17, -45, -2, 2, -5, -2, -85, 23, -4, -7, 48, 27, -76, 2, 3, 5, 2, 43, 71, -13, 7, -49, 59, -31], "withholdReward": false, "trial_id": "mdp_trial_34", "block": "test", "trialIndex": 35, "score": 69.55, "costs": -6.449999999999999, "simulationMode": [null, null, null, null, null], "rewards": [2, 3, 5, 7, 59], "path": ["0", "0", "23", "24", "25", "30", "32"], "rt": [11912, 106, 130, 105, 75], "actions": ["left", "left", "left", "down", "down"], "actionTimes": [13378, 13978, 14602, 15210, 15781], "queries": {"click": {"state": {"target": ["27", "32", "7"], "time": [2399, 6070, 10023]}, "edge": {"target": [], "time": []}}, "mouseover": {"state": {"target": ["27", "26", "25", "30", "32", "22", "13", "18", "6", "7", "12"], "time": [2147, 5463, 5561, 5628, 5728, 6780, 7013, 7097, 7480, 8198, 10500]}, "edge": {"target": [], "time": []}}, "mouseout": {"state": {"target": ["32", "0", "27", "26", "25", "30", "32", "22", "13", "18", "6", "7", "7", "12"], "time": [472, 1206, 5427, 5544, 5611, 5678, 6646, 6796, 7046, 7130, 7764, 10104, 10433, 10517]}, "edge": {"target": [], "time": []}}}, "displayed_time": "16.27", "trialTime": 17218, "trial_type": "mouselab-mdp", "trial_index": 42, "time_elapsed": 1293111, "internal_node_id": "0.0-6.0-1.0-33.0"}}, {"uniqueid": "w70297030:a25213647", "current_trial": 43, "dateTime": 1693392946479, "trialdata": {"revealed_states": [], "clicked_states": ["17", "29", "5"], "num_clicks_accrued": [0, 0, 0, 0, 0, 0, 0, 0, 0, 0, 0, 0, 0], "stateRewards": ["", -2, -1, -4, -15, -14, -67, 32, -3, -59, 63, 31, 2, -1, -7, -15, 71, -66, -27, -3, -54, -39, 72, 2, 1, 1, -13, 77, -40, 35, -9, 35, 75, 57], "withholdReward": false, "trial_id": "mdp_trial_35", "block": "test", "trialIndex": 36, "score": 19.55, "costs": -6.449999999999999, "simulationMode": [null, null, null, null, null], "rewards": [2, 1, 1, -13, 35], "path": ["0", "0", "23", "24", "25", "26", "29"], "rt": [11944, 575, 219, 166, 139], "actions": ["left", "left", "left", "up", "left"], "actionTimes": [13231, 14303, 15015, 15679, 16319], "queries": {"click": {"state": {"target": ["17", "29", "5"], "time": [2156, 5804, 9420]}, "edge": {"target": [], "time": []}}, "mouseover": {"state": {"target": ["15", "17", "17", "29", "3", "8", "5", "2", "1", "23"], "time": [1631, 1649, 1985, 5569, 7922, 8305, 9205, 10190, 10224, 10274]}, "edge": {"target": [], "time": []}}, "mouseout": {"state": {"target": ["13", "14", "13", "12", "15", "17", "17", "17", "29", "3", "8", "5", "5", "2", "1", "23"], "time": [563, 763, 796, 830, 1648, 1681, 2273, 4951, 7754, 8255, 8321, 9529, 10107, 10207, 10240, 10290]}, "edge": {"target": [], "time": []}}}, "displayed_time": "16.81", "trialTime": 17847, "trial_type": "mouselab-mdp", "trial_index": 43, "time_elapsed": 1311168, "internal_node_id": "0.0-6.0-1.0-34.0"}}, {"uniqueid": "w70297030:a25213647", "current_trial": 44, "dateTime": 1693392962423, "trialdata": {"revealed_states": [], "clicked_states": ["21", "22"], "num_clicks_accrued": [0, 0, 0, 0, 0, 0, 0, 0, 0, 0, 0, 0, 0], "stateRewards": ["", 1, 2, 7, 13, 88, -71, 27, 3, 60, 5, -53, -2, 2, -6, -1, -30, 79, 47, -4, -14, 46, 68, 1, 1, 8, 10, -14, 86, 48, -11, -67, -44, 5], "withholdReward": false, "trial_id": "mdp_trial_36", "block": "test", "trialIndex": 37, "score": 53.7, "costs": -4.3, "simulationMode": [null, null, null, null, null], "rewards": [-2, 2, -6, -4, 68], "path": ["0", "0", "12", "13", "14", "19", "22"], "rt": [8071, 102, 198, 138, 183], "actions": ["right", "right", "right", "down", "left"], "actionTimes": [9075, 9667, 10363, 11003, 11683], "queries": {"click": {"state": {"target": ["21", "22"], "time": [1728, 4936]}, "edge": {"target": [], "time": []}}, "mouseover": {"state": {"target": ["0", "22", "21", "21", "22", "24", "25", "33", "30", "31"], "time": [1154, 1205, 1238, 1605, 2490, 5326, 5344, 5710, 5793, 6126]}, "edge": {"target": [], "time": []}}, "mouseout": {"state": {"target": ["31", "12", "0", "22", "21", "21", "22", "24", "25", "33", "30"], "time": [370, 620, 1172, 1221, 1255, 2173, 5276, 5342, 5359, 5776, 5843]}, "edge": {"target": [], "time": []}}}, "displayed_time": "15.01", "trialTime": 15747, "trial_type": "mouselab-mdp", "trial_index": 44, "time_elapsed": 1327111, "internal_node_id": "0.0-6.0-1.0-35.0"}}, {"uniqueid": "w70297030:a25213647", "current_trial": 45, "dateTime": 1693392982399, "trialdata": {"revealed_states": [], "clicked_states": ["31", "6", "9", "20"], "num_clicks_accrued": [0, 0, 0, 0, 0, 0, 0, 0, 0, 0, 0, 0, 0], "stateRewards": ["", -1, -3, 1, 13, -64, -29, 12, -4, -33, 50, 56, 2, -3, 4, 11, -64, -58, -55, 12, 47, 38, -25, -2, 2, 5, -15, 85, 7, 84, 10, 8, 57, 26], "withholdReward": false, "trial_id": "mdp_trial_37", "block": "test", "trialIndex": 38, "score": 53.4, "costs": -8.6, "simulationMode": [null, null, null, null, null], "rewards": [2, -3, 4, 12, 47], "path": ["0", "0", "12", "13", "14", "19", "20"], "rt": [14749, 100, 92, 188, 104], "actions": ["right", "right", "right", "down", "right"], "actionTimes": [15838, 16429, 17021, 17701, 18301], "queries": {"click": {"state": {"target": ["31", "6", "9", "20"], "time": [1705, 4906, 8330, 12098]}, "edge": {"target": [], "time": []}}, "mouseover": {"state": {"target": ["0", "31", "6", "4", "9", "3", "4", "17", "20", "19"], "time": [1215, 1495, 2430, 7268, 8135, 10655, 10689, 10889, 11889, 13841]}, "edge": {"target": [], "time": []}}, "mouseout": {"state": {"target": ["31", "0", "31", "6", "4", "9", "3", "4", "17", "20", "20"], "time": [444, 1245, 2113, 5030, 7318, 10589, 10672, 10739, 10906, 12211, 13692]}, "edge": {"target": [], "time": []}}}, "displayed_time": "18.80", "trialTime": 19781, "trial_type": "mouselab-mdp", "trial_index": 45, "time_elapsed": 1347087, "internal_node_id": "0.0-6.0-1.0-36.0"}}, {"uniqueid": "w70297030:a25213647", "current_trial": 46, "dateTime": 1693392998239, "trialdata": {"revealed_states": [], "clicked_states": ["33", "16", "18"], "num_clicks_accrued": [0, 0, 0, 0, 0, 0, 0, 0, 0, 0, 0, 0, 0], "stateRewards": ["", 1, 2, 2, -15, -84, 28, -26, 13, 31, 86, 30, -2, 1, -1, -8, 66, -40, -1, -10, -32, 57, -17, 1, 2, -2, 9, -23, 77, 85, 12, -32, -62, -35], "withholdReward": false, "trial_id": "mdp_trial_38", "block": "test", "trialIndex": 39, "score": 49.55, "costs": -6.449999999999999, "simulationMode": [null, null, null, null, null], "rewards": [-2, 1, -1, -8, 66], "path": ["0", "0", "12", "13", "14", "15", "16"], "rt": [10771, 71, 96, 160, 101], "actions": ["right", "right", "right", "up", "up"], "actionTimes": [11584, 12159, 12751, 13399, 13991], "queries": {"click": {"state": {"target": ["33", "16", "18"], "time": [1660, 4948, 8188]}, "edge": {"target": [], "time": []}}, "mouseover": {"state": {"target": ["23", "24", "25", "33", "30", "13", "14", "17", "17", "16", "16", "17", "15", "18"], "time": [1009, 1058, 1125, 1509, 2076, 2476, 2510, 2543, 2744, 2877, 3261, 5663, 6214, 6297]}, "edge": {"target": [], "time": []}}, "mouseout": {"state": {"target": ["12", "23", "24", "25", "33", "30", "13", "14", "17", "17", "16", "16", "17", "15", "18"], "time": [40, 1042, 1108, 1191, 1780, 2093, 2493, 2527, 2577, 2777, 2927, 5546, 6164, 6247, 8289]}, "edge": {"target": [], "time": []}}}, "displayed_time": "14.81", "trialTime": 15631, "trial_type": "mouselab-mdp", "trial_index": 46, "time_elapsed": 1362927, "internal_node_id": "0.0-6.0-1.0-37.0"}}, {"uniqueid": "w70297030:a25213647", "current_trial": 47, "dateTime": 1693393014335, "trialdata": {"revealed_states": [], "clicked_states": ["21"], "num_clicks_accrued": [0, 0, 0, 0, 0, 0, 0, 0, 0, 0, 0, 0, 0], "stateRewards": ["", -1, 3, 8, 10, -86, 61, -36, 10, 17, -60, 24, -1, -3, 3, 11, 50, 60, 33, -3, -20, 58, -6, 1, -4, -4, 13, -70, -71, 43, 14, 52, 82, -11], "withholdReward": false, "trial_id": "mdp_trial_39", "block": "test", "trialIndex": 40, "score": 51.85, "costs": -2.15, "simulationMode": [null, null, null, null, null], "rewards": [-1, -3, 3, -3, 58], "path": ["0", "0", "12", "13", "14", "19", "21"], "rt": [5297, 86, 102, 366, 50], "actions": ["right", "right", "right", "down", "down"], "actionTimes": [6140, 6716, 7316, 8180, 8732], "queries": {"click": {"state": {"target": ["21"], "time": [1545]}, "edge": {"target": [], "time": []}}, "mouseover": {"state": {"target": ["22", "19", "21", "25", "29", "27", "27", "27", "26", "23"], "time": [1056, 1074, 1356, 2357, 2775, 2894, 3058, 4943, 5360, 5394]}, "edge": {"target": [], "time": []}}, "mouseout": {"state": {"target": ["17", "14", "13", "12", "0", "22", "19", "21", "25", "29", "27", "27", "27", "26", "23"], "time": [154, 221, 288, 471, 1022, 1073, 1089, 1622, 2441, 2841, 2958, 3208, 5343, 5377, 5410]}, "edge": {"target": [], "time": []}}}, "displayed_time": "14.85", "trialTime": 15892, "trial_type": "mouselab-mdp", "trial_index": 47, "time_elapsed": 1379023, "internal_node_id": "0.0-6.0-1.0-38.0"}}, {"uniqueid": "w70297030:a25213647", "current_trial": 48, "dateTime": 1693393030415, "trialdata": {"revealed_states": [], "clicked_states": ["9"], "num_clicks_accrued": [0, 0, 0, 0, 0, 0, 0, 0, 0, 0, 0, 0, 0], "stateRewards": ["", -1, -3, -7, -4, -85, -70, 79, 8, 84, -66, 42, 2, -2, -3, -16, -54, -66, 68, -3, 21, -14, 7, -2, -1, -3, -8, 75, 80, 86, -7, -84, 73, -16], "withholdReward": false, "trial_id": "mdp_trial_40", "block": "test", "trialIndex": 41, "score": 78.85, "costs": -2.15, "simulationMode": [null, null, null, null, null], "rewards": [-1, -3, -7, 8, 84], "path": ["0", "0", "1", "2", "3", "8", "9"], "rt": [5108, 75, 163, 105, 140], "actions": ["up", "up", "up", "left", "up"], "actionTimes": [6126, 6702, 7358, 7966, 8606], "queries": {"click": {"state": {"target": ["9"], "time": [1955]}, "edge": {"target": [], "time": []}}, "mouseover": {"state": {"target": ["10", "8", "9", "16", "29", "26", "28", "18", "17"], "time": [1153, 1420, 1620, 2321, 2855, 2874, 2890, 3356, 4207]}, "edge": {"target": [], "time": []}}, "mouseout": {"state": {"target": ["0", "0", "10", "8", "9", "9", "16", "29", "26", "28", "18"], "time": [85, 1053, 1253, 1503, 2080, 2271, 2338, 2872, 2889, 2905, 3372]}, "edge": {"target": [], "time": []}}}, "displayed_time": "15.02", "trialTime": 15870, "trial_type": "mouselab-mdp", "trial_index": 48, "time_elapsed": 1395104, "internal_node_id": "0.0-6.0-1.0-39.0"}}, {"uniqueid": "w70297030:a25213647", "current_trial": 49, "dateTime": 1693393158806, "trialdata": {"rt": 128389, "response": {"Q0": "$-2 to $2", "Q1": "$-4 to $4", "Q2": "$-16 to $16", "Q3": "The cost for clicking on nodes varied between nodes.", "Q4": "Very motivated"}, "question_order": [0, 1, 2, 3, 4], "trial_id": "final_quiz_control", "trial_type": "survey-multi-choice", "trial_index": 49, "time_elapsed": 1523495, "internal_node_id": "0.0-6.0-2.0"}}, {"uniqueid": "w70297030:a25213647", "current_trial": 50, "dateTime": 1693393408041, "trialdata": {"rt": 249234, "response": {"Q0": "I used the node inspector to check the nodes on opposite ends of each node. ", "Q1": "Yes, I later realized that the inner nodes usually had more value. So, I used the node inspector to check the inner nodes first. ", "Q2": "It was not that difficult, but it was challenging to get the right node for each round immediately using the node inspector. "}, "trial_id": "self_report_control", "trial_type": "survey-text", "trial_index": 50, "time_elapsed": 1772730, "internal_node_id": "0.0-6.0-3.0"}}, {"uniqueid": "w70297030:a25213647", "current_trial": 51, "dateTime": 1693393539862, "trialdata": {"rt": 131822, "response": {"Q0": "Disagree", "Q1": "Disagree", "Q2": "Agree", "Q3": "Strongly agree", "Q4": "Strongly disagree", "Q5": "Strongly agree", "Q6": "Strongly disagree"}, "question_order": [0, 1, 2, 3, 4, 5, 6], "trial_id": "self_report_2", "trial_type": "survey-multi-choice", "trial_index": 51, "time_elapsed": 1904551, "internal_node_id": "0.0-6.0-4.0"}}, {"uniqueid": "w70297030:a25213647", "current_trial": 52, "dateTime": 1693393585133, "trialdata": {"rt": 45268, "response": {"gender": "female", "age": "20", "colorblind": "0", "effort": "0"}, "trial_type": "survey-html-form", "trial_index": 52, "time_elapsed": 1949822, "internal_node_id": "0.0-6.0-5.0"}}, {"uniqueid": "w70297030:a25213647", "current_trial": 53, "dateTime": 1693393656772, "trialdata": {"rt": 71636, "response": {"Q0": "No", "Q1": "No", "Q2": "The Web of Cash HIT was pretty enjoyable."}, "trial_type": "survey-text", "trial_index": 53, "time_elapsed": 2021461, "internal_node_id": "0.0-6.0-6.0"}}, {"uniqueid": "w70297030:a25213647", "current_trial": 54, "dateTime": 1693393703508, "trialdata": {"rt": 46733, "stimulus": "<h1>Completion Code Instructions (1/2)</h1>\n<br><br><br><br>\nYou have reached the end of the experiment! The completion code consists of two parts: (1) a code with 2 characters (2) a code with 6 characters. On this page, you will receive the second part of the code. The first part of the completion code will be on the next page.\n<br><br>\nThe second part of your completion code is: <b>EWEK22</b>\n<br><br>\nPlease note this down. Then, press 'Finish HIT' in order to find the first part of your completion code. Once the data has been saved, you will receive this code either in this window or in the original browser window where you started the experiment.\n", "response": 0, "trial_type": "html-button-response", "trial_index": 54, "time_elapsed": 2068196, "internal_node_id": "0.0-6.0-7.0"}}, {"uniqueid": "w70297030:a25213647", "current_trial": 55, "dateTime": 1693393704510, "trialdata": {"success": true, "trial_type": "fullscreen", "trial_index": 55, "time_elapsed": 2069199, "internal_node_id": "0.0-7.0"}}], "questiondata": {"params": {"CODE": "C6DMOQA6", "MIN_TIME": 14, "inspectCost": 1, "startTime": "Wed Aug 30 2023 12:33:53 GMT+0200 (South Africa Standard Time)", "bonusRate": 0.002, "variance": "1_2_4_8_44", "branching": "31123"}, "final_score": 1859.25}, "eventdata": [{"eventtype": "initialized", "value": null, "timestamp": 1693391633010, "interval": 0}, {"eventtype": "window_resize", "value": [1024, 768], "timestamp": 1693391633010, "interval": 0}, {"eventtype": "window_resize", "value": [1024, 768], "timestamp": 1693391633432, "interval": 422}, {"eventtype": "window_resize", "value": [1920, 986], "timestamp": 1693391639824, "interval": 6392}, {"eventtype": "window_resize", "value": [1920, 1080], "timestamp": 1693391642224, "interval": 2400}, {"eventtype": "focus", "value": "off", "timestamp": 1693393358969, "interval": 1716745}, {"eventtype": "window_resize", "value": [1920, 1079], "timestamp": 1693393359186, "interval": 217}, {"eventtype": "window_resize", "value": [1920, 1080], "timestamp": 1693393359392, "interval": 206}, {"eventtype": "focus", "value": "on", "timestamp": 1693393360323, "interval": 931}, {"eventtype": "window_resize", "value": [1920, 986], "timestamp": 1693393703723, "interval": 343400}], "useragent": "Mozilla/5.0 (Windows NT 10.0; Win64; x64) AppleWebKit/537.36 (KHTML, like Gecko) Chrome/116.0.0.0 Safari/537.36 Edg/116.0.1938.62", "mode": "live", "id": "w70297030:a25213647", "status": "user data saved", "Beginhit": "2023-08-30 10:33:50.351644", "Beginexp": "2023-08-30 10:34:03.05887", "Endhit": "2023-08-30 11:08:25.294971", "psiturkStatus": 3, "browser": "<redacted>", "platform": "windows", "language": "en-US"}