{"condition": 0, "counterbalance": 0, "assignmentId": "a83947493", "workerId": "w20913252", "hitId": "h37150189", "currenttrial": 55, "bonus": 0, "data": [{"uniqueid": "w20913252:a83947493", "current_trial": 0, "dateTime": 1691142122580, "trialdata": {"success": true, "trial_type": "fullscreen", "trial_index": 0, "time_elapsed": 12848, "internal_node_id": "0.0-0.0"}}, {"uniqueid": "w20913252:a83947493", "current_trial": 1, "dateTime": 1691142145878, "trialdata": {"view_history": [{"page_index": 0, "viewing_time": 23274}], "rt": 23275, "trial_id": "exp_instructions_control", "trial_type": "instructions", "trial_index": 1, "time_elapsed": 36147, "internal_node_id": "0.0-1.0"}}, {"uniqueid": "w20913252:a83947493", "current_trial": 2, "dateTime": 1691142150564, "trialdata": {"success": true, "trial_type": "fullscreen", "trial_index": 2, "time_elapsed": 40833, "internal_node_id": "0.0-2.0-0.0"}}, {"uniqueid": "w20913252:a83947493", "current_trial": 3, "dateTime": 1691142410227, "trialdata": {"view_history": [{"page_index": 0, "viewing_time": 99554}, {"page_index": 1, "viewing_time": 89516}, {"page_index": 2, "viewing_time": 28405}, {"page_index": 3, "viewing_time": 42184}], "rt": 259658, "trial_id": "mouselab_instructions_1_control", "trial_type": "instructions", "trial_index": 3, "time_elapsed": 300496, "internal_node_id": "0.0-2.0-1.0"}}, {"uniqueid": "w20913252:a83947493", "current_trial": 4, "dateTime": 1691142433300, "trialdata": {"revealed_states": [], "clicked_states": [], "num_clicks_accrued": [0, 0, 0, 0, 0, 0, 0, 0, 0, 0, 0, 0, 0], "stateRewards": ["", 10, -10, 10, 10, 10, 10, -10, 10, 10, -10, 10, -10, 10, 10, -10, -10, -10, -10, 10, -10, -10, -10, -10, -10, -10, -10, 10, -10, -10, 10, 10, -10, 10], "withholdReward": false, "trial_id": "practice_1", "block": "test", "trialIndex": 0, "score": 13.5, "costs": 0, "simulationMode": [null, null, null, null, null], "rewards": [-10, 10, 10, 10, -10], "path": ["0", "0", "12", "13", "14", "19", "21"], "rt": [2042, 384, 401, 191, 250], "actions": ["right", "right", "right", "down", "down"], "actionTimes": [10283, 11211, 12165, 12871, 13665], "queries": {"click": {"state": {"target": [], "time": []}, "edge": {"target": [], "time": []}}, "mouseover": {"state": {"target": [], "time": []}, "edge": {"target": [], "time": []}}, "mouseout": {"state": {"target": ["0", "0", "12", "13", "14"], "time": [6878, 16757, 16808, 16857, 16891]}, "edge": {"target": [], "time": []}}}, "displayed_time": "14.22", "trialTime": 21614, "trial_type": "mouselab-mdp", "trial_index": 4, "time_elapsed": 323568, "internal_node_id": "0.0-2.0-2.0-0.0"}}, {"uniqueid": "w20913252:a83947493", "current_trial": 5, "dateTime": 1691142448617, "trialdata": {"revealed_states": [], "clicked_states": [], "num_clicks_accrued": [0, 0, 0, 0, 0, 0, 0, 0, 0, 0, 0, 0, 0], "stateRewards": ["", -10, -10, 10, 10, 10, 10, 10, -10, -10, -10, -10, -10, 10, 10, -10, -10, 10, 10, -10, -10, -10, -10, -10, -10, 10, -10, 10, -10, 10, 10, -10, 10, 10], "withholdReward": false, "trial_id": "practice_2", "block": "test", "trialIndex": 1, "score": -26.5, "costs": 0, "simulationMode": [null, null, null, null, null], "rewards": [-10, -10, 10, -10, -10], "path": ["0", "0", "1", "2", "3", "8", "9"], "rt": [525, 868, 3055, 250, 197], "actions": ["up", "up", "up", "left", "up"], "actionTimes": [3775, 5193, 8803, 9589, 10324], "queries": {"click": {"state": {"target": [], "time": []}, "edge": {"target": [], "time": []}}, "mouseover": {"state": {"target": [], "time": []}, "edge": {"target": [], "time": []}}, "mouseout": {"state": {"target": ["19", "12"], "time": [1470, 1516]}, "edge": {"target": [], "time": []}}}, "displayed_time": "10.87", "trialTime": 14476, "trial_type": "mouselab-mdp", "trial_index": 5, "time_elapsed": 338885, "internal_node_id": "0.0-2.0-2.0-1.0"}}, {"uniqueid": "w20913252:a83947493", "current_trial": 6, "dateTime": 1691142478302, "trialdata": {"view_history": [{"page_index": 0, "viewing_time": 14663}, {"page_index": 1, "viewing_time": 15010}], "rt": 29675, "trial_id": "mouselab_instructions_2_control", "trial_type": "instructions", "trial_index": 6, "time_elapsed": 368571, "internal_node_id": "0.0-2.0-3.0"}}, {"uniqueid": "w20913252:a83947493", "current_trial": 7, "dateTime": 1691142562380, "trialdata": {"rt": 84067, "response": {"Q0": "The cost for clicking on nodes may vary between nodes.", "Q1": "The better I perform the higher my bonus will be.", "Q2": "No, the amount of cash at each node of the web may be different each time.", "Q3": "To get the highest total score.", "Q4": "Only before moving the spider.", "Q5": "3 seconds"}, "question_order": [0, 1, 2, 3, 4, 5], "correct": {"Q0": "The cost for clicking on nodes may vary between nodes.", "Q1": "The better I perform the higher my bonus will be.", "Q2": "No, the amount of cash at each node of the web may be different each time.", "Q3": "To get the highest total score.", "Q4": "Only before moving the spider.", "Q5": "3 seconds"}, "trial_id": "mouselab_quiz_control", "trial_type": "survey-multi-choice", "trial_index": 7, "time_elapsed": 452649, "internal_node_id": "0.0-2.0-4.0"}}, {"uniqueid": "w20913252:a83947493", "current_trial": 8, "dateTime": 1691142585387, "trialdata": {"rt": 22989, "stimulus": "\n<h1> Get ready to start the game! </h1>\n\nThank you for reading the instructions. Get ready start with the 40 rounds of this game.\n<br><br>\nIf you need to take a break, feel free to take one after the end of a round, before continuing to the next one.\n<br><br>\nRemember, the more money the spider gets, the bigger your bonus will be!\n<br><br>\n<div style='text-align: center;'>Press <code>space</code> to begin.</div>\n\n<br><br>\n(If, at any point, the <code>space</code> key does not take you to the next page, click once on the text and try again.)", "response": " ", "trial_id": "mdp_ready", "trial_type": "html-keyboard-response", "trial_index": 8, "time_elapsed": 475656, "internal_node_id": "0.0-4.0-0.0"}}, {"uniqueid": "w20913252:a83947493", "current_trial": 9, "dateTime": 1691142605757, "trialdata": {"revealed_states": [], "clicked_states": [], "num_clicks_accrued": [0, 0, 0, 0, 0, 0, 0, 0, 0, 0, 0, 0, 0], "stateRewards": ["", 1, -2, -2, 10, -31, -77, 35, 9, -47, 8, 48, -2, 1, -4, -3, -26, -50, 43, -11, 76, -38, 17, 1, -1, 6, 10, 15, -9, 12, -8, 85, 11, -55], "withholdReward": false, "trial_id": "mdp_trial_1", "block": "test", "trialIndex": 2, "score": -54, "costs": 0, "simulationMode": [null, null, null, null, null], "rewards": [-2, 1, -4, -11, -38], "path": ["0", "0", "12", "13", "14", "19", "21"], "rt": [1593, 315, 444, 102, 251], "actions": ["right", "right", "right", "down", "down"], "actionTimes": [4147, 5038, 6012, 6668, 7461], "queries": {"click": {"state": {"target": [], "time": []}, "edge": {"target": [], "time": []}}, "mouseover": {"state": {"target": [], "time": []}, "edge": {"target": [], "time": []}}, "mouseout": {"state": {"target": ["10"], "time": [1056]}, "edge": {"target": [], "time": []}}}, "displayed_time": "16.56", "trialTime": 19428, "trial_type": "mouselab-mdp", "trial_index": 9, "time_elapsed": 496024, "internal_node_id": "0.0-4.0-1.0-0.0"}}, {"uniqueid": "w20913252:a83947493", "current_trial": 10, "dateTime": 1691142625717, "trialdata": {"revealed_states": [], "clicked_states": [], "num_clicks_accrued": [0, 0, 0, 0, 0, 0, 0, 0, 0, 0, 0, 0, 0], "stateRewards": ["", 2, -1, 1, 10, -52, 86, -22, -2, -14, -63, 38, 1, 3, 7, -8, 11, -32, -27, 9, -71, 40, -87, -2, -1, 5, -7, 12, 31, -57, 13, 86, -58, 29], "withholdReward": false, "trial_id": "mdp_trial_2", "block": "test", "trialIndex": 3, "score": 44, "costs": 0, "simulationMode": [null, null, null, null, null], "rewards": [-2, -1, 5, 13, 29], "path": ["0", "0", "23", "24", "25", "30", "33"], "rt": [1660, 158, 236, 187, 948], "actions": ["left", "left", "left", "down", "left"], "actionTimes": [4530, 5234, 6018, 6741, 8222], "queries": {"click": {"state": {"target": [], "time": []}, "edge": {"target": [], "time": []}}, "mouseover": {"state": {"target": [], "time": []}, "edge": {"target": [], "time": []}}, "mouseout": {"state": {"target": [], "time": []}, "edge": {"target": [], "time": []}}}, "displayed_time": "16.87", "trialTime": 19047, "trial_type": "mouselab-mdp", "trial_index": 10, "time_elapsed": 515984, "internal_node_id": "0.0-4.0-1.0-1.0"}}, {"uniqueid": "w20913252:a83947493", "current_trial": 11, "dateTime": 1691142646952, "trialdata": {"revealed_states": [], "clicked_states": [], "num_clicks_accrued": [0, 0, 0, 0, 0, 0, 0, 0, 0, 0, 0, 0, 0], "stateRewards": ["", -1, 3, 2, 9, 41, 4, -46, -12, -54, -87, -25, 2, 3, -1, 11, -77, 12, -33, -9, -32, 35, 72, 1, 3, -7, 4, 37, 65, -73, 6, 77, -43, 8], "withholdReward": false, "trial_id": "mdp_trial_3", "block": "test", "trialIndex": 4, "score": 66, "costs": 0, "simulationMode": [null, null, null, null, null], "rewards": [1, 3, -7, 4, 65], "path": ["0", "0", "23", "24", "25", "26", "28"], "rt": [1953, 315, 280, 203, 874], "actions": ["left", "left", "left", "up", "right"], "actionTimes": [6540, 7395, 8216, 8940, 10347], "queries": {"click": {"state": {"target": [], "time": []}, "edge": {"target": [], "time": []}}, "mouseover": {"state": {"target": [], "time": []}, "edge": {"target": [], "time": []}}, "mouseout": {"state": {"target": ["0"], "time": [3408]}, "edge": {"target": [], "time": []}}}, "displayed_time": "18.59", "trialTime": 20333, "trial_type": "mouselab-mdp", "trial_index": 11, "time_elapsed": 537219, "internal_node_id": "0.0-4.0-1.0-2.0"}}, {"uniqueid": "w20913252:a83947493", "current_trial": 12, "dateTime": 1691142666768, "trialdata": {"revealed_states": [], "clicked_states": [], "num_clicks_accrued": [0, 0, 0, 0, 0, 0, 0, 0, 0, 0, 0, 0, 0], "stateRewards": ["", 1, 1, 7, -11, 80, -20, -53, -14, 3, 31, 27, 2, -1, -8, -10, 33, 41, 86, 9, 78, -37, -13, -1, -2, -6, -8, -80, 75, 4, -16, -49, -74, 24], "withholdReward": false, "trial_id": "mdp_trial_4", "block": "test", "trialIndex": 5, "score": 24, "costs": 0, "simulationMode": [null, null, null, null, null], "rewards": [2, -1, -8, -10, 41], "path": ["0", "0", "12", "13", "14", "15", "17"], "rt": [1430, 145, 247, 180, 163], "actions": ["right", "right", "right", "up", "right"], "actionTimes": [4761, 5469, 6253, 6980, 7660], "queries": {"click": {"state": {"target": [], "time": []}, "edge": {"target": [], "time": []}}, "mouseover": {"state": {"target": [], "time": []}, "edge": {"target": [], "time": []}}, "mouseout": {"state": {"target": [], "time": []}, "edge": {"target": [], "time": []}}}, "displayed_time": "17.33", "trialTime": 18758, "trial_type": "mouselab-mdp", "trial_index": 12, "time_elapsed": 557036, "internal_node_id": "0.0-4.0-1.0-3.0"}}, {"uniqueid": "w20913252:a83947493", "current_trial": 13, "dateTime": 1691142688385, "trialdata": {"revealed_states": [], "clicked_states": [], "num_clicks_accrued": [0, 0, 0, 0, 0, 0, 0, 0, 0, 0, 0, 0, 0], "stateRewards": ["", -2, -4, 2, 10, -17, 18, 73, 11, -32, 23, -13, -2, -4, 7, 12, -25, 66, -23, 15, 40, -76, -9, 1, 2, -7, -5, -20, 24, 3, -5, 16, -73, 70], "withholdReward": false, "trial_id": "mdp_trial_5", "block": "test", "trialIndex": 6, "score": 7, "costs": 0, "simulationMode": [null, null, null, null, null], "rewards": [-2, -4, 7, 15, -9], "path": ["0", "0", "12", "13", "14", "19", "22"], "rt": [1167, 261, 218, 296, 337], "actions": ["right", "right", "right", "down", "left"], "actionTimes": [5714, 6505, 7268, 8121, 9002], "queries": {"click": {"state": {"target": [], "time": []}, "edge": {"target": [], "time": []}}, "mouseover": {"state": {"target": [], "time": []}, "edge": {"target": [], "time": []}}, "mouseout": {"state": {"target": ["0"], "time": [3814]}, "edge": {"target": [], "time": []}}}, "displayed_time": "18.55", "trialTime": 20467, "trial_type": "mouselab-mdp", "trial_index": 13, "time_elapsed": 578652, "internal_node_id": "0.0-4.0-1.0-4.0"}}, {"uniqueid": "w20913252:a83947493", "current_trial": 14, "dateTime": 1691142707628, "trialdata": {"revealed_states": [], "clicked_states": [], "num_clicks_accrued": [0, 0, 0, 0, 0, 0, 0, 0, 0, 0, 0, 0, 0], "stateRewards": ["", -1, -3, 3, 5, 56, 39, 50, -1, -80, 33, -46, 1, -2, -6, -8, 87, 48, 54, -11, -20, -64, -54, -2, 3, -7, -3, 12, 88, 35, -16, -46, -70, -3], "withholdReward": false, "trial_id": "mdp_trial_6", "block": "test", "trialIndex": 7, "score": 54, "costs": 0, "simulationMode": [null, null, null, null, null], "rewards": [-1, -3, 3, 5, 50], "path": ["0", "0", "1", "2", "3", "4", "7"], "rt": [1544, 231, 292, 166, 453], "actions": ["up", "up", "up", "right", "down"], "actionTimes": [3896, 4683, 5522, 6224, 7217], "queries": {"click": {"state": {"target": [], "time": []}, "edge": {"target": [], "time": []}}, "mouseover": {"state": {"target": [], "time": []}, "edge": {"target": [], "time": []}}, "mouseout": {"state": {"target": ["0"], "time": [1547]}, "edge": {"target": [], "time": []}}}, "displayed_time": "16.35", "trialTime": 17941, "trial_type": "mouselab-mdp", "trial_index": 14, "time_elapsed": 597895, "internal_node_id": "0.0-4.0-1.0-5.0"}}, {"uniqueid": "w20913252:a83947493", "current_trial": 15, "dateTime": 1691142729023, "trialdata": {"revealed_states": [], "clicked_states": [], "num_clicks_accrued": [0, 0, 0, 0, 0, 0, 0, 0, 0, 0, 0, 0, 0], "stateRewards": ["", 1, 1, -3, 7, 49, 78, 26, -5, 26, 48, -43, -1, -3, 2, -5, 4, -1, -60, 10, -35, 51, 81, -2, 1, -7, -5, -39, -86, -54, 4, -3, 74, 77], "withholdReward": false, "trial_id": "mdp_trial_7", "block": "test", "trialIndex": 8, "score": 20, "costs": 0, "simulationMode": [null, null, null, null, null], "rewards": [1, 1, -3, -5, 26], "path": ["0", "0", "1", "2", "3", "8", "9"], "rt": [8917, 63, 257, 325, 401], "actions": ["up", "up", "up", "left", "up"], "actionTimes": [11684, 12291, 13119, 13994, 14946], "queries": {"click": {"state": {"target": [], "time": []}, "edge": {"target": [], "time": []}}, "mouseover": {"state": {"target": [], "time": []}, "edge": {"target": [], "time": []}}, "mouseout": {"state": {"target": ["0"], "time": [1985]}, "edge": {"target": [], "time": []}}}, "displayed_time": "16.77", "trialTime": 20136, "trial_type": "mouselab-mdp", "trial_index": 15, "time_elapsed": 619290, "internal_node_id": "0.0-4.0-1.0-6.0"}}, {"uniqueid": "w20913252:a83947493", "current_trial": 16, "dateTime": 1691142749942, "trialdata": {"revealed_states": [], "clicked_states": [], "num_clicks_accrued": [0, 0, 0, 0, 0, 0, 0, 0, 0, 0, 0, 0, 0], "stateRewards": ["", 1, 4, 7, -16, -84, -6, -46, -12, -7, -49, -26, -1, 2, -4, 2, 22, 37, -64, 1, 88, -13, -10, 1, -4, -2, 5, 2, -10, -34, 9, 66, 55, 38], "withholdReward": false, "trial_id": "mdp_trial_8", "block": "test", "trialIndex": 9, "score": -34, "costs": 0, "simulationMode": [null, null, null, null, null], "rewards": [1, -4, -2, 5, -34], "path": ["0", "0", "23", "24", "25", "26", "29"], "rt": [1911, 54, 337, 142, 476], "actions": ["left", "left", "left", "up", "left"], "actionTimes": [4333, 4991, 5885, 6555, 7579], "queries": {"click": {"state": {"target": [], "time": []}, "edge": {"target": [], "time": []}}, "mouseover": {"state": {"target": [], "time": []}, "edge": {"target": [], "time": []}}, "mouseout": {"state": {"target": ["0"], "time": [1634]}, "edge": {"target": [], "time": []}}}, "displayed_time": "16.43", "trialTime": 19596, "trial_type": "mouselab-mdp", "trial_index": 16, "time_elapsed": 640209, "internal_node_id": "0.0-4.0-1.0-7.0"}}, {"uniqueid": "w20913252:a83947493", "current_trial": 17, "dateTime": 1691142768596, "trialdata": {"revealed_states": [], "clicked_states": [], "num_clicks_accrued": [0, 0, 0, 0, 0, 0, 0, 0, 0, 0, 0, 0, 0], "stateRewards": ["", 1, -3, 4, 13, -72, 52, 5, 5, -58, 5, 14, 2, 1, 3, -14, -86, -4, 73, 6, -58, -50, 49, 2, -3, -4, 2, 33, -41, 42, -11, 81, 45, 53], "withholdReward": false, "trial_id": "mdp_trial_9", "block": "test", "trialIndex": 10, "score": 29, "costs": 0, "simulationMode": [null, null, null, null, null], "rewards": [2, -3, -4, -11, 45], "path": ["0", "0", "23", "24", "25", "30", "32"], "rt": [1567, 141, 193, 151, 189], "actions": ["left", "left", "left", "down", "down"], "actionTimes": [3243, 3937, 4667, 5367, 6105], "queries": {"click": {"state": {"target": [], "time": []}, "edge": {"target": [], "time": []}}, "mouseover": {"state": {"target": [], "time": []}, "edge": {"target": [], "time": []}}, "mouseout": {"state": {"target": ["0"], "time": [811]}, "edge": {"target": [], "time": []}}}, "displayed_time": "15.68", "trialTime": 17242, "trial_type": "mouselab-mdp", "trial_index": 17, "time_elapsed": 658864, "internal_node_id": "0.0-4.0-1.0-8.0"}}, {"uniqueid": "w20913252:a83947493", "current_trial": 18, "dateTime": 1691142789624, "trialdata": {"revealed_states": [], "clicked_states": [], "num_clicks_accrued": [0, 0, 0, 0, 0, 0, 0, 0, 0, 0, 0, 0, 0], "stateRewards": ["", 2, 3, -3, 12, -43, 81, -82, -15, 58, -7, -75, -1, -1, 3, -5, 50, -25, -8, 4, 66, 65, -66, 2, -4, 2, -1, -10, 10, 37, 11, 88, -37, 8], "withholdReward": false, "trial_id": "mdp_trial_10", "block": "test", "trialIndex": 11, "score": 95, "costs": 0, "simulationMode": [null, null, null, null, null], "rewards": [2, 3, -3, 12, 81], "path": ["0", "0", "1", "2", "3", "4", "6"], "rt": [1066, 148, 234, 78, 630], "actions": ["up", "up", "up", "right", "right"], "actionTimes": [4221, 4903, 5686, 6322, 7500], "queries": {"click": {"state": {"target": [], "time": []}, "edge": {"target": [], "time": []}}, "mouseover": {"state": {"target": [], "time": []}, "edge": {"target": [], "time": []}}, "mouseout": {"state": {"target": ["0"], "time": [1903]}, "edge": {"target": [], "time": []}}}, "displayed_time": "17.16", "trialTime": 18532, "trial_type": "mouselab-mdp", "trial_index": 18, "time_elapsed": 679892, "internal_node_id": "0.0-4.0-1.0-9.0"}}, {"uniqueid": "w20913252:a83947493", "current_trial": 19, "dateTime": 1691142818169, "trialdata": {"revealed_states": [], "clicked_states": [], "num_clicks_accrued": [0, 0, 0, 0, 0, 0, 0, 0, 0, 0, 0, 0, 0], "stateRewards": ["", 1, -1, 4, 5, -32, 18, 20, 6, -88, -74, 9, -2, 1, -2, -14, 34, -77, -38, -1, 80, -36, 73, 2, 3, -8, 10, -48, -73, -71, -11, -22, 20, 54], "withholdReward": false, "trial_id": "mdp_trial_11", "block": "test", "trialIndex": 12, "score": 76, "costs": 0, "simulationMode": [null, null, null, null, null], "rewards": [-2, 1, -2, -1, 80], "path": ["0", "0", "12", "13", "14", "19", "20"], "rt": [1609, 837, 390, 343, 525], "actions": ["right", "right", "right", "down", "right"], "actionTimes": [5667, 7064, 8109, 9028, 10115], "queries": {"click": {"state": {"target": [], "time": []}, "edge": {"target": [], "time": []}}, "mouseover": {"state": {"target": [], "time": []}, "edge": {"target": [], "time": []}}, "mouseout": {"state": {"target": ["0"], "time": [1356]}, "edge": {"target": [], "time": []}}}, "displayed_time": "18.26", "trialTime": 23885, "trial_type": "mouselab-mdp", "trial_index": 19, "time_elapsed": 708436, "internal_node_id": "0.0-4.0-1.0-10.0"}}, {"uniqueid": "w20913252:a83947493", "current_trial": 20, "dateTime": 1691142840226, "trialdata": {"revealed_states": [], "clicked_states": [], "num_clicks_accrued": [0, 0, 0, 0, 0, 0, 0, 0, 0, 0, 0, 0, 0], "stateRewards": ["", -2, 2, -1, -6, 22, 6, 6, -5, 70, -42, 65, 1, 3, 5, -6, -67, -9, 3, 14, 7, -62, -13, -2, 4, 1, 16, 42, -21, -52, -8, 32, 53, 81], "withholdReward": false, "trial_id": "mdp_trial_12", "block": "test", "trialIndex": 13, "score": 15, "costs": 0, "simulationMode": [null, null, null, null, null], "rewards": [-2, 2, -1, -6, 22], "path": ["0", "0", "1", "2", "3", "4", "5"], "rt": [850, 177, 233, 336, 266], "actions": ["up", "up", "up", "right", "up"], "actionTimes": [4147, 4883, 5681, 6600, 7437], "queries": {"click": {"state": {"target": [], "time": []}, "edge": {"target": [], "time": []}}, "mouseover": {"state": {"target": [], "time": []}, "edge": {"target": [], "time": []}}, "mouseout": {"state": {"target": ["0"], "time": [939]}, "edge": {"target": [], "time": []}}}, "displayed_time": "17.32", "trialTime": 18914, "trial_type": "mouselab-mdp", "trial_index": 20, "time_elapsed": 730494, "internal_node_id": "0.0-4.0-1.0-11.0"}}, {"uniqueid": "w20913252:a83947493", "current_trial": 21, "dateTime": 1691142864873, "trialdata": {"revealed_states": [], "clicked_states": [], "num_clicks_accrued": [0, 0, 0, 0, 0, 0, 0, 0, 0, 0, 0, 0, 0], "stateRewards": ["", -1, -3, -6, -2, -7, 80, -45, -3, -38, -72, 76, 2, 1, 7, 4, -62, 14, -74, 14, -87, -21, -88, -2, 1, -7, -10, 66, 56, -76, 10, -29, -72, -70], "withholdReward": false, "trial_id": "mdp_trial_13", "block": "test", "trialIndex": 14, "score": 63, "costs": 0, "simulationMode": [null, null, null, null, null], "rewards": [-1, -3, -6, -3, 76], "path": ["0", "0", "1", "2", "3", "8", "11"], "rt": [2031, 178, 8, 270, 1610], "actions": ["up", "up", "up", "left", "left"], "actionTimes": [5886, 6656, 7453, 8289, 10525], "queries": {"click": {"state": {"target": [], "time": []}, "edge": {"target": [], "time": []}}, "mouseover": {"state": {"target": [], "time": []}, "edge": {"target": [], "time": []}}, "mouseout": {"state": {"target": ["0"], "time": [1568]}, "edge": {"target": [], "time": []}}}, "displayed_time": "17.86", "trialTime": 19219, "trial_type": "mouselab-mdp", "trial_index": 21, "time_elapsed": 755141, "internal_node_id": "0.0-4.0-1.0-12.0"}}, {"uniqueid": "w20913252:a83947493", "current_trial": 22, "dateTime": 1691142890739, "trialdata": {"revealed_states": [], "clicked_states": [], "num_clicks_accrued": [0, 0, 0, 0, 0, 0, 0, 0, 0, 0, 0, 0, 0], "stateRewards": ["", -1, 2, 7, 8, 75, 67, -11, 6, 52, -17, 38, -1, 4, -8, 14, 74, -37, -17, -12, 52, 55, 71, -2, -1, -5, 2, 21, 6, -88, -14, 64, -61, -47], "withholdReward": false, "trial_id": "mdp_trial_14", "block": "test", "trialIndex": 15, "score": -3, "costs": 0, "simulationMode": [null, null, null, null, null], "rewards": [-1, 2, 7, 6, -17], "path": ["0", "0", "1", "2", "3", "8", "10"], "rt": [2412, 146, 230, 134, 81], "actions": ["up", "up", "up", "left", "down"], "actionTimes": [7488, 8235, 9039, 9854, 10857], "queries": {"click": {"state": {"target": [], "time": []}, "edge": {"target": [], "time": []}}, "mouseover": {"state": {"target": [], "time": []}, "edge": {"target": [], "time": []}}, "mouseout": {"state": {"target": ["0"], "time": [1836]}, "edge": {"target": [], "time": []}}}, "displayed_time": "19.08", "trialTime": 20821, "trial_type": "mouselab-mdp", "trial_index": 22, "time_elapsed": 781005, "internal_node_id": "0.0-4.0-1.0-13.0"}}, {"uniqueid": "w20913252:a83947493", "current_trial": 23, "dateTime": 1691142931598, "trialdata": {"revealed_states": [], "clicked_states": [], "num_clicks_accrued": [0, 0, 0, 0, 0, 0, 0, 0, 0, 0, 0, 0, 0], "stateRewards": ["", 1, 1, 5, 6, -29, -7, 3, -16, 9, -46, 65, -1, 4, -1, -16, -63, -77, -87, 8, 80, -50, 43, -1, -1, -5, 5, -38, -71, -62, 9, 81, -50, -52], "withholdReward": false, "trial_id": "mdp_trial_15", "block": "test", "trialIndex": 16, "score": 0, "costs": 0, "simulationMode": [null, null, null, null, null], "rewards": [1, 1, 5, -16, 9], "path": ["0", "0", "1", "2", "3", "8", "9"], "rt": [2896, 99, 390, 303, 279], "actions": ["up", "up", "up", "left", "up"], "actionTimes": [6815, 7688, 8688, 9584, 10473], "queries": {"click": {"state": {"target": [], "time": []}, "edge": {"target": [], "time": []}}, "mouseover": {"state": {"target": [], "time": []}, "edge": {"target": [], "time": []}}, "mouseout": {"state": {"target": ["0"], "time": [1126]}, "edge": {"target": [], "time": []}}}, "displayed_time": "18.10", "trialTime": 33131, "trial_type": "mouselab-mdp", "trial_index": 23, "time_elapsed": 821865, "internal_node_id": "0.0-4.0-1.0-14.0"}}, {"uniqueid": "w20913252:a83947493", "current_trial": 24, "dateTime": 1691142964439, "trialdata": {"revealed_states": [], "clicked_states": [], "num_clicks_accrued": [0, 0, 0, 0, 0, 0, 0, 0, 0, 0, 0, 0, 0], "stateRewards": ["", -1, 2, 6, 11, 21, -21, -21, -6, 48, -71, 88, -1, -3, 3, 7, 64, 2, 9, -4, 37, -67, 72, 2, 2, -8, -8, -10, 71, -40, -3, 73, 80, 47], "withholdReward": false, "trial_id": "mdp_trial_16", "block": "test", "trialIndex": 17, "score": 40, "costs": 0, "simulationMode": [null, null, null, null, null], "rewards": [2, 2, -8, -3, 47], "path": ["0", "0", "23", "24", "25", "30", "33"], "rt": [1100, 114, 148, 330, 1185], "actions": ["left", "left", "left", "down", "left"], "actionTimes": [10212, 10918, 11802, 12706, 14571], "queries": {"click": {"state": {"target": [], "time": []}, "edge": {"target": [], "time": []}}, "mouseover": {"state": {"target": [], "time": []}, "edge": {"target": [], "time": []}}, "mouseout": {"state": {"target": ["0"], "time": [6329]}, "edge": {"target": [], "time": []}}}, "displayed_time": "23.14", "trialTime": 27002, "trial_type": "mouselab-mdp", "trial_index": 24, "time_elapsed": 854703, "internal_node_id": "0.0-4.0-1.0-15.0"}}, {"uniqueid": "w20913252:a83947493", "current_trial": 25, "dateTime": 1691142995350, "trialdata": {"revealed_states": [], "clicked_states": [], "num_clicks_accrued": [0, 0, 0, 0, 0, 0, 0, 0, 0, 0, 0, 0, 0], "stateRewards": ["", -2, -3, -6, -7, 9, 16, 65, 5, -41, 20, -25, -1, -4, 1, -11, -49, -4, 71, 1, 39, -62, 52, -2, -3, 7, -9, -28, -70, 84, 8, 24, -58, 82], "withholdReward": false, "trial_id": "mdp_trial_17", "block": "test", "trialIndex": 18, "score": 34, "costs": 0, "simulationMode": [null, null, null, null, null], "rewards": [-2, -3, 7, 8, 24], "path": ["0", "0", "23", "24", "25", "30", "31"], "rt": [1797, 183, 372, 232, 271], "actions": ["left", "left", "left", "down", "right"], "actionTimes": [12695, 13491, 14429, 15257, 16107], "queries": {"click": {"state": {"target": [], "time": []}, "edge": {"target": [], "time": []}}, "mouseover": {"state": {"target": [], "time": []}, "edge": {"target": [], "time": []}}, "mouseout": {"state": {"target": ["0"], "time": [8348]}, "edge": {"target": [], "time": []}}}, "displayed_time": "24.92", "trialTime": 26916, "trial_type": "mouselab-mdp", "trial_index": 25, "time_elapsed": 885618, "internal_node_id": "0.0-4.0-1.0-16.0"}}, {"uniqueid": "w20913252:a83947493", "current_trial": 26, "dateTime": 1691143017992, "trialdata": {"revealed_states": [], "clicked_states": [], "num_clicks_accrued": [0, 0, 0, 0, 0, 0, 0, 0, 0, 0, 0, 0, 0], "stateRewards": ["", -1, -4, -6, -15, 21, -67, -63, 9, 51, 69, -14, -1, 3, 8, -8, 39, 72, 63, 15, 19, 47, 15, 1, 4, 5, 16, -18, 34, 35, -14, -80, 40, 1], "withholdReward": false, "trial_id": "mdp_trial_18", "block": "test", "trialIndex": 19, "score": 8, "costs": 0, "simulationMode": [null, null, null, null, null], "rewards": [1, 4, 5, 16, -18], "path": ["0", "0", "23", "24", "25", "26", "27"], "rt": [2144, 1787, 535, 126, 445], "actions": ["left", "left", "left", "up", "up"], "actionTimes": [6254, 9134, 10255, 11121, 12179], "queries": {"click": {"state": {"target": [], "time": []}, "edge": {"target": [], "time": []}}, "mouseover": {"state": {"target": [], "time": []}, "edge": {"target": [], "time": []}}, "mouseout": {"state": {"target": ["0"], "time": [1613]}, "edge": {"target": [], "time": []}}}, "displayed_time": "18.14", "trialTime": 19346, "trial_type": "mouselab-mdp", "trial_index": 26, "time_elapsed": 908260, "internal_node_id": "0.0-4.0-1.0-17.0"}}, {"uniqueid": "w20913252:a83947493", "current_trial": 27, "dateTime": 1691143041548, "trialdata": {"revealed_states": [], "clicked_states": [], "num_clicks_accrued": [0, 0, 0, 0, 0, 0, 0, 0, 0, 0, 0, 0, 0], "stateRewards": ["", 2, -1, 5, 6, 10, 86, 55, 10, -45, 63, -71, 1, -2, 5, -8, -50, -72, 36, 15, 61, 12, 33, -1, -4, 6, 5, 79, -56, -21, -16, -87, 60, -81], "withholdReward": false, "trial_id": "mdp_trial_19", "block": "test", "trialIndex": 20, "score": -15, "costs": 0, "simulationMode": [null, null, null, null, null], "rewards": [-1, -4, 6, 5, -21], "path": ["0", "0", "23", "24", "25", "26", "29"], "rt": [2024, 131, 230, 177, 527], "actions": ["left", "left", "left", "up", "left"], "actionTimes": [6606, 7311, 8122, 8898, 10023], "queries": {"click": {"state": {"target": [], "time": []}, "edge": {"target": [], "time": []}}, "mouseover": {"state": {"target": [], "time": []}, "edge": {"target": [], "time": []}}, "mouseout": {"state": {"target": ["0"], "time": [2222]}, "edge": {"target": [], "time": []}}}, "displayed_time": "18.59", "trialTime": 19977, "trial_type": "mouselab-mdp", "trial_index": 27, "time_elapsed": 931816, "internal_node_id": "0.0-4.0-1.0-18.0"}}, {"uniqueid": "w20913252:a83947493", "current_trial": 28, "dateTime": 1691143063479, "trialdata": {"revealed_states": [], "clicked_states": [], "num_clicks_accrued": [0, 0, 0, 0, 0, 0, 0, 0, 0, 0, 0, 0, 0], "stateRewards": ["", 1, 1, 1, 15, -76, 52, -32, 14, -57, 37, 49, 1, -4, -3, 6, 83, -76, 25, 9, 36, -1, -17, -1, 4, 4, -2, -22, -21, 58, -15, -57, 49, -24], "withholdReward": false, "trial_id": "mdp_trial_20", "block": "test", "trialIndex": 21, "score": -16, "costs": 0, "simulationMode": [null, null, null, null, null], "rewards": [-1, 4, 4, -2, -21], "path": ["0", "0", "23", "24", "25", "26", "28"], "rt": [769, 90, 79, 79, 66], "actions": ["left", "left", "left", "up", "right"], "actionTimes": [4128, 4807, 5574, 6279, 6989], "queries": {"click": {"state": {"target": [], "time": []}, "edge": {"target": [], "time": []}}, "mouseover": {"state": {"target": [], "time": []}, "edge": {"target": [], "time": []}}, "mouseout": {"state": {"target": ["0"], "time": [1080]}, "edge": {"target": [], "time": []}}}, "displayed_time": "17.38", "trialTime": 18447, "trial_type": "mouselab-mdp", "trial_index": 28, "time_elapsed": 953747, "internal_node_id": "0.0-4.0-1.0-19.0"}}, {"uniqueid": "w20913252:a83947493", "current_trial": 29, "dateTime": 1691143089978, "trialdata": {"revealed_states": [], "clicked_states": [], "num_clicks_accrued": [0, 0, 0, 0, 0, 0, 0, 0, 0, 0, 0, 0, 0], "stateRewards": ["", -2, -2, -3, -6, -15, -11, 41, -12, -63, -76, 2, -2, -3, 8, 9, -36, -2, -18, -16, -32, -85, -17, -2, 1, 5, -16, 82, 35, -88, -1, 80, -82, -20], "withholdReward": false, "trial_id": "mdp_trial_21", "block": "test", "trialIndex": 22, "score": 10, "costs": 0, "simulationMode": [null, null, null, null, null], "rewards": [-2, -3, 8, 9, -2], "path": ["0", "0", "12", "13", "14", "15", "17"], "rt": [764, 97, 128, 178, 658], "actions": ["right", "right", "right", "up", "right"], "actionTimes": [5447, 6109, 6843, 7630, 8850], "queries": {"click": {"state": {"target": [], "time": []}, "edge": {"target": [], "time": []}}, "mouseover": {"state": {"target": [], "time": []}, "edge": {"target": [], "time": []}}, "mouseout": {"state": {"target": ["0"], "time": [1781]}, "edge": {"target": [], "time": []}}}, "displayed_time": "18.69", "trialTime": 21341, "trial_type": "mouselab-mdp", "trial_index": 29, "time_elapsed": 980246, "internal_node_id": "0.0-4.0-1.0-20.0"}}, {"uniqueid": "w20913252:a83947493", "current_trial": 30, "dateTime": 1691143114248, "trialdata": {"revealed_states": [], "clicked_states": [], "num_clicks_accrued": [0, 0, 0, 0, 0, 0, 0, 0, 0, 0, 0, 0, 0], "stateRewards": ["", -2, -4, -2, -13, -15, 87, -19, -6, -80, 30, 12, 1, 1, -8, 2, 55, 56, 15, 11, -68, -7, 55, -2, 3, -3, -3, 48, 62, 4, 1, -3, 69, -33], "withholdReward": false, "trial_id": "mdp_trial_22", "block": "test", "trialIndex": 23, "score": 11, "costs": 0, "simulationMode": [null, null, null, null, null], "rewards": [1, 1, -8, 2, 15], "path": ["0", "0", "12", "13", "14", "15", "18"], "rt": [3029, 23, 53, 128, 170], "actions": ["right", "right", "right", "up", "left"], "actionTimes": [7875, 8477, 9144, 9841, 10607], "queries": {"click": {"state": {"target": [], "time": []}, "edge": {"target": [], "time": []}}, "mouseover": {"state": {"target": [], "time": []}, "edge": {"target": [], "time": []}}, "mouseout": {"state": {"target": ["0"], "time": [1084]}, "edge": {"target": [], "time": []}}}, "displayed_time": "18.86", "trialTime": 19619, "trial_type": "mouselab-mdp", "trial_index": 30, "time_elapsed": 1004516, "internal_node_id": "0.0-4.0-1.0-21.0"}}, {"uniqueid": "w20913252:a83947493", "current_trial": 31, "dateTime": 1691143138254, "trialdata": {"revealed_states": [], "clicked_states": [], "num_clicks_accrued": [0, 0, 0, 0, 0, 0, 0, 0, 0, 0, 0, 0, 0], "stateRewards": ["", 2, -2, 7, -11, -76, -65, -23, 16, -58, 30, 81, 1, 2, 7, 14, 9, 55, -2, 6, 11, -15, 31, -1, -1, -3, 2, 15, 2, 46, 15, 18, 45, -34], "withholdReward": false, "trial_id": "mdp_trial_23", "block": "test", "trialIndex": 24, "score": 33, "costs": 0, "simulationMode": [null, null, null, null, null], "rewards": [1, 2, 7, 14, 9], "path": ["0", "0", "12", "13", "14", "15", "16"], "rt": [951, 28, 150, 158, 90], "actions": ["right", "right", "right", "up", "up"], "actionTimes": [4081, 4716, 5439, 6171, 6882], "queries": {"click": {"state": {"target": [], "time": []}, "edge": {"target": [], "time": []}}, "mouseover": {"state": {"target": [], "time": []}, "edge": {"target": [], "time": []}}, "mouseout": {"state": {"target": ["0"], "time": [1025]}, "edge": {"target": [], "time": []}}}, "displayed_time": "17.19", "trialTime": 20511, "trial_type": "mouselab-mdp", "trial_index": 31, "time_elapsed": 1028521, "internal_node_id": "0.0-4.0-1.0-22.0"}}, {"uniqueid": "w20913252:a83947493", "current_trial": 32, "dateTime": 1691143171641, "trialdata": {"revealed_states": [], "clicked_states": [], "num_clicks_accrued": [0, 0, 0, 0, 0, 0, 0, 0, 0, 0, 0, 0, 0], "stateRewards": ["", 1, -1, 4, -2, -75, -75, 84, -9, -60, -79, 59, 2, -4, 8, 9, -17, -82, 80, 14, -4, 49, 49, -1, 3, 6, -11, -33, 34, 55, 9, -57, 5, 59], "withholdReward": false, "trial_id": "mdp_trial_24", "block": "test", "trialIndex": 25, "score": 69, "costs": 0, "simulationMode": [null, null, null, null, null], "rewards": [2, -4, 8, 14, 49], "path": ["0", "0", "12", "13", "14", "19", "22"], "rt": [969, 285, 165, 77, 527], "actions": ["right", "right", "right", "down", "left"], "actionTimes": [7016, 8036, 9010, 10093, 11244], "queries": {"click": {"state": {"target": [], "time": []}, "edge": {"target": [], "time": []}}, "mouseover": {"state": {"target": [], "time": []}, "edge": {"target": [], "time": []}}, "mouseout": {"state": {"target": ["0"], "time": [1847]}, "edge": {"target": [], "time": []}}}, "displayed_time": "20.05", "trialTime": 25943, "trial_type": "mouselab-mdp", "trial_index": 32, "time_elapsed": 1061909, "internal_node_id": "0.0-4.0-1.0-23.0"}}, {"uniqueid": "w20913252:a83947493", "current_trial": 33, "dateTime": 1691143195071, "trialdata": {"revealed_states": [], "clicked_states": [], "num_clicks_accrued": [0, 0, 0, 0, 0, 0, 0, 0, 0, 0, 0, 0, 0], "stateRewards": ["", -2, 3, -1, -9, 44, 48, -37, -3, 71, -39, 87, -1, 3, -4, 4, -21, 59, -15, -8, -1, 28, -38, 2, 4, 4, 8, -85, -72, -63, 14, 58, 63, -46], "withholdReward": false, "trial_id": "mdp_trial_25", "block": "test", "trialIndex": 26, "score": -11, "costs": 0, "simulationMode": [null, null, null, null, null], "rewards": [-1, 3, -4, -8, -1], "path": ["0", "0", "12", "13", "14", "19", "20"], "rt": [687, 216, 67, 167, 158], "actions": ["right", "right", "right", "down", "right"], "actionTimes": [4315, 5092, 5766, 6557, 7319], "queries": {"click": {"state": {"target": [], "time": []}, "edge": {"target": [], "time": []}}, "mouseover": {"state": {"target": [], "time": []}, "edge": {"target": [], "time": []}}, "mouseout": {"state": {"target": ["0"], "time": [1335]}, "edge": {"target": [], "time": []}}}, "displayed_time": "17.64", "trialTime": 19097, "trial_type": "mouselab-mdp", "trial_index": 33, "time_elapsed": 1085339, "internal_node_id": "0.0-4.0-1.0-24.0"}}, {"uniqueid": "w20913252:a83947493", "current_trial": 34, "dateTime": 1691143222134, "trialdata": {"revealed_states": [], "clicked_states": [], "num_clicks_accrued": [0, 0, 0, 0, 0, 0, 0, 0, 0, 0, 0, 0, 0], "stateRewards": ["", -2, 4, 3, 5, -61, 4, 30, 1, -47, 83, 10, 1, 4, 7, -14, 19, -74, -83, 6, -2, -2, -65, -1, -2, 4, -11, 12, -1, -68, 11, -38, -28, 66], "withholdReward": false, "trial_id": "mdp_trial_26", "block": "test", "trialIndex": 27, "score": 16, "costs": 0, "simulationMode": [null, null, null, null, null], "rewards": [1, 4, 7, 6, -2], "path": ["0", "0", "12", "13", "14", "19", "21"], "rt": [870, 34, 574, 72, 43], "actions": ["right", "right", "right", "down", "down"], "actionTimes": [5206, 5834, 6974, 7823, 8489], "queries": {"click": {"state": {"target": [], "time": []}, "edge": {"target": [], "time": []}}, "mouseover": {"state": {"target": [], "time": []}, "edge": {"target": [], "time": []}}, "mouseout": {"state": {"target": ["0"], "time": [1497]}, "edge": {"target": [], "time": []}}}, "displayed_time": "18.34", "trialTime": 22089, "trial_type": "mouselab-mdp", "trial_index": 34, "time_elapsed": 1112402, "internal_node_id": "0.0-4.0-1.0-25.0"}}, {"uniqueid": "w20913252:a83947493", "current_trial": 35, "dateTime": 1691143258795, "trialdata": {"revealed_states": [], "clicked_states": [], "num_clicks_accrued": [0, 0, 0, 0, 0, 0, 0, 0, 0, 0, 0, 0, 0], "stateRewards": ["", 2, 3, 6, -12, -29, 12, 87, 4, 35, -30, 67, 2, 3, -5, -9, 44, 69, -8, 1, 45, -8, 28, -2, -1, -8, 11, -12, -5, 81, 9, 87, 82, 88], "withholdReward": false, "trial_id": "mdp_trial_27", "block": "test", "trialIndex": 28, "score": -15, "costs": 0, "simulationMode": [null, null, null, null, null], "rewards": [2, 3, 6, 4, -30], "path": ["0", "0", "1", "2", "3", "8", "10"], "rt": [2136, 13, 285, 182, 19262], "actions": ["up", "up", "up", "left", "down"], "actionTimes": [6397, 6972, 7813, 8630, 28594], "queries": {"click": {"state": {"target": [], "time": []}, "edge": {"target": [], "time": []}}, "mouseover": {"state": {"target": [], "time": []}, "edge": {"target": [], "time": []}}, "mouseout": {"state": {"target": ["0"], "time": [1834]}, "edge": {"target": [], "time": []}}}, "displayed_time": "29.20", "trialTime": 32785, "trial_type": "mouselab-mdp", "trial_index": 35, "time_elapsed": 1149062, "internal_node_id": "0.0-4.0-1.0-26.0"}}, {"uniqueid": "w20913252:a83947493", "current_trial": 36, "dateTime": 1691143284264, "trialdata": {"revealed_states": [], "clicked_states": [], "num_clicks_accrued": [0, 0, 0, 0, 0, 0, 0, 0, 0, 0, 0, 0, 0], "stateRewards": ["", 2, -1, 4, -9, -43, 7, 54, -13, 38, -40, -83, -1, 2, -8, -10, 34, -33, 11, -14, -79, 65, 26, 1, 2, 4, 10, 21, 1, 86, 4, -53, 28, -29], "withholdReward": false, "trial_id": "mdp_trial_28", "block": "test", "trialIndex": 29, "score": -48, "costs": 0, "simulationMode": [null, null, null, null, null], "rewards": [2, -1, 4, -13, -40], "path": ["0", "0", "1", "2", "3", "8", "10"], "rt": [543, 19, 64, 75, 21], "actions": ["up", "up", "up", "left", "down"], "actionTimes": [5981, 6621, 7256, 7940, 8562], "queries": {"click": {"state": {"target": [], "time": []}, "edge": {"target": [], "time": []}}, "mouseover": {"state": {"target": [], "time": []}, "edge": {"target": [], "time": []}}, "mouseout": {"state": {"target": ["0"], "time": [3264]}, "edge": {"target": [], "time": []}}}, "displayed_time": "19.45", "trialTime": 21503, "trial_type": "mouselab-mdp", "trial_index": 36, "time_elapsed": 1174532, "internal_node_id": "0.0-4.0-1.0-27.0"}}, {"uniqueid": "w20913252:a83947493", "current_trial": 37, "dateTime": 1691143308869, "trialdata": {"revealed_states": [], "clicked_states": [], "num_clicks_accrued": [0, 0, 0, 0, 0, 0, 0, 0, 0, 0, 0, 0, 0], "stateRewards": ["", 2, 4, 4, -8, -36, -33, 38, 16, -51, 57, 57, 1, 3, 4, -6, 45, 68, 87, 1, 63, 24, -55, -2, 2, -6, -13, -63, -50, 8, 2, 80, 6, 60], "withholdReward": false, "trial_id": "mdp_trial_29", "block": "test", "trialIndex": 30, "score": 83, "costs": 0, "simulationMode": [null, null, null, null, null], "rewards": [2, 4, 4, 16, 57], "path": ["0", "0", "1", "2", "3", "8", "10"], "rt": [834, 134, 145, 41, 24], "actions": ["up", "up", "up", "left", "down"], "actionTimes": [4470, 5153, 5855, 6496, 7103], "queries": {"click": {"state": {"target": [], "time": []}, "edge": {"target": [], "time": []}}, "mouseover": {"state": {"target": [], "time": []}, "edge": {"target": [], "time": []}}, "mouseout": {"state": {"target": ["0"], "time": [1233]}, "edge": {"target": [], "time": []}}}, "displayed_time": "17.64", "trialTime": 20194, "trial_type": "mouselab-mdp", "trial_index": 37, "time_elapsed": 1199137, "internal_node_id": "0.0-4.0-1.0-28.0"}}, {"uniqueid": "w20913252:a83947493", "current_trial": 38, "dateTime": 1691143334701, "trialdata": {"revealed_states": [], "clicked_states": [], "num_clicks_accrued": [0, 0, 0, 0, 0, 0, 0, 0, 0, 0, 0, 0, 0], "stateRewards": ["", -2, -3, -7, 7, -54, -69, -4, -14, -77, 22, 40, -2, -1, 5, 6, -35, 50, -60, 10, -28, 75, 57, 1, -4, -2, 2, 68, 34, -18, 12, 3, -21, -43], "withholdReward": false, "trial_id": "mdp_trial_30", "block": "test", "trialIndex": 31, "score": -103, "costs": 0, "simulationMode": [null, null, null, null, null], "rewards": [-2, -3, -7, -14, -77], "path": ["0", "0", "1", "2", "3", "8", "9"], "rt": [628, 40, 168, 79, 42], "actions": ["up", "up", "up", "left", "up"], "actionTimes": [5772, 6379, 7108, 7768, 8486], "queries": {"click": {"state": {"target": [], "time": []}, "edge": {"target": [], "time": []}}, "mouseover": {"state": {"target": [], "time": []}, "edge": {"target": [], "time": []}}, "mouseout": {"state": {"target": ["0"], "time": [1754]}, "edge": {"target": [], "time": []}}}, "displayed_time": "19.18", "trialTime": 21521, "trial_type": "mouselab-mdp", "trial_index": 38, "time_elapsed": 1224965, "internal_node_id": "0.0-4.0-1.0-29.0"}}, {"uniqueid": "w20913252:a83947493", "current_trial": 39, "dateTime": 1691143363397, "trialdata": {"revealed_states": [], "clicked_states": [], "num_clicks_accrued": [0, 0, 0, 0, 0, 0, 0, 0, 0, 0, 0, 0, 0], "stateRewards": ["", -2, 4, -7, -3, -76, 39, -28, 10, 14, 12, 60, 2, -3, 6, -10, 88, -34, -41, -3, 72, -13, -56, 1, 3, 2, 8, -51, 23, -57, 1, 14, -46, -16], "withholdReward": false, "trial_id": "mdp_trial_31", "block": "test", "trialIndex": 32, "score": 19, "costs": 0, "simulationMode": [null, null, null, null, null], "rewards": [-2, 4, -7, 10, 14], "path": ["0", "0", "1", "2", "3", "8", "9"], "rt": [1094, 230, 1778, 1137, 115], "actions": ["up", "up", "up", "left", "up"], "actionTimes": [5144, 5965, 8441, 10161, 10867], "queries": {"click": {"state": {"target": [], "time": []}, "edge": {"target": [], "time": []}}, "mouseover": {"state": {"target": [], "time": []}, "edge": {"target": [], "time": []}}, "mouseout": {"state": {"target": ["0"], "time": [1133]}, "edge": {"target": [], "time": []}}}, "displayed_time": "18.06", "trialTime": 22802, "trial_type": "mouselab-mdp", "trial_index": 39, "time_elapsed": 1253664, "internal_node_id": "0.0-4.0-1.0-30.0"}}, {"uniqueid": "w20913252:a83947493", "current_trial": 40, "dateTime": 1691143388552, "trialdata": {"revealed_states": [], "clicked_states": [], "num_clicks_accrued": [0, 0, 0, 0, 0, 0, 0, 0, 0, 0, 0, 0, 0], "stateRewards": ["", 2, 1, -3, 7, 46, 11, -36, 16, 71, 5, 1, 2, -2, -8, -3, -4, 6, 55, 7, 68, -54, 2, 1, 1, 6, -6, 42, -4, -84, -11, -65, 63, 25], "withholdReward": false, "trial_id": "mdp_trial_32", "block": "test", "trialIndex": 33, "score": 17, "costs": 0, "simulationMode": [null, null, null, null, null], "rewards": [2, 1, -3, 16, 1], "path": ["0", "0", "1", "2", "3", "8", "11"], "rt": [669, 120, 70, 77, 1241], "actions": ["up", "up", "up", "left", "left"], "actionTimes": [5972, 6690, 7342, 8081, 9949], "queries": {"click": {"state": {"target": [], "time": []}, "edge": {"target": [], "time": []}}, "mouseover": {"state": {"target": [], "time": []}, "edge": {"target": [], "time": []}}, "mouseout": {"state": {"target": ["0"], "time": [1630]}, "edge": {"target": [], "time": []}}}, "displayed_time": "19.32", "trialTime": 21400, "trial_type": "mouselab-mdp", "trial_index": 40, "time_elapsed": 1278818, "internal_node_id": "0.0-4.0-1.0-31.0"}}, {"uniqueid": "w20913252:a83947493", "current_trial": 41, "dateTime": 1691143413484, "trialdata": {"revealed_states": [], "clicked_states": [], "num_clicks_accrued": [0, 0, 0, 0, 0, 0, 0, 0, 0, 0, 0, 0, 0], "stateRewards": ["", -1, -1, 7, -15, -43, -21, -84, -9, -45, -66, 2, 1, -2, 2, 8, -27, 44, -52, -5, -84, 11, 53, 1, 4, -4, 16, 83, -82, -15, -16, 68, -43, 81], "withholdReward": false, "trial_id": "mdp_trial_33", "block": "test", "trialIndex": 34, "score": -94, "costs": 0, "simulationMode": [null, null, null, null, null], "rewards": [-1, -1, 7, -15, -84], "path": ["0", "0", "1", "2", "3", "4", "7"], "rt": [569, 104, 171, 54, 148], "actions": ["up", "up", "up", "right", "down"], "actionTimes": [4451, 5098, 5868, 6516, 7297], "queries": {"click": {"state": {"target": [], "time": []}, "edge": {"target": [], "time": []}}, "mouseover": {"state": {"target": [], "time": []}, "edge": {"target": [], "time": []}}, "mouseout": {"state": {"target": ["0"], "time": [1345]}, "edge": {"target": [], "time": []}}}, "displayed_time": "17.91", "trialTime": 20888, "trial_type": "mouselab-mdp", "trial_index": 41, "time_elapsed": 1303751, "internal_node_id": "0.0-4.0-1.0-32.0"}}, {"uniqueid": "w20913252:a83947493", "current_trial": 42, "dateTime": 1691143444578, "trialdata": {"revealed_states": [], "clicked_states": [], "num_clicks_accrued": [0, 0, 0, 0, 0, 0, 0, 0, 0, 0, 0, 0, 0], "stateRewards": ["", 2, 3, -6, -5, -3, 55, 40, 11, 61, 11, 51, 2, -4, -6, 9, -25, 29, -15, -6, 7, -77, -2, -2, -4, 1, 14, -43, -1, 56, -12, -54, 41, -74], "withholdReward": false, "trial_id": "mdp_trial_34", "block": "test", "trialIndex": 35, "score": 34, "costs": 0, "simulationMode": [null, null, null, null, null], "rewards": [2, 3, -6, -5, 40], "path": ["0", "0", "1", "2", "3", "4", "7"], "rt": [1384, 712, 245, 265, 163], "actions": ["up", "up", "up", "right", "down"], "actionTimes": [6707, 8040, 8894, 9699, 10458], "queries": {"click": {"state": {"target": [], "time": []}, "edge": {"target": [], "time": []}}, "mouseover": {"state": {"target": [], "time": []}, "edge": {"target": [], "time": []}}, "mouseout": {"state": {"target": ["0"], "time": [1460]}, "edge": {"target": [], "time": []}}}, "displayed_time": "19.32", "trialTime": 20668, "trial_type": "mouselab-mdp", "trial_index": 42, "time_elapsed": 1334845, "internal_node_id": "0.0-4.0-1.0-33.0"}}, {"uniqueid": "w20913252:a83947493", "current_trial": 43, "dateTime": 1691143468701, "trialdata": {"revealed_states": [], "clicked_states": [], "num_clicks_accrued": [0, 0, 0, 0, 0, 0, 0, 0, 0, 0, 0, 0, 0], "stateRewards": ["", 2, -3, -2, 14, -4, 85, 46, 15, -28, 41, 31, -1, -1, -1, 5, 62, 79, 57, 12, -73, -64, 86, -1, 1, -3, -5, 68, 11, -32, 8, -80, -21, -56], "withholdReward": false, "trial_id": "mdp_trial_35", "block": "test", "trialIndex": 36, "score": 57, "costs": 0, "simulationMode": [null, null, null, null, null], "rewards": [2, -3, -2, 14, 46], "path": ["0", "0", "1", "2", "3", "4", "7"], "rt": [527, 116, 12, 55, 105], "actions": ["up", "up", "up", "right", "down"], "actionTimes": [4279, 4967, 5549, 6201, 6981], "queries": {"click": {"state": {"target": [], "time": []}, "edge": {"target": [], "time": []}}, "mouseover": {"state": {"target": [], "time": []}, "edge": {"target": [], "time": []}}, "mouseout": {"state": {"target": ["0"], "time": [1243]}, "edge": {"target": [], "time": []}}}, "displayed_time": "17.79", "trialTime": 19767, "trial_type": "mouselab-mdp", "trial_index": 43, "time_elapsed": 1358969, "internal_node_id": "0.0-4.0-1.0-34.0"}}, {"uniqueid": "w20913252:a83947493", "current_trial": 44, "dateTime": 1691143498724, "trialdata": {"revealed_states": [], "clicked_states": [], "num_clicks_accrued": [0, 0, 0, 0, 0, 0, 0, 0, 0, 0, 0, 0, 0], "stateRewards": ["", -1, -2, 4, 9, 10, -75, 39, 16, -43, 88, -19, -1, 1, 2, 4, -31, 10, 73, 12, 41, -64, -81, -2, 2, -6, 1, -81, -1, -26, 3, -59, -3, -20], "withholdReward": false, "trial_id": "mdp_trial_36", "block": "test", "trialIndex": 37, "score": 16, "costs": 0, "simulationMode": [null, null, null, null, null], "rewards": [-1, 1, 2, 4, 10], "path": ["0", "0", "12", "13", "14", "15", "17"], "rt": [1294, 220, 340, 524, 231], "actions": ["right", "right", "right", "up", "right"], "actionTimes": [5518, 6353, 7296, 8471, 9310], "queries": {"click": {"state": {"target": [], "time": []}, "edge": {"target": [], "time": []}}, "mouseover": {"state": {"target": [], "time": []}, "edge": {"target": [], "time": []}}, "mouseout": {"state": {"target": ["0"], "time": [1530]}, "edge": {"target": [], "time": []}}}, "displayed_time": "18.23", "trialTime": 25482, "trial_type": "mouselab-mdp", "trial_index": 44, "time_elapsed": 1388992, "internal_node_id": "0.0-4.0-1.0-35.0"}}, {"uniqueid": "w20913252:a83947493", "current_trial": 45, "dateTime": 1691143527474, "trialdata": {"revealed_states": [], "clicked_states": [], "num_clicks_accrued": [0, 0, 0, 0, 0, 0, 0, 0, 0, 0, 0, 0, 0], "stateRewards": ["", -2, -3, -3, 9, 79, 67, 22, -15, -56, 27, -85, -2, 4, -4, -15, -20, -32, 60, 15, 71, 57, 17, 1, 2, -8, 15, -37, -81, 82, 15, 21, -3, 2], "withholdReward": false, "trial_id": "mdp_trial_37", "block": "test", "trialIndex": 38, "score": 12, "costs": 0, "simulationMode": [null, null, null, null, null], "rewards": [1, 2, -8, 15, 2], "path": ["0", "0", "23", "24", "25", "30", "33"], "rt": [725, 958, 823, 1220, 454], "actions": ["left", "left", "left", "down", "left"], "actionTimes": [6073, 7681, 9130, 11325, 12461], "queries": {"click": {"state": {"target": [], "time": []}, "edge": {"target": [], "time": []}}, "mouseover": {"state": {"target": [], "time": []}, "edge": {"target": [], "time": []}}, "mouseout": {"state": {"target": ["0"], "time": [1075]}, "edge": {"target": [], "time": []}}}, "displayed_time": "19.35", "trialTime": 21032, "trial_type": "mouselab-mdp", "trial_index": 45, "time_elapsed": 1417742, "internal_node_id": "0.0-4.0-1.0-36.0"}}, {"uniqueid": "w20913252:a83947493", "current_trial": 46, "dateTime": 1691143555161, "trialdata": {"revealed_states": [], "clicked_states": [], "num_clicks_accrued": [0, 0, 0, 0, 0, 0, 0, 0, 0, 0, 0, 0, 0], "stateRewards": ["", -1, 1, 3, -8, -23, -15, -14, -11, -23, 58, 68, 1, 3, 5, 12, -17, -41, -7, -10, -4, 82, 10, 1, 4, -4, 11, 73, 55, -55, -1, -86, -86, 54], "withholdReward": false, "trial_id": "mdp_trial_38", "block": "test", "trialIndex": 39, "score": -5, "costs": 0, "simulationMode": [null, null, null, null, null], "rewards": [1, 3, 5, -10, -4], "path": ["0", "0", "12", "13", "14", "19", "20"], "rt": [1763, 100, 257, 176, 204], "actions": ["right", "right", "right", "down", "right"], "actionTimes": [6487, 7348, 8178, 8880, 9669], "queries": {"click": {"state": {"target": [], "time": []}, "edge": {"target": [], "time": []}}, "mouseover": {"state": {"target": [], "time": []}, "edge": {"target": [], "time": []}}, "mouseout": {"state": {"target": ["0"], "time": [1601]}, "edge": {"target": [], "time": []}}}, "displayed_time": "18.76", "trialTime": 22749, "trial_type": "mouselab-mdp", "trial_index": 46, "time_elapsed": 1445428, "internal_node_id": "0.0-4.0-1.0-37.0"}}, {"uniqueid": "w20913252:a83947493", "current_trial": 47, "dateTime": 1691143579190, "trialdata": {"revealed_states": [], "clicked_states": [], "num_clicks_accrued": [0, 0, 0, 0, 0, 0, 0, 0, 0, 0, 0, 0, 0], "stateRewards": ["", -1, 1, -1, 2, 19, 85, -18, 2, -3, -26, 36, 2, 4, 7, -9, -18, 70, 72, -5, 35, -20, -28, 1, -2, -4, -3, -59, -11, -63, -2, -72, 59, -69], "withholdReward": false, "trial_id": "mdp_trial_39", "block": "test", "trialIndex": 40, "score": -71, "costs": 0, "simulationMode": [null, null, null, null, null], "rewards": [1, -2, -4, -3, -63], "path": ["0", "0", "23", "24", "25", "26", "29"], "rt": [788, 147, 367, 404, 173], "actions": ["left", "left", "left", "up", "left"], "actionTimes": [4096, 4864, 5786, 6760, 7517], "queries": {"click": {"state": {"target": [], "time": []}, "edge": {"target": [], "time": []}}, "mouseover": {"state": {"target": [], "time": []}, "edge": {"target": [], "time": []}}, "mouseout": {"state": {"target": ["0"], "time": [812]}, "edge": {"target": [], "time": []}}}, "displayed_time": "17.32", "trialTime": 19472, "trial_type": "mouselab-mdp", "trial_index": 47, "time_elapsed": 1469458, "internal_node_id": "0.0-4.0-1.0-38.0"}}, {"uniqueid": "w20913252:a83947493", "current_trial": 48, "dateTime": 1691143620945, "trialdata": {"revealed_states": [], "clicked_states": [], "num_clicks_accrued": [0, 0, 0, 0, 0, 0, 0, 0, 0, 0, 0, 0, 0], "stateRewards": ["", 1, 1, -5, 8, -6, 45, 16, -6, -7, -22, -38, -1, -4, 8, -11, -16, 21, -45, -15, -59, -32, 42, -1, 3, 6, 11, -7, 34, -27, -8, 85, 43, -9], "withholdReward": false, "trial_id": "mdp_trial_40", "block": "test", "trialIndex": 41, "score": -8, "costs": 0, "simulationMode": [null, null, null, null, null], "rewards": [-1, 3, 6, 11, -27], "path": ["0", "0", "23", "24", "25", "26", "29"], "rt": [1383, 146, 309, 757, 187], "actions": ["left", "left", "left", "up", "left"], "actionTimes": [17198, 18029, 19012, 20398, 21350], "queries": {"click": {"state": {"target": [], "time": []}, "edge": {"target": [], "time": []}}, "mouseover": {"state": {"target": [], "time": []}, "edge": {"target": [], "time": []}}, "mouseout": {"state": {"target": ["0"], "time": [9367]}, "edge": {"target": [], "time": []}}}, "displayed_time": "29.87", "trialTime": 37688, "trial_type": "mouselab-mdp", "trial_index": 48, "time_elapsed": 1511212, "internal_node_id": "0.0-4.0-1.0-39.0"}}, {"uniqueid": "w20913252:a83947493", "current_trial": 49, "dateTime": 1691143704427, "trialdata": {"rt": 83458, "response": {"Q0": "$-16 to 16", "Q1": "$-32 to $32", "Q2": "$-88 to $88", "Q3": "There was no cost for clicking on nodes.", "Q4": "Very motivated"}, "question_order": [0, 1, 2, 3, 4], "trial_id": "final_quiz_control", "trial_type": "survey-multi-choice", "trial_index": 49, "time_elapsed": 1594694, "internal_node_id": "0.0-4.0-2.0"}}, {"uniqueid": "w20913252:a83947493", "current_trial": 50, "dateTime": 1691143873826, "trialdata": {"rt": 169364, "response": {"Q0": "i just went with what my heart said and i also completed one side before moving on to the next one", "Q1": "yes i did. i started going more for the ones that gave me the big money", "Q2": "it wasn't really difficult to improve my performance"}, "trial_id": "self_report_control", "trial_type": "survey-text", "trial_index": 50, "time_elapsed": 1764095, "internal_node_id": "0.0-4.0-3.0"}}, {"uniqueid": "w20913252:a83947493", "current_trial": 51, "dateTime": 1691143917412, "trialdata": {"rt": 43552, "response": {"gender": "male", "age": "23", "colorblind": "0", "effort": "0"}, "trial_type": "survey-html-form", "trial_index": 51, "time_elapsed": 1807680, "internal_node_id": "0.0-4.0-4.0"}}, {"uniqueid": "w20913252:a83947493", "current_trial": 52, "dateTime": 1691143992278, "trialdata": {"rt": 74796, "response": {"Q0": "not everything was acually well explained and detailed", "Q1": "no i don't think i have before", "Q2": ""}, "trial_type": "survey-text", "trial_index": 52, "time_elapsed": 1882546, "internal_node_id": "0.0-4.0-5.0"}}, {"uniqueid": "w20913252:a83947493", "current_trial": 53, "dateTime": 1691144004885, "trialdata": {"rt": 12530, "stimulus": "Press 'Finish HIT' in order to reach the completion code. Once the data has been saved, you will receive the code either in this window or in the original browser window where you started the experiment.\n", "response": 0, "trial_type": "html-button-response", "trial_index": 53, "time_elapsed": 1895153, "internal_node_id": "0.0-5.0"}}, {"uniqueid": "w20913252:a83947493", "current_trial": 54, "dateTime": 1691144005921, "trialdata": {"success": true, "trial_type": "fullscreen", "trial_index": 54, "time_elapsed": 1896190, "internal_node_id": "0.0-6.0"}}], "questiondata": {"params": {"CODE": "C6DMOQA6", "MIN_TIME": 14, "inspectCost": 1, "startTime": "Fri Aug 04 2023 11:41:43 GMT+0200 (South Africa Standard Time)", "bonusRate": 0.002, "variance": "1_2_4_8_44", "branching": "31123"}}, "eventdata": [{"eventtype": "initialized", "value": null, "timestamp": 1691142103017, "interval": 0}, {"eventtype": "window_resize", "value": [1024, 658], "timestamp": 1691142103017, "interval": 0}, {"eventtype": "window_resize", "value": [1024, 658], "timestamp": 1691142103666, "interval": 649}, {"eventtype": "window_resize", "value": [1366, 768], "timestamp": 1691142121884, "interval": 18218}, {"eventtype": "focus", "value": "off", "timestamp": 1691143835959, "interval": 1714075}, {"eventtype": "window_resize", "value": [1366, 767], "timestamp": 1691143836203, "interval": 244}, {"eventtype": "window_resize", "value": [1366, 768], "timestamp": 1691143837181, "interval": 978}, {"eventtype": "focus", "value": "on", "timestamp": 1691143837779, "interval": 598}, {"eventtype": "focus", "value": "off", "timestamp": 1691143839774, "interval": 1995}, {"eventtype": "focus", "value": "on", "timestamp": 1691143839988, "interval": 214}, {"eventtype": "window_resize", "value": [1366, 768], "timestamp": 1691143840253, "interval": 265}, {"eventtype": "focus", "value": "off", "timestamp": 1691143867545, "interval": 27292}, {"eventtype": "focus", "value": "on", "timestamp": 1691143867748, "interval": 203}, {"eventtype": "window_resize", "value": [1366, 768], "timestamp": 1691143867999, "interval": 251}, {"eventtype": "window_resize", "value": [1024, 658], "timestamp": 1691144005622, "interval": 137623}], "useragent": "Mozilla/5.0 (Windows NT 10.0; Win64; x64) AppleWebKit/537.36 (KHTML, like Gecko) Chrome/115.0.0.0 Safari/537.36 Edg/115.0.1901.188", "mode": "live", "id": "w20913252:a83947493", "status": "user data saved", "Beginhit": "2023-08-04 09:41:23.715693", "Beginexp": "2023-08-04 09:42:02.215872", "Endhit": "2023-08-04 10:13:27.811889", "psiturkStatus": 3, "browser": "<redacted>", "platform": "windows", "language": "en-US"}