{"condition": 0, "counterbalance": 0, "assignmentId": "a76389639", "workerId": "w78186709", "hitId": "h45045348", "currenttrial": 55, "bonus": 0, "data": [{"uniqueid": "w78186709:a76389639", "current_trial": 0, "dateTime": 1693481156359, "trialdata": {"success": true, "trial_type": "fullscreen", "trial_index": 0, "time_elapsed": 5836, "internal_node_id": "0.0-0.0"}}, {"uniqueid": "w78186709:a76389639", "current_trial": 1, "dateTime": 1693481174261, "trialdata": {"view_history": [{"page_index": 0, "viewing_time": 17892}], "rt": 17892, "trial_id": "exp_instructions_control", "trial_type": "instructions", "trial_index": 1, "time_elapsed": 23739, "internal_node_id": "0.0-1.0"}}, {"uniqueid": "w78186709:a76389639", "current_trial": 2, "dateTime": 1693481394550, "trialdata": {"view_history": [{"page_index": 0, "viewing_time": 87014}, {"page_index": 1, "viewing_time": 80432}, {"page_index": 2, "viewing_time": 17376}, {"page_index": 3, "viewing_time": 35464}], "rt": 220287, "trial_id": "mouselab_instructions_1_control", "trial_type": "instructions", "trial_index": 2, "time_elapsed": 244028, "internal_node_id": "0.0-2.0-1.0"}}, {"uniqueid": "w78186709:a76389639", "current_trial": 3, "dateTime": 1693481466986, "trialdata": {"revealed_states": [], "clicked_states": ["12", "13", "14", "22", "23", "25", "32", "1", "3", "11", "24", "26", "27", "2", "4", "6"], "num_clicks_accrued": [0, 0, 0, 0, 0, 0, 0, 0, 0, 0, 0, 0, 0], "stateRewards": ["", 10, 10, 10, -10, -10, -10, 10, -10, -10, -10, 10, 10, 10, 10, 10, -10, -10, 10, 10, -10, 10, -10, 10, 10, 10, -10, -10, -10, -10, 10, 10, 10, 10], "withholdReward": false, "trial_id": "practice_1", "block": "test", "trialIndex": 0, "score": 25.5, "costs": -8, "simulationMode": [null, null, null, null, null], "rewards": [10, 10, 10, 10, -10], "path": ["0", "0", "12", "13", "14", "15", "16"], "rt": [54922, 83, 114, 432, 334], "actions": ["right", "right", "right", "up", "up"], "actionTimes": [58375, 58964, 59588, 60532, 61371], "queries": {"click": {"state": {"target": ["12", "13", "14", "22", "23", "25", "32", "1", "3", "11", "24", "26", "27", "2", "4", "6"], "time": [6144, 8396, 9439, 11012, 18675, 21139, 22635, 25953, 27668, 29202, 34663, 35901, 37956, 41931, 43508, 44946]}, "edge": {"target": [], "time": []}}, "mouseover": {"state": {"target": ["12", "13", "14", "14", "13", "14", "19", "22", "22", "12", "23", "24", "24", "24", "25", "30", "32", "11", "1", "2", "3", "8", "11", "24", "24", "23", "24", "26", "27", "10", "2", "7", "1", "2", "3", "4", "6", "18", "12", "12", "0", "12", "13", "13", "12", "0", "12", "12", "12"], "time": [5535, 6427, 6536, 7337, 7789, 8879, 9770, 10746, 15149, 18071, 18414, 19036, 19238, 20460, 20899, 21472, 21957, 25225, 25504, 26269, 27146, 28004, 28936, 32097, 33181, 33680, 34149, 35614, 36129, 39477, 39504, 39634, 40130, 40713, 42363, 43290, 43895, 47155, 47493, 47945, 48444, 49004, 49368, 49805, 50306, 52900, 53757, 54947, 57802]}, "edge": {"target": [], "time": []}}, "mouseout": {"state": {"target": ["0", "12", "13", "14", "14", "13", "14", "19", "22", "22", "22", "12", "23", "24", "24", "24", "25", "30", "32", "11", "1", "2", "3", "3", "8", "11", "11", "24", "24", "23", "24", "26", "27", "10", "2", "7", "1", "2", "3", "4", "6", "6", "18", "12", "12", "0", "12", "13", "13", "12", "0", "12", "12", "12", "17"], "time": [3072, 6253, 6505, 6600, 7395, 8832, 9707, 10411, 11926, 14369, 17623, 18211, 18826, 19066, 19995, 20472, 21379, 21864, 23535, 25239, 26176, 27099, 27749, 27910, 28915, 30114, 31572, 32539, 33239, 33835, 34724, 36051, 38126, 39489, 39535, 39692, 40535, 42207, 43070, 43848, 44961, 45897, 47243, 47566, 48368, 48975, 49035, 49613, 49900, 51899, 52974, 54473, 56957, 65146, 68678]}, "edge": {"target": [], "time": []}}}, "displayed_time": "61.88", "trialTime": 71242, "trial_type": "mouselab-mdp", "trial_index": 3, "time_elapsed": 316463, "internal_node_id": "0.0-2.0-2.0-0.0"}}, {"uniqueid": "w78186709:a76389639", "current_trial": 4, "dateTime": 1693481482829, "trialdata": {"revealed_states": [], "clicked_states": [], "num_clicks_accrued": [0, 0, 0, 0, 0, 0, 0, 0, 0, 0, 0, 0, 0], "stateRewards": ["", -10, 10, 10, -10, -10, 10, -10, 10, -10, 10, -10, 10, 10, 10, 10, 10, 10, -10, 10, 10, 10, 10, -10, -10, -10, -10, -10, -10, 10, 10, -10, -10, -10], "withholdReward": false, "trial_id": "practice_2", "block": "test", "trialIndex": 1, "score": -26.5, "costs": 0, "simulationMode": [null, null, null, null, null], "rewards": [-10, -10, -10, 10, -10], "path": ["0", "0", "23", "24", "25", "30", "33"], "rt": [1855, 176, 175, 183, 3642], "actions": ["left", "left", "left", "down", "left"], "actionTimes": [4467, 5148, 5837, 6532, 10701], "queries": {"click": {"state": {"target": [], "time": []}, "edge": {"target": [], "time": []}}, "mouseover": {"state": {"target": ["12"], "time": [3586]}, "edge": {"target": [], "time": []}}, "mouseout": {"state": {"target": ["0", "12", "29", "32", "31", "23", "1", "1"], "time": [1505, 3659, 8101, 10477, 11993, 12256, 12507, 14039]}, "edge": {"target": [], "time": []}}}, "displayed_time": "11.22", "trialTime": 15661, "trial_type": "mouselab-mdp", "trial_index": 4, "time_elapsed": 332305, "internal_node_id": "0.0-2.0-2.0-1.0"}}, {"uniqueid": "w78186709:a76389639", "current_trial": 5, "dateTime": 1693481537943, "trialdata": {"view_history": [{"page_index": 0, "viewing_time": 38483}, {"page_index": 1, "viewing_time": 16624}], "rt": 55107, "trial_id": "mouselab_instructions_2_control", "trial_type": "instructions", "trial_index": 5, "time_elapsed": 387421, "internal_node_id": "0.0-2.0-3.0"}}, {"uniqueid": "w78186709:a76389639", "current_trial": 6, "dateTime": 1693481586984, "trialdata": {"rt": 49037, "response": {"Q0": "The cost for clicking on nodes may vary between nodes.", "Q1": "The better I perform the higher my bonus will be.", "Q2": "No, the amount of cash at each node of the web may be different each time.", "Q3": "To get the highest total score.", "Q4": "Only before moving the spider.", "Q5": "3 seconds"}, "question_order": [0, 1, 2, 3, 4, 5], "correct": {"Q0": "The cost for clicking on nodes may vary between nodes.", "Q1": "The better I perform the higher my bonus will be.", "Q2": "No, the amount of cash at each node of the web may be different each time.", "Q3": "To get the highest total score.", "Q4": "Only before moving the spider.", "Q5": "3 seconds"}, "trial_id": "mouselab_quiz_control", "trial_type": "survey-multi-choice", "trial_index": 6, "time_elapsed": 436462, "internal_node_id": "0.0-2.0-4.0"}}, {"uniqueid": "w78186709:a76389639", "current_trial": 7, "dateTime": 1693481596095, "trialdata": {"rt": 9107, "response": {"Q0": "No"}, "question_order": [0], "trial_id": "repeat_check", "trial_type": "survey-multi-choice", "trial_index": 7, "time_elapsed": 445573, "internal_node_id": "0.0-4.0-0.0"}}, {"uniqueid": "w78186709:a76389639", "current_trial": 8, "dateTime": 1693481649664, "trialdata": {"rt": 53565, "stimulus": "\n<h1> Get ready to start the game! </h1>\n\nThank you for reading the instructions. Get ready start with the 40 rounds of this game.\n<br><br>\nIf you need to take a break, feel free to take one after the end of a round, before continuing to the next one.\n<br><br>\nRemember, the more money the spider gets, the bigger your bonus will be!\n<br><br>\n<div style='text-align: center;'>Press <code>space</code> to begin.</div>\n\n<br><br>\n(If, at any point, the <code>space</code> key does not take you to the next page, click once on the text and try again.)", "response": " ", "trial_id": "mdp_ready", "trial_type": "html-keyboard-response", "trial_index": 8, "time_elapsed": 499142, "internal_node_id": "0.0-6.0-0.0"}}, {"uniqueid": "w78186709:a76389639", "current_trial": 9, "dateTime": 1693481670781, "trialdata": {"revealed_states": [], "clicked_states": [], "num_clicks_accrued": [0, 0, 0, 0, 0, 0, 0, 0, 0, 0, 0, 0, 0], "stateRewards": ["", -1, 2, -7, -12, -62, 12, -13, 5, 77, -71, 83, 1, -4, 7, 15, -42, -87, -4, 5, -25, 44, 88, -1, 4, -5, -8, 14, 51, 8, -5, 83, -24, -19], "withholdReward": false, "trial_id": "mdp_trial_1", "block": "test", "trialIndex": 2, "score": -16, "costs": 0, "simulationMode": [null, null, null, null, null], "rewards": [1, -4, 7, 5, -25], "path": ["0", "0", "12", "13", "14", "19", "20"], "rt": [1357, 225, 26, 1226, 296], "actions": ["right", "right", "right", "down", "right"], "actionTimes": [5544, 6279, 6815, 8560, 9368], "queries": {"click": {"state": {"target": [], "time": []}, "edge": {"target": [], "time": []}}, "mouseover": {"state": {"target": [], "time": []}, "edge": {"target": [], "time": []}}, "mouseout": {"state": {"target": ["4", "18", "22", "0", "15", "20"], "time": [1506, 1568, 2004, 3583, 12508, 13396]}, "edge": {"target": [], "time": []}}}, "displayed_time": "18.19", "trialTime": 20928, "trial_type": "mouselab-mdp", "trial_index": 9, "time_elapsed": 520257, "internal_node_id": "0.0-6.0-1.0-0.0"}}, {"uniqueid": "w78186709:a76389639", "current_trial": 10, "dateTime": 1693481689151, "trialdata": {"revealed_states": [], "clicked_states": [], "num_clicks_accrued": [0, 0, 0, 0, 0, 0, 0, 0, 0, 0, 0, 0, 0], "stateRewards": ["", 2, -1, 4, -9, -43, 7, 54, -13, 38, -40, -83, -1, 2, -8, -10, 34, -33, 11, -14, -79, 65, 26, 1, 2, 4, 10, 21, 1, 86, 4, -53, 28, -29], "withholdReward": false, "trial_id": "mdp_trial_2", "block": "test", "trialIndex": 3, "score": -42, "costs": 0, "simulationMode": [null, null, null, null, null], "rewards": [1, 2, 4, 4, -53], "path": ["0", "0", "23", "24", "25", "30", "31"], "rt": [1321, 84, 293, 1591, 617], "actions": ["left", "left", "left", "down", "right"], "actionTimes": [2844, 3436, 4253, 6349, 7484], "queries": {"click": {"state": {"target": [], "time": []}, "edge": {"target": [], "time": []}}, "mouseover": {"state": {"target": ["12", "13"], "time": [1774, 2015]}, "edge": {"target": [], "time": []}}, "mouseout": {"state": {"target": ["14", "13", "12", "12", "13"], "time": [776, 820, 964, 1996, 2054]}, "edge": {"target": [], "time": []}}}, "displayed_time": "15.53", "trialTime": 18191, "trial_type": "mouselab-mdp", "trial_index": 10, "time_elapsed": 538628, "internal_node_id": "0.0-6.0-1.0-1.0"}}, {"uniqueid": "w78186709:a76389639", "current_trial": 11, "dateTime": 1693481709217, "trialdata": {"revealed_states": [], "clicked_states": ["1"], "num_clicks_accrued": [0, 0, 0, 0, 0, 0, 0, 0, 0, 0, 0, 0, 0], "stateRewards": ["", 2, -3, 5, -14, -63, -9, -24, -11, -54, -43, 68, 2, -2, -4, 7, -64, 30, 47, 12, -74, 11, 86, 1, -3, 3, 10, -71, -42, -52, -1, -29, -16, 69], "withholdReward": false, "trial_id": "mdp_trial_3", "block": "test", "trialIndex": 4, "score": -62.4, "costs": -1.4, "simulationMode": [null, null, null, null, null], "rewards": [2, -3, 5, -11, -54], "path": ["0", "0", "1", "2", "3", "8", "9"], "rt": [5271, 129, 1225, 2068, 611], "actions": ["up", "up", "up", "left", "up"], "actionTimes": [7088, 7735, 9472, 12047, 13168], "queries": {"click": {"state": {"target": ["1"], "time": [3144]}, "edge": {"target": [], "time": []}}, "mouseover": {"state": {"target": ["12", "1", "2", "7"], "time": [2358, 2780, 4796, 5698]}, "edge": {"target": [], "time": []}}, "mouseout": {"state": {"target": ["21", "1", "12", "0", "12", "1", "2", "7", "16", "1", "0"], "time": [666, 824, 997, 1629, 2624, 4588, 5654, 5729, 18604, 18905, 19529]}, "edge": {"target": [], "time": []}}}, "displayed_time": "15.82", "trialTime": 19888, "trial_type": "mouselab-mdp", "trial_index": 11, "time_elapsed": 558695, "internal_node_id": "0.0-6.0-1.0-2.0"}}, {"uniqueid": "w78186709:a76389639", "current_trial": 12, "dateTime": 1693481730763, "trialdata": {"revealed_states": [], "clicked_states": [], "num_clicks_accrued": [0, 0, 0, 0, 0, 0, 0, 0, 0, 0, 0, 0, 0], "stateRewards": ["", 2, 3, 8, 11, 25, -80, 6, -4, -56, 84, -23, -2, -4, -3, 4, -51, -9, -61, -15, -64, 67, -35, 1, -1, -7, -6, 83, 59, -15, 12, -79, 56, 41], "withholdReward": false, "trial_id": "mdp_trial_4", "block": "test", "trialIndex": 5, "score": 46, "costs": 0, "simulationMode": [null, null, null, null, null], "rewards": [1, -1, -7, -6, 59], "path": ["0", "0", "23", "24", "25", "26", "28"], "rt": [9806, 140, 178, 108, 531], "actions": ["left", "left", "left", "up", "right"], "actionTimes": [12055, 12711, 13406, 14023, 15071], "queries": {"click": {"state": {"target": [], "time": []}, "edge": {"target": [], "time": []}}, "mouseover": {"state": {"target": ["0", "12", "1", "23", "24", "24", "23", "24", "24", "25", "26", "23", "23", "0"], "time": [2817, 3119, 3554, 3961, 4513, 4758, 4898, 5092, 5274, 5387, 5898, 6074, 9883, 10011]}, "edge": {"target": [], "time": []}}, "mouseout": {"state": {"target": ["18", "15", "15", "18", "12", "0", "12", "1", "23", "24", "24", "23", "24", "24", "25", "26", "23", "23", "0", "24", "24"], "time": [1116, 1132, 1695, 1725, 1901, 3090, 3479, 3728, 4296, 4604, 4836, 5072, 5132, 5358, 5445, 5945, 9806, 9904, 16357, 16511, 16746]}, "edge": {"target": [], "time": []}}}, "displayed_time": "16.25", "trialTime": 21367, "trial_type": "mouselab-mdp", "trial_index": 12, "time_elapsed": 580241, "internal_node_id": "0.0-6.0-1.0-3.0"}}, {"uniqueid": "w78186709:a76389639", "current_trial": 13, "dateTime": 1693481749125, "trialdata": {"revealed_states": [], "clicked_states": ["12"], "num_clicks_accrued": [0, 0, 0, 0, 0, 0, 0, 0, 0, 0, 0, 0, 0], "stateRewards": ["", 1, -2, 7, -14, 88, -56, -44, -14, 64, -51, -57, -2, 3, -4, -9, -11, 19, -77, -1, 68, 75, -67, -1, 1, -2, 5, -37, 70, -34, -10, -72, 63, -41], "withholdReward": false, "trial_id": "mdp_trial_5", "block": "test", "trialIndex": 6, "score": 78.6, "costs": -1.4, "simulationMode": [null, null, null, null, null], "rewards": [1, -2, 7, -14, 88], "path": ["0", "0", "1", "2", "3", "4", "5"], "rt": [6543, 104, 785, 385, 471], "actions": ["up", "up", "up", "right", "up"], "actionTimes": [8734, 9357, 10661, 11558, 12535], "queries": {"click": {"state": {"target": ["12"], "time": [4612]}, "edge": {"target": [], "time": []}}, "mouseover": {"state": {"target": ["18", "7", "2", "23", "0", "12", "1"], "time": [3520, 3658, 3719, 3927, 4187, 4250, 6894]}, "edge": {"target": [], "time": []}}, "mouseout": {"state": {"target": ["11", "8", "10", "1", "12", "18", "7", "2", "23", "0", "12", "1"], "time": [1519, 1579, 1610, 1625, 1846, 3596, 3687, 3734, 4066, 4234, 6032, 7410]}, "edge": {"target": [], "time": []}}}, "displayed_time": "16.19", "trialTime": 18126, "trial_type": "mouselab-mdp", "trial_index": 13, "time_elapsed": 598602, "internal_node_id": "0.0-6.0-1.0-4.0"}}, {"uniqueid": "w78186709:a76389639", "current_trial": 14, "dateTime": 1693481767766, "trialdata": {"revealed_states": [], "clicked_states": [], "num_clicks_accrued": [0, 0, 0, 0, 0, 0, 0, 0, 0, 0, 0, 0, 0], "stateRewards": ["", -2, -3, 1, -14, 48, -49, 67, -1, -35, -48, 3, -2, 1, -4, -5, 86, -84, 39, 1, 48, 41, -42, -1, -4, 2, -7, 18, -86, 17, 7, -9, 57, -69], "withholdReward": false, "trial_id": "mdp_trial_6", "block": "test", "trialIndex": 7, "score": -2, "costs": 0, "simulationMode": [null, null, null, null, null], "rewards": [-2, -3, 1, -1, 3], "path": ["0", "0", "1", "2", "3", "8", "11"], "rt": [5178, 58, 80, 757, 380], "actions": ["up", "up", "up", "left", "left"], "actionTimes": [8419, 8986, 9587, 10858, 11747], "queries": {"click": {"state": {"target": [], "time": []}, "edge": {"target": [], "time": []}}, "mouseover": {"state": {"target": ["12", "13", "19", "20", "17", "16", "7", "2", "10", "29", "25", "24", "1", "1", "1"], "time": [3510, 3544, 3584, 3726, 4276, 4475, 4506, 4523, 4538, 4599, 4854, 4880, 5151, 5838, 7710]}, "edge": {"target": [], "time": []}}, "mouseout": {"state": {"target": ["7", "0", "12", "13", "19", "20", "17", "16", "7", "2", "10", "29", "25", "24", "1", "1", "1", "1"], "time": [2618, 3325, 3541, 3561, 3663, 3807, 4297, 4489, 4521, 4536, 4552, 4615, 4865, 4898, 5225, 6683, 13490, 14201]}, "edge": {"target": [], "time": []}}}, "displayed_time": "17.24", "trialTime": 18476, "trial_type": "mouselab-mdp", "trial_index": 14, "time_elapsed": 617243, "internal_node_id": "0.0-6.0-1.0-5.0"}}, {"uniqueid": "w78186709:a76389639", "current_trial": 15, "dateTime": 1693481840288, "trialdata": {"revealed_states": [], "clicked_states": [], "num_clicks_accrued": [0, 0, 0, 0, 0, 0, 0, 0, 0, 0, 0, 0, 0], "stateRewards": ["", 2, -1, 3, -12, -83, 6, -33, 9, 28, 24, -50, -2, -1, -2, -5, -87, 37, 82, 12, 80, -5, 10, -2, -3, -6, 9, 22, -1, 16, 9, 77, -62, 58], "withholdReward": false, "trial_id": "mdp_trial_7", "block": "test", "trialIndex": 8, "score": 87, "costs": 0, "simulationMode": [null, null, null, null, null], "rewards": [-2, -1, -2, 12, 80], "path": ["0", "0", "12", "13", "14", "19", "20"], "rt": [2066, 362, 616, 628, 198], "actions": ["right", "right", "right", "down", "right"], "actionTimes": [4471, 5343, 6473, 7608, 8320], "queries": {"click": {"state": {"target": [], "time": []}, "edge": {"target": [], "time": []}}, "mouseover": {"state": {"target": [], "time": []}, "edge": {"target": [], "time": []}}, "mouseout": {"state": {"target": ["1", "17", "15", "13", "12"], "time": [1245, 9829, 72033, 72174, 72230]}, "edge": {"target": [], "time": []}}}, "displayed_time": "16.41", "trialTime": 72346, "trial_type": "mouselab-mdp", "trial_index": 15, "time_elapsed": 689765, "internal_node_id": "0.0-6.0-1.0-6.0"}}, {"uniqueid": "w78186709:a76389639", "current_trial": 16, "dateTime": 1693481870687, "trialdata": {"revealed_states": [], "clicked_states": [], "num_clicks_accrued": [0, 0, 0, 0, 0, 0, 0, 0, 0, 0, 0, 0, 0], "stateRewards": ["", -1, 1, -5, -6, -78, 47, -13, 12, 48, -88, 20, 2, -3, -2, 13, -20, 37, -57, 14, -38, 30, 31, -2, -2, 8, 2, -23, 78, 28, 12, -74, -88, 8], "withholdReward": false, "trial_id": "mdp_trial_8", "block": "test", "trialIndex": 9, "score": 41, "costs": 0, "simulationMode": [null, null, null, null, null], "rewards": [2, -3, -2, 14, 30], "path": ["0", "0", "12", "13", "14", "19", "21"], "rt": [1587, 87, 198, 528, 250], "actions": ["right", "right", "right", "down", "down"], "actionTimes": [6144, 6743, 7448, 8496, 9264], "queries": {"click": {"state": {"target": [], "time": []}, "edge": {"target": [], "time": []}}, "mouseover": {"state": {"target": ["18", "15", "17"], "time": [5002, 5044, 5092]}, "edge": {"target": [], "time": []}}, "mouseout": {"state": {"target": ["1", "0", "0", "0", "22", "20", "8", "28", "23", "0", "18", "15", "17"], "time": [405, 658, 829, 1813, 2047, 2231, 3422, 3594, 3857, 4572, 5029, 5076, 5108]}, "edge": {"target": [], "time": []}}}, "displayed_time": "18.56", "trialTime": 30185, "trial_type": "mouselab-mdp", "trial_index": 16, "time_elapsed": 720164, "internal_node_id": "0.0-6.0-1.0-7.0"}}, {"uniqueid": "w78186709:a76389639", "current_trial": 17, "dateTime": 1693481888598, "trialdata": {"revealed_states": [], "clicked_states": [], "num_clicks_accrued": [0, 0, 0, 0, 0, 0, 0, 0, 0, 0, 0, 0, 0], "stateRewards": ["", 1, 2, 8, -2, 23, -69, -18, -16, 54, -21, 71, -1, -4, 7, 11, 43, -6, 88, 6, -55, 72, 43, 1, -3, -2, -1, 68, -31, -54, 4, -8, 25, -2], "withholdReward": false, "trial_id": "mdp_trial_9", "block": "test", "trialIndex": 10, "score": 7, "costs": 0, "simulationMode": [null, null, null, null, null], "rewards": [-1, -4, 7, 11, -6], "path": ["0", "0", "12", "13", "14", "15", "17"], "rt": [1062, 90, 130, 312, 246], "actions": ["right", "right", "right", "up", "right"], "actionTimes": [3921, 4521, 5169, 5994, 6753], "queries": {"click": {"state": {"target": [], "time": []}, "edge": {"target": [], "time": []}}, "mouseover": {"state": {"target": [], "time": []}, "edge": {"target": [], "time": []}}, "mouseout": {"state": {"target": ["5", "10", "23", "0", "23", "32", "32"], "time": [2118, 2163, 2353, 9072, 9225, 13872, 17557]}, "edge": {"target": [], "time": []}}}, "displayed_time": "16.86", "trialTime": 17730, "trial_type": "mouselab-mdp", "trial_index": 17, "time_elapsed": 738074, "internal_node_id": "0.0-6.0-1.0-8.0"}}, {"uniqueid": "w78186709:a76389639", "current_trial": 18, "dateTime": 1693481908895, "trialdata": {"revealed_states": [], "clicked_states": ["12"], "num_clicks_accrued": [0, 0, 0, 0, 0, 0, 0, 0, 0, 0, 0, 0, 0], "stateRewards": ["", -1, -4, -6, -15, 21, -67, -63, 9, 51, 69, -14, -1, 3, 8, -8, 39, 72, 63, 15, 19, 47, 15, 1, 4, 5, 16, -18, 34, 35, -14, -80, 40, 1], "withholdReward": false, "trial_id": "mdp_trial_10", "block": "test", "trialIndex": 11, "score": -94.4, "costs": -1.4, "simulationMode": [null, null, null, null, null], "rewards": [-1, -4, -6, -15, -67], "path": ["0", "0", "1", "2", "3", "4", "6"], "rt": [3021, 170, 115, 273, 195], "actions": ["up", "up", "up", "right", "right"], "actionTimes": [7304, 7992, 8624, 9408, 10111], "queries": {"click": {"state": {"target": ["12"], "time": [5123]}, "edge": {"target": [], "time": []}}, "mouseover": {"state": {"target": ["12", "1"], "time": [4398, 6288]}, "edge": {"target": [], "time": []}}, "mouseout": {"state": {"target": ["31", "13", "12", "0", "12", "1", "2", "1"], "time": [2728, 3698, 3808, 4025, 5976, 11933, 12320, 12758]}, "edge": {"target": [], "time": []}}}, "displayed_time": "18.29", "trialTime": 20121, "trial_type": "mouselab-mdp", "trial_index": 18, "time_elapsed": 758372, "internal_node_id": "0.0-6.0-1.0-9.0"}}, {"uniqueid": "w78186709:a76389639", "current_trial": 19, "dateTime": 1693481926896, "trialdata": {"revealed_states": [], "clicked_states": ["31"], "num_clicks_accrued": [0, 0, 0, 0, 0, 0, 0, 0, 0, 0, 0, 0, 0], "stateRewards": ["", -2, 1, 6, -2, -10, -78, -69, 14, -15, 7, -1, 1, -1, -2, 13, 77, 32, 87, 5, -74, 30, -26, 1, 3, 4, 12, 39, 54, -43, 2, 10, 23, 13], "withholdReward": false, "trial_id": "mdp_trial_11", "block": "test", "trialIndex": 12, "score": -24.4, "costs": -1.4, "simulationMode": [null, null, null, null, null], "rewards": [1, 3, 4, 12, -43], "path": ["0", "0", "23", "24", "25", "26", "29"], "rt": [5951, 153, 179, 82, 114], "actions": ["left", "left", "left", "up", "left"], "actionTimes": [7292, 7964, 8660, 9251, 9877], "queries": {"click": {"state": {"target": ["31"], "time": [4269]}, "edge": {"target": [], "time": []}}, "mouseover": {"state": {"target": ["31", "24", "25", "30", "31"], "time": [1672, 1904, 2700, 3138, 3625]}, "edge": {"target": [], "time": []}}, "mouseout": {"state": {"target": ["0", "31", "24", "25", "30", "31", "31", "31", "23", "27", "26", "1", "12", "13"], "time": [1529, 1844, 2328, 3064, 3481, 5309, 5700, 6390, 11345, 13548, 13641, 14345, 14515, 16387]}, "edge": {"target": [], "time": []}}}, "displayed_time": "15.35", "trialTime": 17813, "trial_type": "mouselab-mdp", "trial_index": 19, "time_elapsed": 776372, "internal_node_id": "0.0-6.0-1.0-10.0"}}, {"uniqueid": "w78186709:a76389639", "current_trial": 20, "dateTime": 1693481944191, "trialdata": {"revealed_states": [], "clicked_states": [], "num_clicks_accrued": [0, 0, 0, 0, 0, 0, 0, 0, 0, 0, 0, 0, 0], "stateRewards": ["", -2, -4, 2, 10, -17, 18, 73, 11, -32, 23, -13, -2, -4, 7, 12, -25, 66, -23, 15, 40, -76, -9, 1, 2, -7, -5, -20, 24, 3, -5, 16, -73, 70], "withholdReward": false, "trial_id": "mdp_trial_12", "block": "test", "trialIndex": 13, "score": 30, "costs": 0, "simulationMode": [null, null, null, null, null], "rewards": [-2, -4, 2, 11, 23], "path": ["0", "0", "1", "2", "3", "8", "10"], "rt": [1356, 130, 90, 80, 85], "actions": ["up", "up", "up", "left", "down"], "actionTimes": [3338, 3979, 4579, 5179, 5778], "queries": {"click": {"state": {"target": [], "time": []}, "edge": {"target": [], "time": []}}, "mouseover": {"state": {"target": ["1"], "time": [2380]}, "edge": {"target": [], "time": []}}, "mouseout": {"state": {"target": ["18", "12", "23", "1", "12"], "time": [537, 1146, 1426, 2570, 16758]}, "edge": {"target": [], "time": []}}}, "displayed_time": "15.99", "trialTime": 17115, "trial_type": "mouselab-mdp", "trial_index": 20, "time_elapsed": 793668, "internal_node_id": "0.0-6.0-1.0-11.0"}}, {"uniqueid": "w78186709:a76389639", "current_trial": 21, "dateTime": 1693481960231, "trialdata": {"revealed_states": [], "clicked_states": ["22"], "num_clicks_accrued": [0, 0, 0, 0, 0, 0, 0, 0, 0, 0, 0, 0, 0], "stateRewards": ["", 2, -3, 5, 11, -79, 54, 11, -9, -78, 33, 22, -2, -1, 2, 14, 43, 34, 1, 10, 49, -65, 39, -1, 1, -1, 3, -16, -2, 11, 2, 12, 48, -65], "withholdReward": false, "trial_id": "mdp_trial_13", "block": "test", "trialIndex": 14, "score": 12.6, "costs": -1.4, "simulationMode": [null, null, null, null, null], "rewards": [-2, -1, 2, 14, 1], "path": ["0", "0", "12", "13", "14", "15", "18"], "rt": [5199, 14, 18, 489, 142], "actions": ["right", "right", "right", "up", "left"], "actionTimes": [6195, 6729, 7280, 8282, 8938], "queries": {"click": {"state": {"target": ["22"], "time": [2745]}, "edge": {"target": [], "time": []}}, "mouseover": {"state": {"target": ["23", "22", "13", "12", "8", "3", "4", "15"], "time": [1454, 2217, 3515, 3542, 3966, 4245, 4324, 4796]}, "edge": {"target": [], "time": []}}, "mouseout": {"state": {"target": ["0", "23", "22", "13", "12", "8", "3", "4", "15", "17", "19", "22"], "time": [543, 1683, 3433, 3530, 3558, 4072, 4291, 4513, 4829, 10653, 11401, 11495]}, "edge": {"target": [], "time": []}}}, "displayed_time": "15.00", "trialTime": 15835, "trial_type": "mouselab-mdp", "trial_index": 21, "time_elapsed": 809708, "internal_node_id": "0.0-6.0-1.0-12.0"}}, {"uniqueid": "w78186709:a76389639", "current_trial": 22, "dateTime": 1693481976872, "trialdata": {"revealed_states": [], "clicked_states": ["21"], "num_clicks_accrued": [0, 0, 0, 0, 0, 0, 0, 0, 0, 0, 0, 0, 0], "stateRewards": ["", 1, 1, 1, 15, -76, 52, -32, 14, -57, 37, 49, 1, -4, -3, 6, 83, -76, 25, 9, 36, -1, -17, -1, 4, 4, -2, -22, -21, 58, -15, -57, 49, -24], "withholdReward": false, "trial_id": "mdp_trial_14", "block": "test", "trialIndex": 15, "score": 39.6, "costs": -1.4, "simulationMode": [null, null, null, null, null], "rewards": [-1, 4, 4, -15, 49], "path": ["0", "0", "23", "24", "25", "30", "32"], "rt": [4561, 24, 112, 20, 489], "actions": ["left", "left", "left", "down", "down"], "actionTimes": [5912, 6454, 7089, 7623, 8639], "queries": {"click": {"state": {"target": ["21"], "time": [2331]}, "edge": {"target": [], "time": []}}, "mouseover": {"state": {"target": ["0", "22", "19", "21", "19", "18", "12", "13", "18", "16", "15", "13"], "time": [1561, 1747, 1790, 2152, 2897, 2976, 3164, 3703, 3797, 3949, 4506, 5091]}, "edge": {"target": [], "time": []}}, "mouseout": {"state": {"target": ["22", "12", "0", "23", "0", "0", "22", "19", "21", "19", "18", "12", "13", "18", "16", "15", "13"], "time": [339, 510, 532, 713, 1188, 1632, 1775, 1804, 2440, 2930, 2992, 3668, 3742, 3844, 4491, 4523, 10190]}, "edge": {"target": [], "time": []}}}, "displayed_time": "15.35", "trialTime": 16456, "trial_type": "mouselab-mdp", "trial_index": 22, "time_elapsed": 826348, "internal_node_id": "0.0-6.0-1.0-13.0"}}, {"uniqueid": "w78186709:a76389639", "current_trial": 23, "dateTime": 1693481994694, "trialdata": {"revealed_states": [], "clicked_states": ["5"], "num_clicks_accrued": [0, 0, 0, 0, 0, 0, 0, 0, 0, 0, 0, 0, 0], "stateRewards": ["", 1, 2, 2, -15, -84, 28, -26, 13, 31, 86, 30, -2, 1, -1, -8, 66, -40, -1, -10, -32, 57, -17, 1, 2, -2, 9, -23, 77, 85, 12, -32, -62, -35], "withholdReward": false, "trial_id": "mdp_trial_15", "block": "test", "trialIndex": 16, "score": 102.6, "costs": -1.4, "simulationMode": [null, null, null, null, null], "rewards": [1, 2, 2, 13, 86], "path": ["0", "0", "1", "2", "3", "8", "10"], "rt": [3773, 56, 55, 1015, 138], "actions": ["up", "up", "up", "left", "down"], "actionTimes": [5315, 5889, 6465, 8009, 8658], "queries": {"click": {"state": {"target": ["5"], "time": [3470]}, "edge": {"target": [], "time": []}}, "mouseover": {"state": {"target": ["1", "2", "3", "4", "5", "4", "2", "2"], "time": [1836, 2066, 2174, 2628, 2789, 4081, 4144, 4458]}, "edge": {"target": [], "time": []}}, "mouseout": {"state": {"target": ["13", "18", "7", "12", "0", "1", "2", "3", "4", "5", "4", "2", "2", "10"], "time": [209, 284, 347, 896, 1696, 1943, 2148, 2585, 2660, 4050, 4097, 4269, 9629, 9660]}, "edge": {"target": [], "time": []}}}, "displayed_time": "15.54", "trialTime": 17634, "trial_type": "mouselab-mdp", "trial_index": 23, "time_elapsed": 844171, "internal_node_id": "0.0-6.0-1.0-14.0"}}, {"uniqueid": "w78186709:a76389639", "current_trial": 24, "dateTime": 1693482011015, "trialdata": {"revealed_states": [], "clicked_states": ["28"], "num_clicks_accrued": [0, 0, 0, 0, 0, 0, 0, 0, 0, 0, 0, 0, 0], "stateRewards": ["", -2, -1, -1, 5, -54, -87, 35, 2, -8, 20, -22, 1, 3, 6, 13, -75, -32, -55, -3, 56, 62, -22, -1, -4, -1, -7, -51, 84, 70, 7, -15, 5, 55], "withholdReward": false, "trial_id": "mdp_trial_16", "block": "test", "trialIndex": 17, "score": -15.4, "costs": -1.4, "simulationMode": [null, null, null, null, null], "rewards": [-1, -4, -1, 7, -15], "path": ["0", "0", "23", "24", "25", "30", "31"], "rt": [5249, 604, 62, 83, 129], "actions": ["left", "left", "left", "down", "right"], "actionTimes": [6233, 7345, 7913, 8513, 9152], "queries": {"click": {"state": {"target": ["28"], "time": [3542]}, "edge": {"target": [], "time": []}}, "mouseover": {"state": {"target": ["31", "26", "28", "27", "28", "25", "30", "32"], "time": [1744, 2572, 2760, 3041, 3288, 4710, 4975, 5273]}, "edge": {"target": [], "time": []}}, "mouseout": {"state": {"target": ["0", "31", "26", "28", "27", "28", "25", "30", "32", "19", "7"], "time": [1350, 2198, 2647, 2781, 3213, 4654, 4850, 5070, 10599, 10740, 11041]}, "edge": {"target": [], "time": []}}}, "displayed_time": "14.99", "trialTime": 16130, "trial_type": "mouselab-mdp", "trial_index": 24, "time_elapsed": 860492, "internal_node_id": "0.0-6.0-1.0-15.0"}}, {"uniqueid": "w78186709:a76389639", "current_trial": 25, "dateTime": 1693482027335, "trialdata": {"revealed_states": [], "clicked_states": ["7"], "num_clicks_accrued": [0, 0, 0, 0, 0, 0, 0, 0, 0, 0, 0, 0, 0], "stateRewards": ["", 2, -4, 7, 3, 23, -42, 4, 7, -81, -33, 7, -2, -4, 5, -1, 50, -57, -14, -13, -14, 44, 55, -2, -2, 5, -2, 33, 1, 57, -13, -7, 58, 87], "withholdReward": false, "trial_id": "mdp_trial_17", "block": "test", "trialIndex": 18, "score": -70.4, "costs": -1.4, "simulationMode": [null, null, null, null, null], "rewards": [2, -4, 7, 7, -81], "path": ["0", "0", "1", "2", "3", "8", "9"], "rt": [5925, 501, 87, 109, 347], "actions": ["up", "up", "up", "left", "up"], "actionTimes": [7010, 8027, 8626, 9242, 10106], "queries": {"click": {"state": {"target": ["7"], "time": [3641]}, "edge": {"target": [], "time": []}}, "mouseover": {"state": {"target": ["1", "2", "2", "7", "4", "5", "6", "2", "3", "3", "4", "7"], "time": [1294, 1351, 1590, 1632, 1791, 1934, 2152, 2685, 2920, 3008, 3159, 3445]}, "edge": {"target": [], "time": []}}, "mouseout": {"state": {"target": ["1", "23", "1", "2", "2", "7", "4", "5", "6", "2", "3", "3", "4", "7", "3", "2"], "time": [319, 526, 1320, 1382, 1610, 1710, 1853, 2008, 2195, 2726, 2947, 3137, 3416, 4429, 11778, 12323]}, "edge": {"target": [], "time": []}}}, "displayed_time": "15.09", "trialTime": 16139, "trial_type": "mouselab-mdp", "trial_index": 25, "time_elapsed": 876811, "internal_node_id": "0.0-6.0-1.0-16.0"}}, {"uniqueid": "w78186709:a76389639", "current_trial": 26, "dateTime": 1693482042967, "trialdata": {"revealed_states": [], "clicked_states": ["18"], "num_clicks_accrued": [0, 0, 0, 0, 0, 0, 0, 0, 0, 0, 0, 0, 0], "stateRewards": ["", 2, -4, -8, -15, 71, -43, -41, 7, -17, 20, 67, -1, -1, -4, 6, 37, -24, -47, 9, 34, 57, 45, 1, 2, -4, -5, -23, 88, -5, 13, -40, 43, 44], "withholdReward": false, "trial_id": "mdp_trial_18", "block": "test", "trialIndex": 19, "score": 35.6, "costs": -1.4, "simulationMode": [null, null, null, null, null], "rewards": [-1, -1, -4, 9, 34], "path": ["0", "0", "12", "13", "14", "19", "20"], "rt": [4679, 197, 1516, 143, 109], "actions": ["right", "right", "right", "down", "right"], "actionTimes": [5656, 6370, 8392, 9049, 9673], "queries": {"click": {"state": {"target": ["18"], "time": [3391]}, "edge": {"target": [], "time": []}}, "mouseover": {"state": {"target": ["12", "13", "14", "19", "22", "13", "13", "18", "13", "22", "23", "24", "28"], "time": [1406, 1453, 1577, 1656, 1973, 2565, 2953, 3077, 3968, 4031, 4327, 4499, 4702]}, "edge": {"target": [], "time": []}}, "mouseout": {"state": {"target": ["1", "2", "1", "0", "12", "13", "14", "19", "22", "13", "13", "18", "13", "22", "23", "24", "28"], "time": [250, 456, 533, 826, 1437, 1499, 1609, 1687, 2440, 2738, 3030, 3953, 3999, 4046, 4359, 4597, 4749]}, "edge": {"target": [], "time": []}}}, "displayed_time": "14.98", "trialTime": 15466, "trial_type": "mouselab-mdp", "trial_index": 26, "time_elapsed": 892444, "internal_node_id": "0.0-6.0-1.0-17.0"}}, {"uniqueid": "w78186709:a76389639", "current_trial": 27, "dateTime": 1693482061105, "trialdata": {"revealed_states": [], "clicked_states": ["7"], "num_clicks_accrued": [0, 0, 0, 0, 0, 0, 0, 0, 0, 0, 0, 0, 0], "stateRewards": ["", 2, 4, 7, -6, -76, -81, 2, 5, -66, -3, 36, -2, -4, 6, -2, -69, 4, -49, -6, 67, 38, -67, 2, 1, 1, 6, -68, -21, 52, -16, -16, 6, -70], "withholdReward": false, "trial_id": "mdp_trial_19", "block": "test", "trialIndex": 20, "score": 13.600000000000001, "costs": -1.4, "simulationMode": [null, null, null, null, null, null], "rewards": [2, 4, 7, 5, -3], "path": ["0", "0", "1", "2", "3", "8", "10"], "rt": [3768, 551, 116, 349, 1034, 44], "actions": ["up", "up", "up", "up", "left", "down"], "actionTimes": [6527, 7080, 7711, 8567, 10113, 10672], "queries": {"click": {"state": {"target": ["7"], "time": [5130]}, "edge": {"target": [], "time": []}}, "mouseover": {"state": {"target": ["1", "2", "4", "5", "2", "7"], "time": [3269, 3593, 3706, 3748, 4379, 4813]}, "edge": {"target": [], "time": []}}, "mouseout": {"state": {"target": ["0", "1", "2", "4", "5", "2", "7", "2", "1", "0"], "time": [2828, 3343, 3624, 3733, 4035, 4467, 12034, 12222, 12314, 12360]}, "edge": {"target": [], "time": []}}}, "displayed_time": "16.76", "trialTime": 17964, "trial_type": "mouselab-mdp", "trial_index": 27, "time_elapsed": 910582, "internal_node_id": "0.0-6.0-1.0-18.0"}}, {"uniqueid": "w78186709:a76389639", "current_trial": 28, "dateTime": 1693482096570, "trialdata": {"revealed_states": [], "clicked_states": ["22"], "num_clicks_accrued": [0, 0, 0, 0, 0, 0, 0, 0, 0, 0, 0, 0, 0], "stateRewards": ["", -2, 1, -3, -16, -39, -52, 30, -7, -41, -59, 11, 2, 1, 8, 2, -11, -26, -42, -13, 87, -59, -48, -1, -1, -1, 16, -79, 31, 50, -1, -84, 34, -82], "withholdReward": false, "trial_id": "mdp_trial_20", "block": "test", "trialIndex": 21, "score": -62.4, "costs": -1.4, "simulationMode": [null, null, null, null, null, null], "rewards": [2, 1, 8, -13, -59], "path": ["0", "0", "12", "13", "14", "19", "21"], "rt": [2608, 567, 126, 789, 580, 50], "actions": ["right", "right", "right", "right", "down", "down"], "actionTimes": [22962, 23531, 24171, 25475, 26563, 27130], "queries": {"click": {"state": {"target": ["22"], "time": [21787]}, "edge": {"target": [], "time": []}}, "mouseover": {"state": {"target": ["1", "13", "22"], "time": [20955, 21122, 21388]}, "edge": {"target": [], "time": []}}, "mouseout": {"state": {"target": ["0", "0", "0", "0", "1", "1", "0", "0", "1", "13", "22", "14", "14", "19"], "time": [502, 3200, 3795, 8597, 8880, 9197, 19012, 19466, 21075, 21313, 30705, 30782, 31033, 31638]}, "edge": {"target": [], "time": []}}}, "displayed_time": "34.36", "trialTime": 35242, "trial_type": "mouselab-mdp", "trial_index": 28, "time_elapsed": 946048, "internal_node_id": "0.0-6.0-1.0-19.0"}}, {"uniqueid": "w78186709:a76389639", "current_trial": 29, "dateTime": 1693482112661, "trialdata": {"revealed_states": [], "clicked_states": ["31"], "num_clicks_accrued": [0, 0, 0, 0, 0, 0, 0, 0, 0, 0, 0, 0, 0], "stateRewards": ["", -2, -1, -4, -15, -14, -67, 32, -3, -59, 63, 31, 2, -1, -7, -15, 71, -66, -27, -3, -54, -39, 72, 2, 1, 1, -13, 77, -40, 35, -9, 35, 75, 57], "withholdReward": false, "trial_id": "mdp_trial_21", "block": "test", "trialIndex": 22, "score": 28.6, "costs": -1.4, "simulationMode": [null, null, null, null, null, null], "rewards": [2, 1, 1, -9, 35], "path": ["0", "0", "23", "24", "25", "30", "31"], "rt": [2628, 669, 455, 47, 1006, 306], "actions": ["left", "left", "left", "left", "down", "right"], "actionTimes": [3514, 4187, 5163, 5722, 7268, 8092], "queries": {"click": {"state": {"target": ["31"], "time": [2450]}, "edge": {"target": [], "time": []}}, "mouseover": {"state": {"target": ["0", "26", "25", "31", "31"], "time": [1226, 1581, 1691, 1785, 2034]}, "edge": {"target": [], "time": []}}, "mouseout": {"state": {"target": ["13", "16", "1", "0", "0", "26", "25", "31", "31"], "time": [69, 303, 378, 614, 1394, 1628, 1753, 1822, 2878]}, "edge": {"target": [], "time": []}}}, "displayed_time": "14.89", "trialTime": 15899, "trial_type": "mouselab-mdp", "trial_index": 29, "time_elapsed": 962138, "internal_node_id": "0.0-6.0-1.0-20.0"}}, {"uniqueid": "w78186709:a76389639", "current_trial": 30, "dateTime": 1693482129667, "trialdata": {"revealed_states": [], "clicked_states": ["32"], "num_clicks_accrued": [0, 0, 0, 0, 0, 0, 0, 0, 0, 0, 0, 0, 0], "stateRewards": ["", 1, 3, 3, -10, 52, 68, 59, 12, 7, 49, 21, -2, -3, -4, -2, -2, 63, 63, -4, 44, 43, -76, -2, -3, -6, 13, 48, 36, 12, -5, -36, -33, -11], "withholdReward": false, "trial_id": "mdp_trial_22", "block": "test", "trialIndex": 23, "score": 28.6, "costs": -1.4, "simulationMode": [null, null, null, null, null], "rewards": [-2, -3, -4, -4, 43], "path": ["0", "0", "12", "13", "14", "19", "21"], "rt": [5209, 71, 311, 73, 56], "actions": ["right", "right", "right", "down", "down"], "actionTimes": [6461, 7052, 7869, 8460, 9036], "queries": {"click": {"state": {"target": ["32"], "time": [2161]}, "edge": {"target": [], "time": []}}, "mouseover": {"state": {"target": ["31", "32", "30"], "time": [1605, 1873, 2793]}, "edge": {"target": [], "time": []}}, "mouseout": {"state": {"target": ["0", "31", "32", "30", "12", "13", "18", "13"], "time": [1516, 1635, 2767, 2808, 10949, 10970, 11119, 14811]}, "edge": {"target": [], "time": []}}}, "displayed_time": "15.25", "trialTime": 16804, "trial_type": "mouselab-mdp", "trial_index": 30, "time_elapsed": 979144, "internal_node_id": "0.0-6.0-1.0-21.0"}}, {"uniqueid": "w78186709:a76389639", "current_trial": 31, "dateTime": 1693482147020, "trialdata": {"revealed_states": [], "clicked_states": [], "num_clicks_accrued": [0, 0, 0, 0, 0, 0, 0, 0, 0, 0, 0, 0, 0], "stateRewards": ["", 1, 2, -3, -6, 50, -7, 7, -7, -80, 21, -1, 2, 2, 4, -1, 33, 84, 1, 14, -53, 81, 6, -2, -2, -3, -9, -87, -38, -59, -5, -74, -3, -71], "withholdReward": false, "trial_id": "mdp_trial_23", "block": "test", "trialIndex": 24, "score": 1, "costs": 0, "simulationMode": [null, null, null, null, null], "rewards": [1, 2, -3, -6, 7], "path": ["0", "0", "1", "2", "3", "4", "7"], "rt": [950, 533, 107, 74, 35], "actions": ["up", "up", "up", "right", "down"], "actionTimes": [3371, 4418, 5042, 5634, 6186], "queries": {"click": {"state": {"target": [], "time": []}, "edge": {"target": [], "time": []}}, "mouseover": {"state": {"target": [], "time": []}, "edge": {"target": [], "time": []}}, "mouseout": {"state": {"target": ["23", "23", "0", "25", "25", "31"], "time": [1682, 1855, 7930, 12650, 13153, 13497]}, "edge": {"target": [], "time": []}}}, "displayed_time": "16.43", "trialTime": 17171, "trial_type": "mouselab-mdp", "trial_index": 31, "time_elapsed": 996497, "internal_node_id": "0.0-6.0-1.0-22.0"}}, {"uniqueid": "w78186709:a76389639", "current_trial": 32, "dateTime": 1693482162987, "trialdata": {"revealed_states": [], "clicked_states": ["9"], "num_clicks_accrued": [0, 0, 0, 0, 0, 0, 0, 0, 0, 0, 0, 0, 0], "stateRewards": ["", -1, -3, 1, 13, -64, -29, 12, -4, -33, 50, 56, 2, -3, 4, 11, -64, -58, -55, 12, 47, 38, -25, -2, 2, 5, -15, 85, 7, 84, 10, 8, 57, 26], "withholdReward": false, "trial_id": "mdp_trial_24", "block": "test", "trialIndex": 25, "score": -55.4, "costs": -1.4, "simulationMode": [null, null, null, null, null], "rewards": [-1, -3, 1, 13, -64], "path": ["0", "0", "1", "2", "3", "4", "5"], "rt": [3445, 69, 179, 19, 1344], "actions": ["up", "up", "up", "right", "up"], "actionTimes": [4308, 4891, 5579, 6107, 7979], "queries": {"click": {"state": {"target": ["9"], "time": [1923]}, "edge": {"target": [], "time": []}}, "mouseover": {"state": {"target": ["3", "9", "9", "8"], "time": [1181, 1402, 1637, 2709]}, "edge": {"target": [], "time": []}}, "mouseout": {"state": {"target": ["0", "3", "9", "9", "8", "0"], "time": [383, 1259, 1432, 2571, 2744, 10260]}, "edge": {"target": [], "time": []}}}, "displayed_time": "14.87", "trialTime": 15763, "trial_type": "mouselab-mdp", "trial_index": 32, "time_elapsed": 1012465, "internal_node_id": "0.0-6.0-1.0-23.0"}}, {"uniqueid": "w78186709:a76389639", "current_trial": 33, "dateTime": 1693482178727, "trialdata": {"revealed_states": [], "clicked_states": ["28"], "num_clicks_accrued": [0, 0, 0, 0, 0, 0, 0, 0, 0, 0, 0, 0, 0], "stateRewards": ["", -2, -2, -3, -6, -15, -11, 41, -12, -63, -76, 2, -2, -3, 8, 9, -36, -2, -18, -16, -32, -85, -17, -2, 1, 5, -16, 82, 35, -88, -1, 80, -82, -20], "withholdReward": false, "trial_id": "mdp_trial_25", "block": "test", "trialIndex": 26, "score": 21.6, "costs": -1.4, "simulationMode": [null, null, null, null, null], "rewards": [-2, 1, 5, -16, 35], "path": ["0", "0", "23", "24", "25", "26", "28"], "rt": [3665, 448, 127, 37, 20], "actions": ["left", "left", "left", "up", "right"], "actionTimes": [4494, 5453, 6085, 6637, 7165], "queries": {"click": {"state": {"target": ["28"], "time": [2194]}, "edge": {"target": [], "time": []}}, "mouseover": {"state": {"target": ["23", "24", "30", "25", "26", "28", "1"], "time": [988, 1081, 1334, 1644, 1675, 1956, 3129]}, "edge": {"target": [], "time": []}}, "mouseout": {"state": {"target": ["0", "1", "0", "23", "24", "30", "25", "26", "28", "1", "28", "24", "25", "26", "28", "23"], "time": [66, 316, 941, 1035, 1144, 1613, 1659, 1707, 3025, 3269, 3505, 8038, 8065, 8632, 8738, 9649]}, "edge": {"target": [], "time": []}}}, "displayed_time": "14.83", "trialTime": 15542, "trial_type": "mouselab-mdp", "trial_index": 33, "time_elapsed": 1028204, "internal_node_id": "0.0-6.0-1.0-24.0"}}, {"uniqueid": "w78186709:a76389639", "current_trial": 34, "dateTime": 1693482194560, "trialdata": {"revealed_states": [], "clicked_states": ["32"], "num_clicks_accrued": [0, 0, 0, 0, 0, 0, 0, 0, 0, 0, 0, 0, 0], "stateRewards": ["", -2, 3, 3, -14, 62, 36, 49, 16, 11, 17, -84, 2, -1, 6, 2, -82, -73, 49, -6, -87, 48, 50, -1, -2, -1, -16, -11, 37, -44, 4, 55, 73, -10], "withholdReward": false, "trial_id": "mdp_trial_26", "block": "test", "trialIndex": 27, "score": 71.6, "costs": -1.4, "simulationMode": [null, null, null, null, null, null], "rewards": [-1, -2, -1, 4, 73], "path": ["0", "0", "23", "24", "25", "30", "32"], "rt": [2871, 611, 142, 117, 59, 25], "actions": ["left", "left", "left", "left", "down", "down"], "actionTimes": [3688, 4301, 4950, 5580, 6147, 6691], "queries": {"click": {"state": {"target": ["32"], "time": [2196]}, "edge": {"target": [], "time": []}}, "mouseover": {"state": {"target": ["0", "23", "30", "32", "30"], "time": [977, 1243, 1477, 1586, 2636]}, "edge": {"target": [], "time": []}}, "mouseout": {"state": {"target": ["0", "0", "23", "30", "32", "30", "24", "24", "0", "0", "0"], "time": [632, 1180, 1274, 1539, 2398, 2748, 7789, 9765, 9780, 10194, 15368]}, "edge": {"target": [], "time": []}}}, "displayed_time": "14.82", "trialTime": 15644, "trial_type": "mouselab-mdp", "trial_index": 34, "time_elapsed": 1044037, "internal_node_id": "0.0-6.0-1.0-25.0"}}, {"uniqueid": "w78186709:a76389639", "current_trial": 35, "dateTime": 1693482211150, "trialdata": {"revealed_states": [], "clicked_states": ["5"], "num_clicks_accrued": [0, 0, 0, 0, 0, 0, 0, 0, 0, 0, 0, 0, 0], "stateRewards": ["", 2, -2, -3, 10, -4, -1, -11, -8, -9, -36, -78, 2, 1, 7, -7, 44, -1, -31, -1, 26, 47, 83, 2, -4, -4, -6, -52, -76, -81, -1, -59, 45, 67], "withholdReward": false, "trial_id": "mdp_trial_27", "block": "test", "trialIndex": 28, "score": -21.4, "costs": -1.4, "simulationMode": [null, null, null, null, null], "rewards": [2, -2, -3, -8, -9], "path": ["0", "0", "1", "2", "3", "8", "9"], "rt": [5815, 88, 172, 897, 466], "actions": ["up", "up", "up", "left", "up"], "actionTimes": [7282, 7881, 8561, 9971, 10946], "queries": {"click": {"state": {"target": ["5"], "time": [4306]}, "edge": {"target": [], "time": []}}, "mouseover": {"state": {"target": ["0", "0", "12", "21", "21", "20", "14", "18", "4", "5", "4"], "time": [1503, 1854, 1902, 2073, 2376, 3014, 3168, 3199, 3370, 3828, 4995]}, "edge": {"target": [], "time": []}}, "mouseout": {"state": {"target": ["0", "23", "0", "0", "12", "21", "21", "20", "14", "18", "4", "5", "4", "2"], "time": [77, 358, 1558, 1870, 2000, 2153, 2730, 3152, 3198, 3214, 3416, 4809, 5429, 12651]}, "edge": {"target": [], "time": []}}}, "displayed_time": "15.47", "trialTime": 16394, "trial_type": "mouselab-mdp", "trial_index": 35, "time_elapsed": 1060627, "internal_node_id": "0.0-6.0-1.0-26.0"}}, {"uniqueid": "w78186709:a76389639", "current_trial": 36, "dateTime": 1693482226932, "trialdata": {"revealed_states": [], "clicked_states": ["22"], "num_clicks_accrued": [0, 0, 0, 0, 0, 0, 0, 0, 0, 0, 0, 0, 0], "stateRewards": ["", -1, -4, -1, -11, 43, 69, 39, 4, 17, -20, -82, -2, -1, 4, 8, -79, 24, -79, 11, 36, 64, 41, 2, 4, -1, 11, -79, -47, 75, -3, 63, -36, -19], "withholdReward": false, "trial_id": "mdp_trial_28", "block": "test", "trialIndex": 29, "score": 51.6, "costs": -1.4, "simulationMode": [null, null, null, null, null], "rewards": [-2, -1, 4, 11, 41], "path": ["0", "0", "12", "13", "14", "19", "22"], "rt": [3104, 139, 258, 861, 110], "actions": ["right", "right", "right", "down", "left"], "actionTimes": [3933, 4589, 5364, 6732, 7357], "queries": {"click": {"state": {"target": ["22"], "time": [2014]}, "edge": {"target": [], "time": []}}, "mouseover": {"state": {"target": ["0", "12", "13", "22", "22", "14", "13"], "time": [1041, 1229, 1448, 1557, 1795, 2589, 3090]}, "edge": {"target": [], "time": []}}, "mouseout": {"state": {"target": ["1", "0", "12", "13", "22", "22", "14", "13", "14"], "time": [386, 1153, 1371, 1511, 1619, 2480, 3028, 8276, 8511]}, "edge": {"target": [], "time": []}}}, "displayed_time": "14.83", "trialTime": 15397, "trial_type": "mouselab-mdp", "trial_index": 36, "time_elapsed": 1076409, "internal_node_id": "0.0-6.0-1.0-27.0"}}, {"uniqueid": "w78186709:a76389639", "current_trial": 37, "dateTime": 1693482243699, "trialdata": {"revealed_states": [], "clicked_states": ["20"], "num_clicks_accrued": [0, 0, 0, 0, 0, 0, 0, 0, 0, 0, 0, 0, 0], "stateRewards": ["", 1, -2, 4, 7, -43, -83, -60, -5, -86, -80, 83, -1, -2, 6, 11, -15, 21, 13, 9, 29, -49, 11, -1, 4, -6, -11, 87, 40, 63, -8, -39, -11, 62], "withholdReward": false, "trial_id": "mdp_trial_29", "block": "test", "trialIndex": 30, "score": 39.6, "costs": -1.4, "simulationMode": [null, null, null, null, null], "rewards": [-1, -2, 6, 9, 29], "path": ["0", "0", "12", "13", "14", "19", "20"], "rt": [3622, 19, 57, 447, 156], "actions": ["right", "right", "right", "down", "right"], "actionTimes": [4693, 5220, 5804, 6773, 7437], "queries": {"click": {"state": {"target": ["20"], "time": [1824]}, "edge": {"target": [], "time": []}}, "mouseover": {"state": {"target": ["12", "13", "20", "19"], "time": [1200, 1247, 1652, 2327]}, "edge": {"target": [], "time": []}}, "mouseout": {"state": {"target": ["17", "14", "13", "12", "12", "13", "20", "19"], "time": [279, 355, 402, 543, 1231, 1262, 2215, 2343]}, "edge": {"target": [], "time": []}}}, "displayed_time": "15.07", "trialTime": 16573, "trial_type": "mouselab-mdp", "trial_index": 37, "time_elapsed": 1093177, "internal_node_id": "0.0-6.0-1.0-28.0"}}, {"uniqueid": "w78186709:a76389639", "current_trial": 38, "dateTime": 1693482259119, "trialdata": {"revealed_states": [], "clicked_states": ["17"], "num_clicks_accrued": [0, 0, 0, 0, 0, 0, 0, 0, 0, 0, 0, 0, 0], "stateRewards": ["", 1, -3, -6, -5, 47, 80, -29, 11, -71, 10, -29, -2, 3, -6, 12, 2, -78, -6, 8, 34, -16, -5, -1, 3, 3, -13, 84, -36, -62, -3, -27, 66, 15], "withholdReward": false, "trial_id": "mdp_trial_30", "block": "test", "trialIndex": 31, "score": -3.4000000000000004, "costs": -1.4, "simulationMode": [null, null, null, null, null], "rewards": [-2, 3, -6, 8, -5], "path": ["0", "0", "12", "13", "14", "19", "22"], "rt": [4190, 180, 364, 56, 271], "actions": ["right", "right", "right", "down", "left"], "actionTimes": [4864, 5552, 6424, 6992, 7784], "queries": {"click": {"state": {"target": ["17"], "time": [2558]}, "edge": {"target": [], "time": []}}, "mouseover": {"state": {"target": ["12", "19", "17", "17", "15", "13", "13"], "time": [857, 886, 1672, 2235, 3074, 3278, 3762]}, "edge": {"target": [], "time": []}}, "mouseout": {"state": {"target": ["13", "12", "0", "12", "19", "17", "17", "15", "13", "13", "13"], "time": [28, 183, 730, 871, 933, 1700, 2949, 3090, 3497, 3840, 10527]}, "edge": {"target": [], "time": []}}}, "displayed_time": "14.68", "trialTime": 15177, "trial_type": "mouselab-mdp", "trial_index": 38, "time_elapsed": 1108596, "internal_node_id": "0.0-6.0-1.0-29.0"}}, {"uniqueid": "w78186709:a76389639", "current_trial": 39, "dateTime": 1693482274831, "trialdata": {"revealed_states": [], "clicked_states": ["7"], "num_clicks_accrued": [0, 0, 0, 0, 0, 0, 0, 0, 0, 0, 0, 0, 0], "stateRewards": ["", -2, -1, -6, -14, -55, 78, -13, 11, 14, -71, 59, 2, 2, 6, -6, 9, 38, 14, 7, 85, 11, 68, 1, -4, -1, -3, -63, -85, 9, -2, 63, -86, -10], "withholdReward": false, "trial_id": "mdp_trial_31", "block": "test", "trialIndex": 32, "score": 14.6, "costs": -1.4, "simulationMode": [null, null, null, null, null], "rewards": [-2, -1, -6, 11, 14], "path": ["0", "0", "1", "2", "3", "8", "9"], "rt": [5028, 76, 84, 520, 42], "actions": ["up", "up", "up", "left", "up"], "actionTimes": [5907, 6498, 7099, 8130, 8682], "queries": {"click": {"state": {"target": ["7"], "time": [2640]}, "edge": {"target": [], "time": []}}, "mouseover": {"state": {"target": ["4", "5", "7", "1", "2", "4", "1", "2", "2"], "time": [1330, 1706, 2299, 3155, 3388, 3514, 4638, 4716, 5170]}, "edge": {"target": [], "time": []}}, "mouseout": {"state": {"target": ["13", "12", "4", "5", "7", "1", "2", "4", "7", "1", "2", "2"], "time": [125, 312, 1472, 1796, 2996, 3373, 3419, 3545, 3738, 4685, 4748, 9717]}, "edge": {"target": [], "time": []}}}, "displayed_time": "14.88", "trialTime": 15531, "trial_type": "mouselab-mdp", "trial_index": 39, "time_elapsed": 1124308, "internal_node_id": "0.0-6.0-1.0-30.0"}}, {"uniqueid": "w78186709:a76389639", "current_trial": 40, "dateTime": 1693482295667, "trialdata": {"revealed_states": [], "clicked_states": ["31"], "num_clicks_accrued": [0, 0, 0, 0, 0, 0, 0, 0, 0, 0, 0, 0, 0], "stateRewards": ["", 1, -4, 6, -3, 40, 76, -51, 5, -24, -63, 44, -2, -2, 8, 1, 76, -85, -58, 10, 59, 20, 11, -2, 3, -3, 3, -82, -10, 54, -7, -57, -6, -32], "withholdReward": false, "trial_id": "mdp_trial_32", "block": "test", "trialIndex": 33, "score": -10.4, "costs": -1.4, "simulationMode": [null, null, null, null, null], "rewards": [-2, 3, -3, 3, -10], "path": ["0", "0", "23", "24", "25", "26", "28"], "rt": [4589, 51, 207, 618, 61], "actions": ["left", "left", "left", "up", "right"], "actionTimes": [5447, 6014, 6751, 7878, 8446], "queries": {"click": {"state": {"target": ["31"], "time": [1998]}, "edge": {"target": [], "time": []}}, "mouseover": {"state": {"target": ["0", "23", "31", "23", "28", "24", "25", "30", "32"], "time": [1153, 1212, 1605, 2305, 2836, 2930, 3257, 3353, 3370]}, "edge": {"target": [], "time": []}}, "mouseout": {"state": {"target": ["1", "2", "0", "0", "23", "31", "23", "28", "24", "25", "30", "32", "31", "31", "32", "0"], "time": [69, 307, 916, 1174, 1257, 2117, 2336, 2867, 2992, 3321, 3369, 3385, 9586, 9836, 16587, 20461]}, "edge": {"target": [], "time": []}}}, "displayed_time": "14.86", "trialTime": 20614, "trial_type": "mouselab-mdp", "trial_index": 40, "time_elapsed": 1145145, "internal_node_id": "0.0-6.0-1.0-31.0"}}, {"uniqueid": "w78186709:a76389639", "current_trial": 41, "dateTime": 1693482312243, "trialdata": {"revealed_states": [], "clicked_states": ["5"], "num_clicks_accrued": [0, 0, 0, 0, 0, 0, 0, 0, 0, 0, 0, 0, 0], "stateRewards": ["", 1, 2, -5, 14, 54, -14, -25, 16, -5, -87, 78, -1, 1, 3, -3, 52, 53, 53, -10, 73, -69, -48, 2, 3, 1, 8, -62, -7, 85, 7, 82, 52, -28], "withholdReward": false, "trial_id": "mdp_trial_33", "block": "test", "trialIndex": 34, "score": 64.6, "costs": -1.4, "simulationMode": [null, null, null, null, null], "rewards": [1, 2, -5, 14, 54], "path": ["0", "0", "1", "2", "3", "4", "5"], "rt": [3847, 29, 601, 757, 115], "actions": ["up", "up", "up", "right", "up"], "actionTimes": [4575, 5111, 6231, 7496, 8120], "queries": {"click": {"state": {"target": ["5"], "time": [2147]}, "edge": {"target": [], "time": []}}, "mouseover": {"state": {"target": ["1", "2", "3", "5"], "time": [1080, 1114, 1144, 1518]}, "edge": {"target": [], "time": []}}, "mouseout": {"state": {"target": ["0", "1", "2", "3", "5", "12"], "time": [10, 1112, 1128, 1160, 2628, 10800]}, "edge": {"target": [], "time": []}}}, "displayed_time": "14.73", "trialTime": 16279, "trial_type": "mouselab-mdp", "trial_index": 41, "time_elapsed": 1161720, "internal_node_id": "0.0-6.0-1.0-32.0"}}, {"uniqueid": "w78186709:a76389639", "current_trial": 42, "dateTime": 1693482329352, "trialdata": {"revealed_states": [], "clicked_states": ["10"], "num_clicks_accrued": [0, 0, 0, 0, 0, 0, 0, 0, 0, 0, 0, 0, 0], "stateRewards": ["", 1, -3, -1, 9, -34, -40, 22, -7, 45, 53, -11, 2, 4, 5, 15, 21, 37, -49, -3, 80, -28, -34, 1, -3, 1, 1, -40, -6, -5, -16, -85, -86, 59], "withholdReward": false, "trial_id": "mdp_trial_34", "block": "test", "trialIndex": 35, "score": 41.6, "costs": -1.4, "simulationMode": [null, null, null, null, null], "rewards": [1, -3, -1, -7, 53], "path": ["0", "0", "1", "2", "3", "8", "10"], "rt": [3554, 44, 43, 752, 86], "actions": ["up", "up", "up", "left", "down"], "actionTimes": [4746, 5305, 5881, 7154, 7754], "queries": {"click": {"state": {"target": ["10"], "time": [2282]}, "edge": {"target": [], "time": []}}, "mouseover": {"state": {"target": ["1", "10", "10", "2", "2", "2"], "time": [1461, 1664, 2059, 2697, 3524, 4182]}, "edge": {"target": [], "time": []}}, "mouseout": {"state": {"target": ["1", "1", "10", "10", "2", "2", "2", "7", "16"], "time": [525, 1478, 1918, 2572, 2805, 3540, 8403, 8429, 8462]}, "edge": {"target": [], "time": []}}}, "displayed_time": "15.19", "trialTime": 16890, "trial_type": "mouselab-mdp", "trial_index": 42, "time_elapsed": 1178828, "internal_node_id": "0.0-6.0-1.0-33.0"}}, {"uniqueid": "w78186709:a76389639", "current_trial": 43, "dateTime": 1693482349763, "trialdata": {"revealed_states": [], "clicked_states": ["16"], "num_clicks_accrued": [0, 0, 0, 0, 0, 0, 0, 0, 0, 0, 0, 0, 0], "stateRewards": ["", -2, -2, -7, -13, -10, 49, -68, -1, 84, 70, 88, 1, 4, 4, 12, -57, 25, 30, 8, -1, -77, 57, 2, 3, 2, 3, -18, -80, 23, -15, -41, 70, 11], "withholdReward": false, "trial_id": "mdp_trial_35", "block": "test", "trialIndex": 36, "score": 14.6, "costs": -1.4, "simulationMode": [null, null, null, null, null], "rewards": [1, 4, 4, 8, -1], "path": ["0", "0", "12", "13", "14", "19", "20"], "rt": [5580, 46, 542, 95, 86], "actions": ["right", "right", "right", "down", "right"], "actionTimes": [7357, 7924, 8997, 9596, 10197], "queries": {"click": {"state": {"target": ["16"], "time": [3274]}, "edge": {"target": [], "time": []}}, "mouseover": {"state": {"target": ["16", "15", "13", "13"], "time": [2834, 5425, 5657, 5913]}, "edge": {"target": [], "time": []}}, "mouseout": {"state": {"target": ["16", "16", "15", "13", "13", "21", "21", "14", "18", "7", "7"], "time": [3830, 5328, 5615, 5766, 5969, 11207, 11361, 12236, 12281, 12517, 12923]}, "edge": {"target": [], "time": []}}}, "displayed_time": "15.78", "trialTime": 20172, "trial_type": "mouselab-mdp", "trial_index": 43, "time_elapsed": 1199241, "internal_node_id": "0.0-6.0-1.0-34.0"}}, {"uniqueid": "w78186709:a76389639", "current_trial": 44, "dateTime": 1693482366407, "trialdata": {"revealed_states": [], "clicked_states": ["31"], "num_clicks_accrued": [0, 0, 0, 0, 0, 0, 0, 0, 0, 0, 0, 0, 0], "stateRewards": ["", 1, -1, 1, 13, 31, -56, 72, 2, 41, 5, 63, -2, -3, -2, 3, -71, -26, 52, 13, -31, 24, -67, 2, -2, 5, 4, 66, 43, 72, 9, 86, -26, 44], "withholdReward": false, "trial_id": "mdp_trial_36", "block": "test", "trialIndex": 37, "score": 98.6, "costs": -1.4, "simulationMode": [null, null, null, null, null], "rewards": [2, -2, 5, 9, 86], "path": ["0", "0", "23", "24", "25", "30", "31"], "rt": [4137, 32, 1299, 13, 538], "actions": ["left", "left", "left", "down", "right"], "actionTimes": [5867, 6410, 8219, 8746, 9818], "queries": {"click": {"state": {"target": ["31"], "time": [3161]}, "edge": {"target": [], "time": []}}, "mouseover": {"state": {"target": ["1", "7", "2", "24", "25", "30", "31", "23", "28"], "time": [1794, 1872, 2141, 2344, 2435, 2734, 2935, 3482, 4389]}, "edge": {"target": [], "time": []}}, "mouseout": {"state": {"target": ["7", "1", "7", "2", "24", "25", "30", "31", "23", "28", "2", "6", "12", "12"], "time": [624, 1825, 1938, 2170, 2387, 2562, 2827, 3278, 3514, 5188, 10638, 10951, 11047, 14812]}, "edge": {"target": [], "time": []}}}, "displayed_time": "15.73", "trialTime": 16419, "trial_type": "mouselab-mdp", "trial_index": 44, "time_elapsed": 1215883, "internal_node_id": "0.0-6.0-1.0-35.0"}}, {"uniqueid": "w78186709:a76389639", "current_trial": 45, "dateTime": 1693482382128, "trialdata": {"revealed_states": [], "clicked_states": ["32"], "num_clicks_accrued": [0, 0, 0, 0, 0, 0, 0, 0, 0, 0, 0, 0, 0], "stateRewards": ["", 2, -1, 1, 10, -52, 86, -22, -2, -14, -63, 38, 1, 3, 7, -8, 11, -32, -27, 9, -71, 40, -87, -2, -1, 5, -7, 12, 31, -57, 13, 86, -58, 29], "withholdReward": false, "trial_id": "mdp_trial_37", "block": "test", "trialIndex": 38, "score": -63.4, "costs": -1.4, "simulationMode": [null, null, null, null, null], "rewards": [-2, -1, 5, -7, -57], "path": ["0", "0", "23", "24", "25", "26", "29"], "rt": [4512, 475, 126, 448, 174], "actions": ["left", "left", "left", "up", "left"], "actionTimes": [5289, 6281, 6913, 7881, 8576], "queries": {"click": {"state": {"target": ["32"], "time": [1488]}, "edge": {"target": [], "time": []}}, "mouseover": {"state": {"target": ["23", "24", "31", "32", "32", "30", "31", "23", "24", "25", "31", "31", "28"], "time": [962, 1051, 1098, 1177, 1354, 1974, 2115, 2412, 2535, 2614, 2739, 3459, 3724]}, "edge": {"target": [], "time": []}}, "mouseout": {"state": {"target": ["0", "0", "23", "24", "31", "32", "32", "30", "31", "23", "24", "25", "31", "31", "28"], "time": [274, 506, 1005, 1066, 1114, 1316, 1867, 2099, 2161, 2521, 2584, 2724, 2880, 3489, 9215]}, "edge": {"target": [], "time": []}}}, "displayed_time": "14.78", "trialTime": 15537, "trial_type": "mouselab-mdp", "trial_index": 45, "time_elapsed": 1231604, "internal_node_id": "0.0-6.0-1.0-36.0"}}, {"uniqueid": "w78186709:a76389639", "current_trial": 46, "dateTime": 1693482398352, "trialdata": {"revealed_states": [], "clicked_states": ["9"], "num_clicks_accrued": [0, 0, 0, 0, 0, 0, 0, 0, 0, 0, 0, 0, 0], "stateRewards": ["", 2, -3, -8, 14, -7, -51, 73, 2, 36, 36, -43, -1, 3, -4, 1, 6, 87, -65, 15, 61, -42, -83, -1, 3, -2, -7, 30, -48, 35, 13, 26, 60, 78], "withholdReward": false, "trial_id": "mdp_trial_38", "block": "test", "trialIndex": 39, "score": 27.6, "costs": -1.4, "simulationMode": [null, null, null, null, null], "rewards": [2, -3, -8, 2, 36], "path": ["0", "0", "1", "2", "3", "8", "9"], "rt": [3693, 62, 69, 44, 215], "actions": ["up", "up", "up", "left", "up"], "actionTimes": [4965, 5555, 6139, 6691, 7428], "queries": {"click": {"state": {"target": ["9"], "time": [2421]}, "edge": {"target": [], "time": []}}, "mouseover": {"state": {"target": ["1", "2", "3", "9", "2", "1", "7", "3", "8", "8"], "time": [1382, 1460, 1538, 2058, 2803, 2944, 3131, 3256, 3569, 4257]}, "edge": {"target": [], "time": []}}, "mouseout": {"state": {"target": ["2", "1", "0", "1", "2", "3", "9", "2", "1", "7", "3", "8", "8", "14", "22"], "time": [458, 616, 1154, 1428, 1506, 1632, 2679, 2866, 3085, 3194, 3461, 3694, 4304, 15851, 15914]}, "edge": {"target": [], "time": []}}}, "displayed_time": "15.27", "trialTime": 16012, "trial_type": "mouselab-mdp", "trial_index": 46, "time_elapsed": 1247828, "internal_node_id": "0.0-6.0-1.0-37.0"}}, {"uniqueid": "w78186709:a76389639", "current_trial": 47, "dateTime": 1693482414432, "trialdata": {"revealed_states": [], "clicked_states": ["10"], "num_clicks_accrued": [0, 0, 0, 0, 0, 0, 0, 0, 0, 0, 0, 0, 0], "stateRewards": ["", 1, 1, 7, -11, 80, -20, -53, -14, 3, 31, 27, 2, -1, -8, -10, 33, 41, 86, 9, 78, -37, -13, -1, -2, -6, -8, -80, 75, 4, -16, -49, -74, 24], "withholdReward": false, "trial_id": "mdp_trial_39", "block": "test", "trialIndex": 40, "score": 24.6, "costs": -1.4, "simulationMode": [null, null, null, null, null], "rewards": [1, 1, 7, -14, 31], "path": ["0", "0", "1", "2", "3", "8", "10"], "rt": [4588, 24, 37, 321, 54], "actions": ["up", "up", "up", "left", "down"], "actionTimes": [5779, 6321, 6865, 7697, 8257], "queries": {"click": {"state": {"target": ["10"], "time": [3160]}, "edge": {"target": [], "time": []}}, "mouseover": {"state": {"target": ["18", "15", "16", "7", "2", "10", "2", "2", "1"], "time": [1701, 1749, 1999, 2548, 2648, 2905, 3551, 3937, 4125]}, "edge": {"target": [], "time": []}}, "mouseout": {"state": {"target": ["13", "0", "0", "18", "15", "16", "7", "2", "10", "2", "2", "1", "1", "1", "1"], "time": [107, 532, 686, 1717, 1955, 2238, 2626, 2831, 3312, 3593, 4093, 5171, 9282, 11624, 14749]}, "edge": {"target": [], "time": []}}}, "displayed_time": "15.19", "trialTime": 15867, "trial_type": "mouselab-mdp", "trial_index": 47, "time_elapsed": 1263909, "internal_node_id": "0.0-6.0-1.0-38.0"}}, {"uniqueid": "w78186709:a76389639", "current_trial": 48, "dateTime": 1693482431088, "trialdata": {"revealed_states": [], "clicked_states": ["16"], "num_clicks_accrued": [0, 0, 0, 0, 0, 0, 0, 0, 0, 0, 0, 0, 0], "stateRewards": ["", 1, 4, -8, -5, -15, -7, 21, 13, -30, 40, -65, 1, 1, 5, -14, 35, 27, -38, -11, 36, -58, -47, -2, 4, -3, 13, -16, -49, 22, 15, -56, -44, -10], "withholdReward": false, "trial_id": "mdp_trial_40", "block": "test", "trialIndex": 41, "score": 26.6, "costs": -1.4, "simulationMode": [null, null, null, null, null], "rewards": [1, 1, 5, -14, 35], "path": ["0", "0", "12", "13", "14", "15", "16"], "rt": [4251, 404, 122, 216, 57], "actions": ["right", "right", "right", "up", "up"], "actionTimes": [5163, 6084, 6724, 7460, 8035], "queries": {"click": {"state": {"target": ["16"], "time": [2572]}, "edge": {"target": [], "time": []}}, "mouseover": {"state": {"target": ["14", "15", "16"], "time": [2008, 2213, 2320]}, "edge": {"target": [], "time": []}}, "mouseout": {"state": {"target": ["1", "14", "15", "16"], "time": [556, 2102, 2241, 2761]}, "edge": {"target": [], "time": []}}}, "displayed_time": "14.91", "trialTime": 16453, "trial_type": "mouselab-mdp", "trial_index": 48, "time_elapsed": 1280565, "internal_node_id": "0.0-6.0-1.0-39.0"}}, {"uniqueid": "w78186709:a76389639", "current_trial": 49, "dateTime": 1693482507489, "trialdata": {"rt": 75899, "response": {"Q0": "$-2 to $2", "Q1": "$-16 to $16", "Q2": "$-88 to $88", "Q3": "The cost for clicking on nodes varied between nodes.", "Q4": "Slightly motivated"}, "question_order": [0, 1, 2, 3, 4], "trial_id": "final_quiz_control", "trial_type": "survey-multi-choice", "trial_index": 49, "time_elapsed": 1356963, "internal_node_id": "0.0-6.0-2.0"}}, {"uniqueid": "w78186709:a76389639", "current_trial": 50, "dateTime": 1693482609311, "trialdata": {"rt": 101433, "response": {"Q0": "Checked the nodes of the last step if it was green i used that path", "Q1": "yes, the last nodes were green i used that path", "Q2": "it was not that difficult i just changed strategies of using the nodes for the last step"}, "trial_id": "self_report_control", "trial_type": "survey-text", "trial_index": 50, "time_elapsed": 1458789, "internal_node_id": "0.0-6.0-3.0"}}, {"uniqueid": "w78186709:a76389639", "current_trial": 51, "dateTime": 1693482643511, "trialdata": {"rt": 34062, "response": {"gender": "female", "age": "24", "colorblind": "0", "effort": "1"}, "trial_type": "survey-html-form", "trial_index": 51, "time_elapsed": 1492988, "internal_node_id": "0.0-6.0-4.0"}}, {"uniqueid": "w78186709:a76389639", "current_trial": 52, "dateTime": 1693482679667, "trialdata": {"rt": 36119, "response": {"Q0": "no", "Q1": "no i had not participated before", "Q2": ""}, "trial_type": "survey-text", "trial_index": 52, "time_elapsed": 1529145, "internal_node_id": "0.0-6.0-5.0"}}, {"uniqueid": "w78186709:a76389639", "current_trial": 53, "dateTime": 1693482717258, "trialdata": {"rt": 37555, "stimulus": "<h1>Completion Code Instructions (1/2)</h1>\n<br><br><br><br>\nYou have reached the end of the experiment! The completion code consists of two parts: (1) a code with 2 characters (2) a code with 6 characters. On this page, you will receive the second part of the code. The first part of the completion code will be on the next page.\n<br><br>\nThe second part of your completion code is: <b>EWEK22</b>\n<br><br>\nPlease note this down. Then, press 'Finish HIT' in order to find the first part of your completion code. Once the data has been saved, you will receive this code either in this window or in the original browser window where you started the experiment.\n", "response": 0, "trial_type": "html-button-response", "trial_index": 53, "time_elapsed": 1566736, "internal_node_id": "0.0-6.0-6.0"}}, {"uniqueid": "w78186709:a76389639", "current_trial": 54, "dateTime": 1693482718752, "trialdata": {"success": true, "trial_type": "fullscreen", "trial_index": 54, "time_elapsed": 1568230, "internal_node_id": "0.0-7.0"}}], "questiondata": {"params": {"CODE": "C6DMOQA6", "MIN_TIME": 14, "inspectCost": 1, "startTime": "Thu Aug 31 2023 13:25:46 GMT+0200 (South Africa Standard Time)", "bonusRate": 0.002, "variance": "1_2_4_8_44", "branching": "31123"}}, "eventdata": [{"eventtype": "initialized", "value": null, "timestamp": 1693481146131, "interval": 0}, {"eventtype": "window_resize", "value": [1024, 654], "timestamp": 1693481146131, "interval": 0}, {"eventtype": "window_resize", "value": [1024, 654], "timestamp": 1693481146763, "interval": 632}, {"eventtype": "window_resize", "value": [1360, 768], "timestamp": 1693481155654, "interval": 8891}], "useragent": "Mozilla/5.0 (Windows NT 10.0; Win64; x64) AppleWebKit/537.36 (KHTML, like Gecko) Chrome/116.0.0.0 Safari/537.36", "mode": "live", "id": "w78186709:a76389639", "status": "user data saved", "Beginhit": "2023-08-31 11:25:41.986803", "Beginexp": "2023-08-31 11:25:57.035732", "Endhit": "2023-08-31 11:52:01.169739", "psiturkStatus": 3, "browser": "<redacted>", "platform": "windows", "language": "en-US"}