{"condition": 0, "counterbalance": 0, "assignmentId": "a65821013", "workerId": "w39798461", "hitId": "h78356545", "currenttrial": 55, "bonus": 0, "data": [{"uniqueid": "w39798461:a65821013", "current_trial": 0, "dateTime": 1691070983367, "trialdata": {"success": true, "trial_type": "fullscreen", "trial_index": 0, "time_elapsed": 5097, "internal_node_id": "0.0-0.0"}}, {"uniqueid": "w39798461:a65821013", "current_trial": 1, "dateTime": 1691071034756, "trialdata": {"view_history": [{"page_index": 0, "viewing_time": 51383}], "rt": 51384, "trial_id": "exp_instructions_control", "trial_type": "instructions", "trial_index": 1, "time_elapsed": 56487, "internal_node_id": "0.0-1.0"}}, {"uniqueid": "w39798461:a65821013", "current_trial": 2, "dateTime": 1691071037971, "trialdata": {"success": true, "trial_type": "fullscreen", "trial_index": 2, "time_elapsed": 59702, "internal_node_id": "0.0-2.0-0.0"}}, {"uniqueid": "w39798461:a65821013", "current_trial": 3, "dateTime": 1691071216047, "trialdata": {"view_history": [{"page_index": 0, "viewing_time": 24056}, {"page_index": 1, "viewing_time": 116870}, {"page_index": 2, "viewing_time": 9729}, {"page_index": 3, "viewing_time": 27413}], "rt": 178071, "trial_id": "mouselab_instructions_1_control", "trial_type": "instructions", "trial_index": 3, "time_elapsed": 237777, "internal_node_id": "0.0-2.0-1.0"}}, {"uniqueid": "w39798461:a65821013", "current_trial": 4, "dateTime": 1691071250561, "trialdata": {"revealed_states": [], "clicked_states": ["12", "13"], "num_clicks_accrued": [0, 0, 0, 0, 0, 0, 0, 0, 0, 0, 0, 0, 0], "stateRewards": ["", 10, -10, -10, 10, 10, -10, 10, -10, 10, 10, -10, -10, -10, 10, -10, 10, -10, 10, 10, -10, -10, -10, -10, -10, 10, -10, 10, -10, -10, 10, -10, 10, 10], "withholdReward": false, "trial_id": "practice_1", "block": "test", "trialIndex": 0, "score": -7.5, "costs": -1, "simulationMode": [null, null, null, null, null], "rewards": [-10, -10, 10, 10, -10], "path": ["0", "0", "12", "13", "14", "19", "22"], "rt": [17783, 1227, 535, 422, 1376], "actions": ["right", "right", "right", "down", "left"], "actionTimes": [23508, 25235, 26293, 27247, 29150], "queries": {"click": {"state": {"target": ["12", "13"], "time": [8698, 14819]}, "edge": {"target": [], "time": []}}, "mouseover": {"state": {"target": ["12", "13", "12", "0", "12", "13", "14", "12", "0", "12"], "time": [8172, 12144, 12890, 13172, 13823, 14522, 17389, 17438, 18605, 22455]}, "edge": {"target": [], "time": []}}, "mouseout": {"state": {"target": ["0", "12", "13", "12", "0", "12", "13", "14", "13", "12", "0"], "time": [8089, 11939, 12855, 12988, 13305, 14489, 16023, 17404, 17423, 18504, 19071]}, "edge": {"target": [], "time": []}}}, "displayed_time": "29.68", "trialTime": 32633, "trial_type": "mouselab-mdp", "trial_index": 4, "time_elapsed": 272291, "internal_node_id": "0.0-2.0-2.0-0.0"}}, {"uniqueid": "w39798461:a65821013", "current_trial": 5, "dateTime": 1691071276179, "trialdata": {"revealed_states": [], "clicked_states": ["23", "12", "1"], "num_clicks_accrued": [0, 0, 0, 0, 0, 0, 0, 0, 0, 0, 0, 0, 0], "stateRewards": ["", 10, 10, 10, 10, -10, 10, -10, -10, -10, 10, 10, -10, -10, 10, 10, 10, -10, 10, 10, 10, 10, -10, -10, -10, 10, -10, -10, 10, 10, -10, -10, 10, -10], "withholdReward": false, "trial_id": "practice_2", "block": "test", "trialIndex": 1, "score": 12, "costs": -1.5, "simulationMode": [null, null, null, null, null], "rewards": [10, 10, 10, -10, -10], "path": ["0", "0", "1", "2", "3", "8", "9"], "rt": [7298, 742, 3145, 1217, 1659], "actions": ["up", "up", "up", "left", "up"], "actionTimes": [11354, 12688, 16368, 18307, 20484], "queries": {"click": {"state": {"target": ["23", "12", "1"], "time": [6381, 7668, 9814]}, "edge": {"target": [], "time": []}}, "mouseover": {"state": {"target": ["23", "0", "12", "1"], "time": [6087, 7090, 7356, 9437]}, "edge": {"target": [], "time": []}}, "mouseout": {"state": {"target": ["15", "17", "17", "15", "23", "23", "0", "12", "1", "23", "0", "13"], "time": [453, 487, 2722, 2737, 3187, 7073, 7188, 8538, 22620, 22804, 22855, 22887]}, "edge": {"target": [], "time": []}}}, "displayed_time": "21.41", "trialTime": 24935, "trial_type": "mouselab-mdp", "trial_index": 5, "time_elapsed": 297910, "internal_node_id": "0.0-2.0-2.0-1.0"}}, {"uniqueid": "w39798461:a65821013", "current_trial": 6, "dateTime": 1691071304965, "trialdata": {"view_history": [{"page_index": 0, "viewing_time": 21660}, {"page_index": 1, "viewing_time": 7120}], "rt": 28781, "trial_id": "mouselab_instructions_2_control", "trial_type": "instructions", "trial_index": 6, "time_elapsed": 326695, "internal_node_id": "0.0-2.0-3.0"}}, {"uniqueid": "w39798461:a65821013", "current_trial": 7, "dateTime": 1691071358580, "trialdata": {"rt": 53515, "response": {"Q0": "The cost for clicking on nodes may vary between nodes.", "Q1": "The better I perform the higher my bonus will be.", "Q2": "No, the amount of cash at each node of the web may be different each time.", "Q3": "To get the highest total score.", "Q4": "Only before moving the spider.", "Q5": "3 seconds"}, "question_order": [0, 1, 2, 3, 4, 5], "correct": {"Q0": "The cost for clicking on nodes may vary between nodes.", "Q1": "The better I perform the higher my bonus will be.", "Q2": "No, the amount of cash at each node of the web may be different each time.", "Q3": "To get the highest total score.", "Q4": "Only before moving the spider.", "Q5": "3 seconds"}, "trial_id": "mouselab_quiz_control", "trial_type": "survey-multi-choice", "trial_index": 7, "time_elapsed": 380311, "internal_node_id": "0.0-2.0-4.0"}}, {"uniqueid": "w39798461:a65821013", "current_trial": 8, "dateTime": 1691071364431, "trialdata": {"rt": 5819, "stimulus": "\n<h1> Get ready to start the game! </h1>\n\nThank you for reading the instructions. Get ready start with the 40 rounds of this game.\n<br><br>\nIf you need to take a break, feel free to take one after the end of a round, before continuing to the next one.\n<br><br>\nRemember, the more money the spider gets, the bigger your bonus will be!\n<br><br>\n<div style='text-align: center;'>Press <code>space</code> to begin.</div>\n\n<br><br>\n(If, at any point, the <code>space</code> key does not take you to the next page, click once on the text and try again.)", "response": " ", "trial_id": "mdp_ready", "trial_type": "html-keyboard-response", "trial_index": 8, "time_elapsed": 386162, "internal_node_id": "0.0-4.0-0.0"}}, {"uniqueid": "w39798461:a65821013", "current_trial": 9, "dateTime": 1691071387582, "trialdata": {"revealed_states": [], "clicked_states": [], "num_clicks_accrued": [0, 0, 0, 0, 0, 0, 0, 0, 0, 0, 0, 0, 0], "stateRewards": ["", -1, -2, 4, 9, 10, -75, 39, 16, -43, 88, -19, -1, 1, 2, 4, -31, 10, 73, 12, 41, -64, -81, -2, 2, -6, 1, -81, -1, -26, 3, -59, -3, -20], "withholdReward": false, "trial_id": "mdp_trial_1", "block": "test", "trialIndex": 2, "score": -86, "costs": 0, "simulationMode": [null, null, null, null, null], "rewards": [-2, 2, -6, 1, -81], "path": ["0", "0", "23", "24", "25", "26", "27"], "rt": [2673, 864, 355, 161, 321], "actions": ["left", "left", "left", "up", "up"], "actionTimes": [5022, 6416, 7282, 7973, 8831], "queries": {"click": {"state": {"target": [], "time": []}, "edge": {"target": [], "time": []}}, "mouseover": {"state": {"target": [], "time": []}, "edge": {"target": [], "time": []}}, "mouseout": {"state": {"target": ["0"], "time": [10470]}, "edge": {"target": [], "time": []}}}, "displayed_time": "16.35", "trialTime": 22481, "trial_type": "mouselab-mdp", "trial_index": 9, "time_elapsed": 409313, "internal_node_id": "0.0-4.0-1.0-0.0"}}, {"uniqueid": "w39798461:a65821013", "current_trial": 10, "dateTime": 1691071410497, "trialdata": {"revealed_states": [], "clicked_states": [], "num_clicks_accrued": [0, 0, 0, 0, 0, 0, 0, 0, 0, 0, 0, 0, 0], "stateRewards": ["", 2, -1, -1, -9, -81, -30, 55, -6, 78, 25, 62, 2, 4, -1, 9, -85, 1, -19, 1, -60, 12, -34, 1, 4, -1, -13, -24, -16, -83, -8, 16, 43, 9], "withholdReward": false, "trial_id": "mdp_trial_2", "block": "test", "trialIndex": 3, "score": -92, "costs": 0, "simulationMode": [null, null, null, null, null], "rewards": [1, 4, -1, -13, -83], "path": ["0", "0", "23", "24", "25", "26", "29"], "rt": [3218, 337, 139, 91, 471], "actions": ["left", "left", "left", "up", "left"], "actionTimes": [6928, 7797, 8465, 9085, 10082], "queries": {"click": {"state": {"target": [], "time": []}, "edge": {"target": [], "time": []}}, "mouseover": {"state": {"target": [], "time": []}, "edge": {"target": [], "time": []}}, "mouseout": {"state": {"target": ["19", "23", "14", "24"], "time": [857, 2940, 11740, 19857]}, "edge": {"target": [], "time": []}}}, "displayed_time": "17.71", "trialTime": 22181, "trial_type": "mouselab-mdp", "trial_index": 10, "time_elapsed": 432227, "internal_node_id": "0.0-4.0-1.0-1.0"}}, {"uniqueid": "w39798461:a65821013", "current_trial": 11, "dateTime": 1691071438883, "trialdata": {"revealed_states": [], "clicked_states": [], "num_clicks_accrued": [0, 0, 0, 0, 0, 0, 0, 0, 0, 0, 0, 0, 0], "stateRewards": ["", -2, -3, 8, -4, -30, 31, 69, 9, 66, 87, 64, -2, 2, 8, 5, 47, 16, -39, -8, -54, 51, -19, 1, -2, -2, -11, -25, -26, 43, -9, 19, -84, 86], "withholdReward": false, "trial_id": "mdp_trial_3", "block": "test", "trialIndex": 4, "score": 78, "costs": 0, "simulationMode": [null, null, null, null, null], "rewards": [-2, -3, 8, 9, 66], "path": ["0", "0", "1", "2", "3", "8", "9"], "rt": [8878, 1019, 3973, 565, 140], "actions": ["up", "up", "up", "left", "up"], "actionTimes": [15251, 16798, 21301, 22392, 23067], "queries": {"click": {"state": {"target": [], "time": []}, "edge": {"target": [], "time": []}}, "mouseover": {"state": {"target": ["12", "1"], "time": [9192, 10124]}, "edge": {"target": [], "time": []}}, "mouseout": {"state": {"target": ["17", "15", "18", "12", "1", "11", "8", "3", "4", "6", "22"], "time": [5441, 5456, 5507, 9241, 12675, 19290, 19923, 23807, 23823, 23840, 26957]}, "edge": {"target": [], "time": []}}}, "displayed_time": "23.59", "trialTime": 27936, "trial_type": "mouselab-mdp", "trial_index": 11, "time_elapsed": 460613, "internal_node_id": "0.0-4.0-1.0-2.0"}}, {"uniqueid": "w39798461:a65821013", "current_trial": 12, "dateTime": 1691071460167, "trialdata": {"revealed_states": [], "clicked_states": ["12", "1", "23"], "num_clicks_accrued": [0, 0, 0, 0, 0, 0, 0, 0, 0, 0, 0, 0, 0], "stateRewards": ["", 2, -1, 8, -2, -16, 69, -39, -7, -13, -27, -86, 2, -2, 2, 13, -34, -16, -20, -5, 19, 81, 32, -2, -1, 2, -14, 20, 80, 58, 4, 70, 12, 73], "withholdReward": false, "trial_id": "mdp_trial_4", "block": "test", "trialIndex": 5, "score": -36.2, "costs": -4.199999999999999, "simulationMode": [null, null, null, null, null], "rewards": [2, -1, 8, -2, -39], "path": ["0", "0", "1", "2", "3", "4", "7"], "rt": [6623, 1051, 826, 129, 157], "actions": ["up", "up", "up", "right", "down"], "actionTimes": [11239, 12809, 14167, 14821, 15516], "queries": {"click": {"state": {"target": ["12", "1", "23"], "time": [6244, 7800, 9602]}, "edge": {"target": [], "time": []}}, "mouseover": {"state": {"target": ["0", "12", "1", "23"], "time": [5641, 5990, 7441, 8524]}, "edge": {"target": [], "time": []}}, "mouseout": {"state": {"target": ["14", "0", "0", "12", "1", "23", "12", "13", "21"], "time": [2273, 4071, 5855, 7291, 8240, 9751, 17206, 17222, 18571]}, "edge": {"target": [], "time": []}}}, "displayed_time": "18.62", "trialTime": 20498, "trial_type": "mouselab-mdp", "trial_index": 12, "time_elapsed": 481897, "internal_node_id": "0.0-4.0-1.0-3.0"}}, {"uniqueid": "w39798461:a65821013", "current_trial": 13, "dateTime": 1691071479936, "trialdata": {"revealed_states": [], "clicked_states": [], "num_clicks_accrued": [0, 0, 0, 0, 0, 0, 0, 0, 0, 0, 0, 0, 0], "stateRewards": ["", 1, 4, -4, 14, 35, 51, 19, -13, 54, 78, -74, -2, -1, -3, 13, -11, -42, -73, -15, -24, -3, -69, 2, -1, 5, 16, -27, 73, 58, 9, -60, 5, -60], "withholdReward": false, "trial_id": "mdp_trial_5", "block": "test", "trialIndex": 6, "score": 34, "costs": 0, "simulationMode": [null, null, null, null, null], "rewards": [1, 4, -4, 14, 19], "path": ["0", "0", "1", "2", "3", "4", "7"], "rt": [6711, 345, 191, 87, 101], "actions": ["up", "up", "up", "right", "down"], "actionTimes": [10383, 11257, 11986, 12598, 13239], "queries": {"click": {"state": {"target": [], "time": []}, "edge": {"target": [], "time": []}}, "mouseover": {"state": {"target": [], "time": []}, "edge": {"target": [], "time": []}}, "mouseout": {"state": {"target": ["0", "0", "0", "12", "13", "14", "14"], "time": [2858, 8463, 14808, 14823, 14841, 14857, 16240]}, "edge": {"target": [], "time": []}}}, "displayed_time": "17.67", "trialTime": 18992, "trial_type": "mouselab-mdp", "trial_index": 13, "time_elapsed": 501667, "internal_node_id": "0.0-4.0-1.0-4.0"}}, {"uniqueid": "w39798461:a65821013", "current_trial": 14, "dateTime": 1691071499821, "trialdata": {"revealed_states": [], "clicked_states": [], "num_clicks_accrued": [0, 0, 0, 0, 0, 0, 0, 0, 0, 0, 0, 0, 0], "stateRewards": ["", 2, -1, 4, -9, -43, 7, 54, -13, 38, -40, -83, -1, 2, -8, -10, 34, -33, 11, -14, -79, 65, 26, 1, 2, 4, 10, 21, 1, 86, 4, -53, 28, -29], "withholdReward": false, "trial_id": "mdp_trial_6", "block": "test", "trialIndex": 7, "score": 5, "costs": 0, "simulationMode": [null, null, null, null, null], "rewards": [-1, 2, -8, -14, 26], "path": ["0", "0", "12", "13", "14", "19", "22"], "rt": [1746, 488, 176, 137, 79], "actions": ["right", "right", "right", "down", "left"], "actionTimes": [5647, 6662, 7367, 8028, 8638], "queries": {"click": {"state": {"target": [], "time": []}, "edge": {"target": [], "time": []}}, "mouseover": {"state": {"target": [], "time": []}, "edge": {"target": [], "time": []}}, "mouseout": {"state": {"target": ["0"], "time": [10187]}, "edge": {"target": [], "time": []}}}, "displayed_time": "17.90", "trialTime": 19275, "trial_type": "mouselab-mdp", "trial_index": 14, "time_elapsed": 521551, "internal_node_id": "0.0-4.0-1.0-5.0"}}, {"uniqueid": "w39798461:a65821013", "current_trial": 15, "dateTime": 1691071541861, "trialdata": {"revealed_states": [], "clicked_states": [], "num_clicks_accrued": [0, 0, 0, 0, 0, 0, 0, 0, 0, 0, 0, 0, 0], "stateRewards": ["", 2, 3, 8, 14, 69, -27, 17, 2, -71, -65, -10, 2, -3, 7, 8, 65, -10, 65, -12, 73, -12, 13, -2, -2, 6, 10, -79, -69, -18, 10, -85, 67, 74], "withholdReward": false, "trial_id": "mdp_trial_7", "block": "test", "trialIndex": 8, "score": -67, "costs": 0, "simulationMode": [null, null, null, null, null], "rewards": [-2, -2, 6, 10, -79], "path": ["0", "0", "23", "24", "25", "26", "27"], "rt": [6474, 1532, 132, 56, 99], "actions": ["left", "left", "left", "up", "up"], "actionTimes": [28301, 35737, 36377, 36952, 37577], "queries": {"click": {"state": {"target": [], "time": []}, "edge": {"target": [], "time": []}}, "mouseover": {"state": {"target": ["0"], "time": [26849]}, "edge": {"target": [], "time": []}}, "mouseout": {"state": {"target": ["0", "0", "12", "12", "20"], "time": [25179, 31231, 38725, 38908, 40659]}, "edge": {"target": [], "time": []}}}, "displayed_time": "38.11", "trialTime": 41289, "trial_type": "mouselab-mdp", "trial_index": 15, "time_elapsed": 563592, "internal_node_id": "0.0-4.0-1.0-6.0"}}, {"uniqueid": "w39798461:a65821013", "current_trial": 16, "dateTime": 1691071562761, "trialdata": {"revealed_states": [], "clicked_states": ["12", "1", "23"], "num_clicks_accrued": [0, 0, 0, 0, 0, 0, 0, 0, 0, 0, 0, 0, 0], "stateRewards": ["", -1, 1, -1, 2, 19, 85, -18, 2, -3, -26, 36, 2, 4, 7, -9, -18, 70, 72, -5, 35, -20, -28, 1, -2, -4, -3, -59, -11, -63, -2, -72, 59, -69], "withholdReward": false, "trial_id": "mdp_trial_8", "block": "test", "trialIndex": 9, "score": -24.2, "costs": -4.199999999999999, "simulationMode": [null, null, null, null, null], "rewards": [2, 4, 7, -5, -28], "path": ["0", "0", "12", "13", "14", "19", "22"], "rt": [6717, 1683, 39, 3189, 796], "actions": ["right", "right", "right", "down", "left"], "actionTimes": [8855, 11071, 11643, 15414, 16752], "queries": {"click": {"state": {"target": ["12", "1", "23"], "time": [3149, 5146, 7297]}, "edge": {"target": [], "time": []}}, "mouseover": {"state": {"target": ["12", "1", "1", "23"], "time": [2751, 3834, 4801, 5969]}, "edge": {"target": [], "time": []}}, "mouseout": {"state": {"target": ["0", "12", "1", "1", "23", "0", "13", "19", "20"], "time": [1100, 3653, 4718, 5852, 12254, 12282, 12523, 18300, 18323]}, "edge": {"target": [], "time": []}}}, "displayed_time": "17.29", "trialTime": 20049, "trial_type": "mouselab-mdp", "trial_index": 16, "time_elapsed": 584492, "internal_node_id": "0.0-4.0-1.0-7.0"}}, {"uniqueid": "w39798461:a65821013", "current_trial": 17, "dateTime": 1691071582173, "trialdata": {"revealed_states": [], "clicked_states": ["12", "2"], "num_clicks_accrued": [0, 0, 0, 0, 0, 0, 0, 0, 0, 0, 0, 0, 0], "stateRewards": ["", -1, -3, -7, -7, -76, 30, -49, 11, -70, 56, 2, 1, 4, -3, -14, -59, -83, -25, -9, -21, -67, -73, -2, 4, 4, -9, -11, -32, 60, 9, -87, 22, -64], "withholdReward": false, "trial_id": "mdp_trial_9", "block": "test", "trialIndex": 10, "score": -73.8, "costs": -2.8, "simulationMode": [null, null, null, null, null], "rewards": [1, 4, -3, -14, -59], "path": ["0", "0", "12", "13", "14", "15", "16"], "rt": [6169, 625, 138, 298, 13], "actions": ["right", "right", "right", "up", "up"], "actionTimes": [9421, 10584, 11247, 12074, 12622], "queries": {"click": {"state": {"target": ["12", "2"], "time": [4272, 6004]}, "edge": {"target": [], "time": []}}, "mouseover": {"state": {"target": ["12", "1", "2", "1"], "time": [3890, 4910, 5595, 6541]}, "edge": {"target": [], "time": []}}, "mouseout": {"state": {"target": ["0", "12", "1", "2", "1", "13", "20"], "time": [3841, 4843, 5560, 6458, 8508, 16206, 17825]}, "edge": {"target": [], "time": []}}}, "displayed_time": "17.25", "trialTime": 18484, "trial_type": "mouselab-mdp", "trial_index": 17, "time_elapsed": 603903, "internal_node_id": "0.0-4.0-1.0-8.0"}}, {"uniqueid": "w39798461:a65821013", "current_trial": 18, "dateTime": 1691071601610, "trialdata": {"revealed_states": [], "clicked_states": [], "num_clicks_accrued": [0, 0, 0, 0, 0, 0, 0, 0, 0, 0, 0, 0, 0], "stateRewards": ["", -1, 3, 1, -11, -22, -36, 19, -5, -70, -52, 50, -2, -4, 4, -2, -41, -83, 29, -2, 22, 10, -6, -2, 3, -2, 14, 54, 44, 77, -9, -65, -37, -40], "withholdReward": false, "trial_id": "mdp_trial_10", "block": "test", "trialIndex": 11, "score": -10, "costs": 0, "simulationMode": [null, null, null, null, null], "rewards": [-2, -4, 4, -2, -6], "path": ["0", "0", "12", "13", "14", "19", "22"], "rt": [2367, 206, 55, 78, 573], "actions": ["right", "right", "right", "down", "left"], "actionTimes": [5939, 6676, 7240, 7849, 9032], "queries": {"click": {"state": {"target": [], "time": []}, "edge": {"target": [], "time": []}}, "mouseover": {"state": {"target": [], "time": []}, "edge": {"target": [], "time": []}}, "mouseout": {"state": {"target": ["0", "12", "17"], "time": [9783, 9800, 9835]}, "edge": {"target": [], "time": []}}}, "displayed_time": "17.57", "trialTime": 18732, "trial_type": "mouselab-mdp", "trial_index": 18, "time_elapsed": 623341, "internal_node_id": "0.0-4.0-1.0-9.0"}}, {"uniqueid": "w39798461:a65821013", "current_trial": 19, "dateTime": 1691071621191, "trialdata": {"revealed_states": [], "clicked_states": [], "num_clicks_accrued": [0, 0, 0, 0, 0, 0, 0, 0, 0, 0, 0, 0, 0], "stateRewards": ["", -1, -1, 7, -15, -43, -21, -84, -9, -45, -66, 2, 1, -2, 2, 8, -27, 44, -52, -5, -84, 11, 53, 1, 4, -4, 16, 83, -82, -15, -16, 68, -43, 81], "withholdReward": false, "trial_id": "mdp_trial_11", "block": "test", "trialIndex": 12, "score": -49, "costs": 0, "simulationMode": [null, null, null, null, null], "rewards": [-1, -1, 7, -9, -45], "path": ["0", "0", "1", "2", "3", "8", "9"], "rt": [1508, 59, 103, 28, 4], "actions": ["up", "up", "up", "left", "up"], "actionTimes": [4388, 4980, 5606, 6169, 6746], "queries": {"click": {"state": {"target": [], "time": []}, "edge": {"target": [], "time": []}}, "mouseover": {"state": {"target": [], "time": []}, "edge": {"target": [], "time": []}}, "mouseout": {"state": {"target": ["17", "15", "0"], "time": [1467, 1533, 2116]}, "edge": {"target": [], "time": []}}}, "displayed_time": "16.88", "trialTime": 18630, "trial_type": "mouselab-mdp", "trial_index": 19, "time_elapsed": 642921, "internal_node_id": "0.0-4.0-1.0-10.0"}}, {"uniqueid": "w39798461:a65821013", "current_trial": 20, "dateTime": 1691071643992, "trialdata": {"revealed_states": [], "clicked_states": [], "num_clicks_accrued": [0, 0, 0, 0, 0, 0, 0, 0, 0, 0, 0, 0, 0], "stateRewards": ["", 1, 3, -2, 15, 51, 15, -19, 11, 67, -45, -73, 2, 4, -2, -13, 36, 9, -28, 10, -30, 31, 16, 1, 2, -1, -16, 14, -22, 36, -1, 88, -5, 45], "withholdReward": false, "trial_id": "mdp_trial_12", "block": "test", "trialIndex": 13, "score": -4, "costs": 0, "simulationMode": [null, null, null, null, null], "rewards": [1, 2, -1, -1, -5], "path": ["0", "0", "23", "24", "25", "30", "32"], "rt": [1247, 650, 92, 5, 205], "actions": ["left", "left", "left", "down", "down"], "actionTimes": [3919, 5101, 5711, 6240, 6973], "queries": {"click": {"state": {"target": [], "time": []}, "edge": {"target": [], "time": []}}, "mouseover": {"state": {"target": [], "time": []}, "edge": {"target": [], "time": []}}, "mouseout": {"state": {"target": ["0"], "time": [2137]}, "edge": {"target": [], "time": []}}}, "displayed_time": "16.67", "trialTime": 21798, "trial_type": "mouselab-mdp", "trial_index": 20, "time_elapsed": 665723, "internal_node_id": "0.0-4.0-1.0-11.0"}}, {"uniqueid": "w39798461:a65821013", "current_trial": 21, "dateTime": 1691071663162, "trialdata": {"revealed_states": [], "clicked_states": [], "num_clicks_accrued": [0, 0, 0, 0, 0, 0, 0, 0, 0, 0, 0, 0, 0], "stateRewards": ["", -2, -4, -2, -13, -15, 87, -19, -6, -80, 30, 12, 1, 1, -8, 2, 55, 56, 15, 11, -68, -7, 55, -2, 3, -3, -3, 48, 62, 4, 1, -3, 69, -33], "withholdReward": false, "trial_id": "mdp_trial_13", "block": "test", "trialIndex": 14, "score": -94, "costs": 0, "simulationMode": [null, null, null, null, null], "rewards": [-2, -4, -2, -6, -80], "path": ["0", "0", "1", "2", "3", "8", "9"], "rt": [2943, 971, 1140, 283, 676], "actions": ["up", "up", "up", "left", "up"], "actionTimes": [6270, 8717, 10385, 11193, 12404], "queries": {"click": {"state": {"target": [], "time": []}, "edge": {"target": [], "time": []}}, "mouseover": {"state": {"target": [], "time": []}, "edge": {"target": [], "time": []}}, "mouseout": {"state": {"target": ["0"], "time": [2928]}, "edge": {"target": [], "time": []}}}, "displayed_time": "17.33", "trialTime": 18162, "trial_type": "mouselab-mdp", "trial_index": 21, "time_elapsed": 684892, "internal_node_id": "0.0-4.0-1.0-12.0"}}, {"uniqueid": "w39798461:a65821013", "current_trial": 22, "dateTime": 1691071704235, "trialdata": {"revealed_states": [], "clicked_states": [], "num_clicks_accrued": [0, 0, 0, 0, 0, 0, 0, 0, 0, 0, 0, 0, 0], "stateRewards": ["", 2, -3, -8, 14, -7, -51, 73, 2, 36, 36, -43, -1, 3, -4, 1, 6, 87, -65, 15, 61, -42, -83, -1, 3, -2, -7, 30, -48, 35, 13, 26, 60, 78], "withholdReward": false, "trial_id": "mdp_trial_14", "block": "test", "trialIndex": 15, "score": 29, "costs": 0, "simulationMode": [null, null, null, null, null], "rewards": [2, -3, -8, 2, 36], "path": ["0", "0", "1", "2", "3", "8", "9"], "rt": [1166, 372, 1163, 5395, 106], "actions": ["up", "up", "up", "left", "up"], "actionTimes": [22877, 23767, 25443, 31372, 32017], "queries": {"click": {"state": {"target": [], "time": []}, "edge": {"target": [], "time": []}}, "mouseover": {"state": {"target": [], "time": []}, "edge": {"target": [], "time": []}}, "mouseout": {"state": {"target": ["0"], "time": [21228]}, "edge": {"target": [], "time": []}}}, "displayed_time": "35.71", "trialTime": 40221, "trial_type": "mouselab-mdp", "trial_index": 22, "time_elapsed": 725965, "internal_node_id": "0.0-4.0-1.0-13.0"}}, {"uniqueid": "w39798461:a65821013", "current_trial": 23, "dateTime": 1691071724061, "trialdata": {"revealed_states": [], "clicked_states": [], "num_clicks_accrued": [0, 0, 0, 0, 0, 0, 0, 0, 0, 0, 0, 0, 0], "stateRewards": ["", 1, -4, -6, 11, -20, 8, -30, 1, -38, 88, 42, 2, 3, 5, -12, -8, -74, 30, -8, 67, -19, 42, 2, -1, 4, 13, 50, -68, 2, -8, -15, 87, -46], "withholdReward": false, "trial_id": "mdp_trial_15", "block": "test", "trialIndex": 16, "score": 28, "costs": 0, "simulationMode": [null, null, null, null, null], "rewards": [2, 3, 5, -12, 30], "path": ["0", "0", "12", "13", "14", "15", "18"], "rt": [4010, 119, 69, 92, 317], "actions": ["right", "right", "right", "up", "left"], "actionTimes": [6224, 6876, 7476, 8100, 8946], "queries": {"click": {"state": {"target": [], "time": []}, "edge": {"target": [], "time": []}}, "mouseover": {"state": {"target": [], "time": []}, "edge": {"target": [], "time": []}}, "mouseout": {"state": {"target": ["0"], "time": [1586]}, "edge": {"target": [], "time": []}}}, "displayed_time": "16.21", "trialTime": 19228, "trial_type": "mouselab-mdp", "trial_index": 23, "time_elapsed": 745791, "internal_node_id": "0.0-4.0-1.0-14.0"}}, {"uniqueid": "w39798461:a65821013", "current_trial": 24, "dateTime": 1691071743095, "trialdata": {"revealed_states": [], "clicked_states": ["23", "1", "24", "13"], "num_clicks_accrued": [0, 0, 0, 0, 0, 0, 0, 0, 0, 0, 0, 0, 0], "stateRewards": ["", 1, 4, 5, -5, 58, -80, 75, 6, 25, -39, 46, 2, -2, 4, 2, 59, 31, -22, -12, -61, 15, 72, 1, -2, -7, 8, 77, 76, -23, -7, 71, -15, -3], "withholdReward": false, "trial_id": "mdp_trial_16", "block": "test", "trialIndex": 17, "score": 57.4, "costs": -5.6, "simulationMode": [null, null, null, null, null], "rewards": [1, 4, 5, -5, 58], "path": ["0", "0", "1", "2", "3", "4", "5"], "rt": [10362, 79, 992, 501, 97], "actions": ["up", "up", "up", "right", "up"], "actionTimes": [12168, 12775, 14305, 15317, 15944], "queries": {"click": {"state": {"target": ["23", "1", "24", "13"], "time": [2569, 4441, 6351, 8488]}, "edge": {"target": [], "time": []}}, "mouseover": {"state": {"target": ["23", "12", "1", "12", "13", "0", "24", "0", "12", "13", "12", "1"], "time": [2294, 3328, 4210, 5279, 5595, 5797, 6111, 7116, 7279, 8130, 9462, 10443]}, "edge": {"target": [], "time": []}}, "mouseout": {"state": {"target": ["0", "23", "12", "1", "12", "13", "0", "23", "24", "23", "0", "12", "13", "12", "1", "0"], "time": [1268, 2963, 4017, 5144, 5466, 5779, 5814, 5879, 7012, 7062, 7196, 8061, 9328, 10261, 17194, 17278]}, "edge": {"target": [], "time": []}}}, "displayed_time": "16.48", "trialTime": 17837, "trial_type": "mouselab-mdp", "trial_index": 24, "time_elapsed": 764826, "internal_node_id": "0.0-4.0-1.0-15.0"}}, {"uniqueid": "w39798461:a65821013", "current_trial": 25, "dateTime": 1691071761679, "trialdata": {"revealed_states": [], "clicked_states": ["1", "23", "25", "13", "14"], "num_clicks_accrued": [0, 0, 0, 0, 0, 0, 0, 0, 0, 0, 0, 0, 0], "stateRewards": ["", -2, -3, 4, 1, 33, -53, 15, 9, -12, 61, -6, -2, 4, 6, -11, 47, -43, -7, -11, 46, 23, -28, -1, -1, 3, -10, 11, 76, -76, 10, 18, -38, 87], "withholdReward": false, "trial_id": "mdp_trial_17", "block": "test", "trialIndex": 18, "score": 37, "costs": -7, "simulationMode": [null, null, null, null, null, null], "rewards": [-2, 4, 6, -11, 47], "path": ["0", "0", "12", "13", "14", "15", "16"], "rt": [9631, 583, 82, 64, 54, 56], "actions": ["right", "right", "right", "right", "up", "up"], "actionTimes": [11857, 12446, 13060, 13657, 14421, 15001], "queries": {"click": {"state": {"target": ["1", "23", "25", "13", "14"], "time": [3420, 5166, 7020, 8868, 10410]}, "edge": {"target": [], "time": []}}, "mouseover": {"state": {"target": ["0", "1", "2", "23", "24", "25", "24", "0", "12", "13", "14", "12"], "time": [2725, 3143, 3921, 4893, 5695, 6609, 7532, 7610, 7880, 8546, 9493, 11210]}, "edge": {"target": [], "time": []}}, "mouseout": {"state": {"target": ["0", "0", "1", "2", "23", "24", "25", "24", "0", "12", "13", "14", "13", "12"], "time": [2601, 2959, 3748, 4526, 5592, 6443, 7527, 7575, 7757, 8477, 9392, 10910, 10944, 16024]}, "edge": {"target": [], "time": []}}}, "displayed_time": "16.25", "trialTime": 17668, "trial_type": "mouselab-mdp", "trial_index": 25, "time_elapsed": 783410, "internal_node_id": "0.0-4.0-1.0-16.0"}}, {"uniqueid": "w39798461:a65821013", "current_trial": 26, "dateTime": 1691071782862, "trialdata": {"revealed_states": [], "clicked_states": [], "num_clicks_accrued": [0, 0, 0, 0, 0, 0, 0, 0, 0, 0, 0, 0, 0], "stateRewards": ["", 2, 3, 8, 11, 25, -80, 6, -4, -56, 84, -23, -2, -4, -3, 4, -51, -9, -61, -15, -64, 67, -35, 1, -1, -7, -6, 83, 59, -15, 12, -79, 56, 41], "withholdReward": false, "trial_id": "mdp_trial_18", "block": "test", "trialIndex": 19, "score": -47, "costs": 0, "simulationMode": [null, null, null, null, null], "rewards": [2, 3, 8, -4, -56], "path": ["0", "0", "1", "2", "3", "8", "9"], "rt": [5384, 87, 778, 1065, 72], "actions": ["up", "up", "up", "left", "up"], "actionTimes": [10283, 10943, 12447, 14042, 14650], "queries": {"click": {"state": {"target": [], "time": []}, "edge": {"target": [], "time": []}}, "mouseover": {"state": {"target": [], "time": []}, "edge": {"target": [], "time": []}}, "mouseout": {"state": {"target": ["0", "24", "1"], "time": [11139, 11612, 17484]}, "edge": {"target": [], "time": []}}}, "displayed_time": "18.91", "trialTime": 20384, "trial_type": "mouselab-mdp", "trial_index": 26, "time_elapsed": 804593, "internal_node_id": "0.0-4.0-1.0-17.0"}}, {"uniqueid": "w39798461:a65821013", "current_trial": 27, "dateTime": 1691071801503, "trialdata": {"revealed_states": [], "clicked_states": [], "num_clicks_accrued": [0, 0, 0, 0, 0, 0, 0, 0, 0, 0, 0, 0, 0], "stateRewards": ["", 2, 4, -6, -13, -75, -81, 30, 7, 5, 59, -65, -1, -1, 7, 14, -38, 36, -41, 1, -54, -5, 64, 2, -1, 5, 6, -19, 79, 11, 16, -33, -50, 58], "withholdReward": false, "trial_id": "mdp_trial_19", "block": "test", "trialIndex": 20, "score": 12, "costs": 0, "simulationMode": [null, null, null, null, null], "rewards": [2, 4, -6, 7, 5], "path": ["0", "0", "1", "2", "3", "8", "9"], "rt": [1321, 226, 1779, 201, 776], "actions": ["up", "up", "up", "left", "up"], "actionTimes": [3752, 4450, 6835, 7570, 8920], "queries": {"click": {"state": {"target": [], "time": []}, "edge": {"target": [], "time": []}}, "mouseover": {"state": {"target": [], "time": []}, "edge": {"target": [], "time": []}}, "mouseout": {"state": {"target": ["0"], "time": [1896]}, "edge": {"target": [], "time": []}}}, "displayed_time": "16.36", "trialTime": 17370, "trial_type": "mouselab-mdp", "trial_index": 27, "time_elapsed": 823233, "internal_node_id": "0.0-4.0-1.0-18.0"}}, {"uniqueid": "w39798461:a65821013", "current_trial": 28, "dateTime": 1691071827747, "trialdata": {"revealed_states": [], "clicked_states": ["12", "23", "13", "1", "14", "15"], "num_clicks_accrued": [0, 0, 0, 0, 0, 0, 0, 0, 0, 0, 0, 0, 0], "stateRewards": ["", -1, -4, -1, -5, -28, -23, -15, -15, -38, 59, -87, 2, 2, -5, 9, -55, -39, -71, -6, 85, -85, -11, -1, -2, 5, -10, 1, 25, 41, -4, 69, -35, 86], "withholdReward": false, "trial_id": "mdp_trial_20", "block": "test", "trialIndex": 21, "score": -55.4, "costs": -8.4, "simulationMode": [null, null, null, null, null, null], "rewards": [2, 2, -5, 9, -55], "path": ["0", "0", "12", "13", "14", "15", "16"], "rt": [15466, 810, 75, 96, 42, 417], "actions": ["right", "right", "right", "right", "up", "up"], "actionTimes": [18679, 19496, 20097, 20718, 21297, 22241], "queries": {"click": {"state": {"target": ["12", "23", "13", "1", "14", "15"], "time": [6251, 8446, 10494, 12984, 14632, 17246]}, "edge": {"target": [], "time": []}}, "mouseover": {"state": {"target": ["12", "1", "23", "24", "13", "1", "14", "18", "15", "18", "15", "13", "12"], "time": [5895, 7528, 7952, 8806, 10088, 11235, 14289, 15987, 16071, 16668, 16835, 17988, 18039]}, "edge": {"target": [], "time": []}}, "mouseout": {"state": {"target": ["0", "12", "1", "23", "24", "13", "1", "13", "14", "18", "15", "1", "1", "18", "15", "13", "12", "0"], "time": [2893, 6767, 7889, 8788, 9958, 11154, 13687, 14255, 15554, 16005, 16253, 16319, 16637, 16721, 17905, 18004, 18154, 23769]}, "edge": {"target": [], "time": []}}}, "displayed_time": "22.77", "trialTime": 24852, "trial_type": "mouselab-mdp", "trial_index": 28, "time_elapsed": 849477, "internal_node_id": "0.0-4.0-1.0-19.0"}}, {"uniqueid": "w39798461:a65821013", "current_trial": 29, "dateTime": 1691071849839, "trialdata": {"revealed_states": [], "clicked_states": [], "num_clicks_accrued": [0, 0, 0, 0, 0, 0, 0, 0, 0, 0, 0, 0, 0], "stateRewards": ["", 1, 2, 7, 13, 88, -71, 27, 3, 60, 5, -53, -2, 2, -6, -1, -30, 79, 47, -4, -14, 46, 68, 1, 1, 8, 10, -14, 86, 48, -11, -67, -44, 5], "withholdReward": false, "trial_id": "mdp_trial_21", "block": "test", "trialIndex": 22, "score": 36, "costs": 0, "simulationMode": [null, null, null, null, null], "rewards": [-2, 2, -6, -4, 46], "path": ["0", "0", "12", "13", "14", "19", "21"], "rt": [1456, 831, 59, 79, 110], "actions": ["right", "right", "right", "down", "down"], "actionTimes": [6558, 7916, 8512, 9110, 9762], "queries": {"click": {"state": {"target": [], "time": []}, "edge": {"target": [], "time": []}}, "mouseover": {"state": {"target": [], "time": []}, "edge": {"target": [], "time": []}}, "mouseout": {"state": {"target": ["0"], "time": [1512]}, "edge": {"target": [], "time": []}}}, "displayed_time": "19.13", "trialTime": 20770, "trial_type": "mouselab-mdp", "trial_index": 29, "time_elapsed": 871569, "internal_node_id": "0.0-4.0-1.0-20.0"}}, {"uniqueid": "w39798461:a65821013", "current_trial": 30, "dateTime": 1691071869221, "trialdata": {"revealed_states": [], "clicked_states": [], "num_clicks_accrued": [0, 0, 0, 0, 0, 0, 0, 0, 0, 0, 0, 0, 0], "stateRewards": ["", 1, -3, 4, 13, -72, 52, 5, 5, -58, 5, 14, 2, 1, 3, -14, -86, -4, 73, 6, -58, -50, 49, 2, -3, -4, 2, 33, -41, 42, -11, 81, 45, 53], "withholdReward": false, "trial_id": "mdp_trial_22", "block": "test", "trialIndex": 23, "score": 39, "costs": 0, "simulationMode": [null, null, null, null, null], "rewards": [2, -3, -4, 2, 42], "path": ["0", "0", "23", "24", "25", "26", "29"], "rt": [1375, 112, 146, 123, 73], "actions": ["left", "left", "left", "up", "left"], "actionTimes": [3104, 3729, 4412, 5071, 5702], "queries": {"click": {"state": {"target": [], "time": []}, "edge": {"target": [], "time": []}}, "mouseover": {"state": {"target": [], "time": []}, "edge": {"target": [], "time": []}}, "mouseout": {"state": {"target": ["0"], "time": [1171]}, "edge": {"target": [], "time": []}}}, "displayed_time": "15.73", "trialTime": 18321, "trial_type": "mouselab-mdp", "trial_index": 30, "time_elapsed": 890951, "internal_node_id": "0.0-4.0-1.0-21.0"}}, {"uniqueid": "w39798461:a65821013", "current_trial": 31, "dateTime": 1691071898550, "trialdata": {"revealed_states": [], "clicked_states": [], "num_clicks_accrued": [0, 0, 0, 0, 0, 0, 0, 0, 0, 0, 0, 0, 0], "stateRewards": ["", 2, -1, -3, 16, -3, -16, -62, -1, 13, -26, 43, -1, 4, 3, -9, -54, -37, -3, -12, -71, -68, -57, 1, -3, 2, -9, 2, -2, -9, -11, 84, -52, 55], "withholdReward": false, "trial_id": "mdp_trial_23", "block": "test", "trialIndex": 24, "score": 10, "costs": 0, "simulationMode": [null, null, null, null, null], "rewards": [2, -1, -3, -1, 13], "path": ["0", "0", "1", "2", "3", "8", "9"], "rt": [3254, 1210, 813, 72, 104], "actions": ["up", "up", "up", "left", "up"], "actionTimes": [6228, 8267, 9906, 10508, 11143], "queries": {"click": {"state": {"target": [], "time": []}, "edge": {"target": [], "time": []}}, "mouseover": {"state": {"target": [], "time": []}, "edge": {"target": [], "time": []}}, "mouseout": {"state": {"target": ["0"], "time": [2550]}, "edge": {"target": [], "time": []}}}, "displayed_time": "16.98", "trialTime": 28391, "trial_type": "mouselab-mdp", "trial_index": 31, "time_elapsed": 920281, "internal_node_id": "0.0-4.0-1.0-22.0"}}, {"uniqueid": "w39798461:a65821013", "current_trial": 32, "dateTime": 1691071930675, "trialdata": {"revealed_states": [], "clicked_states": ["23", "1", "24", "25", "12", "13", "14"], "num_clicks_accrued": [0, 0, 0, 0, 0, 0, 0, 0, 0, 0, 0, 0, 0], "stateRewards": ["", 1, -1, 8, 4, 76, -33, -17, -3, -1, -54, -74, -2, 2, -5, 13, -51, 63, 83, 1, 84, 29, -36, 2, -1, 7, -12, -10, -44, -43, -14, 8, -69, 19], "withholdReward": false, "trial_id": "mdp_trial_24", "block": "test", "trialIndex": 25, "score": -5.800000000000001, "costs": -9.8, "simulationMode": [null, null, null, null, null], "rewards": [1, -1, 8, -3, -1], "path": ["0", "0", "1", "2", "3", "8", "9"], "rt": [16644, 424, 286, 149, 58], "actions": ["up", "up", "up", "left", "up"], "actionTimes": [19987, 20746, 21552, 22219, 22792], "queries": {"click": {"state": {"target": ["23", "1", "24", "25", "12", "13", "14"], "time": [4373, 6604, 8688, 10332, 12832, 14652, 16872]}, "edge": {"target": [], "time": []}}, "mouseover": {"state": {"target": ["23", "23", "1", "24", "25", "26", "12", "12", "13", "14"], "time": [3627, 4098, 5150, 7250, 9315, 11031, 11483, 12564, 13597, 15165]}, "edge": {"target": [], "time": []}}, "mouseout": {"state": {"target": ["0", "23", "23", "1", "24", "25", "26", "12", "12", "13", "14"], "time": [2802, 3747, 4984, 7117, 9234, 10885, 11190, 12365, 13518, 15148, 17815]}, "edge": {"target": [], "time": []}}}, "displayed_time": "23.35", "trialTime": 30557, "trial_type": "mouselab-mdp", "trial_index": 32, "time_elapsed": 952405, "internal_node_id": "0.0-4.0-1.0-23.0"}}, {"uniqueid": "w39798461:a65821013", "current_trial": 33, "dateTime": 1691071965111, "trialdata": {"revealed_states": [], "clicked_states": ["23", "24", "25", "1", "2", "3", "6"], "num_clicks_accrued": [0, 0, 0, 0, 0, 0, 0, 0, 0, 0, 0, 0, 0], "stateRewards": ["", 2, -1, 5, 6, 10, 86, 55, 10, -45, 63, -71, 1, -2, 5, -8, -50, -72, 36, 15, 61, 12, 33, -1, -4, 6, 5, 79, -56, -21, -16, -87, 60, -81], "withholdReward": false, "trial_id": "mdp_trial_25", "block": "test", "trialIndex": 26, "score": 88.2, "costs": -9.8, "simulationMode": [null, null, null, null, null], "rewards": [2, -1, 5, 6, 86], "path": ["0", "0", "1", "2", "3", "4", "6"], "rt": [20997, 433, 154, 160, 703], "actions": ["up", "up", "up", "right", "right"], "actionTimes": [24005, 25408, 26090, 26787, 28023], "queries": {"click": {"state": {"target": ["23", "24", "25", "1", "2", "3", "6"], "time": [3918, 5476, 7629, 10166, 12554, 15364, 17926]}, "edge": {"target": [], "time": []}}, "mouseover": {"state": {"target": ["23", "24", "25", "0", "12", "1", "2", "3", "4", "6", "4", "2", "1"], "time": [3584, 4396, 6326, 8121, 8386, 9700, 11368, 14951, 17382, 17918, 18968, 21301, 21500]}, "edge": {"target": [], "time": []}}, "mouseout": {"state": {"target": ["0", "23", "24", "25", "24", "0", "12", "1", "2", "3", "4", "6", "4", "2", "1", "0"], "time": [1250, 4336, 6294, 8055, 8081, 8175, 9567, 10872, 14916, 17380, 17916, 18387, 21101, 21384, 22713, 30651]}, "edge": {"target": [], "time": []}}}, "displayed_time": "28.05", "trialTime": 32469, "trial_type": "mouselab-mdp", "trial_index": 33, "time_elapsed": 986841, "internal_node_id": "0.0-4.0-1.0-24.0"}}, {"uniqueid": "w39798461:a65821013", "current_trial": 34, "dateTime": 1691071983372, "trialdata": {"revealed_states": [], "clicked_states": [], "num_clicks_accrued": [0, 0, 0, 0, 0, 0, 0, 0, 0, 0, 0, 0, 0], "stateRewards": ["", 2, 4, -3, 16, -58, 30, -35, 11, -60, 47, 27, -2, -1, -7, -16, 23, -70, 68, -10, -65, -43, -34, -2, 1, 7, 9, -63, 34, -31, -8, -12, -86, 59], "withholdReward": false, "trial_id": "mdp_trial_26", "block": "test", "trialIndex": 27, "score": -96, "costs": 0, "simulationMode": [null, null, null, null, null], "rewards": [-2, -1, -7, -16, -70], "path": ["0", "0", "12", "13", "14", "15", "17"], "rt": [8559, 89, 95, 109, 16], "actions": ["right", "right", "right", "up", "right"], "actionTimes": [10380, 11000, 11639, 12287, 12826], "queries": {"click": {"state": {"target": [], "time": []}, "edge": {"target": [], "time": []}}, "mouseover": {"state": {"target": ["12", "17", "15", "18", "0"], "time": [4925, 6257, 9261, 9325, 9690]}, "edge": {"target": [], "time": []}}, "mouseout": {"state": {"target": ["0", "12", "17", "15", "18", "0"], "time": [3759, 6091, 9258, 9294, 9425, 9841]}, "edge": {"target": [], "time": []}}}, "displayed_time": "15.87", "trialTime": 17285, "trial_type": "mouselab-mdp", "trial_index": 34, "time_elapsed": 1005102, "internal_node_id": "0.0-4.0-1.0-25.0"}}, {"uniqueid": "w39798461:a65821013", "current_trial": 35, "dateTime": 1691072005348, "trialdata": {"revealed_states": [], "clicked_states": ["32", "20", "17", "16"], "num_clicks_accrued": [0, 0, 0, 0, 0, 0, 0, 0, 0, 0, 0, 0, 0], "stateRewards": ["", 1, -4, 6, -3, 40, 76, -51, 5, -24, -63, 44, -2, -2, 8, 1, 76, -85, -58, 10, 59, 20, 11, -2, 3, -3, 3, -82, -10, 54, -7, -57, -6, -32], "withholdReward": false, "trial_id": "mdp_trial_27", "block": "test", "trialIndex": 28, "score": 75.4, "costs": -5.6, "simulationMode": [null, null, null, null, null], "rewards": [-2, -2, 8, 1, 76], "path": ["0", "0", "12", "13", "14", "15", "16"], "rt": [13003, 26, 126, 74, 55], "actions": ["right", "right", "right", "up", "up"], "actionTimes": [15274, 15835, 16485, 17083, 17663], "queries": {"click": {"state": {"target": ["32", "20", "17", "16"], "time": [3494, 6455, 8006, 9845]}, "edge": {"target": [], "time": []}}, "mouseover": {"state": {"target": ["31", "32", "21", "20", "17", "16", "18"], "time": [2857, 3140, 4748, 5906, 7758, 8717, 10676]}, "edge": {"target": [], "time": []}}, "mouseout": {"state": {"target": ["0", "31", "32", "21", "20", "17", "16", "18", "12"], "time": [1488, 2942, 3699, 5723, 7039, 8545, 10625, 18706, 19088]}, "edge": {"target": [], "time": []}}}, "displayed_time": "18.19", "trialTime": 19617, "trial_type": "mouselab-mdp", "trial_index": 35, "time_elapsed": 1027078, "internal_node_id": "0.0-4.0-1.0-26.0"}}, {"uniqueid": "w39798461:a65821013", "current_trial": 36, "dateTime": 1691072053516, "trialdata": {"revealed_states": [], "clicked_states": ["5", "6", "10", "11", "9", "27", "29", "28", "33", "32", "31", "21", "22", "20", "17", "16", "18"], "num_clicks_accrued": [0, 0, 0, 0, 0, 0, 0, 0, 0, 0, 0, 0, 0], "stateRewards": ["", 1, -2, 7, -14, 88, -56, -44, -14, 64, -51, -57, -2, 3, -4, -9, -11, 19, -77, -1, 68, 75, -67, -1, 1, -2, 5, -37, 70, -34, -10, -72, 63, -41], "withholdReward": false, "trial_id": "mdp_trial_28", "block": "test", "trialIndex": 29, "score": -87.8, "costs": -23.799999999999994, "simulationMode": [null, null, null, null, null, null], "rewards": [1, -2, 7, -14, -56], "path": ["0", "0", "1", "2", "3", "4", "6"], "rt": [37303, 815, 49, 126, 502, 404], "actions": ["up", "up", "up", "up", "right", "right"], "actionTimes": [40041, 40863, 41449, 42110, 43242, 44173], "queries": {"click": {"state": {"target": ["5", "6", "10", "11", "9", "27", "29", "28", "33", "32", "31", "21", "22", "20", "17", "16", "18"], "time": [4433, 6211, 8730, 11214, 13526, 15908, 18862, 20896, 22785, 24572, 26530, 28826, 30488, 32348, 33882, 36784, 39061]}, "edge": {"target": [], "time": []}}, "mouseover": {"state": {"target": ["7", "4", "5", "6", "7", "2", "10", "11", "9", "9", "27", "29", "29", "26", "28", "25", "33", "32", "31", "21", "22", "19", "20", "17", "16", "16", "18"], "time": [3384, 3534, 4068, 5119, 6753, 8221, 8333, 9736, 11637, 12009, 14528, 16570, 17118, 19302, 19634, 21403, 21735, 23451, 25285, 27551, 29401, 31222, 31417, 33430, 34701, 36449, 37436]}, "edge": {"target": [], "time": []}}, "mouseout": {"state": {"target": ["0", "7", "4", "5", "6", "7", "2", "10", "11", "9", "9", "27", "29", "29", "26", "28", "25", "33", "32", "31", "21", "22", "19", "20", "17", "16", "16", "18", "0"], "time": [3319, 3468, 3683, 4870, 6669, 8218, 8250, 9453, 11619, 11654, 14220, 16368, 16650, 19286, 19351, 21385, 21429, 23343, 25009, 27118, 29049, 31203, 31309, 33151, 34616, 36165, 37252, 45998, 46198]}, "edge": {"target": [], "time": []}}}, "displayed_time": "44.70", "trialTime": 46815, "trial_type": "mouselab-mdp", "trial_index": 36, "time_elapsed": 1075246, "internal_node_id": "0.0-4.0-1.0-27.0"}}, {"uniqueid": "w39798461:a65821013", "current_trial": 37, "dateTime": 1691072238889, "trialdata": {"revealed_states": [], "clicked_states": ["9", "5", "6"], "num_clicks_accrued": [0, 0, 0, 0, 0, 0, 0, 0, 0, 0, 0, 0, 0], "stateRewards": ["", -2, 1, -5, 2, -68, 80, 33, 10, 67, -59, 20, -1, -3, 3, 14, 74, -2, 24, -16, 63, 80, 46, -1, 4, 6, 12, 83, -38, -43, -4, 43, 14, -79], "withholdReward": false, "trial_id": "mdp_trial_29", "block": "test", "trialIndex": 30, "score": 71.8, "costs": -4.199999999999999, "simulationMode": [null, null, null, null, null], "rewards": [-2, 1, -5, 2, 80], "path": ["0", "0", "1", "2", "3", "4", "6"], "rt": [9582, 863, 70, 88, 121], "actions": ["up", "up", "up", "right", "right"], "actionTimes": [178198, 179623, 180222, 180822, 181456], "queries": {"click": {"state": {"target": ["9", "5", "6"], "time": [171160, 173792, 176255]}, "edge": {"target": [], "time": []}}, "mouseover": {"state": {"target": ["9", "5", "6", "4", "3", "8", "11", "2", "1"], "time": [170567, 172033, 174646, 176802, 176851, 176936, 177051, 177385, 177485]}, "edge": {"target": [], "time": []}}, "mouseout": {"state": {"target": ["0", "9", "5", "6", "4", "3", "8", "11", "2", "1"], "time": [1259, 171921, 174442, 176784, 176820, 176902, 176969, 177333, 177420, 177519]}, "edge": {"target": [], "time": []}}}, "displayed_time": "183.62", "trialTime": 184484, "trial_type": "mouselab-mdp", "trial_index": 37, "time_elapsed": 1260620, "internal_node_id": "0.0-4.0-1.0-28.0"}}, {"uniqueid": "w39798461:a65821013", "current_trial": 38, "dateTime": 1691072257485, "trialdata": {"revealed_states": [], "clicked_states": ["29"], "num_clicks_accrued": [0, 0, 0, 0, 0, 0, 0, 0, 0, 0, 0, 0, 0], "stateRewards": ["", 1, -3, -4, -11, -56, 61, -47, -16, -28, -9, 69, -2, -3, -4, -8, 40, -86, 59, -4, 80, 27, 54, -1, 3, -1, 8, 67, 23, 50, 6, 83, -43, -29], "withholdReward": false, "trial_id": "mdp_trial_30", "block": "test", "trialIndex": 31, "score": 57.6, "costs": -1.4, "simulationMode": [null, null, null, null, null], "rewards": [-1, 3, -1, 8, 50], "path": ["0", "0", "23", "24", "25", "26", "29"], "rt": [6321, 738, 163, 38, 32], "actions": ["left", "left", "left", "up", "left"], "actionTimes": [8846, 10112, 10804, 11379, 11939], "queries": {"click": {"state": {"target": ["29"], "time": [4552]}, "edge": {"target": [], "time": []}}, "mouseover": {"state": {"target": ["23", "24", "25", "29", "33"], "time": [3159, 3176, 3197, 3557, 6874]}, "edge": {"target": [], "time": []}}, "mouseout": {"state": {"target": ["1", "0", "23", "24", "25", "29", "33", "30", "31"], "time": [1521, 3155, 3174, 3194, 3215, 5644, 12738, 12804, 12855]}, "edge": {"target": [], "time": []}}}, "displayed_time": "16.53", "trialTime": 17735, "trial_type": "mouselab-mdp", "trial_index": 38, "time_elapsed": 1279215, "internal_node_id": "0.0-4.0-1.0-29.0"}}, {"uniqueid": "w39798461:a65821013", "current_trial": 39, "dateTime": 1691072283193, "trialdata": {"revealed_states": [], "clicked_states": ["32", "31"], "num_clicks_accrued": [0, 0, 0, 0, 0, 0, 0, 0, 0, 0, 0, 0, 0], "stateRewards": ["", -2, -2, -3, -6, -15, -11, 41, -12, -63, -76, 2, -2, -3, 8, 9, -36, -2, -18, -16, -32, -85, -17, -2, 1, 5, -16, 82, 35, -88, -1, 80, -82, -20], "withholdReward": false, "trial_id": "mdp_trial_31", "block": "test", "trialIndex": 32, "score": 80.2, "costs": -2.8, "simulationMode": [null, null, null, null, null], "rewards": [-2, 1, 5, -1, 80], "path": ["0", "0", "23", "24", "25", "30", "31"], "rt": [7470, 177, 8, 14, 64], "actions": ["left", "left", "left", "down", "right"], "actionTimes": [10320, 11036, 11607, 12146, 12723], "queries": {"click": {"state": {"target": ["32", "31"], "time": [5053, 7441]}, "edge": {"target": [], "time": []}}, "mouseover": {"state": {"target": ["23", "24", "32", "31", "33"], "time": [4327, 4358, 4557, 5941, 8158]}, "edge": {"target": [], "time": []}}, "mouseout": {"state": {"target": ["0", "23", "24", "32", "31", "33", "30", "31"], "time": [4323, 4343, 4376, 5286, 8018, 13856, 13906, 13989]}, "edge": {"target": [], "time": []}}}, "displayed_time": "16.85", "trialTime": 24880, "trial_type": "mouselab-mdp", "trial_index": 39, "time_elapsed": 1304924, "internal_node_id": "0.0-4.0-1.0-30.0"}}, {"uniqueid": "w39798461:a65821013", "current_trial": 40, "dateTime": 1691072304567, "trialdata": {"revealed_states": [], "clicked_states": [], "num_clicks_accrued": [0, 0, 0, 0, 0, 0, 0, 0, 0, 0, 0, 0, 0], "stateRewards": ["", -2, 2, -5, 1, 42, -63, -58, -6, 2, 16, 81, -2, 4, 7, -10, 33, 3, -33, -2, -52, -84, -27, 2, -3, -3, 15, -74, -14, -5, -5, -84, 79, -31], "withholdReward": false, "trial_id": "mdp_trial_32", "block": "test", "trialIndex": 33, "score": -67, "costs": 0, "simulationMode": [null, null, null, null, null], "rewards": [-2, 2, -5, 1, -63], "path": ["0", "0", "1", "2", "3", "4", "6"], "rt": [2727, 575, 48, 1551, 31], "actions": ["up", "up", "up", "right", "right"], "actionTimes": [4605, 5717, 6290, 8379, 8939], "queries": {"click": {"state": {"target": [], "time": []}, "edge": {"target": [], "time": []}}, "mouseover": {"state": {"target": [], "time": []}, "edge": {"target": [], "time": []}}, "mouseout": {"state": {"target": ["0", "23"], "time": [12324, 12607]}, "edge": {"target": [], "time": []}}}, "displayed_time": "15.88", "trialTime": 20205, "trial_type": "mouselab-mdp", "trial_index": 40, "time_elapsed": 1326298, "internal_node_id": "0.0-4.0-1.0-31.0"}}, {"uniqueid": "w39798461:a65821013", "current_trial": 41, "dateTime": 1691072338503, "trialdata": {"revealed_states": [], "clicked_states": ["27", "29", "28", "33", "32", "31", "22"], "num_clicks_accrued": [0, 0, 0, 0, 0, 0, 0, 0, 0, 0, 0, 0, 0], "stateRewards": ["", 2, -3, -2, 14, -4, 85, 46, 15, -28, 41, 31, -1, -1, -1, 5, 62, 79, 57, 12, -73, -64, 86, -1, 1, -3, -5, 68, 11, -32, 8, -80, -21, -56], "withholdReward": false, "trial_id": "mdp_trial_33", "block": "test", "trialIndex": 34, "score": 85.2, "costs": -9.8, "simulationMode": [null, null, null, null, null], "rewards": [-1, -1, -1, 12, 86], "path": ["0", "0", "12", "13", "14", "19", "22"], "rt": [19148, 13, 102, 89, 211], "actions": ["right", "right", "right", "down", "left"], "actionTimes": [25790, 26332, 27016, 27642, 28380], "queries": {"click": {"state": {"target": ["27", "29", "28", "33", "32", "31", "22"], "time": [9170, 11579, 13813, 15890, 18438, 20598, 22654]}, "edge": {"target": [], "time": []}}, "mouseover": {"state": {"target": ["23", "24", "26", "27", "29", "26", "28", "30", "33", "32", "31", "22", "21"], "time": [8119, 8184, 8368, 8884, 9805, 12056, 12137, 14653, 14838, 16570, 18986, 21860, 23403]}, "edge": {"target": [], "time": []}}, "mouseout": {"state": {"target": ["0", "23", "24", "26", "27", "29", "26", "28", "30", "33", "32", "31", "22", "22", "21"], "time": [6286, 8153, 8267, 8453, 9738, 12053, 12089, 14470, 14704, 16419, 18903, 21505, 22878, 23135, 29733]}, "edge": {"target": [], "time": []}}}, "displayed_time": "28.90", "trialTime": 32985, "trial_type": "mouselab-mdp", "trial_index": 41, "time_elapsed": 1360233, "internal_node_id": "0.0-4.0-1.0-32.0"}}, {"uniqueid": "w39798461:a65821013", "current_trial": 42, "dateTime": 1691072368759, "trialdata": {"revealed_states": [], "clicked_states": ["5", "16", "17", "18", "20", "21", "22", "31", "32"], "num_clicks_accrued": [0, 0, 0, 0, 0, 0, 0, 0, 0, 0, 0, 0, 0], "stateRewards": ["", 2, 3, 6, -12, -29, 12, 87, 4, 35, -30, 67, 2, 3, -5, -9, 44, 69, -8, 1, 45, -8, 28, -2, -1, -8, 11, -12, -5, 81, 9, 87, 82, 88], "withholdReward": false, "trial_id": "mdp_trial_34", "block": "test", "trialIndex": 35, "score": 72.4, "costs": -12.600000000000001, "simulationMode": [null, null, null, null, null, null], "rewards": [-2, -1, -8, 9, 87], "path": ["0", "0", "23", "24", "25", "30", "31"], "rt": [19746, 1775, 1148, 78, 23, 121], "actions": ["left", "left", "left", "left", "down", "right"], "actionTimes": [21803, 23582, 25584, 26195, 26755, 27404], "queries": {"click": {"state": {"target": ["5", "16", "17", "18", "20", "21", "22", "31", "32"], "time": [4194, 6935, 8644, 10486, 12596, 14262, 16205, 18874, 20784]}, "edge": {"target": [], "time": []}}, "mouseover": {"state": {"target": ["1", "4", "5", "6", "16", "16", "17", "18", "14", "20", "21", "21", "22", "31", "32", "31", "32"], "time": [3366, 3449, 3719, 4883, 5815, 6598, 8255, 9519, 11774, 12081, 13103, 13452, 15038, 17242, 17583, 18398, 19617]}, "edge": {"target": [], "time": []}}, "mouseout": {"state": {"target": ["0", "1", "4", "5", "6", "16", "16", "17", "18", "14", "20", "21", "21", "22", "31", "32", "31", "32"], "time": [3348, 3382, 3566, 4687, 5617, 6315, 8184, 9517, 11721, 11823, 13099, 13204, 14866, 17133, 17340, 18264, 19315, 24514]}, "edge": {"target": [], "time": []}}}, "displayed_time": "27.95", "trialTime": 29292, "trial_type": "mouselab-mdp", "trial_index": 42, "time_elapsed": 1390489, "internal_node_id": "0.0-4.0-1.0-33.0"}}, {"uniqueid": "w39798461:a65821013", "current_trial": 43, "dateTime": 1691072417803, "trialdata": {"revealed_states": [], "clicked_states": ["33", "32", "31", "22", "21", "20", "17", "16", "18", "28", "27", "29", "11", "9", "10", "7", "5", "6"], "num_clicks_accrued": [0, 0, 0, 0, 0, 0, 0, 0, 0, 0, 0, 0, 0], "stateRewards": ["", 2, -1, -4, -13, 74, 77, 3, 2, -43, -2, -11, 2, 3, 7, 11, -26, -29, -33, -3, -3, -13, -3, 1, 3, -7, 14, -59, 33, 9, -5, 34, 79, 68], "withholdReward": false, "trial_id": "mdp_trial_35", "block": "test", "trialIndex": 36, "score": 35.80000000000001, "costs": -25.199999999999992, "simulationMode": [null, null, null, null, null], "rewards": [2, -1, -4, -13, 77], "path": ["0", "0", "1", "2", "3", "4", "6"], "rt": [40050, 12, 151, 10, 83], "actions": ["up", "up", "up", "right", "right"], "actionTimes": [42270, 42810, 43499, 44042, 44647], "queries": {"click": {"state": {"target": ["33", "32", "31", "22", "21", "20", "17", "16", "18", "28", "27", "29", "11", "9", "10", "7", "5", "6"], "time": [3936, 5677, 7387, 9906, 11978, 13804, 15804, 17895, 20358, 23286, 25467, 27239, 29025, 30872, 32790, 34991, 37324, 39556]}, "edge": {"target": [], "time": []}}, "mouseover": {"state": {"target": ["23", "24", "33", "33", "32", "31", "22", "21", "20", "20", "17", "16", "18", "1", "28", "27", "29", "11", "9", "8", "10", "2", "7", "4", "5", "6"], "time": [3215, 3236, 3283, 3650, 4566, 6387, 8458, 10499, 12429, 12763, 14983, 17328, 19913, 21083, 21432, 24071, 26190, 27871, 29733, 31282, 31672, 33431, 33610, 35550, 35897, 37949]}, "edge": {"target": [], "time": []}}, "mouseout": {"state": {"target": ["0", "23", "24", "33", "33", "32", "31", "22", "21", "20", "20", "17", "16", "18", "1", "28", "27", "29", "27", "11", "9", "8", "10", "2", "7", "4", "5", "6", "7", "1", "2", "2", "1"], "time": [3198, 3233, 3255, 3314, 4358, 6316, 8048, 10384, 12420, 12464, 14568, 17184, 19848, 21066, 21102, 23983, 26091, 27473, 27832, 29239, 31093, 31551, 33428, 33484, 35531, 35600, 37848, 46445, 46497, 46729, 46747, 46978, 47130]}, "edge": {"target": [], "time": []}}}, "displayed_time": "45.18", "trialTime": 47988, "trial_type": "mouselab-mdp", "trial_index": 43, "time_elapsed": 1439534, "internal_node_id": "0.0-4.0-1.0-34.0"}}, {"uniqueid": "w39798461:a65821013", "current_trial": 44, "dateTime": 1691072435366, "trialdata": {"revealed_states": [], "clicked_states": ["32", "33"], "num_clicks_accrued": [0, 0, 0, 0, 0, 0, 0, 0, 0, 0, 0, 0, 0], "stateRewards": ["", -1, 4, -8, 12, 14, 69, -8, 5, -72, -14, 56, -1, -1, -1, 9, 67, 19, 11, -9, -88, -58, 3, 2, -4, -8, 4, 62, 77, -74, 5, -31, 65, 88], "withholdReward": false, "trial_id": "mdp_trial_36", "block": "test", "trialIndex": 37, "score": 80.2, "costs": -2.8, "simulationMode": [null, null, null, null, null], "rewards": [2, -4, -8, 5, 88], "path": ["0", "0", "23", "24", "25", "30", "33"], "rt": [6362, 662, 589, 208, 113], "actions": ["left", "left", "left", "down", "left"], "actionTimes": [7836, 9012, 10140, 10874, 11513], "queries": {"click": {"state": {"target": ["32", "33"], "time": [2715, 4999]}, "edge": {"target": [], "time": []}}, "mouseover": {"state": {"target": ["31", "32", "31", "30", "33", "31"], "time": [2198, 2380, 3299, 4448, 4681, 6754]}, "edge": {"target": [], "time": []}}, "mouseout": {"state": {"target": ["0", "31", "32", "31", "30", "33", "31"], "time": [1112, 2216, 3166, 4414, 4547, 6751, 12614]}, "edge": {"target": [], "time": []}}}, "displayed_time": "15.47", "trialTime": 16737, "trial_type": "mouselab-mdp", "trial_index": 44, "time_elapsed": 1457096, "internal_node_id": "0.0-4.0-1.0-35.0"}}, {"uniqueid": "w39798461:a65821013", "current_trial": 45, "dateTime": 1691072488711, "trialdata": {"revealed_states": [], "clicked_states": ["32", "31", "33", "29", "27", "28", "22", "21", "20", "17", "16", "18", "6", "5", "9", "11", "10"], "num_clicks_accrued": [0, 0, 0, 0, 0, 0, 0, 0, 0, 0, 0, 0, 0], "stateRewards": ["", 2, -4, -4, 13, -80, 62, 13, -11, 57, -13, -44, 1, 4, 3, -4, -29, -88, 15, 16, -58, 68, -45, -1, -3, -1, -9, -44, -86, -19, -7, -36, 59, 66], "withholdReward": false, "trial_id": "mdp_trial_37", "block": "test", "trialIndex": 38, "score": -71.8, "costs": -23.799999999999994, "simulationMode": [null, null, null, null, null], "rewards": [-1, -3, -1, -7, -36], "path": ["0", "0", "23", "24", "25", "30", "31"], "rt": [37395, 384, 33, 22, 126], "actions": ["left", "left", "left", "down", "right"], "actionTimes": [43021, 43910, 44480, 45033, 45686], "queries": {"click": {"state": {"target": ["32", "31", "33", "29", "27", "28", "22", "21", "20", "17", "16", "18", "6", "5", "9", "11", "10"], "time": [7259, 8802, 10372, 12463, 14353, 16887, 19020, 21043, 23394, 25525, 27643, 29624, 31803, 33790, 35693, 37679, 39920]}, "edge": {"target": [], "time": []}}, "mouseover": {"state": {"target": ["31", "32", "31", "33", "29", "29", "27", "28", "12", "13", "22", "21", "20", "17", "16", "18", "6", "5", "9", "11", "10", "2"], "time": [6679, 6746, 8331, 9771, 11098, 11428, 13153, 16577, 17680, 17764, 18046, 19628, 21645, 24377, 26447, 28297, 30342, 32529, 34678, 36584, 39111, 40763]}, "edge": {"target": [], "time": []}}, "mouseout": {"state": {"target": ["0", "31", "32", "31", "33", "29", "29", "27", "28", "12", "13", "22", "22", "21", "20", "17", "16", "18", "6", "5", "9", "11", "10", "2"], "time": [6645, 6712, 7946, 9429, 11063, 11117, 13045, 16326, 17576, 17712, 17799, 19237, 19525, 21562, 24014, 26276, 28162, 30269, 32344, 34478, 36195, 38960, 40744, 49376]}, "edge": {"target": [], "time": []}}}, "displayed_time": "46.48", "trialTime": 52529, "trial_type": "mouselab-mdp", "trial_index": 45, "time_elapsed": 1510441, "internal_node_id": "0.0-4.0-1.0-36.0"}}, {"uniqueid": "w39798461:a65821013", "current_trial": 46, "dateTime": 1691072506113, "trialdata": {"revealed_states": [], "clicked_states": ["5"], "num_clicks_accrued": [0, 0, 0, 0, 0, 0, 0, 0, 0, 0, 0, 0, 0], "stateRewards": ["", -1, 1, -2, 5, 73, 15, 61, 8, 7, 38, 76, 2, 2, -4, -6, -6, -26, 43, -5, -45, -85, -35, -2, 1, -4, 15, -10, 69, 72, -11, 84, -49, -38], "withholdReward": false, "trial_id": "mdp_trial_38", "block": "test", "trialIndex": 39, "score": 74.6, "costs": -1.4, "simulationMode": [null, null, null, null, null], "rewards": [-1, 1, -2, 5, 73], "path": ["0", "0", "1", "2", "3", "4", "5"], "rt": [5204, 37, 94, 6, 337], "actions": ["up", "up", "up", "right", "up"], "actionTimes": [6602, 7171, 7794, 8340, 9208], "queries": {"click": {"state": {"target": ["5"], "time": [3540]}, "edge": {"target": [], "time": []}}, "mouseover": {"state": {"target": ["7", "4", "5", "6"], "time": [2880, 2920, 3196, 4285]}, "edge": {"target": [], "time": []}}, "mouseout": {"state": {"target": ["0", "7", "4", "5", "5", "6", "7", "1"], "time": [2849, 2914, 3113, 3761, 4266, 10347, 10380, 10497]}, "edge": {"target": [], "time": []}}}, "displayed_time": "15.40", "trialTime": 16322, "trial_type": "mouselab-mdp", "trial_index": 46, "time_elapsed": 1527844, "internal_node_id": "0.0-4.0-1.0-37.0"}}, {"uniqueid": "w39798461:a65821013", "current_trial": 47, "dateTime": 1691072524285, "trialdata": {"revealed_states": [], "clicked_states": ["9", "11"], "num_clicks_accrued": [0, 0, 0, 0, 0, 0, 0, 0, 0, 0, 0, 0, 0], "stateRewards": ["", -2, 2, -1, -6, 22, 6, 6, -5, 70, -42, 65, 1, 3, 5, -6, -67, -9, 3, 14, 7, -62, -13, -2, 4, 1, 16, 42, -21, -52, -8, 32, 53, 81], "withholdReward": false, "trial_id": "mdp_trial_39", "block": "test", "trialIndex": 40, "score": 61.2, "costs": -2.8, "simulationMode": [null, null, null, null, null, null], "rewards": [-2, 2, -1, -5, 70], "path": ["0", "0", "1", "2", "3", "8", "9"], "rt": [5265, 802, 6, 42, 5, 12], "actions": ["up", "up", "up", "up", "left", "up"], "actionTimes": [7417, 8224, 8752, 9323, 9851, 10394], "queries": {"click": {"state": {"target": ["9", "11"], "time": [3679, 5998]}, "edge": {"target": [], "time": []}}, "mouseover": {"state": {"target": ["9", "11"], "time": [3343, 4581]}, "edge": {"target": [], "time": []}}, "mouseout": {"state": {"target": ["0", "9", "11", "10", "2", "12"], "time": [2962, 4414, 11393, 11443, 11462, 11744]}, "edge": {"target": [], "time": []}}}, "displayed_time": "16.15", "trialTime": 17259, "trial_type": "mouselab-mdp", "trial_index": 47, "time_elapsed": 1546016, "internal_node_id": "0.0-4.0-1.0-38.0"}}, {"uniqueid": "w39798461:a65821013", "current_trial": 48, "dateTime": 1691072546389, "trialdata": {"revealed_states": [], "clicked_states": ["17", "16", "18"], "num_clicks_accrued": [0, 0, 0, 0, 0, 0, 0, 0, 0, 0, 0, 0, 0], "stateRewards": ["", 1, 4, -8, -13, -13, -87, -77, -10, -44, 54, 42, 2, -3, -4, 12, -9, -80, 52, 9, 84, -2, -65, 1, -4, -5, -6, 8, 80, 32, 13, -59, -5, -13], "withholdReward": false, "trial_id": "mdp_trial_40", "block": "test", "trialIndex": 41, "score": 54.8, "costs": -4.199999999999999, "simulationMode": [null, null, null, null, null], "rewards": [2, -3, -4, 12, 52], "path": ["0", "0", "12", "13", "14", "15", "18"], "rt": [9340, 592, 106, 146, 91], "actions": ["right", "right", "right", "up", "left"], "actionTimes": [12872, 14121, 14795, 15471, 16101], "queries": {"click": {"state": {"target": ["17", "16", "18"], "time": [6132, 8126, 10203]}, "edge": {"target": [], "time": []}}, "mouseover": {"state": {"target": ["12", "13", "14", "17", "16", "18", "14", "20"], "time": [4724, 4783, 4875, 5491, 6751, 9027, 10945, 11335]}, "edge": {"target": [], "time": []}}, "mouseout": {"state": {"target": ["0", "12", "13", "14", "17", "16", "18", "14", "20", "19", "22"], "time": [3000, 4759, 4832, 4944, 6610, 8860, 10826, 11144, 17125, 17174, 17223]}, "edge": {"target": [], "time": []}}}, "displayed_time": "17.53", "trialTime": 21206, "trial_type": "mouselab-mdp", "trial_index": 48, "time_elapsed": 1568118, "internal_node_id": "0.0-4.0-1.0-39.0"}}, {"uniqueid": "w39798461:a65821013", "current_trial": 49, "dateTime": 1691072594597, "trialdata": {"rt": 47641, "response": {"Q0": "$-2 to $2", "Q1": "$-32 to $32", "Q2": "$-88 to $88", "Q3": "The cost was always $1.4.", "Q4": "Very motivated"}, "question_order": [0, 1, 2, 3, 4], "trial_id": "final_quiz_control", "trial_type": "survey-multi-choice", "trial_index": 49, "time_elapsed": 1616327, "internal_node_id": "0.0-4.0-2.0"}}, {"uniqueid": "w39798461:a65821013", "current_trial": 50, "dateTime": 1691072673967, "trialdata": {"rt": 78769, "response": {"Q0": "I checked all of the nodes at the final steps to find out which one would pay out the most.", "Q1": "Yes, checking the nodes at the end only", "Q2": "Not difficult at all"}, "trial_id": "self_report_control", "trial_type": "survey-text", "trial_index": 50, "time_elapsed": 1695698, "internal_node_id": "0.0-4.0-3.0"}}, {"uniqueid": "w39798461:a65821013", "current_trial": 51, "dateTime": 1691072693274, "trialdata": {"rt": 19067, "response": {"gender": "female", "age": "21", "colorblind": "0", "effort": "0"}, "trial_type": "survey-html-form", "trial_index": 51, "time_elapsed": 1715005, "internal_node_id": "0.0-4.0-4.0"}}, {"uniqueid": "w39798461:a65821013", "current_trial": 52, "dateTime": 1691072733964, "trialdata": {"rt": 40682, "response": {"Q0": "Not at all ", "Q1": "No", "Q2": "Fun game"}, "trial_type": "survey-text", "trial_index": 52, "time_elapsed": 1755695, "internal_node_id": "0.0-4.0-5.0"}}, {"uniqueid": "w39798461:a65821013", "current_trial": 53, "dateTime": 1691072739224, "trialdata": {"rt": 5142, "stimulus": "Press 'Finish HIT' in order to reach the completion code. Once the data has been saved, you will receive the code either in this window or in the original browser window where you started the experiment.\n", "response": 0, "trial_type": "html-button-response", "trial_index": 53, "time_elapsed": 1760955, "internal_node_id": "0.0-5.0"}}, {"uniqueid": "w39798461:a65821013", "current_trial": 54, "dateTime": 1691072740555, "trialdata": {"success": true, "trial_type": "fullscreen", "trial_index": 54, "time_elapsed": 1762286, "internal_node_id": "0.0-6.0"}}], "questiondata": {"params": {"CODE": "C6DMOQA6", "MIN_TIME": 14, "inspectCost": 1, "startTime": "Thu Aug 03 2023 15:56:12 GMT+0200 (South Africa Standard Time)", "bonusRate": 0.002, "variance": "1_2_4_8_44", "branching": "31123"}, "final_score": 235.8}, "eventdata": [{"eventtype": "initialized", "value": null, "timestamp": 1691070970866, "interval": 0}, {"eventtype": "window_resize", "value": [1366, 708], "timestamp": 1691070970866, "interval": 0}, {"eventtype": "window_resize", "value": [1366, 708], "timestamp": 1691070972053, "interval": 1187}, {"eventtype": "window_resize", "value": [1366, 768], "timestamp": 1691070984155, "interval": 12102}], "useragent": "Mozilla/5.0 (Windows NT 10.0; Win64; x64) AppleWebKit/537.36 (KHTML, like Gecko) Chrome/115.0.0.0 Safari/537.36", "mode": "live", "id": "w39798461:a65821013", "status": "user data saved", "Beginhit": "2023-08-03 13:56:01.506275", "Beginexp": "2023-08-03 13:56:27.310691", "Endhit": "2023-08-03 14:26:21.013928", "psiturkStatus": 3, "browser": "<redacted>", "platform": "windows", "language": "en-US"}