{"condition": 1, "counterbalance": 0, "assignmentId": "a71998207", "workerId": "w44570026", "hitId": "h63181660", "currenttrial": 28, "bonus": 0, "data": [{"uniqueid": "w44570026:a71998207", "current_trial": 0, "dateTime": 1693565235168, "trialdata": {"success": true, "trial_type": "fullscreen", "trial_index": 0, "time_elapsed": 5899, "internal_node_id": "0.0-0.0"}}, {"uniqueid": "w44570026:a71998207", "current_trial": 1, "dateTime": 1693565241457, "trialdata": {"view_history": [{"page_index": 0, "viewing_time": 6262}], "rt": 6265, "trial_id": "exp_instructions_misaligned", "trial_type": "instructions", "trial_index": 1, "time_elapsed": 12190, "internal_node_id": "0.0-1.0"}}, {"uniqueid": "w44570026:a71998207", "current_trial": 2, "dateTime": 1693565349040, "trialdata": {"view_history": [{"page_index": 0, "viewing_time": 33990}, {"page_index": 1, "viewing_time": 41260}, {"page_index": 2, "viewing_time": 13388}, {"page_index": 3, "viewing_time": 18934}], "rt": 107572, "trial_id": "mouselab_instructions_1_misaligned", "trial_type": "instructions", "trial_index": 2, "time_elapsed": 119772, "internal_node_id": "0.0-2.0-1.0"}}, {"uniqueid": "w44570026:a71998207", "current_trial": 3, "dateTime": 1693565470988, "trialdata": {"revealed_states": [], "clicked_states": ["12", "13", "14", "19", "20", "22", "21", "1", "3", "4", "6", "10", "8", "9", "11", "23", "25", "28", "29", "27", "26", "30", "31", "32"], "num_clicks_accrued": [0, 0, 0, 0, 0, 0, 0, 0, 0, 0, 0, 0, 0], "stateRewards": ["", 10, -10, 10, -10, -10, -10, 10, 10, -10, -10, -10, 10, -10, 10, 10, 10, 10, 10, 10, 10, 10, -10, -10, -10, 10, 10, -10, 10, -10, -10, -10, -10, -10], "withholdReward": false, "trial_id": "practice_1", "block": "test", "trialIndex": 0, "score": 21.5, "costs": -12, "simulationMode": [null, null, null, null, null], "rewards": [10, -10, 10, 10, 10], "path": ["0", "0", "12", "13", "14", "19", "21"], "rt": [107201, 780, 292, 480, 557], "actions": ["right", "right", "right", "down", "down"], "actionTimes": [111944, 113246, 114053, 115056, 116133], "queries": {"click": {"state": {"target": ["12", "13", "14", "19", "20", "22", "21", "1", "3", "4", "6", "10", "8", "9", "11", "23", "25", "28", "29", "27", "26", "30", "31", "32"], "time": [6197, 7255, 8653, 9977, 11140, 13456, 14670, 16343, 18708, 21150, 22455, 24441, 27079, 28407, 29723, 31781, 33493, 35326, 36357, 38465, 40975, 44361, 45524, 47579]}, "edge": {"target": [], "time": []}}, "mouseover": {"state": {"target": ["12", "13", "14", "19", "20", "21", "22", "21", "19", "14", "15", "15", "1", "2", "3", "4", "6", "4", "6", "3", "8", "10", "11", "8", "9", "11", "27", "28", "24", "23", "24", "25", "26", "28", "26", "29", "27", "26", "26", "28", "25", "30", "31", "0", "12", "32", "12", "13", "14", "22", "12", "0", "19", "16", "15", "22", "21", "22", "13", "18", "12", "0", "23", "18", "21", "22", "19", "21", "21"], "time": [5857, 7004, 7907, 9475, 10655, 12264, 12846, 14098, 15030, 15055, 15101, 15493, 16008, 16768, 18201, 19212, 20206, 20834, 22035, 22883, 22918, 24150, 26593, 26626, 27876, 29427, 30273, 31174, 31385, 31535, 32385, 33197, 34149, 34897, 35884, 35931, 37848, 40037, 40550, 41721, 42688, 43737, 44966, 45766, 45804, 47279, 48510, 49559, 53082, 55963, 57298, 66644, 70251, 75605, 75664, 75801, 78077, 78996, 81113, 82729, 82766, 82998, 83602, 84599, 100219, 101147, 101258, 102225, 103088]}, "edge": {"target": [], "time": []}}, "mouseout": {"state": {"target": ["12", "13", "14", "19", "20", "21", "22", "21", "19", "14", "15", "15", "1", "2", "3", "4", "6", "4", "6", "4", "3", "8", "10", "11", "8", "9", "11", "27", "28", "24", "23", "24", "25", "26", "28", "26", "29", "27", "26", "26", "28", "25", "30", "31", "0", "12", "32", "31", "12", "13", "14", "22", "12", "0", "19", "16", "15", "22", "21", "22", "13", "18", "12", "0", "23", "18", "21", "22", "19", "21", "21"], "time": [6936, 7875, 9240, 10619, 12180, 12692, 13949, 14998, 15048, 15072, 15147, 15562, 16361, 17900, 19173, 20061, 20724, 21936, 22835, 22854, 22902, 24070, 26283, 26612, 27792, 29213, 30239, 31053, 31287, 31416, 32152, 33153, 33833, 34822, 35864, 35914, 37459, 39993, 40207, 41440, 42402, 42928, 44931, 45716, 45784, 46870, 48112, 48162, 49471, 52220, 55844, 55996, 59049, 66676, 70264, 75647, 75680, 75832, 78099, 79026, 81127, 82746, 82779, 83537, 84533, 84617, 100235, 101209, 102112, 102320, 103110]}, "edge": {"target": [], "time": []}}}, "displayed_time": "116.67", "trialTime": 120161, "trial_type": "mouselab-mdp", "trial_index": 3, "time_elapsed": 241719, "internal_node_id": "0.0-2.0-2.0-0.0"}}, {"uniqueid": "w44570026:a71998207", "current_trial": 4, "dateTime": 1693565496008, "trialdata": {"revealed_states": [], "clicked_states": [], "num_clicks_accrued": [0, 0, 0, 0, 0, 0, 0, 0, 0, 0, 0, 0, 0], "stateRewards": ["", -10, -10, 10, 10, 10, 10, 10, -10, -10, 10, -10, 10, -10, -10, 10, 10, -10, 10, -10, -10, 10, 10, -10, 10, 10, -10, -10, 10, -10, -10, -10, -10, 10], "withholdReward": false, "trial_id": "practice_2", "block": "test", "trialIndex": 1, "score": 13.5, "costs": 0, "simulationMode": [null, null, null, null, null], "rewards": [10, -10, -10, 10, 10], "path": ["0", "0", "12", "13", "14", "15", "16"], "rt": [2716, 511, 7511, 1808, 53], "actions": ["right", "right", "right", "up", "up"], "actionTimes": [8199, 9244, 17292, 19630, 20204], "queries": {"click": {"state": {"target": [], "time": []}, "edge": {"target": [], "time": []}}, "mouseover": {"state": {"target": [], "time": []}, "edge": {"target": [], "time": []}}, "mouseout": {"state": {"target": ["12", "13", "12", "0", "13"], "time": [4304, 4538, 4615, 10490, 13430]}, "edge": {"target": [], "time": []}}}, "displayed_time": "20.75", "trialTime": 24161, "trial_type": "mouselab-mdp", "trial_index": 4, "time_elapsed": 266738, "internal_node_id": "0.0-2.0-2.0-1.0"}}, {"uniqueid": "w44570026:a71998207", "current_trial": 5, "dateTime": 1693565529184, "trialdata": {"view_history": [{"page_index": 0, "viewing_time": 24529}, {"page_index": 1, "viewing_time": 8633}], "rt": 33163, "trial_id": "mouselab_instructions_2_misaligned", "trial_type": "instructions", "trial_index": 5, "time_elapsed": 299917, "internal_node_id": "0.0-2.0-3.0"}}, {"uniqueid": "w44570026:a71998207", "current_trial": 6, "dateTime": 1693565562669, "trialdata": {"rt": 33423, "response": {"Q0": "There is no cost for clicking on nodes.", "Q1": "The better I perform the higher my bonus will be.", "Q2": "No, the amount of cash at each node of the web may be different each time.", "Q3": "To get the highest total score.", "Q4": "Only before moving the spider.", "Q5": "3 seconds"}, "question_order": [0, 1, 2, 3, 4, 5], "correct": {"Q0": "The cost for clicking on nodes may vary between nodes.", "Q1": "The better I perform the higher my bonus will be.", "Q2": "No, the amount of cash at each node of the web may be different each time.", "Q3": "To get the highest total score.", "Q4": "Only before moving the spider.", "Q5": "3 seconds"}, "trial_id": "mouselab_quiz_misaligned", "trial_type": "survey-multi-choice", "trial_index": 6, "time_elapsed": 333401, "internal_node_id": "0.0-2.0-4.0"}}, {"uniqueid": "w44570026:a71998207", "current_trial": 7, "dateTime": 1693565576030, "trialdata": {"success": true, "trial_type": "fullscreen", "trial_index": 7, "time_elapsed": 346762, "internal_node_id": "0.0-2.1-0.1-0.1"}}, {"uniqueid": "w44570026:a71998207", "current_trial": 8, "dateTime": 1693565695002, "trialdata": {"view_history": [{"page_index": 0, "viewing_time": 29539}, {"page_index": 1, "viewing_time": 23911}, {"page_index": 2, "viewing_time": 20159}, {"page_index": 3, "viewing_time": 45357}], "rt": 118966, "trial_id": "mouselab_instructions_1_misaligned", "trial_type": "instructions", "trial_index": 8, "time_elapsed": 465734, "internal_node_id": "0.0-2.1-1.1"}}, {"uniqueid": "w44570026:a71998207", "current_trial": 9, "dateTime": 1693565736756, "trialdata": {"revealed_states": [], "clicked_states": ["12", "13", "14", "19", "15", "18", "1", "3", "9", "23", "25", "27"], "num_clicks_accrued": [0, 0, 0, 0, 0, 0, 0, 0, 0, 0, 0, 0, 0], "stateRewards": ["", 10, -10, 10, -10, -10, -10, 10, 10, -10, -10, -10, 10, -10, 10, 10, 10, 10, 10, 10, 10, 10, -10, -10, -10, 10, 10, -10, 10, -10, -10, -10, -10, -10], "withholdReward": false, "trial_id": "practice_1", "block": "test", "trialIndex": 2, "score": -32.5, "costs": -6, "simulationMode": [null, null, null, null, null], "rewards": [-10, -10, 10, -10, -10], "path": ["0", "0", "23", "24", "25", "30", "32"], "rt": [25244, 364, 966, 1857, 41], "actions": ["left", "left", "left", "down", "down"], "actionTimes": [28727, 29619, 31103, 33474, 34035], "queries": {"click": {"state": {"target": ["12", "13", "14", "19", "15", "18", "1", "3", "9", "23", "25", "27"], "time": [8138, 9664, 12663, 13719, 16083, 17933, 19138, 21051, 22598, 24546, 25871, 27194]}, "edge": {"target": [], "time": []}}, "mouseover": {"state": {"target": ["0", "12", "13", "14", "19", "21", "15", "16", "18", "1", "2", "3", "8", "9", "10", "28", "24", "23", "24", "25", "26", "27"], "time": [5391, 5525, 9309, 12359, 13158, 14057, 15726, 16487, 17477, 18957, 19566, 20576, 21462, 22222, 23207, 23467, 24073, 24153, 24890, 25586, 26188, 26753]}, "edge": {"target": [], "time": []}}, "mouseout": {"state": {"target": ["0", "0", "12", "13", "14", "19", "21", "19", "14", "15", "16", "18", "1", "2", "3", "8", "9", "10", "28", "24", "23", "24", "25", "26", "27"], "time": [2457, 5414, 9064, 10269, 13125, 13991, 15125, 15151, 15408, 16204, 17320, 18382, 19247, 20484, 21362, 22207, 23109, 23345, 23748, 24103, 24839, 25472, 26071, 26672, 27475]}, "edge": {"target": [], "time": []}}}, "displayed_time": "34.58", "trialTime": 40915, "trial_type": "mouselab-mdp", "trial_index": 9, "time_elapsed": 507487, "internal_node_id": "0.0-2.1-2.1-0.1"}}, {"uniqueid": "w44570026:a71998207", "current_trial": 10, "dateTime": 1693565763181, "trialdata": {"revealed_states": [], "clicked_states": ["12", "14", "18", "2", "3", "11", "9"], "num_clicks_accrued": [0, 0, 0, 0, 0, 0, 0, 0, 0, 0, 0, 0, 0], "stateRewards": ["", -10, -10, 10, 10, 10, 10, 10, -10, -10, 10, -10, 10, -10, -10, 10, 10, -10, 10, -10, -10, 10, 10, -10, 10, 10, -10, -10, 10, -10, -10, -10, -10, 10], "withholdReward": false, "trial_id": "practice_2", "block": "test", "trialIndex": 3, "score": -10, "costs": -3.5, "simulationMode": [null, null, null, null, null], "rewards": [-10, 10, 10, -10, -10], "path": ["0", "0", "23", "24", "25", "26", "27"], "rt": [12477, 704, 126, 1937, 342], "actions": ["left", "left", "left", "up", "up"], "actionTimes": [14683, 15957, 16612, 19070, 19940], "queries": {"click": {"state": {"target": ["12", "14", "18", "2", "3", "11", "9"], "time": [4198, 5760, 7139, 8679, 9908, 11142, 12334]}, "edge": {"target": [], "time": []}}, "mouseover": {"state": {"target": ["12", "13", "14", "15", "18", "1", "1", "2", "3", "8", "11", "9"], "time": [3806, 4687, 5330, 6147, 6828, 7530, 7895, 8374, 9659, 10194, 10841, 12267]}, "edge": {"target": [], "time": []}}, "mouseout": {"state": {"target": ["12", "0", "12", "13", "14", "15", "18", "18", "1", "1", "2", "3", "8", "11", "9"], "time": [1135, 1401, 4581, 5324, 6082, 6790, 7156, 7496, 7596, 8324, 9293, 10159, 10792, 11788, 12789]}, "edge": {"target": [], "time": []}}}, "displayed_time": "20.46", "trialTime": 25569, "trial_type": "mouselab-mdp", "trial_index": 10, "time_elapsed": 533912, "internal_node_id": "0.0-2.1-2.1-1.1"}}, {"uniqueid": "w44570026:a71998207", "current_trial": 11, "dateTime": 1693565793367, "trialdata": {"view_history": [{"page_index": 0, "viewing_time": 28092}, {"page_index": 1, "viewing_time": 2078}], "rt": 30171, "trial_id": "mouselab_instructions_2_misaligned", "trial_type": "instructions", "trial_index": 11, "time_elapsed": 564100, "internal_node_id": "0.0-2.1-3.1"}}, {"uniqueid": "w44570026:a71998207", "current_trial": 12, "dateTime": 1693565923838, "trialdata": {"rt": 130456, "response": {"Q0": "The cost for clicking on nodes may vary between nodes.", "Q1": "I will receive a $1 bonus if I perform well, otherwise I will receive no bonus.", "Q2": "No, the amount of cash at each node of the web may be different each time.", "Q3": "To get the highest total score.", "Q4": "Only before moving the spider.", "Q5": "3 seconds"}, "question_order": [0, 1, 2, 3, 4, 5], "correct": {"Q0": "The cost for clicking on nodes may vary between nodes.", "Q1": "The better I perform the higher my bonus will be.", "Q2": "No, the amount of cash at each node of the web may be different each time.", "Q3": "To get the highest total score.", "Q4": "Only before moving the spider.", "Q5": "3 seconds"}, "trial_id": "mouselab_quiz_misaligned", "trial_type": "survey-multi-choice", "trial_index": 12, "time_elapsed": 694571, "internal_node_id": "0.0-2.1-4.1"}}, {"uniqueid": "w44570026:a71998207", "current_trial": 13, "dateTime": 1693565945317, "trialdata": {"success": true, "trial_type": "fullscreen", "trial_index": 13, "time_elapsed": 716050, "internal_node_id": "0.0-2.2-0.2-0.2"}}, {"uniqueid": "w44570026:a71998207", "current_trial": 14, "dateTime": 1693565961314, "trialdata": {"view_history": [{"page_index": 0, "viewing_time": 4722}, {"page_index": 1, "viewing_time": 7417}, {"page_index": 2, "viewing_time": 2250}, {"page_index": 3, "viewing_time": 1600}], "rt": 15990, "trial_id": "mouselab_instructions_1_misaligned", "trial_type": "instructions", "trial_index": 14, "time_elapsed": 732047, "internal_node_id": "0.0-2.2-1.2"}}, {"uniqueid": "w44570026:a71998207", "current_trial": 15, "dateTime": 1693565996230, "trialdata": {"revealed_states": [], "clicked_states": ["12", "14", "16", "1", "3", "5", "23", "25", "27", "30", "32"], "num_clicks_accrued": [0, 0, 0, 0, 0, 0, 0, 0, 0, 0, 0, 0, 0], "stateRewards": ["", 10, -10, 10, -10, -10, -10, 10, 10, -10, -10, -10, 10, -10, 10, 10, 10, 10, 10, 10, 10, 10, -10, -10, -10, 10, 10, -10, 10, -10, -10, -10, -10, -10], "withholdReward": false, "trial_id": "practice_1", "block": "test", "trialIndex": 4, "score": -32, "costs": -5.5, "simulationMode": [null, null, null, null, null], "rewards": [-10, -10, 10, -10, -10], "path": ["0", "0", "23", "24", "25", "30", "32"], "rt": [20562, 490, 74, 1268, 195], "actions": ["left", "left", "left", "down", "down"], "actionTimes": [23449, 24453, 25068, 26877, 27619], "queries": {"click": {"state": {"target": ["12", "14", "16", "1", "3", "5", "23", "25", "27", "30", "32"], "time": [6721, 8136, 9859, 11219, 12534, 14137, 15731, 17119, 18509, 20261, 21309]}, "edge": {"target": [], "time": []}}, "mouseover": {"state": {"target": ["12", "0", "12", "12", "13", "14", "15", "16", "18", "1", "2", "3", "4", "5", "23", "23", "24", "25", "26", "27", "26", "30", "32", "24", "23", "0"], "time": [4123, 4758, 5791, 6058, 7251, 7814, 8618, 9509, 10180, 10975, 11584, 12210, 13009, 13737, 15267, 15553, 16254, 16719, 17385, 18068, 18881, 20016, 21228, 21679, 22297, 22391]}, "edge": {"target": [], "time": []}}, "mouseout": {"state": {"target": ["0", "12", "0", "12", "12", "13", "14", "15", "16", "18", "1", "2", "3", "3", "4", "5", "1", "23", "23", "24", "25", "26", "27", "27", "26", "25", "30", "32", "24", "23", "0", "13", "22"], "time": [3835, 4725, 4955, 5819, 7218, 7782, 8545, 9481, 10137, 10213, 11496, 12126, 12698, 12940, 13703, 14589, 15070, 15317, 16138, 16652, 17244, 18031, 18630, 18833, 19399, 19498, 20829, 21438, 22262, 22340, 33276, 33380, 33423]}, "edge": {"target": [], "time": []}}}, "displayed_time": "28.14", "trialTime": 34194, "trial_type": "mouselab-mdp", "trial_index": 15, "time_elapsed": 766963, "internal_node_id": "0.0-2.2-2.2-0.2"}}, {"uniqueid": "w44570026:a71998207", "current_trial": 16, "dateTime": 1693566032810, "trialdata": {"revealed_states": [], "clicked_states": ["12", "13", "19", "21", "20", "15", "16", "1", "2", "4", "5"], "num_clicks_accrued": [0, 0, 0, 0, 0, 0, 0, 0, 0, 0, 0, 0, 0], "stateRewards": ["", -10, -10, 10, 10, 10, 10, 10, -10, -10, 10, -10, 10, -10, -10, 10, 10, -10, 10, -10, -10, 10, 10, -10, 10, 10, -10, -10, 10, -10, -10, -10, -10, 10], "withholdReward": false, "trial_id": "practice_2", "block": "test", "trialIndex": 5, "score": 8, "costs": -5.5, "simulationMode": [null, null, null, null, null], "rewards": [-10, -10, 10, 10, 10], "path": ["0", "0", "1", "2", "3", "4", "7"], "rt": [19983, 969, 294, 2917, 1375], "actions": ["up", "up", "up", "right", "down"], "actionTimes": [21711, 23202, 24041, 27480, 29381], "queries": {"click": {"state": {"target": ["12", "13", "19", "21", "20", "15", "16", "1", "2", "4", "5"], "time": [4835, 6779, 8644, 9995, 11062, 12249, 13302, 15164, 16808, 18342, 19375]}, "edge": {"target": [], "time": []}}, "mouseover": {"state": {"target": ["12", "0", "12", "13", "13", "14", "19", "21", "20", "15", "16", "18", "1", "2", "3", "4", "5"], "time": [3340, 3769, 4384, 6261, 6558, 7318, 8345, 9648, 10679, 11864, 12892, 13707, 14810, 16493, 17436, 18081, 19166]}, "edge": {"target": [], "time": []}}, "mouseout": {"state": {"target": ["0", "12", "0", "12", "13", "13", "14", "19", "21", "20", "15", "16", "18", "1", "2", "3", "4", "5"], "time": [1060, 3728, 4335, 5555, 6350, 7252, 8316, 9531, 10363, 11511, 12809, 13625, 14726, 15657, 16921, 18031, 18817, 19665]}, "edge": {"target": [], "time": []}}}, "displayed_time": "29.92", "trialTime": 35843, "trial_type": "mouselab-mdp", "trial_index": 16, "time_elapsed": 803541, "internal_node_id": "0.0-2.2-2.2-1.2"}}, {"uniqueid": "w44570026:a71998207", "current_trial": 17, "dateTime": 1693566059733, "trialdata": {"view_history": [{"page_index": 0, "viewing_time": 24803}, {"page_index": 1, "viewing_time": 2104}], "rt": 26909, "trial_id": "mouselab_instructions_2_misaligned", "trial_type": "instructions", "trial_index": 17, "time_elapsed": 830466, "internal_node_id": "0.0-2.2-3.2"}}, {"uniqueid": "w44570026:a71998207", "current_trial": 18, "dateTime": 1693566091543, "trialdata": {"rt": 31795, "response": {"Q0": "There is no cost for clicking on nodes.", "Q1": "The better I perform the higher my bonus will be.", "Q2": "No, the amount of cash at each node of the web may be different each time.", "Q3": "To get the highest total score.", "Q4": "Only before moving the spider.", "Q5": "3 seconds"}, "question_order": [0, 1, 2, 3, 4, 5], "correct": {"Q0": "The cost for clicking on nodes may vary between nodes.", "Q1": "The better I perform the higher my bonus will be.", "Q2": "No, the amount of cash at each node of the web may be different each time.", "Q3": "To get the highest total score.", "Q4": "Only before moving the spider.", "Q5": "3 seconds"}, "trial_id": "mouselab_quiz_misaligned", "trial_type": "survey-multi-choice", "trial_index": 18, "time_elapsed": 862276, "internal_node_id": "0.0-2.2-4.2"}}, {"uniqueid": "w44570026:a71998207", "current_trial": 19, "dateTime": 1693566096804, "trialdata": {"success": true, "trial_type": "fullscreen", "trial_index": 19, "time_elapsed": 867537, "internal_node_id": "0.0-2.3-0.3-0.3"}}, {"uniqueid": "w44570026:a71998207", "current_trial": 20, "dateTime": 1693566221384, "trialdata": {"view_history": [{"page_index": 0, "viewing_time": 4495}, {"page_index": 1, "viewing_time": 117628}, {"page_index": 2, "viewing_time": 959}, {"page_index": 3, "viewing_time": 1489}], "rt": 124572, "trial_id": "mouselab_instructions_1_misaligned", "trial_type": "instructions", "trial_index": 20, "time_elapsed": 992116, "internal_node_id": "0.0-2.3-1.3"}}, {"uniqueid": "w44570026:a71998207", "current_trial": 21, "dateTime": 1693566238333, "trialdata": {"revealed_states": [], "clicked_states": ["12", "13", "15"], "num_clicks_accrued": [0, 0, 0, 0, 0, 0, 0, 0, 0, 0, 0, 0, 0], "stateRewards": ["", 10, -10, 10, -10, -10, -10, 10, 10, -10, -10, -10, 10, -10, 10, 10, 10, 10, 10, 10, 10, 10, -10, -10, -10, 10, 10, -10, 10, -10, -10, -10, -10, -10], "withholdReward": false, "trial_id": "practice_1", "block": "test", "trialIndex": 6, "score": -8, "costs": -1.5, "simulationMode": [null, null, null, null, null], "rewards": [-10, -10, 10, 10, -10], "path": ["0", "0", "23", "24", "25", "26", "27"], "rt": [5832, 394, 6, 1042, 61], "actions": ["left", "left", "left", "up", "up"], "actionTimes": [8810, 9732, 10260, 11877, 12471], "queries": {"click": {"state": {"target": ["12", "13", "15"], "time": [4375, 5413, 6736]}, "edge": {"target": [], "time": []}}, "mouseover": {"state": {"target": ["0", "12", "13", "14", "15", "15"], "time": [3020, 3823, 5170, 5737, 6189, 6501]}, "edge": {"target": [], "time": []}}, "mouseout": {"state": {"target": ["22", "21", "0", "0", "12", "13", "14", "15"], "time": [733, 794, 1878, 3744, 4913, 5650, 6150, 6236]}, "edge": {"target": [], "time": []}}}, "displayed_time": "13.00", "trialTime": 16041, "trial_type": "mouselab-mdp", "trial_index": 21, "time_elapsed": 1009064, "internal_node_id": "0.0-2.3-2.3-0.3"}}, {"uniqueid": "w44570026:a71998207", "current_trial": 22, "dateTime": 1693566266959, "trialdata": {"revealed_states": [], "clicked_states": ["12", "13", "14", "15", "16", "18", "17", "20", "21", "22"], "num_clicks_accrued": [0, 0, 0, 0, 0, 0, 0, 0, 0, 0, 0, 0, 0], "stateRewards": ["", -10, -10, 10, 10, 10, 10, 10, -10, -10, 10, -10, 10, -10, -10, 10, 10, -10, 10, -10, -10, 10, 10, -10, 10, 10, -10, -10, 10, -10, -10, -10, -10, 10], "withholdReward": false, "trial_id": "practice_2", "block": "test", "trialIndex": 7, "score": 8.5, "costs": -5, "simulationMode": [null, null, null, null, null], "rewards": [10, -10, -10, 10, 10], "path": ["0", "0", "12", "13", "14", "15", "16"], "rt": [16715, 282, 243, 934, 824], "actions": ["right", "right", "right", "up", "up"], "actionTimes": [20844, 21657, 22417, 23872, 25211], "queries": {"click": {"state": {"target": ["12", "13", "14", "15", "16", "18", "17", "20", "21", "22"], "time": [6431, 7525, 8822, 9864, 11130, 12564, 14087, 15551, 17065, 18490]}, "edge": {"target": [], "time": []}}, "mouseover": {"state": {"target": ["12", "13", "14", "15", "16", "18", "18", "17", "20", "21", "22"], "time": [5882, 7109, 8415, 9305, 10438, 11853, 12069, 13516, 14931, 16462, 17664]}, "edge": {"target": [], "time": []}}, "mouseout": {"state": {"target": ["15", "16", "7", "0", "0", "12", "12", "13", "14", "15", "16", "18", "18", "17", "20", "20", "21"], "time": [2435, 2550, 2685, 2916, 5561, 6574, 6899, 8024, 9300, 10020, 11666, 11952, 13201, 14632, 15693, 16378, 17476]}, "edge": {"target": [], "time": []}}}, "displayed_time": "25.73", "trialTime": 27699, "trial_type": "mouselab-mdp", "trial_index": 22, "time_elapsed": 1037690, "internal_node_id": "0.0-2.3-2.3-1.3"}}, {"uniqueid": "w44570026:a71998207", "current_trial": 23, "dateTime": 1693566278275, "trialdata": {"view_history": [{"page_index": 0, "viewing_time": 8030}, {"page_index": 1, "viewing_time": 3272}], "rt": 11304, "trial_id": "mouselab_instructions_2_misaligned", "trial_type": "instructions", "trial_index": 23, "time_elapsed": 1049008, "internal_node_id": "0.0-2.3-3.3"}}, {"uniqueid": "w44570026:a71998207", "current_trial": 24, "dateTime": 1693566305331, "trialdata": {"rt": 27044, "response": {"Q0": "The cost for clicking on nodes may vary between nodes.", "Q1": "I will receive a $1 bonus if I perform well, otherwise I will receive no bonus.", "Q2": "No, the amount of cash at each node of the web may be different each time.", "Q3": "To get the highest total score.", "Q4": "Only before moving the spider.", "Q5": "3 seconds"}, "question_order": [0, 1, 2, 3, 4, 5], "correct": {"Q0": "The cost for clicking on nodes may vary between nodes.", "Q1": "The better I perform the higher my bonus will be.", "Q2": "No, the amount of cash at each node of the web may be different each time.", "Q3": "To get the highest total score.", "Q4": "Only before moving the spider.", "Q5": "3 seconds"}, "trial_id": "mouselab_quiz_misaligned", "trial_type": "survey-multi-choice", "trial_index": 24, "time_elapsed": 1076064, "internal_node_id": "0.0-2.3-4.3"}}, {"uniqueid": "w44570026:a71998207", "current_trial": 25, "dateTime": 1693566350165, "trialdata": {"rt": 44801, "response": {"Q0": "", "Q1": "67", "Q2": "female", "Q3": "no", "Q4": ""}, "trial_id": "finish_fail", "trial_type": "survey-text", "trial_index": 25, "time_elapsed": 1120897, "internal_node_id": "0.0-3.0-0.0"}}, {"uniqueid": "w44570026:a71998207", "current_trial": 26, "dateTime": 1693566407139, "trialdata": {"rt": 56959, "stimulus": "<h1>Completion Code Instructions (1/2)</h1>\n<br><br><br><br>\nYou have reached the end of the experiment! The completion code consists of two parts: (1) a code with 2 characters (2) a code with 6 characters. On this page, you will receive the second part of the code. The first part of the completion code will be on the next page.\n<br><br>\nThe second part of your completion code is: <b>AYIWIP</b>\n<br><br>\nPlease note this down. Then, press 'Finish HIT' in order to find the first part of your completion code. Once the data has been saved, you will receive this code either in this window or in the original browser window where you started the experiment.\n", "response": 0, "trial_type": "html-button-response", "trial_index": 26, "time_elapsed": 1177872, "internal_node_id": "0.0-3.0-1.0"}}, {"uniqueid": "w44570026:a71998207", "current_trial": 27, "dateTime": 1693566408170, "trialdata": {"success": true, "trial_type": "fullscreen", "trial_index": 27, "time_elapsed": 1178903, "internal_node_id": "0.0-7.0"}}], "questiondata": {"params": {"CODE": "C6DMOQA6", "MIN_TIME": 14, "inspectCost": 1, "startTime": "Fri Sep 01 2023 11:47:07 GMT+0100 (British Summer Time)", "bonusRate": 0.002, "variance": "1_2_4_8_44", "branching": "31123"}, "final_score": 0}, "eventdata": [{"eventtype": "initialized", "value": null, "timestamp": 1693565227020, "interval": 0}, {"eventtype": "window_resize", "value": [1024, 767], "timestamp": 1693565227020, "interval": 0}, {"eventtype": "window_resize", "value": [1024, 767], "timestamp": 1693565227618, "interval": 598}, {"eventtype": "window_resize", "value": [1600, 807], "timestamp": 1693565232798, "interval": 5180}, {"eventtype": "window_resize", "value": [1600, 900], "timestamp": 1693565234743, "interval": 1945}, {"eventtype": "focus", "value": "off", "timestamp": 1693565571117, "interval": 336374}, {"eventtype": "focus", "value": "on", "timestamp": 1693565571118, "interval": 1}, {"eventtype": "window_resize", "value": [1600, 807], "timestamp": 1693565571366, "interval": 248}, {"eventtype": "window_resize", "value": [1600, 900], "timestamp": 1693565575269, "interval": 3903}, {"eventtype": "focus", "value": "off", "timestamp": 1693565578845, "interval": 3576}, {"eventtype": "window_resize", "value": [1600, 899], "timestamp": 1693565579053, "interval": 208}, {"eventtype": "focus", "value": "on", "timestamp": 1693565579165, "interval": 112}, {"eventtype": "window_resize", "value": [1600, 900], "timestamp": 1693565579373, "interval": 208}, {"eventtype": "focus", "value": "off", "timestamp": 1693565581702, "interval": 2329}, {"eventtype": "window_resize", "value": [1600, 899], "timestamp": 1693565581957, "interval": 255}, {"eventtype": "focus", "value": "on", "timestamp": 1693565582098, "interval": 141}, {"eventtype": "window_resize", "value": [1600, 900], "timestamp": 1693565582325, "interval": 227}, {"eventtype": "focus", "value": "off", "timestamp": 1693565942325, "interval": 360000}, {"eventtype": "focus", "value": "on", "timestamp": 1693565942325, "interval": 0}, {"eventtype": "window_resize", "value": [1600, 807], "timestamp": 1693565942549, "interval": 224}, {"eventtype": "window_resize", "value": [1600, 900], "timestamp": 1693565944556, "interval": 2007}, {"eventtype": "focus", "value": "off", "timestamp": 1693566094428, "interval": 149872}, {"eventtype": "focus", "value": "on", "timestamp": 1693566094429, "interval": 1}, {"eventtype": "window_resize", "value": [1600, 807], "timestamp": 1693566094660, "interval": 231}, {"eventtype": "window_resize", "value": [1600, 900], "timestamp": 1693566096035, "interval": 1375}, {"eventtype": "window_resize", "value": [1600, 807], "timestamp": 1693566407387, "interval": 311352}], "useragent": "Mozilla/5.0 (Windows NT 6.1; Win64; x64) AppleWebKit/537.36 (KHTML, like Gecko) Chrome/109.0.0.0 Safari/537.36 Edg/109.0.1518.115", "mode": "live", "id": "w44570026:a71998207", "status": "user data saved", "Beginhit": "2023-09-01 10:46:58.678079", "Beginexp": "2023-09-01 10:47:15.313542", "Endhit": "2023-09-01 11:06:48.76", "psiturkStatus": 3, "browser": "<redacted>", "platform": "windows", "language": "en-US", "excludeReason": "quizfail"}