{"condition": 0, "counterbalance": 0, "assignmentId": "a66812973", "workerId": "w16028919", "hitId": "h59441281", "currenttrial": 13, "bonus": 0, "data": [{"uniqueid": "w16028919:a66812973", "current_trial": 0, "dateTime": 1693580060056, "trialdata": {"success": true, "trial_type": "fullscreen", "trial_index": 0, "time_elapsed": 8482, "internal_node_id": "0.0-0.0"}}, {"uniqueid": "w16028919:a66812973", "current_trial": 1, "dateTime": 1693580064485, "trialdata": {"view_history": [{"page_index": 0, "viewing_time": 4424}], "rt": 4424, "trial_id": "exp_instructions_control", "trial_type": "instructions", "trial_index": 1, "time_elapsed": 12911, "internal_node_id": "0.0-1.0"}}, {"uniqueid": "w16028919:a66812973", "current_trial": 2, "dateTime": 1693580178887, "trialdata": {"view_history": [{"page_index": 0, "viewing_time": 37884}, {"page_index": 1, "viewing_time": 58055}, {"page_index": 2, "viewing_time": 7645}, {"page_index": 3, "viewing_time": 10815}], "rt": 114399, "trial_id": "mouselab_instructions_1_control", "trial_type": "instructions", "trial_index": 2, "time_elapsed": 127312, "internal_node_id": "0.0-2.0-1.0"}}, {"uniqueid": "w16028919:a66812973", "current_trial": 3, "dateTime": 1693580258233, "trialdata": {"revealed_states": [], "clicked_states": ["25", "23", "12", "13", "14", "15", "16", "17", "19", "21", "30", "24", "32", "1", "2", "7", "4", "8", "10"], "num_clicks_accrued": [0, 0, 0, 0, 0, 0, 0, 0, 0, 0, 0, 0, 0], "stateRewards": ["", -10, 10, -10, -10, 10, -10, 10, 10, 10, -10, 10, 10, 10, 10, -10, -10, -10, 10, -10, -10, 10, -10, -10, -10, -10, -10, 10, -10, 10, -10, 10, 10, 10], "withholdReward": false, "trial_id": "practice_1", "block": "test", "trialIndex": 0, "score": -36, "costs": -9.5, "simulationMode": [null, null, null, null, null], "rewards": [-10, -10, -10, -10, 10], "path": ["0", "0", "23", "24", "25", "30", "32"], "rt": [62928, 566, 384, 425, 598], "actions": ["left", "left", "left", "down", "down"], "actionTimes": [68033, 69144, 70063, 71038, 72164], "queries": {"click": {"state": {"target": ["25", "23", "12", "13", "14", "15", "16", "17", "19", "21", "30", "24", "32", "1", "2", "7", "4", "8", "10"], "time": [11910, 14075, 16090, 20836, 23804, 25223, 27914, 29889, 31187, 32567, 34222, 37607, 41519, 49610, 51626, 54616, 58316, 59796, 61681]}, "edge": {"target": [], "time": []}}, "mouseover": {"state": {"target": ["0", "23", "24", "25", "24", "23", "12", "13", "14", "15", "18", "16", "17", "19", "20", "21", "31", "30", "32", "23", "0", "23", "24", "25", "30", "23", "25", "25", "30", "32", "33", "30", "24", "23", "23", "24", "25", "24", "23", "31", "32", "30", "28", "1", "2", "7", "4", "3", "8", "11", "10", "10"], "time": [7313, 10795, 11160, 11610, 13192, 13692, 15740, 17067, 23167, 24698, 26017, 26614, 28970, 30851, 31680, 32237, 33468, 33731, 34752, 35675, 36025, 36104, 37423, 38495, 38889, 39155, 39864, 40104, 40254, 40586, 42008, 42918, 42994, 43038, 43600, 43677, 43781, 44192, 44295, 45768, 46501, 48779, 48913, 49345, 50156, 52328, 57690, 58855, 59656, 60569, 61269, 61468]}, "edge": {"target": [], "time": []}}, "mouseout": {"state": {"target": ["0", "0", "23", "24", "25", "24", "23", "23", "12", "13", "14", "15", "15", "18", "16", "16", "17", "19", "20", "21", "21", "31", "30", "30", "32", "30", "23", "0", "23", "24", "25", "30", "23", "24", "25", "25", "30", "32", "33", "30", "24", "23", "23", "24", "25", "24", "23", "31", "32", "30", "28", "1", "2", "7", "2", "7", "4", "3", "8", "11", "10", "10", "23"], "time": [4401, 8074, 11027, 11560, 12786, 13543, 14515, 15309, 16231, 21969, 24002, 25416, 25905, 26547, 28094, 28596, 30505, 31627, 32183, 32652, 33110, 33581, 34372, 34633, 35441, 35623, 35701, 36050, 37305, 38192, 38648, 39071, 39504, 39836, 39916, 40187, 40503, 41701, 42851, 42944, 43036, 43083, 43627, 43728, 44166, 44241, 45149, 46215, 48526, 48807, 48962, 50000, 52223, 54953, 56423, 56889, 58805, 59488, 60227, 61085, 61318, 62166, 76707]}, "edge": {"target": [], "time": []}}}, "displayed_time": "72.68", "trialTime": 78445, "trial_type": "mouselab-mdp", "trial_index": 3, "time_elapsed": 206659, "internal_node_id": "0.0-2.0-2.0-0.0"}}, {"uniqueid": "w16028919:a66812973", "current_trial": 4, "dateTime": 1693580286513, "trialdata": {"revealed_states": [], "clicked_states": [], "num_clicks_accrued": [0, 0, 0, 0, 0, 0, 0, 0, 0, 0, 0, 0, 0], "stateRewards": ["", 10, -10, -10, 10, -10, 10, -10, 10, -10, 10, 10, 10, 10, -10, 10, -10, 10, -10, -10, -10, -10, -10, 10, 10, 10, -10, -10, -10, 10, -10, -10, -10, -10], "withholdReward": false, "trial_id": "practice_2", "block": "test", "trialIndex": 1, "score": -6.5, "costs": 0, "simulationMode": [null, null, null, null, null], "rewards": [10, -10, -10, 10, -10], "path": ["0", "0", "1", "2", "3", "8", "9"], "rt": [17276, 613, 390, 394, 296], "actions": ["up", "up", "up", "left", "up"], "actionTimes": [20341, 21507, 22432, 23363, 24191], "queries": {"click": {"state": {"target": [], "time": []}, "edge": {"target": [], "time": []}}, "mouseover": {"state": {"target": ["23", "24", "25", "24", "23", "0", "12", "1", "2", "3", "8", "11", "9", "2", "1", "1", "2", "1", "0"], "time": [6375, 6698, 6982, 7465, 7996, 8695, 8795, 10110, 10528, 10868, 11387, 11436, 11809, 12259, 12332, 13174, 14807, 15057, 15975]}, "edge": {"target": [], "time": []}}, "mouseout": {"state": {"target": ["0", "23", "24", "25", "24", "23", "0", "12", "1", "2", "3", "8", "11", "9", "2", "1", "1", "2", "1", "0"], "time": [2533, 6648, 6849, 7348, 7814, 8239, 8763, 9661, 10478, 10843, 11359, 11434, 11743, 12192, 12282, 12475, 14557, 14990, 15207, 16041]}, "edge": {"target": [], "time": []}}}, "displayed_time": "24.71", "trialTime": 27673, "trial_type": "mouselab-mdp", "trial_index": 4, "time_elapsed": 234939, "internal_node_id": "0.0-2.0-2.0-1.0"}}, {"uniqueid": "w16028919:a66812973", "current_trial": 5, "dateTime": 1693580345346, "trialdata": {"view_history": [{"page_index": 0, "viewing_time": 26285}, {"page_index": 1, "viewing_time": 16175}, {"page_index": 0, "viewing_time": 13704}, {"page_index": 1, "viewing_time": 2664}], "rt": 58828, "trial_id": "mouselab_instructions_2_control", "trial_type": "instructions", "trial_index": 5, "time_elapsed": 293771, "internal_node_id": "0.0-2.0-3.0"}}, {"uniqueid": "w16028919:a66812973", "current_trial": 6, "dateTime": 1693580403301, "trialdata": {"rt": 57942, "response": {"Q0": "The cost for clicking on nodes may vary between nodes.", "Q1": "The better I perform the higher my bonus will be.", "Q2": "No, the amount of cash at each node of the web may be different each time.", "Q3": "To click on the least number of nodes.", "Q4": "Any time during the round.", "Q5": "10 seconds"}, "question_order": [0, 1, 2, 3, 4, 5], "correct": {"Q0": "The cost for clicking on nodes may vary between nodes.", "Q1": "The better I perform the higher my bonus will be.", "Q2": "No, the amount of cash at each node of the web may be different each time.", "Q3": "To get the highest total score.", "Q4": "Only before moving the spider.", "Q5": "3 seconds"}, "trial_id": "mouselab_quiz_control", "trial_type": "survey-multi-choice", "trial_index": 6, "time_elapsed": 351727, "internal_node_id": "0.0-2.0-4.0"}}, {"uniqueid": "w16028919:a66812973", "current_trial": 7, "dateTime": 1693580411003, "trialdata": {"success": true, "trial_type": "fullscreen", "trial_index": 7, "time_elapsed": 359429, "internal_node_id": "0.0-2.1-0.1-0.1"}}, {"uniqueid": "w16028919:a66812973", "current_trial": 8, "dateTime": 1693580546693, "trialdata": {"view_history": [{"page_index": 0, "viewing_time": 56058}, {"page_index": 1, "viewing_time": 47657}, {"page_index": 2, "viewing_time": 13975}, {"page_index": 3, "viewing_time": 17998}], "rt": 135688, "trial_id": "mouselab_instructions_1_control", "trial_type": "instructions", "trial_index": 8, "time_elapsed": 495119, "internal_node_id": "0.0-2.1-1.1"}}, {"uniqueid": "w16028919:a66812973", "current_trial": 9, "dateTime": 1693580565978, "trialdata": {"revealed_states": [], "clicked_states": ["23"], "num_clicks_accrued": [0, 0, 0, 0, 0, 0, 0, 0, 0, 0, 0, 0, 0], "stateRewards": ["", -10, 10, -10, -10, 10, -10, 10, 10, 10, -10, 10, 10, 10, 10, -10, -10, -10, 10, -10, -10, 10, -10, -10, -10, -10, -10, 10, -10, 10, -10, 10, 10, 10], "withholdReward": false, "trial_id": "practice_1", "block": "test", "trialIndex": 2, "score": -27, "costs": -0.5, "simulationMode": [null, null, null, null, null, null], "rewards": [-10, -10, -10, -10, 10], "path": ["0", "0", "23", "24", "25", "26", "27"], "rt": [5017, 917, 508, 1584, 1217, 1005], "actions": ["left", "left", "left", "left", "up", "up"], "actionTimes": [7741, 8663, 9714, 11851, 13606, 15172], "queries": {"click": {"state": {"target": ["23"], "time": [6836]}, "edge": {"target": [], "time": []}}, "mouseover": {"state": {"target": ["0", "23", "24"], "time": [3473, 4055, 7504]}, "edge": {"target": [], "time": []}}, "mouseout": {"state": {"target": ["0", "0", "23", "24", "25", "26", "27", "24"], "time": [2256, 3571, 7306, 10624, 12571, 14209, 15775, 15929]}, "edge": {"target": [], "time": []}}}, "displayed_time": "15.73", "trialTime": 18665, "trial_type": "mouselab-mdp", "trial_index": 9, "time_elapsed": 514404, "internal_node_id": "0.0-2.1-2.1-0.1"}}, {"uniqueid": "w16028919:a66812973", "current_trial": 10, "dateTime": 1693580593630, "trialdata": {"revealed_states": [], "clicked_states": ["1"], "num_clicks_accrued": [0, 0, 0, 0, 0, 0, 0, 0, 0, 0, 0, 0, 0], "stateRewards": ["", 10, -10, -10, 10, -10, 10, -10, 10, -10, 10, 10, 10, 10, -10, 10, -10, 10, -10, -10, -10, -10, -10, 10, 10, 10, -10, -10, -10, 10, -10, -10, -10, -10], "withholdReward": false, "trial_id": "practice_2", "block": "test", "trialIndex": 3, "score": -7, "costs": -0.5, "simulationMode": [null, null, null, null, null, null], "rewards": [10, -10, -10, 10, -10], "path": ["0", "0", "1", "2", "3", "4", "5"], "rt": [3076, 1414, 3876, 3751, 2103, 240], "actions": ["up", "up", "up", "up", "right", "up"], "actionTimes": [7558, 8974, 13361, 17630, 20291, 21078], "queries": {"click": {"state": {"target": ["1"], "time": [7197]}, "edge": {"target": [], "time": []}}, "mouseover": {"state": {"target": ["1"], "time": [5918]}, "edge": {"target": [], "time": []}}, "mouseout": {"state": {"target": ["0", "1", "2", "1"], "time": [5170, 8076, 22404, 22504]}, "edge": {"target": [], "time": []}}}, "displayed_time": "21.62", "trialTime": 27046, "trial_type": "mouselab-mdp", "trial_index": 10, "time_elapsed": 542056, "internal_node_id": "0.0-2.1-2.1-1.1"}}, {"uniqueid": "w16028919:a66812973", "current_trial": 11, "dateTime": 1693580601553, "trialdata": {"view_history": [{"page_index": 0, "viewing_time": 5658}, {"page_index": 1, "viewing_time": 2264}], "rt": 7923, "trial_id": "mouselab_instructions_2_control", "trial_type": "instructions", "trial_index": 11, "time_elapsed": 549979, "internal_node_id": "0.0-2.1-3.1"}}, {"uniqueid": "w16028919:a66812973", "current_trial": 12, "dateTime": 1693580660092, "trialdata": {"rt": 58533, "response": {"Q0": "The cost for clicking on nodes may vary between nodes.", "Q1": "The better I perform the higher my bonus will be.", "Q2": "No, the amount of cash at each node of the web may be different each time.", "Q3": "To click on the least number of nodes.", "Q4": "Any time during the round.", "Q5": "3 seconds"}, "question_order": [0, 1, 2, 3, 4, 5], "correct": {"Q0": "The cost for clicking on nodes may vary between nodes.", "Q1": "The better I perform the higher my bonus will be.", "Q2": "No, the amount of cash at each node of the web may be different each time.", "Q3": "To get the highest total score.", "Q4": "Only before moving the spider.", "Q5": "3 seconds"}, "trial_id": "mouselab_quiz_control", "trial_type": "survey-multi-choice", "trial_index": 12, "time_elapsed": 608518, "internal_node_id": "0.0-2.1-4.1"}}], "questiondata": {"params": {"CODE": "C6DMOQA6", "MIN_TIME": 14, "inspectCost": 1, "startTime": "Fri Sep 01 2023 16:54:08 GMT+0200 (South Africa Standard Time)", "bonusRate": 0.002, "variance": "1_2_4_8_44", "branching": "31123"}}, "eventdata": [{"eventtype": "initialized", "value": null, "timestamp": 1693580048000, "interval": 0}, {"eventtype": "window_resize", "value": [1024, 638], "timestamp": 1693580048000, "interval": 0}, {"eventtype": "focus", "value": "on", "timestamp": 1693580048378, "interval": 378}, {"eventtype": "window_resize", "value": [1024, 638], "timestamp": 1693580048575, "interval": 197}, {"eventtype": "window_resize", "value": [1280, 720], "timestamp": 1693580059500, "interval": 10925}, {"eventtype": "focus", "value": "off", "timestamp": 1693580407812, "interval": 348312}, {"eventtype": "focus", "value": "on", "timestamp": 1693580407813, "interval": 1}, {"eventtype": "focus", "value": "off", "timestamp": 1693580662496, "interval": 254683}, {"eventtype": "focus", "value": "on", "timestamp": 1693580662497, "interval": 1}, {"eventtype": "window_resize", "value": [1024, 638], "timestamp": 1693580666067, "interval": 3570}], "useragent": "Mozilla/5.0 (Windows NT 10.0; Win64; x64; rv:109.0) Gecko/20100101 Firefox/117.0", "mode": "live", "id": "w16028919:a66812973", "status": "user data saved", "Beginhit": "2023-09-01 14:54:06.838095", "Beginexp": "2023-09-01 14:54:23.457774", "Endhit": null, "psiturkStatus": 6, "browser": "<redacted>", "platform": "windows", "language": "en-US", "excludeReason": "quizfail"}