{"condition": 0, "counterbalance": 0, "assignmentId": "a82208013", "workerId": "w10092073", "hitId": "h37508875", "currenttrial": 55, "bonus": 0, "data": [{"uniqueid": "w10092073:a82208013", "current_trial": 0, "dateTime": 1693660446433, "trialdata": {"success": true, "trial_type": "fullscreen", "trial_index": 0, "time_elapsed": 17910, "internal_node_id": "0.0-0.0"}}, {"uniqueid": "w10092073:a82208013", "current_trial": 1, "dateTime": 1693660487163, "trialdata": {"view_history": [{"page_index": 0, "viewing_time": 40721}], "rt": 40722, "trial_id": "exp_instructions_control", "trial_type": "instructions", "trial_index": 1, "time_elapsed": 58641, "internal_node_id": "0.0-1.0"}}, {"uniqueid": "w10092073:a82208013", "current_trial": 2, "dateTime": 1693660896610, "trialdata": {"view_history": [{"page_index": 0, "viewing_time": 221491}, {"page_index": 1, "viewing_time": 96500}, {"page_index": 2, "viewing_time": 31079}, {"page_index": 3, "viewing_time": 60374}], "rt": 409445, "trial_id": "mouselab_instructions_1_control", "trial_type": "instructions", "trial_index": 2, "time_elapsed": 468088, "internal_node_id": "0.0-2.0-1.0"}}, {"uniqueid": "w10092073:a82208013", "current_trial": 3, "dateTime": 1693660942394, "trialdata": {"revealed_states": [], "clicked_states": ["1", "2", "3", "8", "10", "11", "23", "24"], "num_clicks_accrued": [0, 0, 0, 0, 0, 0, 0, 0, 0, 0, 0, 0, 0], "stateRewards": ["", 10, 10, 10, 10, 10, 10, -10, -10, -10, -10, 10, 10, -10, -10, 10, 10, -10, 10, 10, -10, 10, 10, -10, -10, 10, -10, -10, 10, -10, -10, -10, -10, -10], "withholdReward": false, "trial_id": "practice_1", "block": "test", "trialIndex": 0, "score": -30.5, "costs": -4, "simulationMode": [null, null, null, null, null], "rewards": [-10, -10, 10, -10, -10], "path": ["0", "0", "23", "24", "25", "30", "32"], "rt": [21934, 728, 224, 1224, 259], "actions": ["left", "left", "left", "down", "down"], "actionTimes": [26362, 27605, 28349, 30082, 30848], "queries": {"click": {"state": {"target": ["1", "2", "3", "8", "10", "11", "23", "24"], "time": [6235, 8096, 9509, 11558, 12990, 15633, 21561, 22754]}, "edge": {"target": [], "time": []}}, "mouseover": {"state": {"target": ["1", "2", "3", "8", "8", "10", "11", "8", "2", "12", "0", "12", "23", "24"], "time": [5442, 7272, 8954, 9937, 10920, 12251, 15182, 17530, 17647, 18263, 18932, 19295, 19795, 22175]}, "edge": {"target": [], "time": []}}, "mouseout": {"state": {"target": ["0", "1", "2", "3", "8", "8", "10", "11", "8", "2", "12", "0", "12", "23", "24"], "time": [4725, 6822, 8754, 9920, 10036, 12218, 14316, 17350, 17596, 17680, 18929, 18963, 19612, 22126, 23778]}, "edge": {"target": [], "time": []}}}, "displayed_time": "31.37", "trialTime": 40174, "trial_type": "mouselab-mdp", "trial_index": 3, "time_elapsed": 513871, "internal_node_id": "0.0-2.0-2.0-0.0"}}, {"uniqueid": "w10092073:a82208013", "current_trial": 4, "dateTime": 1693660971498, "trialdata": {"revealed_states": [], "clicked_states": [], "num_clicks_accrued": [0, 0, 0, 0, 0, 0, 0, 0, 0, 0, 0, 0, 0], "stateRewards": ["", 10, 10, -10, 10, 10, 10, -10, -10, 10, -10, -10, 10, -10, -10, -10, 10, -10, -10, -10, 10, -10, -10, 10, -10, 10, -10, 10, 10, 10, -10, -10, 10, 10], "withholdReward": false, "trial_id": "practice_2", "block": "test", "trialIndex": 1, "score": -6.5, "costs": 0, "simulationMode": [null, null, null, null, null], "rewards": [10, -10, -10, -10, 10], "path": ["0", "0", "12", "13", "14", "15", "16"], "rt": [4489, 163, 602, 912, 193], "actions": ["right", "right", "right", "up", "up"], "actionTimes": [16278, 16959, 18096, 19522, 20236], "queries": {"click": {"state": {"target": [], "time": []}, "edge": {"target": [], "time": []}}, "mouseover": {"state": {"target": ["12", "12"], "time": [13328, 15559]}, "edge": {"target": [], "time": []}}, "mouseout": {"state": {"target": ["1", "0", "12", "12"], "time": [8598, 13261, 14511, 23719]}, "edge": {"target": [], "time": []}}}, "displayed_time": "20.76", "trialTime": 28640, "trial_type": "mouselab-mdp", "trial_index": 4, "time_elapsed": 542976, "internal_node_id": "0.0-2.0-2.0-1.0"}}, {"uniqueid": "w10092073:a82208013", "current_trial": 5, "dateTime": 1693661030139, "trialdata": {"view_history": [{"page_index": 0, "viewing_time": 44652}, {"page_index": 1, "viewing_time": 13983}], "rt": 58636, "trial_id": "mouselab_instructions_2_control", "trial_type": "instructions", "trial_index": 5, "time_elapsed": 601617, "internal_node_id": "0.0-2.0-3.0"}}, {"uniqueid": "w10092073:a82208013", "current_trial": 6, "dateTime": 1693661101097, "trialdata": {"rt": 70950, "response": {"Q0": "The cost for clicking on nodes may vary between nodes.", "Q1": "The better I perform the higher my bonus will be.", "Q2": "No, the amount of cash at each node of the web may be different each time.", "Q3": "To get the highest total score.", "Q4": "Only before moving the spider.", "Q5": "3 seconds"}, "question_order": [0, 1, 2, 3, 4, 5], "correct": {"Q0": "The cost for clicking on nodes may vary between nodes.", "Q1": "The better I perform the higher my bonus will be.", "Q2": "No, the amount of cash at each node of the web may be different each time.", "Q3": "To get the highest total score.", "Q4": "Only before moving the spider.", "Q5": "3 seconds"}, "trial_id": "mouselab_quiz_control", "trial_type": "survey-multi-choice", "trial_index": 6, "time_elapsed": 672575, "internal_node_id": "0.0-2.0-4.0"}}, {"uniqueid": "w10092073:a82208013", "current_trial": 7, "dateTime": 1693661113010, "trialdata": {"rt": 11904, "response": {"Q0": "No"}, "question_order": [0], "trial_id": "repeat_check", "trial_type": "survey-multi-choice", "trial_index": 7, "time_elapsed": 684488, "internal_node_id": "0.0-4.0-0.0"}}, {"uniqueid": "w10092073:a82208013", "current_trial": 8, "dateTime": 1693661141049, "trialdata": {"rt": 28030, "stimulus": "\n<h1> Get ready to start the game! </h1>\n\nThank you for reading the instructions. Get ready start with the 40 rounds of this game.\n<br><br>\nIf you need to take a break, feel free to take one after the end of a round, before continuing to the next one.\n<br><br>\nRemember, the more money the spider gets, the bigger your bonus will be!\n<br><br>\n<div style='text-align: center;'>Press <code>space</code> to begin.</div>\n\n<br><br>\n(If, at any point, the <code>space</code> key does not take you to the next page, click once on the text and try again.)", "response": " ", "trial_id": "mdp_ready", "trial_type": "html-keyboard-response", "trial_index": 8, "time_elapsed": 712527, "internal_node_id": "0.0-6.0-0.0"}}, {"uniqueid": "w10092073:a82208013", "current_trial": 9, "dateTime": 1693661161739, "trialdata": {"revealed_states": [], "clicked_states": [], "num_clicks_accrued": [0, 0, 0, 0, 0, 0, 0, 0, 0, 0, 0, 0, 0], "stateRewards": ["", 1, -1, 8, -3, 38, 85, -20, -4, 8, 23, 73, 2, -4, 6, -13, 44, 7, -28, -11, -77, 45, -69, 1, -1, -7, -11, 75, -51, -87, 7, 36, -53, -26], "withholdReward": false, "trial_id": "mdp_trial_1", "block": "test", "trialIndex": 2, "score": -53, "costs": 0, "simulationMode": [null, null, null, null, null], "rewards": [1, -1, -7, 7, -53], "path": ["0", "0", "23", "24", "25", "30", "32"], "rt": [3914, 758, 463, 846, 381], "actions": ["left", "left", "left", "down", "down"], "actionTimes": [7858, 9127, 10097, 11463, 12364], "queries": {"click": {"state": {"target": [], "time": []}, "edge": {"target": [], "time": []}}, "mouseover": {"state": {"target": [], "time": []}, "edge": {"target": [], "time": []}}, "mouseout": {"state": {"target": ["8", "11", "10", "2", "0"], "time": [2403, 2453, 2719, 2737, 16160]}, "edge": {"target": [], "time": []}}}, "displayed_time": "17.95", "trialTime": 20194, "trial_type": "mouselab-mdp", "trial_index": 9, "time_elapsed": 733216, "internal_node_id": "0.0-6.0-1.0-0.0"}}, {"uniqueid": "w10092073:a82208013", "current_trial": 10, "dateTime": 1693661182172, "trialdata": {"revealed_states": [], "clicked_states": [], "num_clicks_accrued": [0, 0, 0, 0, 0, 0, 0, 0, 0, 0, 0, 0, 0], "stateRewards": ["", 1, -4, -6, -1, -21, 17, -72, 10, 77, 67, -46, -1, 4, -2, 14, -66, -49, -45, -15, -52, 23, -67, 2, -2, -2, 15, -3, 45, -64, 5, -44, 83, 61], "withholdReward": false, "trial_id": "mdp_trial_2", "block": "test", "trialIndex": 3, "score": -82, "costs": 0, "simulationMode": [null, null, null, null, null], "rewards": [1, -4, -6, -1, -72], "path": ["0", "0", "1", "2", "3", "4", "7"], "rt": [5537, 290, 63, 579, 709], "actions": ["up", "up", "up", "right", "down"], "actionTimes": [10350, 11150, 11739, 12838, 14066], "queries": {"click": {"state": {"target": [], "time": []}, "edge": {"target": [], "time": []}}, "mouseover": {"state": {"target": [], "time": []}, "edge": {"target": [], "time": []}}, "mouseout": {"state": {"target": ["0", "12", "13", "15", "0"], "time": [3141, 3170, 3195, 3512, 15720]}, "edge": {"target": [], "time": []}}}, "displayed_time": "18.82", "trialTime": 20071, "trial_type": "mouselab-mdp", "trial_index": 10, "time_elapsed": 753650, "internal_node_id": "0.0-6.0-1.0-1.0"}}, {"uniqueid": "w10092073:a82208013", "current_trial": 11, "dateTime": 1693661203407, "trialdata": {"revealed_states": [], "clicked_states": [], "num_clicks_accrued": [0, 0, 0, 0, 0, 0, 0, 0, 0, 0, 0, 0, 0], "stateRewards": ["", -1, 2, 5, -6, 13, -64, -47, 8, -79, -80, -33, 1, 2, -2, -16, 56, -71, -10, 3, 29, 44, 85, -1, 4, 5, 4, -36, -56, 19, 8, 52, -13, -2], "withholdReward": false, "trial_id": "mdp_trial_3", "block": "test", "trialIndex": 4, "score": 31, "costs": 0, "simulationMode": [null, null, null, null, null], "rewards": [-1, 4, 5, 4, 19], "path": ["0", "0", "23", "24", "25", "26", "29"], "rt": [1709, 155, 163, 1566, 1226], "actions": ["left", "left", "left", "up", "left"], "actionTimes": [6029, 6700, 7391, 9476, 11219], "queries": {"click": {"state": {"target": [], "time": []}, "edge": {"target": [], "time": []}}, "mouseover": {"state": {"target": [], "time": []}, "edge": {"target": [], "time": []}}, "mouseout": {"state": {"target": ["0", "0"], "time": [3379, 12839]}, "edge": {"target": [], "time": []}}}, "displayed_time": "18.32", "trialTime": 20840, "trial_type": "mouselab-mdp", "trial_index": 11, "time_elapsed": 774885, "internal_node_id": "0.0-6.0-1.0-2.0"}}, {"uniqueid": "w10092073:a82208013", "current_trial": 12, "dateTime": 1693661223136, "trialdata": {"revealed_states": [], "clicked_states": [], "num_clicks_accrued": [0, 0, 0, 0, 0, 0, 0, 0, 0, 0, 0, 0, 0], "stateRewards": ["", 2, 4, 4, 9, -88, -10, 44, 16, -54, 64, 78, 1, 2, 5, 16, 80, 36, 7, -4, 9, -47, -70, -1, -3, 6, -16, 11, 80, 28, 8, -1, 34, -17], "withholdReward": false, "trial_id": "mdp_trial_4", "block": "test", "trialIndex": 5, "score": 14, "costs": 0, "simulationMode": [null, null, null, null, null], "rewards": [-1, -3, 6, -16, 28], "path": ["0", "0", "23", "24", "25", "26", "29"], "rt": [1166, 161, 1461, 802, 690], "actions": ["left", "left", "left", "up", "left"], "actionTimes": [3256, 3938, 5938, 7262, 8465], "queries": {"click": {"state": {"target": [], "time": []}, "edge": {"target": [], "time": []}}, "mouseover": {"state": {"target": [], "time": []}, "edge": {"target": [], "time": []}}, "mouseout": {"state": {"target": ["0", "0"], "time": [826, 9670]}, "edge": {"target": [], "time": []}}}, "displayed_time": "16.09", "trialTime": 19264, "trial_type": "mouselab-mdp", "trial_index": 12, "time_elapsed": 794613, "internal_node_id": "0.0-6.0-1.0-3.0"}}, {"uniqueid": "w10092073:a82208013", "current_trial": 13, "dateTime": 1693661244932, "trialdata": {"revealed_states": [], "clicked_states": [], "num_clicks_accrued": [0, 0, 0, 0, 0, 0, 0, 0, 0, 0, 0, 0, 0], "stateRewards": ["", 1, 2, -3, -6, 50, -7, 7, -7, -80, 21, -1, 2, 2, 4, -1, 33, 84, 1, 14, -53, 81, 6, -2, -2, -3, -9, -87, -38, -59, -5, -74, -3, -71], "withholdReward": false, "trial_id": "mdp_trial_5", "block": "test", "trialIndex": 6, "score": 8, "costs": 0, "simulationMode": [null, null, null, null, null], "rewards": [2, 2, 4, -1, 1], "path": ["0", "0", "12", "13", "14", "15", "18"], "rt": [1476, 51, 6, 894, 704], "actions": ["right", "right", "right", "up", "left"], "actionTimes": [6477, 7050, 7588, 9008, 10234], "queries": {"click": {"state": {"target": [], "time": []}, "edge": {"target": [], "time": []}}, "mouseover": {"state": {"target": [], "time": []}, "edge": {"target": [], "time": []}}, "mouseout": {"state": {"target": ["0", "0", "0", "0"], "time": [1775, 2715, 3582, 11875]}, "edge": {"target": [], "time": []}}}, "displayed_time": "19.01", "trialTime": 21350, "trial_type": "mouselab-mdp", "trial_index": 13, "time_elapsed": 816409, "internal_node_id": "0.0-6.0-1.0-4.0"}}, {"uniqueid": "w10092073:a82208013", "current_trial": 14, "dateTime": 1693661264075, "trialdata": {"revealed_states": [], "clicked_states": [], "num_clicks_accrued": [0, 0, 0, 0, 0, 0, 0, 0, 0, 0, 0, 0, 0], "stateRewards": ["", 2, 3, -1, 6, 44, -4, -59, -14, -3, 64, 16, 1, -3, 3, 6, 3, 49, 19, 3, -49, -14, -86, 1, 2, -3, -8, -33, 14, 32, -13, -77, -47, -67], "withholdReward": false, "trial_id": "mdp_trial_6", "block": "test", "trialIndex": 7, "score": -49, "costs": 0, "simulationMode": [null, null, null, null, null], "rewards": [2, 3, -1, 6, -59], "path": ["0", "0", "1", "2", "3", "4", "7"], "rt": [2474, 149, 74, 159, 947], "actions": ["up", "up", "up", "right", "down"], "actionTimes": [4974, 5639, 6247, 6914, 8368], "queries": {"click": {"state": {"target": [], "time": []}, "edge": {"target": [], "time": []}}, "mouseover": {"state": {"target": [], "time": []}, "edge": {"target": [], "time": []}}, "mouseout": {"state": {"target": ["0", "0"], "time": [1689, 9800]}, "edge": {"target": [], "time": []}}}, "displayed_time": "16.51", "trialTime": 18635, "trial_type": "mouselab-mdp", "trial_index": 14, "time_elapsed": 835553, "internal_node_id": "0.0-6.0-1.0-5.0"}}, {"uniqueid": "w10092073:a82208013", "current_trial": 15, "dateTime": 1693661286018, "trialdata": {"revealed_states": [], "clicked_states": [], "num_clicks_accrued": [0, 0, 0, 0, 0, 0, 0, 0, 0, 0, 0, 0, 0], "stateRewards": ["", -1, -3, 4, -10, -5, 79, -87, -2, 53, 29, -20, -2, -1, -5, 10, 27, 86, 46, -16, -29, 40, 3, 2, 4, -1, -6, 37, 79, -29, 7, 86, -62, 29], "withholdReward": false, "trial_id": "mdp_trial_7", "block": "test", "trialIndex": 8, "score": 78, "costs": 0, "simulationMode": [null, null, null, null, null], "rewards": [2, 4, -1, -6, 79], "path": ["0", "0", "23", "24", "25", "26", "28"], "rt": [1165, 44, 674, 1484, 728], "actions": ["left", "left", "left", "up", "right"], "actionTimes": [5880, 6444, 7658, 9651, 10893], "queries": {"click": {"state": {"target": [], "time": []}, "edge": {"target": [], "time": []}}, "mouseover": {"state": {"target": [], "time": []}, "edge": {"target": [], "time": []}}, "mouseout": {"state": {"target": ["0", "0", "0"], "time": [3567, 4084, 12241]}, "edge": {"target": [], "time": []}}}, "displayed_time": "18.72", "trialTime": 21638, "trial_type": "mouselab-mdp", "trial_index": 15, "time_elapsed": 857496, "internal_node_id": "0.0-6.0-1.0-6.0"}}, {"uniqueid": "w10092073:a82208013", "current_trial": 16, "dateTime": 1693661304476, "trialdata": {"revealed_states": [], "clicked_states": [], "num_clicks_accrued": [0, 0, 0, 0, 0, 0, 0, 0, 0, 0, 0, 0, 0], "stateRewards": ["", 2, 3, 6, -5, -74, -53, 17, -12, 46, 44, 18, -2, 4, 1, -8, 22, -23, -49, 9, -45, 55, 81, 1, -1, -7, -16, -83, -71, -45, 2, 51, 82, 61], "withholdReward": false, "trial_id": "mdp_trial_8", "block": "test", "trialIndex": 9, "score": -94, "costs": 0, "simulationMode": [null, null, null, null, null], "rewards": [1, -1, -7, -16, -71], "path": ["0", "0", "23", "24", "25", "26", "28"], "rt": [1462, 517, 102, 745, 65], "actions": ["left", "left", "left", "up", "right"], "actionTimes": [3039, 4076, 4693, 5953, 6537], "queries": {"click": {"state": {"target": [], "time": []}, "edge": {"target": [], "time": []}}, "mouseover": {"state": {"target": [], "time": []}, "edge": {"target": [], "time": []}}, "mouseout": {"state": {"target": ["0"], "time": [7736]}, "edge": {"target": [], "time": []}}}, "displayed_time": "15.58", "trialTime": 18136, "trial_type": "mouselab-mdp", "trial_index": 16, "time_elapsed": 875953, "internal_node_id": "0.0-6.0-1.0-7.0"}}, {"uniqueid": "w10092073:a82208013", "current_trial": 17, "dateTime": 1693661324183, "trialdata": {"revealed_states": [], "clicked_states": [], "num_clicks_accrued": [0, 0, 0, 0, 0, 0, 0, 0, 0, 0, 0, 0, 0], "stateRewards": ["", -1, 1, -2, 5, 73, 15, 61, 8, 7, 38, 76, 2, 2, -4, -6, -6, -26, 43, -5, -45, -85, -35, -2, 1, -4, 15, -10, 69, 72, -11, 84, -49, -38], "withholdReward": false, "trial_id": "mdp_trial_9", "block": "test", "trialIndex": 10, "score": -40, "costs": 0, "simulationMode": [null, null, null, null, null], "rewards": [2, 2, -4, -5, -35], "path": ["0", "0", "12", "13", "14", "19", "22"], "rt": [2996, 199, 675, 520, 561], "actions": ["right", "right", "right", "down", "left"], "actionTimes": [6322, 7038, 8246, 9291, 10363], "queries": {"click": {"state": {"target": [], "time": []}, "edge": {"target": [], "time": []}}, "mouseover": {"state": {"target": [], "time": []}, "edge": {"target": [], "time": []}}, "mouseout": {"state": {"target": ["0", "12", "0", "0", "23"], "time": [2322, 2655, 2705, 14296, 14798]}, "edge": {"target": [], "time": []}}}, "displayed_time": "17.33", "trialTime": 19407, "trial_type": "mouselab-mdp", "trial_index": 17, "time_elapsed": 895661, "internal_node_id": "0.0-6.0-1.0-8.0"}}, {"uniqueid": "w10092073:a82208013", "current_trial": 18, "dateTime": 1693661343499, "trialdata": {"revealed_states": [], "clicked_states": [], "num_clicks_accrued": [0, 0, 0, 0, 0, 0, 0, 0, 0, 0, 0, 0, 0], "stateRewards": ["", -1, 2, -2, 13, -56, -28, 10, 14, 53, -80, -29, 1, -3, -3, -14, 14, 9, -40, -9, 18, 18, 48, 1, 1, 1, -9, 64, -39, -9, 7, -52, -78, 7], "withholdReward": false, "trial_id": "mdp_trial_10", "block": "test", "trialIndex": 11, "score": -15, "costs": 0, "simulationMode": [null, null, null, null, null], "rewards": [1, 1, 1, -9, -9], "path": ["0", "0", "23", "24", "25", "26", "29"], "rt": [2560, 57, 31, 1109, 963], "actions": ["left", "left", "left", "up", "left"], "actionTimes": [5794, 6367, 6922, 8548, 10018], "queries": {"click": {"state": {"target": [], "time": []}, "edge": {"target": [], "time": []}}, "mouseover": {"state": {"target": [], "time": []}, "edge": {"target": [], "time": []}}, "mouseout": {"state": {"target": ["0"], "time": [11937]}, "edge": {"target": [], "time": []}}}, "displayed_time": "17.24", "trialTime": 18995, "trial_type": "mouselab-mdp", "trial_index": 18, "time_elapsed": 914976, "internal_node_id": "0.0-6.0-1.0-9.0"}}, {"uniqueid": "w10092073:a82208013", "current_trial": 19, "dateTime": 1693661361401, "trialdata": {"revealed_states": [], "clicked_states": [], "num_clicks_accrued": [0, 0, 0, 0, 0, 0, 0, 0, 0, 0, 0, 0, 0], "stateRewards": ["", 2, -3, -2, 14, -4, 85, 46, 15, -28, 41, 31, -1, -1, -1, 5, 62, 79, 57, 12, -73, -64, 86, -1, 1, -3, -5, 68, 11, -32, 8, -80, -21, -56], "withholdReward": false, "trial_id": "mdp_trial_11", "block": "test", "trialIndex": 12, "score": -16, "costs": 0, "simulationMode": [null, null, null, null, null], "rewards": [2, -3, -2, 15, -28], "path": ["0", "0", "1", "2", "3", "8", "9"], "rt": [2115, 699, 127, 800, 509], "actions": ["up", "up", "up", "left", "up"], "actionTimes": [3858, 5073, 5716, 7038, 8063], "queries": {"click": {"state": {"target": [], "time": []}, "edge": {"target": [], "time": []}}, "mouseover": {"state": {"target": [], "time": []}, "edge": {"target": [], "time": []}}, "mouseout": {"state": {"target": ["0", "0"], "time": [2438, 10782]}, "edge": {"target": [], "time": []}}}, "displayed_time": "15.75", "trialTime": 17439, "trial_type": "mouselab-mdp", "trial_index": 19, "time_elapsed": 932878, "internal_node_id": "0.0-6.0-1.0-10.0"}}, {"uniqueid": "w10092073:a82208013", "current_trial": 20, "dateTime": 1693661387595, "trialdata": {"revealed_states": [], "clicked_states": [], "num_clicks_accrued": [0, 0, 0, 0, 0, 0, 0, 0, 0, 0, 0, 0, 0], "stateRewards": ["", 1, -2, -3, 14, -42, -87, -37, -11, -50, 33, -44, -2, 4, -7, 13, 48, -75, -66, 12, 23, -2, 82, 1, -4, 3, 12, 51, -15, -26, -11, -52, -29, 82], "withholdReward": false, "trial_id": "mdp_trial_12", "block": "test", "trialIndex": 13, "score": -63, "costs": 0, "simulationMode": [null, null, null, null, null], "rewards": [1, -4, 3, -11, -52], "path": ["0", "0", "23", "24", "25", "30", "31"], "rt": [13234, 145, 835, 339, 589], "actions": ["left", "left", "left", "down", "right"], "actionTimes": [16063, 16724, 18097, 18950, 20050], "queries": {"click": {"state": {"target": [], "time": []}, "edge": {"target": [], "time": []}}, "mouseover": {"state": {"target": ["23", "28"], "time": [7167, 7767]}, "edge": {"target": [], "time": []}}, "mouseout": {"state": {"target": ["0", "0", "23", "28"], "time": [1338, 7143, 7183, 14212]}, "edge": {"target": [], "time": []}}}, "displayed_time": "20.56", "trialTime": 25749, "trial_type": "mouselab-mdp", "trial_index": 20, "time_elapsed": 959073, "internal_node_id": "0.0-6.0-1.0-11.0"}}, {"uniqueid": "w10092073:a82208013", "current_trial": 21, "dateTime": 1693661407052, "trialdata": {"revealed_states": [], "clicked_states": [], "num_clicks_accrued": [0, 0, 0, 0, 0, 0, 0, 0, 0, 0, 0, 0, 0], "stateRewards": ["", -2, -1, -2, -15, 87, 57, 29, -10, 77, -80, -7, 1, -3, 6, 14, -11, 87, -59, 4, -71, 16, -11, 2, 2, -7, 2, -47, 61, 50, 14, -20, 17, 81], "withholdReward": false, "trial_id": "mdp_trial_13", "block": "test", "trialIndex": 14, "score": -63, "costs": 0, "simulationMode": [null, null, null, null, null], "rewards": [1, -3, 6, 4, -71], "path": ["0", "0", "12", "13", "14", "19", "20"], "rt": [1475, 220, 33, 325, 166], "actions": ["right", "right", "right", "down", "right"], "actionTimes": [3664, 4398, 4959, 5817, 6495], "queries": {"click": {"state": {"target": [], "time": []}, "edge": {"target": [], "time": []}}, "mouseover": {"state": {"target": [], "time": []}, "edge": {"target": [], "time": []}}, "mouseout": {"state": {"target": ["0", "31", "24", "31", "31", "24", "31", "24", "31", "31", "24", "31"], "time": [8324, 10089, 11222, 11455, 11621, 12520, 14070, 14935, 14985, 16318, 18133, 18149]}, "edge": {"target": [], "time": []}}}, "displayed_time": "16.19", "trialTime": 18984, "trial_type": "mouselab-mdp", "trial_index": 21, "time_elapsed": 978529, "internal_node_id": "0.0-6.0-1.0-12.0"}}, {"uniqueid": "w10092073:a82208013", "current_trial": 22, "dateTime": 1693661427862, "trialdata": {"revealed_states": [], "clicked_states": [], "num_clicks_accrued": [0, 0, 0, 0, 0, 0, 0, 0, 0, 0, 0, 0, 0], "stateRewards": ["", -2, -4, -2, -13, -15, 87, -19, -6, -80, 30, 12, 1, 1, -8, 2, 55, 56, 15, 11, -68, -7, 55, -2, 3, -3, -3, 48, 62, 4, 1, -3, 69, -33], "withholdReward": false, "trial_id": "mdp_trial_14", "block": "test", "trialIndex": 15, "score": 66, "costs": 0, "simulationMode": [null, null, null, null, null], "rewards": [-2, -4, -2, -13, 87], "path": ["0", "0", "1", "2", "3", "4", "6"], "rt": [1691, 45, 103, 58, 607], "actions": ["up", "up", "up", "right", "right"], "actionTimes": [5893, 6454, 7093, 7665, 8798], "queries": {"click": {"state": {"target": [], "time": []}, "edge": {"target": [], "time": []}}, "mouseover": {"state": {"target": [], "time": []}, "edge": {"target": [], "time": []}}, "mouseout": {"state": {"target": ["24", "12", "0"], "time": [2508, 3006, 10819]}, "edge": {"target": [], "time": []}}}, "displayed_time": "18.21", "trialTime": 20405, "trial_type": "mouselab-mdp", "trial_index": 22, "time_elapsed": 999338, "internal_node_id": "0.0-6.0-1.0-13.0"}}, {"uniqueid": "w10092073:a82208013", "current_trial": 23, "dateTime": 1693661446562, "trialdata": {"revealed_states": [], "clicked_states": [], "num_clicks_accrued": [0, 0, 0, 0, 0, 0, 0, 0, 0, 0, 0, 0, 0], "stateRewards": ["", 1, 3, 3, -10, 52, 68, 59, 12, 7, 49, 21, -2, -3, -4, -2, -2, 63, 63, -4, 44, 43, -76, -2, -3, -6, 13, 48, 36, 12, -5, -36, -33, -11], "withholdReward": false, "trial_id": "mdp_trial_15", "block": "test", "trialIndex": 16, "score": 56, "costs": 0, "simulationMode": [null, null, null, null, null], "rewards": [1, 3, 3, -10, 59], "path": ["0", "0", "1", "2", "3", "4", "7"], "rt": [1712, 21, 572, 337, 375], "actions": ["up", "up", "up", "right", "down"], "actionTimes": [4042, 4575, 5675, 6522, 7410], "queries": {"click": {"state": {"target": [], "time": []}, "edge": {"target": [], "time": []}}, "mouseover": {"state": {"target": [], "time": []}, "edge": {"target": [], "time": []}}, "mouseout": {"state": {"target": ["0"], "time": [11573]}, "edge": {"target": [], "time": []}}}, "displayed_time": "16.33", "trialTime": 18284, "trial_type": "mouselab-mdp", "trial_index": 23, "time_elapsed": 1018039, "internal_node_id": "0.0-6.0-1.0-14.0"}}, {"uniqueid": "w10092073:a82208013", "current_trial": 24, "dateTime": 1693661467182, "trialdata": {"revealed_states": [], "clicked_states": [], "num_clicks_accrued": [0, 0, 0, 0, 0, 0, 0, 0, 0, 0, 0, 0, 0], "stateRewards": ["", -2, -3, -5, 8, 27, 11, 43, -6, -24, -87, 69, -2, 1, 1, 9, 19, 48, -37, 9, -14, 45, 62, 1, 2, 1, 16, -81, -41, 22, 4, -6, -63, 47], "withholdReward": false, "trial_id": "mdp_trial_16", "block": "test", "trialIndex": 17, "score": 25, "costs": 0, "simulationMode": [null, null, null, null, null], "rewards": [-2, -3, -5, 8, 27], "path": ["0", "0", "1", "2", "3", "4", "5"], "rt": [1288, 411, 6, 324, 256], "actions": ["up", "up", "up", "right", "up"], "actionTimes": [4617, 5549, 6076, 6928, 7693], "queries": {"click": {"state": {"target": [], "time": []}, "edge": {"target": [], "time": []}}, "mouseover": {"state": {"target": [], "time": []}, "edge": {"target": [], "time": []}}, "mouseout": {"state": {"target": ["2", "1", "0"], "time": [2454, 2570, 9632]}, "edge": {"target": [], "time": []}}}, "displayed_time": "17.33", "trialTime": 20005, "trial_type": "mouselab-mdp", "trial_index": 24, "time_elapsed": 1038659, "internal_node_id": "0.0-6.0-1.0-15.0"}}, {"uniqueid": "w10092073:a82208013", "current_trial": 25, "dateTime": 1693661484583, "trialdata": {"revealed_states": [], "clicked_states": [], "num_clicks_accrued": [0, 0, 0, 0, 0, 0, 0, 0, 0, 0, 0, 0, 0], "stateRewards": ["", 1, -1, -7, -7, -22, 15, -13, 13, 26, -32, 38, -1, 1, -7, -4, 16, -62, 86, 12, -54, 56, 64, -2, -1, 6, 14, -57, 37, 62, -6, -25, 50, -70], "withholdReward": false, "trial_id": "mdp_trial_17", "block": "test", "trialIndex": 18, "score": 1, "costs": 0, "simulationMode": [null, null, null, null, null], "rewards": [1, -1, -7, -7, 15], "path": ["0", "0", "1", "2", "3", "4", "6"], "rt": [1498, 341, 11, 121, 221], "actions": ["up", "up", "up", "right", "right"], "actionTimes": [2607, 3462, 3983, 4642, 5374], "queries": {"click": {"state": {"target": [], "time": []}, "edge": {"target": [], "time": []}}, "mouseover": {"state": {"target": [], "time": []}, "edge": {"target": [], "time": []}}, "mouseout": {"state": {"target": ["0", "6"], "time": [6933, 10047]}, "edge": {"target": [], "time": []}}}, "displayed_time": "15.11", "trialTime": 16939, "trial_type": "mouselab-mdp", "trial_index": 25, "time_elapsed": 1056060, "internal_node_id": "0.0-6.0-1.0-16.0"}}, {"uniqueid": "w10092073:a82208013", "current_trial": 26, "dateTime": 1693661504447, "trialdata": {"revealed_states": [], "clicked_states": [], "num_clicks_accrued": [0, 0, 0, 0, 0, 0, 0, 0, 0, 0, 0, 0, 0], "stateRewards": ["", 1, -3, -1, 9, -34, -40, 22, -7, 45, 53, -11, 2, 4, 5, 15, 21, 37, -49, -3, 80, -28, -34, 1, -3, 1, 1, -40, -6, -5, -16, -85, -86, 59], "withholdReward": false, "trial_id": "mdp_trial_18", "block": "test", "trialIndex": 19, "score": -21, "costs": 0, "simulationMode": [null, null, null, null, null], "rewards": [1, -3, -1, -7, -11], "path": ["0", "0", "1", "2", "3", "8", "11"], "rt": [1298, 291, 735, 1995, 787], "actions": ["up", "up", "up", "left", "left"], "actionTimes": [3704, 4531, 5789, 8316, 9622], "queries": {"click": {"state": {"target": [], "time": []}, "edge": {"target": [], "time": []}}, "mouseover": {"state": {"target": [], "time": []}, "edge": {"target": [], "time": []}}, "mouseout": {"state": {"target": ["0"], "time": [11162]}, "edge": {"target": [], "time": []}}}, "displayed_time": "16.41", "trialTime": 19520, "trial_type": "mouselab-mdp", "trial_index": 26, "time_elapsed": 1075925, "internal_node_id": "0.0-6.0-1.0-17.0"}}, {"uniqueid": "w10092073:a82208013", "current_trial": 27, "dateTime": 1693661522104, "trialdata": {"revealed_states": [], "clicked_states": [], "num_clicks_accrued": [0, 0, 0, 0, 0, 0, 0, 0, 0, 0, 0, 0, 0], "stateRewards": ["", -2, -3, -7, 7, -54, -69, -4, -14, -77, 22, 40, -2, -1, 5, 6, -35, 50, -60, 10, -28, 75, 57, 1, -4, -2, 2, 68, 34, -18, 12, 3, -21, -43], "withholdReward": false, "trial_id": "mdp_trial_19", "block": "test", "trialIndex": 20, "score": -14, "costs": 0, "simulationMode": [null, null, null, null, null], "rewards": [1, -4, -2, 12, -21], "path": ["0", "0", "23", "24", "25", "30", "32"], "rt": [1608, 660, 165, 866, 345], "actions": ["left", "left", "left", "down", "down"], "actionTimes": [3846, 5017, 5690, 7074, 7934], "queries": {"click": {"state": {"target": [], "time": []}, "edge": {"target": [], "time": []}}, "mouseover": {"state": {"target": [], "time": []}, "edge": {"target": [], "time": []}}, "mouseout": {"state": {"target": [], "time": []}, "edge": {"target": [], "time": []}}}, "displayed_time": "16.24", "trialTime": 17245, "trial_type": "mouselab-mdp", "trial_index": 27, "time_elapsed": 1093581, "internal_node_id": "0.0-6.0-1.0-18.0"}}, {"uniqueid": "w10092073:a82208013", "current_trial": 28, "dateTime": 1693661539217, "trialdata": {"revealed_states": [], "clicked_states": [], "num_clicks_accrued": [0, 0, 0, 0, 0, 0, 0, 0, 0, 0, 0, 0, 0], "stateRewards": ["", 2, -1, -4, -13, 74, 77, 3, 2, -43, -2, -11, 2, 3, 7, 11, -26, -29, -33, -3, -3, -13, -3, 1, 3, -7, 14, -59, 33, 9, -5, 34, 79, 68], "withholdReward": false, "trial_id": "mdp_trial_20", "block": "test", "trialIndex": 21, "score": 61, "costs": 0, "simulationMode": [null, null, null, null, null], "rewards": [2, -1, -4, -13, 77], "path": ["0", "0", "1", "2", "3", "4", "6"], "rt": [1351, 601, 234, 568, 12], "actions": ["up", "up", "up", "right", "right"], "actionTimes": [2340, 3458, 4208, 5291, 5817], "queries": {"click": {"state": {"target": [], "time": []}, "edge": {"target": [], "time": []}}, "mouseover": {"state": {"target": [], "time": []}, "edge": {"target": [], "time": []}}, "mouseout": {"state": {"target": ["0"], "time": [8567]}, "edge": {"target": [], "time": []}}}, "displayed_time": "14.99", "trialTime": 16636, "trial_type": "mouselab-mdp", "trial_index": 28, "time_elapsed": 1110694, "internal_node_id": "0.0-6.0-1.0-19.0"}}, {"uniqueid": "w10092073:a82208013", "current_trial": 29, "dateTime": 1693661558079, "trialdata": {"revealed_states": [], "clicked_states": [], "num_clicks_accrued": [0, 0, 0, 0, 0, 0, 0, 0, 0, 0, 0, 0, 0], "stateRewards": ["", 2, -1, 5, 6, 10, 86, 55, 10, -45, 63, -71, 1, -2, 5, -8, -50, -72, 36, 15, 61, 12, 33, -1, -4, 6, 5, 79, -56, -21, -16, -87, 60, -81], "withholdReward": false, "trial_id": "mdp_trial_21", "block": "test", "trialIndex": 22, "score": 22, "costs": 0, "simulationMode": [null, null, null, null, null], "rewards": [2, -1, 5, 6, 10], "path": ["0", "0", "1", "2", "3", "4", "5"], "rt": [1356, 134, 76, 352, 408], "actions": ["up", "up", "up", "right", "up"], "actionTimes": [3737, 4393, 5001, 5861, 6782], "queries": {"click": {"state": {"target": [], "time": []}, "edge": {"target": [], "time": []}}, "mouseover": {"state": {"target": [], "time": []}, "edge": {"target": [], "time": []}}, "mouseout": {"state": {"target": ["0", "0"], "time": [1974, 8187]}, "edge": {"target": [], "time": []}}}, "displayed_time": "16.39", "trialTime": 18416, "trial_type": "mouselab-mdp", "trial_index": 29, "time_elapsed": 1129557, "internal_node_id": "0.0-6.0-1.0-20.0"}}, {"uniqueid": "w10092073:a82208013", "current_trial": 30, "dateTime": 1693661574724, "trialdata": {"revealed_states": [], "clicked_states": [], "num_clicks_accrued": [0, 0, 0, 0, 0, 0, 0, 0, 0, 0, 0, 0, 0], "stateRewards": ["", 1, 2, -8, 9, 18, -83, -11, 6, -64, -48, 17, -2, -2, -5, -3, -24, -3, -86, -2, 48, -41, -22, -2, 4, 7, 8, 81, 13, -48, 10, 61, 19, 57], "withholdReward": false, "trial_id": "mdp_trial_22", "block": "test", "trialIndex": 23, "score": -7, "costs": 0, "simulationMode": [null, null, null, null, null], "rewards": [1, 2, -8, 9, -11], "path": ["0", "0", "1", "2", "3", "4", "7"], "rt": [1212, 189, 765, 215, 1174], "actions": ["up", "up", "up", "right", "down"], "actionTimes": [2481, 3184, 4476, 5208, 6899], "queries": {"click": {"state": {"target": [], "time": []}, "edge": {"target": [], "time": []}}, "mouseover": {"state": {"target": [], "time": []}, "edge": {"target": [], "time": []}}, "mouseout": {"state": {"target": ["0"], "time": [11735]}, "edge": {"target": [], "time": []}}}, "displayed_time": "15.27", "trialTime": 16193, "trial_type": "mouselab-mdp", "trial_index": 30, "time_elapsed": 1146201, "internal_node_id": "0.0-6.0-1.0-21.0"}}, {"uniqueid": "w10092073:a82208013", "current_trial": 31, "dateTime": 1693661593060, "trialdata": {"revealed_states": [], "clicked_states": [], "num_clicks_accrued": [0, 0, 0, 0, 0, 0, 0, 0, 0, 0, 0, 0, 0], "stateRewards": ["", -2, 3, 3, -14, 62, 36, 49, 16, 11, 17, -84, 2, -1, 6, 2, -82, -73, 49, -6, -87, 48, 50, -1, -2, -1, -16, -11, 37, -44, 4, 55, 73, -10], "withholdReward": false, "trial_id": "mdp_trial_23", "block": "test", "trialIndex": 24, "score": 26, "costs": 0, "simulationMode": [null, null, null, null, null], "rewards": [-2, 3, 3, -14, 36], "path": ["0", "0", "1", "2", "3", "4", "6"], "rt": [1308, 573, 110, 419, 507], "actions": ["up", "up", "up", "right", "right"], "actionTimes": [3558, 4639, 5262, 6204, 7223], "queries": {"click": {"state": {"target": [], "time": []}, "edge": {"target": [], "time": []}}, "mouseover": {"state": {"target": [], "time": []}, "edge": {"target": [], "time": []}}, "mouseout": {"state": {"target": ["0"], "time": [9328]}, "edge": {"target": [], "time": []}}}, "displayed_time": "16.25", "trialTime": 17851, "trial_type": "mouselab-mdp", "trial_index": 31, "time_elapsed": 1164537, "internal_node_id": "0.0-6.0-1.0-22.0"}}, {"uniqueid": "w10092073:a82208013", "current_trial": 32, "dateTime": 1693661612073, "trialdata": {"revealed_states": [], "clicked_states": [], "num_clicks_accrued": [0, 0, 0, 0, 0, 0, 0, 0, 0, 0, 0, 0, 0], "stateRewards": ["", -1, -4, 8, 8, -68, 47, 24, -7, -61, 49, -69, -1, -1, 8, -7, 42, 1, -45, -11, 10, -63, -6, 1, 4, 6, -16, 79, -37, -58, -12, 81, 18, -53], "withholdReward": false, "trial_id": "mdp_trial_24", "block": "test", "trialIndex": 25, "score": -57, "costs": 0, "simulationMode": [null, null, null, null, null], "rewards": [-1, -4, 8, 8, -68], "path": ["0", "0", "1", "2", "3", "4", "5"], "rt": [1261, 418, 24, 231, 1202], "actions": ["up", "up", "up", "right", "up"], "actionTimes": [2322, 3247, 3787, 4543, 6263], "queries": {"click": {"state": {"target": [], "time": []}, "edge": {"target": [], "time": []}}, "mouseover": {"state": {"target": [], "time": []}, "edge": {"target": [], "time": []}}, "mouseout": {"state": {"target": ["0"], "time": [8989]}, "edge": {"target": [], "time": []}}}, "displayed_time": "15.06", "trialTime": 18539, "trial_type": "mouselab-mdp", "trial_index": 32, "time_elapsed": 1183550, "internal_node_id": "0.0-6.0-1.0-23.0"}}, {"uniqueid": "w10092073:a82208013", "current_trial": 33, "dateTime": 1693661630799, "trialdata": {"revealed_states": [], "clicked_states": [], "num_clicks_accrued": [0, 0, 0, 0, 0, 0, 0, 0, 0, 0, 0, 0, 0], "stateRewards": ["", 2, -4, -4, 13, -80, 62, 13, -11, 57, -13, -44, 1, 4, 3, -4, -29, -88, 15, 16, -58, 68, -45, -1, -3, -1, -9, -44, -86, -19, -7, -36, 59, 66], "withholdReward": false, "trial_id": "mdp_trial_25", "block": "test", "trialIndex": 26, "score": -84, "costs": 0, "simulationMode": [null, null, null, null, null], "rewards": [1, 4, 3, -4, -88], "path": ["0", "0", "12", "13", "14", "15", "17"], "rt": [1364, 492, 102, 406, 552], "actions": ["right", "right", "right", "up", "right"], "actionTimes": [3796, 4795, 5408, 6327, 7391], "queries": {"click": {"state": {"target": [], "time": []}, "edge": {"target": [], "time": []}}, "mouseover": {"state": {"target": [], "time": []}, "edge": {"target": [], "time": []}}, "mouseout": {"state": {"target": ["23", "0"], "time": [1639, 8801]}, "edge": {"target": [], "time": []}}}, "displayed_time": "16.44", "trialTime": 18260, "trial_type": "mouselab-mdp", "trial_index": 33, "time_elapsed": 1202277, "internal_node_id": "0.0-6.0-1.0-24.0"}}, {"uniqueid": "w10092073:a82208013", "current_trial": 34, "dateTime": 1693661651660, "trialdata": {"revealed_states": [], "clicked_states": [], "num_clicks_accrued": [0, 0, 0, 0, 0, 0, 0, 0, 0, 0, 0, 0, 0], "stateRewards": ["", -2, -3, 8, -4, -30, 31, 69, 9, 66, 87, 64, -2, 2, 8, 5, 47, 16, -39, -8, -54, 51, -19, 1, -2, -2, -11, -25, -26, 43, -9, 19, -84, 86], "withholdReward": false, "trial_id": "mdp_trial_26", "block": "test", "trialIndex": 27, "score": 68, "costs": 0, "simulationMode": [null, null, null, null, null], "rewards": [-2, -3, 8, -4, 69], "path": ["0", "0", "1", "2", "3", "4", "7"], "rt": [1285, 66, 7, 152, 458], "actions": ["up", "up", "up", "right", "down"], "actionTimes": [4341, 4922, 5460, 6136, 7111], "queries": {"click": {"state": {"target": [], "time": []}, "edge": {"target": [], "time": []}}, "mouseover": {"state": {"target": [], "time": []}, "edge": {"target": [], "time": []}}, "mouseout": {"state": {"target": ["23", "0", "12", "0"], "time": [1871, 1887, 2321, 9982]}, "edge": {"target": [], "time": []}}}, "displayed_time": "17.06", "trialTime": 20369, "trial_type": "mouselab-mdp", "trial_index": 34, "time_elapsed": 1223138, "internal_node_id": "0.0-6.0-1.0-25.0"}}, {"uniqueid": "w10092073:a82208013", "current_trial": 35, "dateTime": 1693661670373, "trialdata": {"revealed_states": [], "clicked_states": [], "num_clicks_accrued": [0, 0, 0, 0, 0, 0, 0, 0, 0, 0, 0, 0, 0], "stateRewards": ["", -1, 4, 3, 12, -27, 34, -33, 3, -63, 1, 6, 2, 2, -6, -11, -77, -85, 68, -6, 51, 81, -60, -2, -2, 1, 15, 20, 15, 68, -10, -14, 6, -4], "withholdReward": false, "trial_id": "mdp_trial_27", "block": "test", "trialIndex": 28, "score": -9, "costs": 0, "simulationMode": [null, null, null, null, null], "rewards": [-1, 4, 3, 12, -27], "path": ["0", "0", "1", "2", "3", "4", "5"], "rt": [1437, 47, 44, 239, 218], "actions": ["up", "up", "up", "right", "up"], "actionTimes": [4074, 4636, 5216, 5976, 6708], "queries": {"click": {"state": {"target": [], "time": []}, "edge": {"target": [], "time": []}}, "mouseover": {"state": {"target": [], "time": []}, "edge": {"target": [], "time": []}}, "mouseout": {"state": {"target": ["0", "23"], "time": [11549, 12198]}, "edge": {"target": [], "time": []}}}, "displayed_time": "16.64", "trialTime": 18266, "trial_type": "mouselab-mdp", "trial_index": 35, "time_elapsed": 1241850, "internal_node_id": "0.0-6.0-1.0-26.0"}}, {"uniqueid": "w10092073:a82208013", "current_trial": 36, "dateTime": 1693661688761, "trialdata": {"revealed_states": [], "clicked_states": [], "num_clicks_accrued": [0, 0, 0, 0, 0, 0, 0, 0, 0, 0, 0, 0, 0], "stateRewards": ["", -2, -3, 1, -14, 48, -49, 67, -1, -35, -48, 3, -2, 1, -4, -5, 86, -84, 39, 1, 48, 41, -42, -1, -4, 2, -7, 18, -86, 17, 7, -9, 57, -69], "withholdReward": false, "trial_id": "mdp_trial_28", "block": "test", "trialIndex": 29, "score": -2, "costs": 0, "simulationMode": [null, null, null, null, null], "rewards": [-2, -3, 1, -1, 3], "path": ["0", "0", "1", "2", "3", "8", "11"], "rt": [1247, 311, 730, 1388, 609], "actions": ["up", "up", "up", "left", "left"], "actionTimes": [3674, 4504, 5741, 7649, 8769], "queries": {"click": {"state": {"target": [], "time": []}, "edge": {"target": [], "time": []}}, "mouseover": {"state": {"target": [], "time": []}, "edge": {"target": [], "time": []}}, "mouseout": {"state": {"target": ["1", "0"], "time": [1728, 13286]}, "edge": {"target": [], "time": []}}}, "displayed_time": "16.43", "trialTime": 17908, "trial_type": "mouselab-mdp", "trial_index": 36, "time_elapsed": 1260238, "internal_node_id": "0.0-6.0-1.0-27.0"}}, {"uniqueid": "w10092073:a82208013", "current_trial": 37, "dateTime": 1693661706944, "trialdata": {"revealed_states": [], "clicked_states": [], "num_clicks_accrued": [0, 0, 0, 0, 0, 0, 0, 0, 0, 0, 0, 0, 0], "stateRewards": ["", -2, 4, -3, -13, 63, -36, 62, 11, 78, 34, -51, 2, -2, 8, -6, -40, -18, 31, 9, 64, 39, 79, 1, 4, -4, 15, -12, 76, 73, -10, -77, 86, -4], "withholdReward": false, "trial_id": "mdp_trial_29", "block": "test", "trialIndex": 30, "score": 48, "costs": 0, "simulationMode": [null, null, null, null, null], "rewards": [-2, 4, -3, -13, 62], "path": ["0", "0", "1", "2", "3", "4", "7"], "rt": [1248, 302, 7, 156, 318], "actions": ["up", "up", "up", "right", "down"], "actionTimes": [3266, 4086, 4606, 5290, 6118], "queries": {"click": {"state": {"target": [], "time": []}, "edge": {"target": [], "time": []}}, "mouseover": {"state": {"target": [], "time": []}, "edge": {"target": [], "time": []}}, "mouseout": {"state": {"target": ["12", "0"], "time": [1234, 7846]}, "edge": {"target": [], "time": []}}}, "displayed_time": "16.02", "trialTime": 17663, "trial_type": "mouselab-mdp", "trial_index": 37, "time_elapsed": 1278422, "internal_node_id": "0.0-6.0-1.0-28.0"}}, {"uniqueid": "w10092073:a82208013", "current_trial": 38, "dateTime": 1693661724394, "trialdata": {"revealed_states": [], "clicked_states": [], "num_clicks_accrued": [0, 0, 0, 0, 0, 0, 0, 0, 0, 0, 0, 0, 0], "stateRewards": ["", -2, -4, -8, 8, 63, -50, -19, -7, -17, -31, 31, 1, 3, -5, 12, -35, -63, -29, -4, -17, -75, -79, -2, -3, -2, 8, -3, -85, 10, -2, -82, -82, 56], "withholdReward": false, "trial_id": "mdp_trial_30", "block": "test", "trialIndex": 31, "score": 57, "costs": 0, "simulationMode": [null, null, null, null, null], "rewards": [-2, -4, -8, 8, 63], "path": ["0", "0", "1", "2", "3", "4", "5"], "rt": [1288, 135, 77, 209, 339], "actions": ["up", "up", "up", "right", "up"], "actionTimes": [2573, 3221, 3828, 4543, 5391], "queries": {"click": {"state": {"target": [], "time": []}, "edge": {"target": [], "time": []}}, "mouseover": {"state": {"target": [], "time": []}, "edge": {"target": [], "time": []}}, "mouseout": {"state": {"target": ["0"], "time": [13576]}, "edge": {"target": [], "time": []}}}, "displayed_time": "15.29", "trialTime": 16928, "trial_type": "mouselab-mdp", "trial_index": 38, "time_elapsed": 1295871, "internal_node_id": "0.0-6.0-1.0-29.0"}}, {"uniqueid": "w10092073:a82208013", "current_trial": 39, "dateTime": 1693661743108, "trialdata": {"revealed_states": [], "clicked_states": [], "num_clicks_accrued": [0, 0, 0, 0, 0, 0, 0, 0, 0, 0, 0, 0, 0], "stateRewards": ["", -1, 2, 6, 11, 21, -21, -21, -6, 48, -71, 88, -1, -3, 3, 7, 64, 2, 9, -4, 37, -67, 72, 2, 2, -8, -8, -10, 71, -40, -3, 73, 80, 47], "withholdReward": false, "trial_id": "mdp_trial_31", "block": "test", "trialIndex": 32, "score": -3, "costs": 0, "simulationMode": [null, null, null, null, null], "rewards": [-1, 2, 6, 11, -21], "path": ["0", "0", "1", "2", "3", "4", "6"], "rt": [1208, 276, 152, 79, 760], "actions": ["up", "up", "up", "right", "right"], "actionTimes": [4219, 5007, 5665, 6259, 7541], "queries": {"click": {"state": {"target": [], "time": []}, "edge": {"target": [], "time": []}}, "mouseover": {"state": {"target": [], "time": []}, "edge": {"target": [], "time": []}}, "mouseout": {"state": {"target": ["0"], "time": [13891]}, "edge": {"target": [], "time": []}}}, "displayed_time": "17.02", "trialTime": 18205, "trial_type": "mouselab-mdp", "trial_index": 39, "time_elapsed": 1314586, "internal_node_id": "0.0-6.0-1.0-30.0"}}, {"uniqueid": "w10092073:a82208013", "current_trial": 40, "dateTime": 1693661761416, "trialdata": {"revealed_states": [], "clicked_states": [], "num_clicks_accrued": [0, 0, 0, 0, 0, 0, 0, 0, 0, 0, 0, 0, 0], "stateRewards": ["", -1, -4, -1, -11, 43, 69, 39, 4, 17, -20, -82, -2, -1, 4, 8, -79, 24, -79, 11, 36, 64, 41, 2, 4, -1, 11, -79, -47, 75, -3, 63, -36, -19], "withholdReward": false, "trial_id": "mdp_trial_32", "block": "test", "trialIndex": 33, "score": 22, "costs": 0, "simulationMode": [null, null, null, null, null], "rewards": [-1, -4, -1, -11, 39], "path": ["0", "0", "1", "2", "3", "4", "7"], "rt": [976, 230, 53, 53, 92], "actions": ["up", "up", "up", "right", "down"], "actionTimes": [3477, 4226, 4816, 5383, 6004], "queries": {"click": {"state": {"target": [], "time": []}, "edge": {"target": [], "time": []}}, "mouseover": {"state": {"target": [], "time": []}, "edge": {"target": [], "time": []}}, "mouseout": {"state": {"target": ["0", "0", "0"], "time": [947, 1364, 12306]}, "edge": {"target": [], "time": []}}}, "displayed_time": "16.51", "trialTime": 17825, "trial_type": "mouselab-mdp", "trial_index": 40, "time_elapsed": 1332893, "internal_node_id": "0.0-6.0-1.0-31.0"}}, {"uniqueid": "w10092073:a82208013", "current_trial": 41, "dateTime": 1693661779940, "trialdata": {"revealed_states": [], "clicked_states": [], "num_clicks_accrued": [0, 0, 0, 0, 0, 0, 0, 0, 0, 0, 0, 0, 0], "stateRewards": ["", 1, -3, -6, -5, 47, 80, -29, 11, -71, 10, -29, -2, 3, -6, 12, 2, -78, -6, 8, 34, -16, -5, -1, 3, 3, -13, 84, -36, -62, -3, -27, 66, 15], "withholdReward": false, "trial_id": "mdp_trial_33", "block": "test", "trialIndex": 34, "score": 67, "costs": 0, "simulationMode": [null, null, null, null, null], "rewards": [1, -3, -6, -5, 80], "path": ["0", "0", "1", "2", "3", "4", "6"], "rt": [994, 157, 672, 109, 897], "actions": ["up", "up", "up", "right", "right"], "actionTimes": [3530, 4205, 5405, 6023, 7427], "queries": {"click": {"state": {"target": [], "time": []}, "edge": {"target": [], "time": []}}, "mouseover": {"state": {"target": [], "time": []}, "edge": {"target": [], "time": []}}, "mouseout": {"state": {"target": ["0", "12", "0"], "time": [1481, 1726, 13640]}, "edge": {"target": [], "time": []}}}, "displayed_time": "16.54", "trialTime": 18131, "trial_type": "mouselab-mdp", "trial_index": 41, "time_elapsed": 1351416, "internal_node_id": "0.0-6.0-1.0-32.0"}}, {"uniqueid": "w10092073:a82208013", "current_trial": 42, "dateTime": 1693661796859, "trialdata": {"revealed_states": [], "clicked_states": [], "num_clicks_accrued": [0, 0, 0, 0, 0, 0, 0, 0, 0, 0, 0, 0, 0], "stateRewards": ["", -2, 4, 3, 5, -61, 4, 30, 1, -47, 83, 10, 1, 4, 7, -14, 19, -74, -83, 6, -2, -2, -65, -1, -2, 4, -11, 12, -1, -68, 11, -38, -28, 66], "withholdReward": false, "trial_id": "mdp_trial_34", "block": "test", "trialIndex": 35, "score": -51, "costs": 0, "simulationMode": [null, null, null, null, null], "rewards": [-2, 4, 3, 5, -61], "path": ["0", "0", "1", "2", "3", "4", "5"], "rt": [1087, 333, 167, 39, 174], "actions": ["up", "up", "up", "right", "up"], "actionTimes": [2594, 3433, 4114, 4672, 5356], "queries": {"click": {"state": {"target": [], "time": []}, "edge": {"target": [], "time": []}}, "mouseover": {"state": {"target": [], "time": []}, "edge": {"target": [], "time": []}}, "mouseout": {"state": {"target": ["0"], "time": [7729]}, "edge": {"target": [], "time": []}}}, "displayed_time": "15.51", "trialTime": 16517, "trial_type": "mouselab-mdp", "trial_index": 42, "time_elapsed": 1368336, "internal_node_id": "0.0-6.0-1.0-33.0"}}, {"uniqueid": "w10092073:a82208013", "current_trial": 43, "dateTime": 1693661813566, "trialdata": {"revealed_states": [], "clicked_states": [], "num_clicks_accrued": [0, 0, 0, 0, 0, 0, 0, 0, 0, 0, 0, 0, 0], "stateRewards": ["", 2, -4, 7, 3, 23, -42, 4, 7, -81, -33, 7, -2, -4, 5, -1, 50, -57, -14, -13, -14, 44, 55, -2, -2, 5, -2, 33, 1, 57, -13, -7, 58, 87], "withholdReward": false, "trial_id": "mdp_trial_35", "block": "test", "trialIndex": 36, "score": 12, "costs": 0, "simulationMode": [null, null, null, null, null], "rewards": [2, -4, 7, 3, 4], "path": ["0", "0", "1", "2", "3", "4", "7"], "rt": [1062, 264, 11, 74, 184], "actions": ["up", "up", "up", "right", "down"], "actionTimes": [2188, 2963, 3492, 4087, 4781], "queries": {"click": {"state": {"target": [], "time": []}, "edge": {"target": [], "time": []}}, "mouseover": {"state": {"target": [], "time": []}, "edge": {"target": [], "time": []}}, "mouseout": {"state": {"target": ["0"], "time": [7693]}, "edge": {"target": [], "time": []}}}, "displayed_time": "15.13", "trialTime": 16319, "trial_type": "mouselab-mdp", "trial_index": 43, "time_elapsed": 1385043, "internal_node_id": "0.0-6.0-1.0-34.0"}}, {"uniqueid": "w10092073:a82208013", "current_trial": 44, "dateTime": 1693661830406, "trialdata": {"revealed_states": [], "clicked_states": [], "num_clicks_accrued": [0, 0, 0, 0, 0, 0, 0, 0, 0, 0, 0, 0, 0], "stateRewards": ["", 2, 3, 6, -12, -29, 12, 87, 4, 35, -30, 67, 2, 3, -5, -9, 44, 69, -8, 1, 45, -8, 28, -2, -1, -8, 11, -12, -5, 81, 9, 87, 82, 88], "withholdReward": false, "trial_id": "mdp_trial_36", "block": "test", "trialIndex": 37, "score": 11, "costs": 0, "simulationMode": [null, null, null, null, null], "rewards": [2, 3, 6, -12, 12], "path": ["0", "0", "1", "2", "3", "4", "6"], "rt": [963, 271, 1168, 598, 121], "actions": ["up", "up", "up", "right", "right"], "actionTimes": [2131, 2915, 4596, 5711, 6345], "queries": {"click": {"state": {"target": [], "time": []}, "edge": {"target": [], "time": []}}, "mouseover": {"state": {"target": [], "time": []}, "edge": {"target": [], "time": []}}, "mouseout": {"state": {"target": ["0"], "time": [7889]}, "edge": {"target": [], "time": []}}}, "displayed_time": "15.17", "trialTime": 16453, "trial_type": "mouselab-mdp", "trial_index": 44, "time_elapsed": 1401883, "internal_node_id": "0.0-6.0-1.0-35.0"}}, {"uniqueid": "w10092073:a82208013", "current_trial": 45, "dateTime": 1693661847546, "trialdata": {"revealed_states": [], "clicked_states": [], "num_clicks_accrued": [0, 0, 0, 0, 0, 0, 0, 0, 0, 0, 0, 0, 0], "stateRewards": ["", 2, -3, 5, 11, -79, 54, 11, -9, -78, 33, 22, -2, -1, 2, 14, 43, 34, 1, 10, 49, -65, 39, -1, 1, -1, 3, -16, -2, 11, 2, 12, 48, -65], "withholdReward": false, "trial_id": "mdp_trial_37", "block": "test", "trialIndex": 38, "score": -64, "costs": 0, "simulationMode": [null, null, null, null, null], "rewards": [2, -3, 5, 11, -79], "path": ["0", "0", "1", "2", "3", "4", "5"], "rt": [1216, 20, 908, 129, 1041], "actions": ["up", "up", "up", "right", "up"], "actionTimes": [2785, 3315, 4748, 5388, 6950], "queries": {"click": {"state": {"target": [], "time": []}, "edge": {"target": [], "time": []}}, "mouseover": {"state": {"target": [], "time": []}, "edge": {"target": [], "time": []}}, "mouseout": {"state": {"target": ["0"], "time": [8637]}, "edge": {"target": [], "time": []}}}, "displayed_time": "15.58", "trialTime": 16640, "trial_type": "mouselab-mdp", "trial_index": 45, "time_elapsed": 1419023, "internal_node_id": "0.0-6.0-1.0-36.0"}}, {"uniqueid": "w10092073:a82208013", "current_trial": 46, "dateTime": 1693661865638, "trialdata": {"revealed_states": [], "clicked_states": [], "num_clicks_accrued": [0, 0, 0, 0, 0, 0, 0, 0, 0, 0, 0, 0, 0], "stateRewards": ["", -1, -2, -1, -10, -57, 73, -72, -16, 75, -14, -46, -2, -3, -7, -1, -61, -60, 76, -4, 50, 4, 14, 2, 2, -7, 12, -65, -32, 15, -8, -76, -25, -61], "withholdReward": false, "trial_id": "mdp_trial_38", "block": "test", "trialIndex": 39, "score": -86, "costs": 0, "simulationMode": [null, null, null, null, null], "rewards": [-1, -2, -1, -10, -72], "path": ["0", "0", "1", "2", "3", "4", "7"], "rt": [1020, 8, 91, 124, 195], "actions": ["up", "up", "up", "right", "down"], "actionTimes": [2337, 2867, 3483, 4116, 4819], "queries": {"click": {"state": {"target": [], "time": []}, "edge": {"target": [], "time": []}}, "mouseover": {"state": {"target": [], "time": []}, "edge": {"target": [], "time": []}}, "mouseout": {"state": {"target": ["0"], "time": [9602]}, "edge": {"target": [], "time": []}}}, "displayed_time": "15.32", "trialTime": 17494, "trial_type": "mouselab-mdp", "trial_index": 46, "time_elapsed": 1437115, "internal_node_id": "0.0-6.0-1.0-37.0"}}, {"uniqueid": "w10092073:a82208013", "current_trial": 47, "dateTime": 1693661884819, "trialdata": {"revealed_states": [], "clicked_states": [], "num_clicks_accrued": [0, 0, 0, 0, 0, 0, 0, 0, 0, 0, 0, 0, 0], "stateRewards": ["", -2, 2, -4, -4, -59, 88, 62, -3, 69, -15, -34, 1, -2, -5, 7, -54, -20, 78, -16, -74, -53, -21, 2, -4, 2, 13, -8, -44, 26, 9, 72, 4, 17], "withholdReward": false, "trial_id": "mdp_trial_39", "block": "test", "trialIndex": 40, "score": -41, "costs": 0, "simulationMode": [null, null, null, null, null], "rewards": [-2, 2, -4, -3, -34], "path": ["0", "0", "1", "2", "3", "8", "11"], "rt": [1290, 109, 110, 1169, 72], "actions": ["up", "up", "up", "left", "left"], "actionTimes": [3887, 4513, 5147, 6838, 7422], "queries": {"click": {"state": {"target": [], "time": []}, "edge": {"target": [], "time": []}}, "mouseover": {"state": {"target": [], "time": []}, "edge": {"target": [], "time": []}}, "mouseout": {"state": {"target": ["0"], "time": [11813]}, "edge": {"target": [], "time": []}}}, "displayed_time": "16.61", "trialTime": 18669, "trial_type": "mouselab-mdp", "trial_index": 47, "time_elapsed": 1456296, "internal_node_id": "0.0-6.0-1.0-38.0"}}, {"uniqueid": "w10092073:a82208013", "current_trial": 48, "dateTime": 1693661902882, "trialdata": {"revealed_states": [], "clicked_states": [], "num_clicks_accrued": [0, 0, 0, 0, 0, 0, 0, 0, 0, 0, 0, 0, 0], "stateRewards": ["", 1, 2, 8, -2, 23, -69, -18, -16, 54, -21, 71, -1, -4, 7, 11, 43, -6, 88, 6, -55, 72, 43, 1, -3, -2, -1, 68, -31, -54, 4, -8, 25, -2], "withholdReward": false, "trial_id": "mdp_trial_40", "block": "test", "trialIndex": 41, "score": -60, "costs": 0, "simulationMode": [null, null, null, null, null], "rewards": [1, 2, 8, -2, -69], "path": ["0", "0", "1", "2", "3", "4", "6"], "rt": [927, 273, 779, 382, 54], "actions": ["up", "up", "up", "right", "right"], "actionTimes": [3218, 4004, 5294, 6196, 6767], "queries": {"click": {"state": {"target": [], "time": []}, "edge": {"target": [], "time": []}}, "mouseover": {"state": {"target": [], "time": []}, "edge": {"target": [], "time": []}}, "mouseout": {"state": {"target": ["0"], "time": [8111]}, "edge": {"target": [], "time": []}}}, "displayed_time": "16.30", "trialTime": 17609, "trial_type": "mouselab-mdp", "trial_index": 48, "time_elapsed": 1474359, "internal_node_id": "0.0-6.0-1.0-39.0"}}, {"uniqueid": "w10092073:a82208013", "current_trial": 49, "dateTime": 1693661977379, "trialdata": {"rt": 74470, "response": {"Q0": "$-16 to 16", "Q1": "$-16 to $16", "Q2": "$-88 to $88", "Q3": "The cost for clicking on nodes varied between nodes.", "Q4": "Very motivated"}, "question_order": [0, 1, 2, 3, 4], "trial_id": "final_quiz_control", "trial_type": "survey-multi-choice", "trial_index": 49, "time_elapsed": 1548857, "internal_node_id": "0.0-6.0-2.0"}}, {"uniqueid": "w10092073:a82208013", "current_trial": 50, "dateTime": 1693662112521, "trialdata": {"rt": 135123, "response": {"Q0": "I basically tried every corner of the web to see if the amounts would be consistant and then followed the one i made most money on.", "Q1": "I thought i did but the results have proven me wrong", "Q2": "It was a bit difficult but i enjoyed playing"}, "trial_id": "self_report_control", "trial_type": "survey-text", "trial_index": 50, "time_elapsed": 1683999, "internal_node_id": "0.0-6.0-3.0"}}, {"uniqueid": "w10092073:a82208013", "current_trial": 51, "dateTime": 1693662156510, "trialdata": {"rt": 43975, "response": {"gender": "female", "age": "29", "colorblind": "0", "effort": "0"}, "trial_type": "survey-html-form", "trial_index": 51, "time_elapsed": 1727988, "internal_node_id": "0.0-6.0-4.0"}}, {"uniqueid": "w10092073:a82208013", "current_trial": 52, "dateTime": 1693662245864, "trialdata": {"rt": 89345, "response": {"Q0": "No, the instructions were clear to me.", "Q1": "No, I have never participated in this experiment before", "Q2": "Enjoyed the experiment. Thank you."}, "trial_type": "survey-text", "trial_index": 52, "time_elapsed": 1817341, "internal_node_id": "0.0-6.0-5.0"}}, {"uniqueid": "w10092073:a82208013", "current_trial": 53, "dateTime": 1693662313713, "trialdata": {"rt": 67841, "stimulus": "<h1>Completion Code Instructions (1/2)</h1>\n<br><br><br><br>\nYou have reached the end of the experiment! The completion code consists of two parts: (1) a code with 2 characters (2) a code with 6 characters. On this page, you will receive the second part of the code. The first part of the completion code will be on the next page.\n<br><br>\nThe second part of your completion code is: <b>EWEK22</b>\n<br><br>\nPlease note this down. Then, press 'Next' in order to find the first part of your completion code. Once the data has been saved, you will receive this code either in this window or in the original browser window where you started the experiment.\n <br><br>\n<h2 style='color: red;'>Note: this is <strong>NOT</strong> the full completion code. Copy this down and click 'Next' to get the full completion code on the next page.</h2>", "response": 0, "trial_type": "html-button-response", "trial_index": 53, "time_elapsed": 1885191, "internal_node_id": "0.0-6.0-6.0"}}, {"uniqueid": "w10092073:a82208013", "current_trial": 54, "dateTime": 1693662314720, "trialdata": {"success": true, "trial_type": "fullscreen", "trial_index": 54, "time_elapsed": 1886198, "internal_node_id": "0.0-7.0"}}], "questiondata": {"params": {"CODE": "C6DMOQA6", "MIN_TIME": 14, "inspectCost": 1, "startTime": "Sat Sep 02 2023 15:13:43 GMT+0200 (South Africa Standard Time)", "bonusRate": 0.002, "variance": "1_2_4_8_44", "branching": "31123"}, "final_score": -301}, "eventdata": [{"eventtype": "initialized", "interval": 0, "timestamp": 1693660388625, "value": null}, {"eventtype": "window_resize", "interval": 0, "timestamp": 1693660388625, "value": [1024, 587]}, {"eventtype": "window_resize", "interval": 687, "timestamp": 1693660389312, "value": [1024, 587]}, {"eventtype": "window_resize", "value": [1181, 595], "timestamp": 1693660423392, "interval": 34080}, {"eventtype": "focus", "value": "off", "timestamp": 1693660438360, "interval": 14968}, {"eventtype": "focus", "value": "on", "timestamp": 1693660440969, "interval": 2609}, {"eventtype": "window_resize", "value": [1181, 664], "timestamp": 1693660441168, "interval": 199}], "useragent": "Mozilla/5.0 (X11; CrOS x86_64 14541.0.0) AppleWebKit/537.36 (KHTML, like Gecko) Chrome/116.0.0.0 Safari/537.36", "mode": "live", "id": "w10092073:a82208013", "status": "user data saved", "Beginhit": "2023-09-02 13:13:04.666355", "Beginexp": "2023-09-02 13:14:08.841423", "Endhit": "2023-09-02 13:45:19.725168", "psiturkStatus": 3, "browser": "<redacted>", "platform": "chromeos", "language": "en-GB"}