{"condition": 0, "counterbalance": 0, "assignmentId": "a23046011", "workerId": "w23448887", "hitId": "h98411460", "currenttrial": 62, "bonus": 0, "data": [{"uniqueid": "w23448887:a23046011", "current_trial": 0, "dateTime": 1691485293527, "trialdata": {"success": true, "trial_type": "fullscreen", "trial_index": 0, "time_elapsed": 3808, "internal_node_id": "0.0-0.0"}}, {"uniqueid": "w23448887:a23046011", "current_trial": 1, "dateTime": 1691485300713, "trialdata": {"view_history": [{"page_index": 0, "viewing_time": 7174}], "rt": 7174, "trial_id": "exp_instructions_misaligned", "trial_type": "instructions", "trial_index": 1, "time_elapsed": 10994, "internal_node_id": "0.0-1.0"}}, {"uniqueid": "w23448887:a23046011", "current_trial": 2, "dateTime": 1691485305653, "trialdata": {"success": true, "trial_type": "fullscreen", "trial_index": 2, "time_elapsed": 15934, "internal_node_id": "0.0-2.0-0.0"}}, {"uniqueid": "w23448887:a23046011", "current_trial": 3, "dateTime": 1691485410083, "trialdata": {"view_history": [{"page_index": 0, "viewing_time": 55244}, {"page_index": 1, "viewing_time": 10752}, {"page_index": 2, "viewing_time": 4991}, {"page_index": 3, "viewing_time": 33440}], "rt": 104428, "trial_id": "mouselab_instructions_1_misaligned", "trial_type": "instructions", "trial_index": 3, "time_elapsed": 120364, "internal_node_id": "0.0-2.0-1.0"}}, {"uniqueid": "w23448887:a23046011", "current_trial": 4, "dateTime": 1691485428528, "trialdata": {"revealed_states": [], "clicked_states": [], "num_clicks_accrued": [0, 0, 0, 0, 0, 0, 0, 0, 0, 0, 0, 0, 0], "stateRewards": ["", 10, -10, -10, -10, 10, -10, -10, -10, -10, 10, 10, -10, 10, -10, -10, 10, 10, 10, -10, 10, -10, 10, 10, -10, 10, -10, -10, -10, -10, 10, -10, -10, -10], "withholdReward": false, "trial_id": "practice_1", "block": "test", "trialIndex": 0, "score": -6.5, "costs": 0, "simulationMode": [null, null, null, null, null], "rewards": [-10, 10, -10, -10, 10], "path": ["0", "0", "12", "13", "14", "15", "17"], "rt": [3840, 1804, 410, 210, 350], "actions": ["right", "right", "right", "up", "right"], "actionTimes": [9214, 11537, 12462, 13193, 14066], "queries": {"click": {"state": {"target": [], "time": []}, "edge": {"target": [], "time": []}}, "mouseover": {"state": {"target": [], "time": []}, "edge": {"target": [], "time": []}}, "mouseout": {"state": {"target": ["4", "7"], "time": [4228, 4313]}, "edge": {"target": [], "time": []}}}, "displayed_time": "14.58", "trialTime": 17558, "trial_type": "mouselab-mdp", "trial_index": 4, "time_elapsed": 138808, "internal_node_id": "0.0-2.0-2.0-0.0"}}, {"uniqueid": "w23448887:a23046011", "current_trial": 5, "dateTime": 1691485437336, "trialdata": {"revealed_states": [], "clicked_states": [], "num_clicks_accrued": [0, 0, 0, 0, 0, 0, 0, 0, 0, 0, 0, 0, 0], "stateRewards": ["", -10, -10, 10, 10, 10, -10, 10, 10, 10, -10, 10, -10, 10, 10, -10, -10, 10, 10, 10, -10, -10, 10, 10, 10, -10, 10, 10, 10, -10, -10, -10, 10, -10], "withholdReward": false, "trial_id": "practice_2", "block": "test", "trialIndex": 1, "score": 13.5, "costs": 0, "simulationMode": [null, null, null, null, null], "rewards": [10, 10, -10, 10, -10], "path": ["0", "0", "23", "24", "25", "26", "29"], "rt": [936, 133, 161, 786, 358], "actions": ["left", "left", "left", "up", "left"], "actionTimes": [2887, 3517, 4194, 5501, 6372], "queries": {"click": {"state": {"target": [], "time": []}, "edge": {"target": [], "time": []}}, "mouseover": {"state": {"target": [], "time": []}, "edge": {"target": [], "time": []}}, "mouseout": {"state": {"target": [], "time": []}, "edge": {"target": [], "time": []}}}, "displayed_time": "6.88", "trialTime": 8354, "trial_type": "mouselab-mdp", "trial_index": 5, "time_elapsed": 147616, "internal_node_id": "0.0-2.0-2.0-1.0"}}, {"uniqueid": "w23448887:a23046011", "current_trial": 6, "dateTime": 1691485461193, "trialdata": {"view_history": [{"page_index": 0, "viewing_time": 15175}, {"page_index": 1, "viewing_time": 8672}], "rt": 23848, "trial_id": "mouselab_instructions_2_misaligned", "trial_type": "instructions", "trial_index": 6, "time_elapsed": 171474, "internal_node_id": "0.0-2.0-3.0"}}, {"uniqueid": "w23448887:a23046011", "current_trial": 7, "dateTime": 1691485508948, "trialdata": {"rt": 47749, "response": {"Q0": "The cost for clicking on nodes may vary between nodes.", "Q1": "The better I perform the higher my bonus will be.", "Q2": "No, the amount of cash at each node of the web may be different each time.", "Q3": "To get the highest total score.", "Q4": "Only after moving the spider.", "Q5": "3 seconds"}, "question_order": [0, 1, 2, 3, 4, 5], "correct": {"Q0": "The cost for clicking on nodes may vary between nodes.", "Q1": "The better I perform the higher my bonus will be.", "Q2": "No, the amount of cash at each node of the web may be different each time.", "Q3": "To get the highest total score.", "Q4": "Only before moving the spider.", "Q5": "3 seconds"}, "trial_id": "mouselab_quiz_misaligned", "trial_type": "survey-multi-choice", "trial_index": 7, "time_elapsed": 219229, "internal_node_id": "0.0-2.0-4.0"}}, {"uniqueid": "w23448887:a23046011", "current_trial": 8, "dateTime": 1691485515712, "trialdata": {"success": true, "trial_type": "fullscreen", "trial_index": 8, "time_elapsed": 225993, "internal_node_id": "0.0-2.1-0.1"}}, {"uniqueid": "w23448887:a23046011", "current_trial": 9, "dateTime": 1691485537123, "trialdata": {"view_history": [{"page_index": 0, "viewing_time": 6671}, {"page_index": 1, "viewing_time": 13011}, {"page_index": 2, "viewing_time": 923}, {"page_index": 3, "viewing_time": 800}], "rt": 21405, "trial_id": "mouselab_instructions_1_misaligned", "trial_type": "instructions", "trial_index": 9, "time_elapsed": 247403, "internal_node_id": "0.0-2.1-1.1"}}, {"uniqueid": "w23448887:a23046011", "current_trial": 10, "dateTime": 1691485545244, "trialdata": {"revealed_states": [], "clicked_states": [], "num_clicks_accrued": [0, 0, 0, 0, 0, 0, 0, 0, 0, 0, 0, 0, 0], "stateRewards": ["", 10, -10, -10, -10, 10, -10, -10, -10, -10, 10, 10, -10, 10, -10, -10, 10, 10, 10, -10, 10, -10, 10, 10, -10, 10, -10, -10, -10, -10, 10, -10, -10, -10], "withholdReward": false, "trial_id": "practice_1", "block": "test", "trialIndex": 2, "score": -6.5, "costs": 0, "simulationMode": [null, null, null, null, null], "rewards": [-10, 10, -10, -10, 10], "path": ["0", "0", "12", "13", "14", "19", "20"], "rt": [849, 269, 100, 179, 173], "actions": ["right", "right", "right", "down", "right"], "actionTimes": [3342, 4119, 4737, 5435, 6128], "queries": {"click": {"state": {"target": [], "time": []}, "edge": {"target": [], "time": []}}, "mouseover": {"state": {"target": [], "time": []}, "edge": {"target": [], "time": []}}, "mouseout": {"state": {"target": ["16", "18", "12", "0"], "time": [1715, 1782, 1865, 7207]}, "edge": {"target": [], "time": []}}}, "displayed_time": "6.64", "trialTime": 7687, "trial_type": "mouselab-mdp", "trial_index": 10, "time_elapsed": 255524, "internal_node_id": "0.0-2.1-2.1-0.1"}}, {"uniqueid": "w23448887:a23046011", "current_trial": 11, "dateTime": 1691485574484, "trialdata": {"revealed_states": [], "clicked_states": [], "num_clicks_accrued": [0, 0, 0, 0, 0, 0, 0, 0, 0, 0, 0, 0, 0], "stateRewards": ["", -10, -10, 10, 10, 10, -10, 10, 10, 10, -10, 10, -10, 10, 10, -10, -10, 10, 10, 10, -10, -10, 10, 10, 10, -10, 10, 10, 10, -10, -10, -10, 10, -10], "withholdReward": false, "trial_id": "practice_2", "block": "test", "trialIndex": 3, "score": 13.5, "costs": 0, "simulationMode": [null, null, null, null, null], "rewards": [-10, -10, 10, 10, 10], "path": ["0", "0", "1", "2", "3", "8", "11"], "rt": [1484, 159, 116, 273, 87], "actions": ["up", "up", "up", "left", "left"], "actionTimes": [20381, 21058, 21717, 22508, 23122], "queries": {"click": {"state": {"target": [], "time": []}, "edge": {"target": [], "time": []}}, "mouseover": {"state": {"target": [], "time": []}, "edge": {"target": [], "time": []}}, "mouseout": {"state": {"target": [], "time": []}, "edge": {"target": [], "time": []}}}, "displayed_time": "23.62", "trialTime": 28794, "trial_type": "mouselab-mdp", "trial_index": 11, "time_elapsed": 284764, "internal_node_id": "0.0-2.1-2.1-1.1"}}, {"uniqueid": "w23448887:a23046011", "current_trial": 12, "dateTime": 1691485577877, "trialdata": {"view_history": [{"page_index": 0, "viewing_time": 1534}, {"page_index": 1, "viewing_time": 1852}], "rt": 3387, "trial_id": "mouselab_instructions_2_misaligned", "trial_type": "instructions", "trial_index": 12, "time_elapsed": 288158, "internal_node_id": "0.0-2.1-3.1"}}, {"uniqueid": "w23448887:a23046011", "current_trial": 13, "dateTime": 1691485594920, "trialdata": {"rt": 17034, "response": {"Q0": "The cost for clicking on nodes may vary between nodes.", "Q1": "The better I perform the higher my bonus will be.", "Q2": "No, the amount of cash at each node of the web may be different each time.", "Q3": "To get the highest total score.", "Q4": "Only before moving the spider.", "Q5": "3 seconds"}, "question_order": [0, 1, 2, 3, 4, 5], "correct": {"Q0": "The cost for clicking on nodes may vary between nodes.", "Q1": "The better I perform the higher my bonus will be.", "Q2": "No, the amount of cash at each node of the web may be different each time.", "Q3": "To get the highest total score.", "Q4": "Only before moving the spider.", "Q5": "3 seconds"}, "trial_id": "mouselab_quiz_misaligned", "trial_type": "survey-multi-choice", "trial_index": 13, "time_elapsed": 305201, "internal_node_id": "0.0-2.1-4.1"}}, {"uniqueid": "w23448887:a23046011", "current_trial": 14, "dateTime": 1691485632473, "trialdata": {"rt": 37538, "stimulus": "\n<h1> Get ready to start the game! </h1>\n\nThank you for reading the instructions. Get ready start with the 40 rounds of this game.\n<br><br>\nIf you need to take a break, feel free to take one after the end of a round, before continuing to the next one.\n<br><br>\nRemember, the more money the spider gets, the bigger your bonus will be!\n<br><br>\n<div style='text-align: center;'>Press <code>space</code> to begin.</div>\n\n<br><br>\n(If, at any point, the <code>space</code> key does not take you to the next page, click once on the text and try again.)", "response": " ", "trial_id": "mdp_ready", "trial_type": "html-keyboard-response", "trial_index": 14, "time_elapsed": 342754, "internal_node_id": "0.0-4.0-0.0"}}, {"uniqueid": "w23448887:a23046011", "current_trial": 15, "dateTime": 1691485654092, "trialdata": {"revealed_states": [], "clicked_states": [], "num_clicks_accrued": [0, 0, 0, 0, 0, 0, 0, 0, 0, 0, 0, 0, 0], "stateRewards": ["", 2, 3, 8, 14, 69, -27, 17, 2, -71, -65, -10, 2, -3, 7, 8, 65, -10, 65, -12, 73, -12, 13, -2, -2, 6, 10, -79, -69, -18, 10, -85, 67, 74], "withholdReward": false, "trial_id": "mdp_trial_1", "block": "test", "trialIndex": 4, "score": 7, "costs": 0, "simulationMode": [null, null, null, null, null], "rewards": [2, -3, 7, -12, 13], "path": ["0", "0", "12", "13", "14", "19", "22"], "rt": [656, 1807, 1214, 768, 1797], "actions": ["right", "right", "right", "down", "left"], "actionTimes": [2895, 5208, 6943, 8234, 10547], "queries": {"click": {"state": {"target": [], "time": []}, "edge": {"target": [], "time": []}}, "mouseover": {"state": {"target": [], "time": []}, "edge": {"target": [], "time": []}}, "mouseout": {"state": {"target": ["0"], "time": [1345]}, "edge": {"target": [], "time": []}}}, "displayed_time": "16.24", "trialTime": 21135, "trial_type": "mouselab-mdp", "trial_index": 15, "time_elapsed": 364372, "internal_node_id": "0.0-4.0-1.0-0.0"}}, {"uniqueid": "w23448887:a23046011", "current_trial": 16, "dateTime": 1691485673206, "trialdata": {"revealed_states": [], "clicked_states": [], "num_clicks_accrued": [0, 0, 0, 0, 0, 0, 0, 0, 0, 0, 0, 0, 0], "stateRewards": ["", 1, 1, -5, 8, -6, 45, 16, -6, -7, -22, -38, -1, -4, 8, -11, -16, 21, -45, -15, -59, -32, 42, -1, 3, 6, 11, -7, 34, -27, -8, 85, 43, -9], "withholdReward": false, "trial_id": "mdp_trial_2", "block": "test", "trialIndex": 5, "score": 12, "costs": 0, "simulationMode": [null, null, null, null, null], "rewards": [-1, 3, 6, 11, -7], "path": ["0", "0", "23", "24", "25", "26", "27"], "rt": [821, 141, 172, 1472, 2214], "actions": ["left", "left", "left", "up", "up"], "actionTimes": [2379, 3039, 3731, 5730, 8467], "queries": {"click": {"state": {"target": [], "time": []}, "edge": {"target": [], "time": []}}, "mouseover": {"state": {"target": [], "time": []}, "edge": {"target": [], "time": []}}, "mouseout": {"state": {"target": ["0"], "time": [1220]}, "edge": {"target": [], "time": []}}}, "displayed_time": "15.57", "trialTime": 18645, "trial_type": "mouselab-mdp", "trial_index": 16, "time_elapsed": 383486, "internal_node_id": "0.0-4.0-1.0-1.0"}}, {"uniqueid": "w23448887:a23046011", "current_trial": 17, "dateTime": 1691485692594, "trialdata": {"revealed_states": [], "clicked_states": [], "num_clicks_accrued": [0, 0, 0, 0, 0, 0, 0, 0, 0, 0, 0, 0, 0], "stateRewards": ["", 2, 3, 8, 11, 25, -80, 6, -4, -56, 84, -23, -2, -4, -3, 4, -51, -9, -61, -15, -64, 67, -35, 1, -1, -7, -6, 83, 59, -15, 12, -79, 56, 41], "withholdReward": false, "trial_id": "mdp_trial_3", "block": "test", "trialIndex": 6, "score": 93, "costs": 0, "simulationMode": [null, null, null, null, null], "rewards": [2, 3, 8, -4, 84], "path": ["0", "0", "1", "2", "3", "8", "10"], "rt": [1592, 135, 94, 404, 231], "actions": ["up", "up", "up", "left", "down"], "actionTimes": [3188, 3843, 4451, 5381, 6125], "queries": {"click": {"state": {"target": [], "time": []}, "edge": {"target": [], "time": []}}, "mouseover": {"state": {"target": [], "time": []}, "edge": {"target": [], "time": []}}, "mouseout": {"state": {"target": ["0"], "time": [1216]}, "edge": {"target": [], "time": []}}}, "displayed_time": "15.60", "trialTime": 18907, "trial_type": "mouselab-mdp", "trial_index": 17, "time_elapsed": 402875, "internal_node_id": "0.0-4.0-1.0-2.0"}}, {"uniqueid": "w23448887:a23046011", "current_trial": 18, "dateTime": 1691485710087, "trialdata": {"revealed_states": [], "clicked_states": [], "num_clicks_accrued": [0, 0, 0, 0, 0, 0, 0, 0, 0, 0, 0, 0, 0], "stateRewards": ["", -1, 4, -5, 9, 29, -75, -42, -16, 24, -28, -41, 2, -3, 1, 10, 60, 47, 55, -1, -53, 22, -40, 2, -3, -6, 4, -26, 44, 54, 15, -76, 42, 14], "withholdReward": false, "trial_id": "mdp_trial_4", "block": "test", "trialIndex": 7, "score": -68, "costs": 0, "simulationMode": [null, null, null, null, null], "rewards": [2, -3, -6, 15, -76], "path": ["0", "0", "23", "24", "25", "30", "31"], "rt": [1099, 101, 103, 4560, 319], "actions": ["left", "left", "left", "down", "right"], "actionTimes": [2741, 3340, 3956, 9032, 9870], "queries": {"click": {"state": {"target": [], "time": []}, "edge": {"target": [], "time": []}}, "mouseover": {"state": {"target": [], "time": []}, "edge": {"target": [], "time": []}}, "mouseout": {"state": {"target": ["0", "0", "23", "25"], "time": [1310, 5137, 5154, 6400]}, "edge": {"target": [], "time": []}}}, "displayed_time": "15.65", "trialTime": 16946, "trial_type": "mouselab-mdp", "trial_index": 18, "time_elapsed": 420367, "internal_node_id": "0.0-4.0-1.0-3.0"}}, {"uniqueid": "w23448887:a23046011", "current_trial": 19, "dateTime": 1691485727042, "trialdata": {"revealed_states": [], "clicked_states": ["19", "15", "26", "8", "4", "30", "25"], "num_clicks_accrued": [0, 0, 0, 0, 0, 0, 0, 0, 0, 0, 0, 0, 0], "stateRewards": ["", -2, 2, 5, -14, -56, 64, 84, -5, 52, 39, 85, -2, 1, 7, 8, 21, 29, -78, -9, -10, -69, 10, -2, -1, -7, 15, 72, 20, 41, -2, 52, 80, 22], "withholdReward": false, "trial_id": "mdp_trial_5", "block": "test", "trialIndex": 8, "score": 35.75, "costs": -10.25, "simulationMode": [null, null, null, null, null], "rewards": [-2, -1, -7, 15, 41], "path": ["0", "0", "23", "24", "25", "26", "29"], "rt": [10367, 26, 57, 149, 52], "actions": ["left", "left", "left", "up", "left"], "actionTimes": [11766, 12304, 12886, 13560, 14113], "queries": {"click": {"state": {"target": ["19", "15", "26", "8", "4", "30", "25"], "time": [2739, 3889, 5045, 6254, 7390, 9028, 10078]}, "edge": {"target": [], "time": []}}, "mouseover": {"state": {"target": ["12", "13", "14", "14", "19", "14", "15", "18", "1", "26", "27", "11", "8", "3", "8", "3", "4", "4", "7", "1", "23", "24", "30", "25", "25"], "time": [1781, 1811, 1845, 2112, 2546, 3380, 3680, 4445, 4478, 4912, 5561, 5612, 5649, 5794, 6111, 6746, 6778, 7027, 7860, 7925, 7962, 7995, 8793, 9596, 9926]}, "edge": {"target": [], "time": []}}, "mouseout": {"state": {"target": ["30", "23", "0", "0", "12", "13", "14", "14", "19", "14", "15", "18", "1", "26", "27", "11", "8", "3", "8", "3", "4", "4", "7", "1", "23", "24", "30", "25", "25", "24"], "time": [526, 609, 675, 1763, 1796, 1826, 1878, 2379, 3347, 3495, 4428, 4460, 4512, 5545, 5578, 5632, 5678, 6078, 6727, 6760, 6812, 7844, 7894, 7942, 7976, 8010, 9592, 9625, 15213, 15245]}, "edge": {"target": [], "time": []}}}, "displayed_time": "15.40", "trialTime": 16430, "trial_type": "mouselab-mdp", "trial_index": 19, "time_elapsed": 437322, "internal_node_id": "0.0-4.0-1.0-4.0"}}, {"uniqueid": "w23448887:a23046011", "current_trial": 20, "dateTime": 1691485754828, "trialdata": {"revealed_states": [], "clicked_states": ["19", "14", "15", "16", "18", "13", "12", "1", "2", "3", "4", "6", "25", "26", "27"], "num_clicks_accrued": [0, 0, 0, 0, 0, 0, 0, 0, 0, 0, 0, 0, 0], "stateRewards": ["", -2, 4, -5, -12, 85, -24, -18, -15, -78, -22, 26, -1, -1, 2, 14, -45, 52, -23, 7, -33, 24, -6, -2, -4, 5, -7, -16, 36, -39, 5, 71, -87, -23], "withholdReward": false, "trial_id": "mdp_trial_6", "block": "test", "trialIndex": 9, "score": -100.85, "costs": -17.849999999999998, "simulationMode": [null, null, null, null, null], "rewards": [-2, -4, 5, 5, -87], "path": ["0", "0", "23", "24", "25", "30", "32"], "rt": [21390, 14, 2, 77, 4], "actions": ["left", "left", "left", "down", "down"], "actionTimes": [23218, 23758, 24284, 24890, 25415], "queries": {"click": {"state": {"target": ["19", "14", "15", "16", "18", "13", "12", "1", "2", "3", "4", "6", "25", "26", "27"], "time": [2673, 3333, 3964, 5127, 8146, 11079, 11826, 12730, 13566, 14246, 14930, 15586, 18554, 19497, 20429]}, "edge": {"target": [], "time": []}}, "mouseover": {"state": {"target": ["12", "13", "14", "19", "14", "14", "15", "18", "16", "16", "17", "17", "15", "18", "15", "17", "13", "12", "1", "2", "3", "4", "4", "6", "8", "10", "1", "24", "25", "26", "26", "27", "28", "23", "0"], "time": [1949, 2000, 2082, 2450, 3016, 3316, 3732, 4451, 4800, 4916, 5813, 6912, 7566, 7649, 8663, 8995, 9780, 11512, 12380, 13154, 13977, 14581, 14730, 15463, 16013, 16860, 17796, 18161, 18353, 18948, 19261, 20061, 20978, 21045, 22108]}, "edge": {"target": [], "time": []}}, "mouseout": {"state": {"target": ["0", "12", "13", "14", "19", "14", "14", "15", "18", "16", "16", "17", "15", "17", "15", "18", "15", "17", "13", "12", "1", "2", "3", "4", "4", "6", "4", "8", "10", "1", "24", "25", "26", "26", "27", "28", "23"], "time": [1415, 1983, 2037, 2331, 3000, 3081, 3404, 4399, 4625, 4816, 5565, 6665, 6879, 7563, 7596, 8248, 8729, 9713, 11497, 11944, 13132, 13913, 14328, 14611, 15279, 15912, 15945, 16663, 17727, 17813, 18312, 18656, 18966, 19879, 20911, 20995, 22093]}, "edge": {"target": [], "time": []}}}, "displayed_time": "25.93", "trialTime": 27291, "trial_type": "mouselab-mdp", "trial_index": 20, "time_elapsed": 465108, "internal_node_id": "0.0-4.0-1.0-5.0"}}, {"uniqueid": "w23448887:a23046011", "current_trial": 21, "dateTime": 1691485772581, "trialdata": {"revealed_states": [], "clicked_states": [], "num_clicks_accrued": [0, 0, 0, 0, 0, 0, 0, 0, 0, 0, 0, 0, 0], "stateRewards": ["", 2, -3, -5, 5, 11, -9, -33, 6, 67, 6, -30, -1, -2, -6, 13, 55, 13, 72, -14, 75, 21, -66, -2, -4, 6, 15, -1, -35, 60, 2, 51, -73, 12], "withholdReward": false, "trial_id": "mdp_trial_7", "block": "test", "trialIndex": 10, "score": -2, "costs": 0, "simulationMode": [null, null, null, null, null], "rewards": [-1, -2, -6, -14, 21], "path": ["0", "0", "12", "13", "14", "19", "21"], "rt": [1750, 488, 80, 53, 18], "actions": ["right", "right", "right", "down", "down"], "actionTimes": [3710, 4696, 5289, 5859, 6407], "queries": {"click": {"state": {"target": [], "time": []}, "edge": {"target": [], "time": []}}, "mouseover": {"state": {"target": [], "time": []}, "edge": {"target": [], "time": []}}, "mouseout": {"state": {"target": ["0", "12", "19", "19", "13", "12"], "time": [668, 701, 818, 1035, 1084, 1118]}, "edge": {"target": [], "time": []}}}, "displayed_time": "15.97", "trialTime": 17275, "trial_type": "mouselab-mdp", "trial_index": 21, "time_elapsed": 482861, "internal_node_id": "0.0-4.0-1.0-6.0"}}, {"uniqueid": "w23448887:a23046011", "current_trial": 22, "dateTime": 1691485798444, "trialdata": {"revealed_states": [], "clicked_states": [], "num_clicks_accrued": [0, 0, 0, 0, 0, 0, 0, 0, 0, 0, 0, 0, 0], "stateRewards": ["", -2, -4, -2, -13, -15, 87, -19, -6, -80, 30, 12, 1, 1, -8, 2, 55, 56, 15, 11, -68, -7, 55, -2, 3, -3, -3, 48, 62, 4, 1, -3, 69, -33], "withholdReward": false, "trial_id": "mdp_trial_8", "block": "test", "trialIndex": 11, "score": 43, "costs": 0, "simulationMode": [null, null, null, null, null], "rewards": [-2, 3, -3, -3, 48], "path": ["0", "0", "23", "24", "25", "26", "27"], "rt": [505, 316, 81, 103, 388], "actions": ["left", "left", "left", "up", "up"], "actionTimes": [1921, 2754, 3353, 3991, 4876], "queries": {"click": {"state": {"target": [], "time": []}, "edge": {"target": [], "time": []}}, "mouseover": {"state": {"target": [], "time": []}, "edge": {"target": [], "time": []}}, "mouseout": {"state": {"target": ["0", "12", "20"], "time": [6032, 6067, 6165]}, "edge": {"target": [], "time": []}}}, "displayed_time": "15.43", "trialTime": 25322, "trial_type": "mouselab-mdp", "trial_index": 22, "time_elapsed": 508724, "internal_node_id": "0.0-4.0-1.0-7.0"}}, {"uniqueid": "w23448887:a23046011", "current_trial": 23, "dateTime": 1691485815718, "trialdata": {"revealed_states": [], "clicked_states": [], "num_clicks_accrued": [0, 0, 0, 0, 0, 0, 0, 0, 0, 0, 0, 0, 0], "stateRewards": ["", 1, 2, 3, 16, 63, -25, 16, -4, -14, 82, -66, -1, -3, -3, -11, -14, 19, 46, 3, -34, -82, 66, -2, -3, 4, -5, -63, 77, -37, -1, -45, -41, 84], "withholdReward": false, "trial_id": "mdp_trial_9", "block": "test", "trialIndex": 12, "score": 85, "costs": 0, "simulationMode": [null, null, null, null, null], "rewards": [1, 2, 3, 16, 63], "path": ["0", "0", "1", "2", "3", "4", "5"], "rt": [622, 425, 72, 39, 27], "actions": ["up", "up", "up", "right", "up"], "actionTimes": [2601, 3549, 4165, 4726, 5281], "queries": {"click": {"state": {"target": [], "time": []}, "edge": {"target": [], "time": []}}, "mouseover": {"state": {"target": [], "time": []}, "edge": {"target": [], "time": []}}, "mouseout": {"state": {"target": ["21", "22"], "time": [1037, 1124]}, "edge": {"target": [], "time": []}}}, "displayed_time": "15.99", "trialTime": 16755, "trial_type": "mouselab-mdp", "trial_index": 23, "time_elapsed": 525998, "internal_node_id": "0.0-4.0-1.0-8.0"}}, {"uniqueid": "w23448887:a23046011", "current_trial": 24, "dateTime": 1691485832783, "trialdata": {"revealed_states": [], "clicked_states": [], "num_clicks_accrued": [0, 0, 0, 0, 0, 0, 0, 0, 0, 0, 0, 0, 0], "stateRewards": ["", -2, 2, -4, -4, -59, 88, 62, -3, 69, -15, -34, 1, -2, -5, 7, -54, -20, 78, -16, -74, -53, -21, 2, -4, 2, 13, -8, -44, 26, 9, 72, 4, 17], "withholdReward": false, "trial_id": "mdp_trial_10", "block": "test", "trialIndex": 13, "score": -19, "costs": 0, "simulationMode": [null, null, null, null, null], "rewards": [1, -2, -5, 7, -20], "path": ["0", "0", "12", "13", "14", "15", "17"], "rt": [770, 45, 78, 608, 37], "actions": ["right", "right", "right", "up", "right"], "actionTimes": [2286, 2847, 3463, 4581, 5143], "queries": {"click": {"state": {"target": [], "time": []}, "edge": {"target": [], "time": []}}, "mouseover": {"state": {"target": [], "time": []}, "edge": {"target": [], "time": []}}, "mouseout": {"state": {"target": ["0"], "time": [1134]}, "edge": {"target": [], "time": []}}}, "displayed_time": "15.52", "trialTime": 16501, "trial_type": "mouselab-mdp", "trial_index": 24, "time_elapsed": 543063, "internal_node_id": "0.0-4.0-1.0-9.0"}}, {"uniqueid": "w23448887:a23046011", "current_trial": 25, "dateTime": 1691485849086, "trialdata": {"revealed_states": [], "clicked_states": [], "num_clicks_accrued": [0, 0, 0, 0, 0, 0, 0, 0, 0, 0, 0, 0, 0], "stateRewards": ["", 2, -4, -4, 13, -80, 62, 13, -11, 57, -13, -44, 1, 4, 3, -4, -29, -88, 15, 16, -58, 68, -45, -1, -3, -1, -9, -44, -86, -19, -7, -36, 59, 66], "withholdReward": false, "trial_id": "mdp_trial_11", "block": "test", "trialIndex": 14, "score": -48, "costs": 0, "simulationMode": [null, null, null, null, null], "rewards": [-1, -3, -1, -7, -36], "path": ["0", "0", "23", "24", "25", "30", "31"], "rt": [1207, 1902, 713, 295, 295], "actions": ["left", "left", "left", "down", "right"], "actionTimes": [2512, 4910, 6134, 6955, 7770], "queries": {"click": {"state": {"target": [], "time": []}, "edge": {"target": [], "time": []}}, "mouseover": {"state": {"target": [], "time": []}, "edge": {"target": [], "time": []}}, "mouseout": {"state": {"target": ["0"], "time": [894]}, "edge": {"target": [], "time": []}}}, "displayed_time": "15.32", "trialTime": 15710, "trial_type": "mouselab-mdp", "trial_index": 25, "time_elapsed": 559366, "internal_node_id": "0.0-4.0-1.0-10.0"}}, {"uniqueid": "w23448887:a23046011", "current_trial": 26, "dateTime": 1691485899740, "trialdata": {"revealed_states": [], "clicked_states": [], "num_clicks_accrued": [0, 0, 0, 0, 0, 0, 0, 0, 0, 0, 0, 0, 0], "stateRewards": ["", -2, -1, -4, -15, -14, -67, 32, -3, -59, 63, 31, 2, -1, -7, -15, 71, -66, -27, -3, -54, -39, 72, 2, 1, 1, -13, 77, -40, 35, -9, 35, 75, 57], "withholdReward": false, "trial_id": "mdp_trial_12", "block": "test", "trialIndex": 15, "score": -69, "costs": 0, "simulationMode": [null, null, null, null, null], "rewards": [-2, -1, -4, -3, -59], "path": ["0", "0", "1", "2", "3", "8", "9"], "rt": [706, 307, 56, 58, 218], "actions": ["up", "up", "up", "left", "up"], "actionTimes": [1765, 2577, 3156, 3747, 4488], "queries": {"click": {"state": {"target": [], "time": []}, "edge": {"target": [], "time": []}}, "mouseover": {"state": {"target": [], "time": []}, "edge": {"target": [], "time": []}}, "mouseout": {"state": {"target": ["0"], "time": [673]}, "edge": {"target": [], "time": []}}}, "displayed_time": "15.07", "trialTime": 50032, "trial_type": "mouselab-mdp", "trial_index": 26, "time_elapsed": 610021, "internal_node_id": "0.0-4.0-1.0-11.0"}}, {"uniqueid": "w23448887:a23046011", "current_trial": 27, "dateTime": 1691485917868, "trialdata": {"revealed_states": [], "clicked_states": [], "num_clicks_accrued": [0, 0, 0, 0, 0, 0, 0, 0, 0, 0, 0, 0, 0], "stateRewards": ["", 2, 3, 6, -5, -74, -53, 17, -12, 46, 44, 18, -2, 4, 1, -8, 22, -23, -49, 9, -45, 55, 81, 1, -1, -7, -16, -83, -71, -45, 2, 51, 82, 61], "withholdReward": false, "trial_id": "mdp_trial_13", "block": "test", "trialIndex": 16, "score": 23, "costs": 0, "simulationMode": [null, null, null, null, null], "rewards": [2, 3, 6, -5, 17], "path": ["0", "0", "1", "2", "3", "4", "7"], "rt": [735, 5, 69, 626, 513], "actions": ["up", "up", "up", "right", "down"], "actionTimes": [1970, 2491, 3085, 4244, 5278], "queries": {"click": {"state": {"target": [], "time": []}, "edge": {"target": [], "time": []}}, "mouseover": {"state": {"target": [], "time": []}, "edge": {"target": [], "time": []}}, "mouseout": {"state": {"target": ["0"], "time": [485]}, "edge": {"target": [], "time": []}}}, "displayed_time": "15.24", "trialTime": 17500, "trial_type": "mouselab-mdp", "trial_index": 27, "time_elapsed": 628149, "internal_node_id": "0.0-4.0-1.0-12.0"}}, {"uniqueid": "w23448887:a23046011", "current_trial": 28, "dateTime": 1691485935090, "trialdata": {"revealed_states": [], "clicked_states": [], "num_clicks_accrued": [0, 0, 0, 0, 0, 0, 0, 0, 0, 0, 0, 0, 0], "stateRewards": ["", 2, 3, -3, 4, 72, -28, 34, -12, 57, -64, -15, 2, 1, -4, -15, 2, 49, 31, -1, -42, -58, 31, -2, 1, -2, -13, -75, -19, -22, -6, 61, 10, -56], "withholdReward": false, "trial_id": "mdp_trial_14", "block": "test", "trialIndex": 17, "score": 78, "costs": 0, "simulationMode": [null, null, null, null, null], "rewards": [2, 3, -3, 4, 72], "path": ["0", "0", "1", "2", "3", "4", "5"], "rt": [750, 857, 369, 628, 782], "actions": ["up", "up", "up", "right", "up"], "actionTimes": [2228, 3613, 4505, 5628, 6921], "queries": {"click": {"state": {"target": [], "time": []}, "edge": {"target": [], "time": []}}, "mouseover": {"state": {"target": [], "time": []}, "edge": {"target": [], "time": []}}, "mouseout": {"state": {"target": ["0"], "time": [1099]}, "edge": {"target": [], "time": []}}}, "displayed_time": "15.49", "trialTime": 16559, "trial_type": "mouselab-mdp", "trial_index": 28, "time_elapsed": 645370, "internal_node_id": "0.0-4.0-1.0-13.0"}}, {"uniqueid": "w23448887:a23046011", "current_trial": 29, "dateTime": 1691485952043, "trialdata": {"revealed_states": [], "clicked_states": [], "num_clicks_accrued": [0, 0, 0, 0, 0, 0, 0, 0, 0, 0, 0, 0, 0], "stateRewards": ["", 1, 4, 5, 8, -55, -11, 8, 16, -37, 77, -22, -2, 3, -8, -10, 45, 87, -67, 4, 17, -33, -22, -1, -3, 7, 6, -39, -85, 75, -1, 7, -48, 45], "withholdReward": false, "trial_id": "mdp_trial_15", "block": "test", "trialIndex": 18, "score": 26, "costs": 0, "simulationMode": [null, null, null, null, null], "rewards": [1, 4, 5, 8, 8], "path": ["0", "0", "1", "2", "3", "4", "7"], "rt": [688, 138, 96, 28, 122], "actions": ["up", "up", "up", "right", "down"], "actionTimes": [2192, 2839, 3464, 4009, 4651], "queries": {"click": {"state": {"target": [], "time": []}, "edge": {"target": [], "time": []}}, "mouseover": {"state": {"target": [], "time": []}, "edge": {"target": [], "time": []}}, "mouseout": {"state": {"target": ["0"], "time": [1111]}, "edge": {"target": [], "time": []}}}, "displayed_time": "15.51", "trialTime": 16326, "trial_type": "mouselab-mdp", "trial_index": 29, "time_elapsed": 662322, "internal_node_id": "0.0-4.0-1.0-14.0"}}, {"uniqueid": "w23448887:a23046011", "current_trial": 30, "dateTime": 1691485969021, "trialdata": {"revealed_states": [], "clicked_states": [], "num_clicks_accrued": [0, 0, 0, 0, 0, 0, 0, 0, 0, 0, 0, 0, 0], "stateRewards": ["", -2, 2, -5, -6, 10, -66, -58, -10, -11, -63, -70, -1, -4, -5, 7, 66, -64, -43, -3, 45, -37, 4, -2, -2, -6, -4, -30, 33, 43, 15, -32, -65, -59], "withholdReward": false, "trial_id": "mdp_trial_16", "block": "test", "trialIndex": 19, "score": 29, "costs": 0, "simulationMode": [null, null, null, null, null], "rewards": [-2, -2, -6, -4, 43], "path": ["0", "0", "23", "24", "25", "26", "29"], "rt": [1408, 254, 82, 147, 26], "actions": ["left", "left", "left", "up", "left"], "actionTimes": [3073, 3839, 4431, 5094, 5644], "queries": {"click": {"state": {"target": [], "time": []}, "edge": {"target": [], "time": []}}, "mouseover": {"state": {"target": ["12"], "time": [2282]}, "edge": {"target": [], "time": []}}, "mouseout": {"state": {"target": ["0", "12"], "time": [1264, 2300]}, "edge": {"target": [], "time": []}}}, "displayed_time": "15.67", "trialTime": 16296, "trial_type": "mouselab-mdp", "trial_index": 30, "time_elapsed": 679301, "internal_node_id": "0.0-4.0-1.0-15.0"}}, {"uniqueid": "w23448887:a23046011", "current_trial": 31, "dateTime": 1691485986402, "trialdata": {"revealed_states": [], "clicked_states": [], "num_clicks_accrued": [0, 0, 0, 0, 0, 0, 0, 0, 0, 0, 0, 0, 0], "stateRewards": ["", -2, 2, 3, -7, -31, -33, 29, -8, -57, 50, -83, -1, -1, 5, 13, -23, -62, 25, 5, -66, -85, 14, 1, -2, -1, 16, 71, 33, -19, -14, 5, -43, 79], "withholdReward": false, "trial_id": "mdp_trial_17", "block": "test", "trialIndex": 20, "score": -88, "costs": 0, "simulationMode": [null, null, null, null, null], "rewards": [-2, 2, 3, -8, -83], "path": ["0", "0", "1", "2", "3", "8", "11"], "rt": [463, 271, 17, 197, 190], "actions": ["up", "up", "up", "left", "left"], "actionTimes": [1890, 2686, 3212, 3945, 4657], "queries": {"click": {"state": {"target": [], "time": []}, "edge": {"target": [], "time": []}}, "mouseover": {"state": {"target": [], "time": []}, "edge": {"target": [], "time": []}}, "mouseout": {"state": {"target": [], "time": []}, "edge": {"target": [], "time": []}}}, "displayed_time": "15.43", "trialTime": 16662, "trial_type": "mouselab-mdp", "trial_index": 31, "time_elapsed": 696683, "internal_node_id": "0.0-4.0-1.0-16.0"}}, {"uniqueid": "w23448887:a23046011", "current_trial": 32, "dateTime": 1691486004128, "trialdata": {"revealed_states": [], "clicked_states": [], "num_clicks_accrued": [0, 0, 0, 0, 0, 0, 0, 0, 0, 0, 0, 0, 0], "stateRewards": ["", 1, 1, -3, 7, 49, 78, 26, -5, 26, 48, -43, -1, -3, 2, -5, 4, -1, -60, 10, -35, 51, 81, -2, 1, -7, -5, -39, -86, -54, 4, -3, 74, 77], "withholdReward": false, "trial_id": "mdp_trial_18", "block": "test", "trialIndex": 21, "score": 42, "costs": 0, "simulationMode": [null, null, null, null, null], "rewards": [1, 1, -3, -5, 48], "path": ["0", "0", "1", "2", "3", "8", "10"], "rt": [993, 270, 40, 55, 590], "actions": ["up", "up", "up", "left", "down"], "actionTimes": [2530, 3312, 3865, 4427, 5547], "queries": {"click": {"state": {"target": [], "time": []}, "edge": {"target": [], "time": []}}, "mouseover": {"state": {"target": [], "time": []}, "edge": {"target": [], "time": []}}, "mouseout": {"state": {"target": [], "time": []}, "edge": {"target": [], "time": []}}}, "displayed_time": "15.54", "trialTime": 17051, "trial_type": "mouselab-mdp", "trial_index": 32, "time_elapsed": 714408, "internal_node_id": "0.0-4.0-1.0-17.0"}}, {"uniqueid": "w23448887:a23046011", "current_trial": 33, "dateTime": 1691486020861, "trialdata": {"revealed_states": [], "clicked_states": [], "num_clicks_accrued": [0, 0, 0, 0, 0, 0, 0, 0, 0, 0, 0, 0, 0], "stateRewards": ["", 1, -3, -4, -11, -56, 61, -47, -16, -28, -9, 69, -2, -3, -4, -8, 40, -86, 59, -4, 80, 27, 54, -1, 3, -1, 8, 67, 23, 50, 6, 83, -43, -29], "withholdReward": false, "trial_id": "mdp_trial_19", "block": "test", "trialIndex": 22, "score": -31, "costs": 0, "simulationMode": [null, null, null, null, null], "rewards": [1, -3, -4, -16, -9], "path": ["0", "0", "1", "2", "3", "8", "10"], "rt": [904, 247, 224, 15, 587], "actions": ["up", "up", "up", "left", "down"], "actionTimes": [2092, 2838, 3579, 4103, 5227], "queries": {"click": {"state": {"target": [], "time": []}, "edge": {"target": [], "time": []}}, "mouseover": {"state": {"target": [], "time": []}, "edge": {"target": [], "time": []}}, "mouseout": {"state": {"target": [], "time": []}, "edge": {"target": [], "time": []}}}, "displayed_time": "15.20", "trialTime": 16035, "trial_type": "mouselab-mdp", "trial_index": 33, "time_elapsed": 731141, "internal_node_id": "0.0-4.0-1.0-18.0"}}, {"uniqueid": "w23448887:a23046011", "current_trial": 34, "dateTime": 1691486038104, "trialdata": {"revealed_states": [], "clicked_states": [], "num_clicks_accrued": [0, 0, 0, 0, 0, 0, 0, 0, 0, 0, 0, 0, 0], "stateRewards": ["", -1, -3, -7, -4, -85, -70, 79, 8, 84, -66, 42, 2, -2, -3, -16, -54, -66, 68, -3, 21, -14, 7, -2, -1, -3, -8, 75, 80, 86, -7, -84, 73, -16], "withholdReward": false, "trial_id": "mdp_trial_20", "block": "test", "trialIndex": 23, "score": 64, "costs": 0, "simulationMode": [null, null, null, null, null], "rewards": [-1, -3, -7, -4, 79], "path": ["0", "0", "1", "2", "3", "4", "7"], "rt": [954, 488, 120, 596, 154], "actions": ["up", "up", "up", "right", "down"], "actionTimes": [1969, 2980, 3612, 4720, 5393], "queries": {"click": {"state": {"target": [], "time": []}, "edge": {"target": [], "time": []}}, "mouseover": {"state": {"target": [], "time": []}, "edge": {"target": [], "time": []}}, "mouseout": {"state": {"target": [], "time": []}, "edge": {"target": [], "time": []}}}, "displayed_time": "15.02", "trialTime": 16585, "trial_type": "mouselab-mdp", "trial_index": 34, "time_elapsed": 748384, "internal_node_id": "0.0-4.0-1.0-19.0"}}, {"uniqueid": "w23448887:a23046011", "current_trial": 35, "dateTime": 1691486062239, "trialdata": {"revealed_states": [], "clicked_states": [], "num_clicks_accrued": [0, 0, 0, 0, 0, 0, 0, 0, 0, 0, 0, 0, 0], "stateRewards": ["", -1, 1, -2, 5, 73, 15, 61, 8, 7, 38, 76, 2, 2, -4, -6, -6, -26, 43, -5, -45, -85, -35, -2, 1, -4, 15, -10, 69, 72, -11, 84, -49, -38], "withholdReward": false, "trial_id": "mdp_trial_21", "block": "test", "trialIndex": 24, "score": 76, "costs": 0, "simulationMode": [null, null, null, null, null], "rewards": [-1, 1, -2, 5, 73], "path": ["0", "0", "1", "2", "3", "4", "5"], "rt": [1346, 145, 108, 48, 166], "actions": ["up", "up", "up", "right", "up"], "actionTimes": [2551, 3196, 3823, 4382, 5084], "queries": {"click": {"state": {"target": [], "time": []}, "edge": {"target": [], "time": []}}, "mouseover": {"state": {"target": [], "time": []}, "edge": {"target": [], "time": []}}, "mouseout": {"state": {"target": [], "time": []}, "edge": {"target": [], "time": []}}}, "displayed_time": "15.21", "trialTime": 23350, "trial_type": "mouselab-mdp", "trial_index": 35, "time_elapsed": 772518, "internal_node_id": "0.0-4.0-1.0-20.0"}}, {"uniqueid": "w23448887:a23046011", "current_trial": 36, "dateTime": 1691486080400, "trialdata": {"revealed_states": [], "clicked_states": [], "num_clicks_accrued": [0, 0, 0, 0, 0, 0, 0, 0, 0, 0, 0, 0, 0], "stateRewards": ["", -2, 1, 6, -2, -10, -78, -69, 14, -15, 7, -1, 1, -1, -2, 13, 77, 32, 87, 5, -74, 30, -26, 1, 3, 4, 12, 39, 54, -43, 2, 10, 23, 13], "withholdReward": false, "trial_id": "mdp_trial_22", "block": "test", "trialIndex": 25, "score": -66, "costs": 0, "simulationMode": [null, null, null, null, null], "rewards": [-2, 1, 6, -2, -69], "path": ["0", "0", "1", "2", "3", "4", "7"], "rt": [413, 46, 61, 24, 84], "actions": ["up", "up", "up", "right", "down"], "actionTimes": [1659, 2203, 2804, 3350, 3924], "queries": {"click": {"state": {"target": [], "time": []}, "edge": {"target": [], "time": []}}, "mouseover": {"state": {"target": [], "time": []}, "edge": {"target": [], "time": []}}, "mouseout": {"state": {"target": ["0"], "time": [472]}, "edge": {"target": [], "time": []}}}, "displayed_time": "15.25", "trialTime": 17427, "trial_type": "mouselab-mdp", "trial_index": 36, "time_elapsed": 790681, "internal_node_id": "0.0-4.0-1.0-21.0"}}, {"uniqueid": "w23448887:a23046011", "current_trial": 37, "dateTime": 1691486115615, "trialdata": {"revealed_states": [], "clicked_states": [], "num_clicks_accrued": [0, 0, 0, 0, 0, 0, 0, 0, 0, 0, 0, 0, 0], "stateRewards": ["", 1, -4, -6, 11, -20, 8, -30, 1, -38, 88, 42, 2, 3, 5, -12, -8, -74, 30, -8, 67, -19, 42, 2, -1, 4, 13, 50, -68, 2, -8, -15, 87, -46], "withholdReward": false, "trial_id": "mdp_trial_23", "block": "test", "trialIndex": 26, "score": -18, "costs": 0, "simulationMode": [null, null, null, null, null], "rewards": [1, -4, -6, 11, -20], "path": ["0", "0", "1", "2", "3", "4", "5"], "rt": [1107, 128, 163, 6, 19], "actions": ["up", "up", "up", "right", "up"], "actionTimes": [5112, 5762, 6444, 6975, 7517], "queries": {"click": {"state": {"target": [], "time": []}, "edge": {"target": [], "time": []}}, "mouseover": {"state": {"target": [], "time": []}, "edge": {"target": [], "time": []}}, "mouseout": {"state": {"target": [], "time": []}, "edge": {"target": [], "time": []}}}, "displayed_time": "18.01", "trialTime": 34498, "trial_type": "mouselab-mdp", "trial_index": 37, "time_elapsed": 825894, "internal_node_id": "0.0-4.0-1.0-22.0"}}, {"uniqueid": "w23448887:a23046011", "current_trial": 38, "dateTime": 1691486133913, "trialdata": {"revealed_states": [], "clicked_states": [], "num_clicks_accrued": [0, 0, 0, 0, 0, 0, 0, 0, 0, 0, 0, 0, 0], "stateRewards": ["", -1, 2, 6, 11, 21, -21, -21, -6, 48, -71, 88, -1, -3, 3, 7, 64, 2, 9, -4, 37, -67, 72, 2, 2, -8, -8, -10, 71, -40, -3, 73, 80, 47], "withholdReward": false, "trial_id": "mdp_trial_24", "block": "test", "trialIndex": 27, "score": 15, "costs": 0, "simulationMode": [null, null, null, null, null], "rewards": [-1, -3, 3, 7, 9], "path": ["0", "0", "12", "13", "14", "15", "18"], "rt": [2120, 66, 150, 151, 160], "actions": ["right", "right", "right", "up", "left"], "actionTimes": [3729, 4317, 4990, 5658, 6314], "queries": {"click": {"state": {"target": [], "time": []}, "edge": {"target": [], "time": []}}, "mouseover": {"state": {"target": [], "time": []}, "edge": {"target": [], "time": []}}, "mouseout": {"state": {"target": [], "time": []}, "edge": {"target": [], "time": []}}}, "displayed_time": "15.61", "trialTime": 17526, "trial_type": "mouselab-mdp", "trial_index": 38, "time_elapsed": 844193, "internal_node_id": "0.0-4.0-1.0-23.0"}}, {"uniqueid": "w23448887:a23046011", "current_trial": 39, "dateTime": 1691486161300, "trialdata": {"revealed_states": [], "clicked_states": [], "num_clicks_accrued": [0, 0, 0, 0, 0, 0, 0, 0, 0, 0, 0, 0, 0], "stateRewards": ["", -1, 1, -5, -6, -78, 47, -13, 12, 48, -88, 20, 2, -3, -2, 13, -20, 37, -57, 14, -38, 30, 31, -2, -2, 8, 2, -23, 78, 28, 12, -74, -88, 8], "withholdReward": false, "trial_id": "mdp_trial_25", "block": "test", "trialIndex": 28, "score": 47, "costs": 0, "simulationMode": [null, null, null, null, null], "rewards": [2, -3, -2, 13, 37], "path": ["0", "0", "12", "13", "14", "15", "17"], "rt": [475, 248, 54, 227, 74], "actions": ["right", "right", "right", "up", "right"], "actionTimes": [6532, 7310, 7871, 8629, 9224], "queries": {"click": {"state": {"target": [], "time": []}, "edge": {"target": [], "time": []}}, "mouseover": {"state": {"target": [], "time": []}, "edge": {"target": [], "time": []}}, "mouseout": {"state": {"target": [], "time": []}, "edge": {"target": [], "time": []}}}, "displayed_time": "20.07", "trialTime": 26663, "trial_type": "mouselab-mdp", "trial_index": 39, "time_elapsed": 871580, "internal_node_id": "0.0-4.0-1.0-24.0"}}, {"uniqueid": "w23448887:a23046011", "current_trial": 40, "dateTime": 1691486195450, "trialdata": {"revealed_states": [], "clicked_states": [], "num_clicks_accrued": [0, 0, 0, 0, 0, 0, 0, 0, 0, 0, 0, 0, 0], "stateRewards": ["", 1, 1, -5, 10, -31, 73, 14, -8, -23, 63, -70, -1, 2, 8, 7, 25, -59, 27, -10, -40, -71, -15, -2, 3, -8, -5, -19, 77, -34, 7, 67, 63, 19], "withholdReward": false, "trial_id": "mdp_trial_26", "block": "test", "trialIndex": 29, "score": 21, "costs": 0, "simulationMode": [null, null, null, null, null], "rewards": [1, 1, -5, 10, 14], "path": ["0", "0", "1", "2", "3", "4", "7"], "rt": [555, 297, 8, 99, 58], "actions": ["up", "up", "up", "right", "down"], "actionTimes": [13971, 14778, 15307, 15947, 16522], "queries": {"click": {"state": {"target": [], "time": []}, "edge": {"target": [], "time": []}}, "mouseover": {"state": {"target": [], "time": []}, "edge": {"target": [], "time": []}}, "mouseout": {"state": {"target": [], "time": []}, "edge": {"target": [], "time": []}}}, "displayed_time": "27.42", "trialTime": 33383, "trial_type": "mouselab-mdp", "trial_index": 40, "time_elapsed": 905730, "internal_node_id": "0.0-4.0-1.0-25.0"}}, {"uniqueid": "w23448887:a23046011", "current_trial": 41, "dateTime": 1691486212508, "trialdata": {"revealed_states": [], "clicked_states": [], "num_clicks_accrued": [0, 0, 0, 0, 0, 0, 0, 0, 0, 0, 0, 0, 0], "stateRewards": ["", 2, -4, 4, 9, 69, 9, -75, 12, -86, 66, 25, -1, 3, 2, -13, -88, -3, 1, 4, -69, 49, -84, 2, -1, 4, 2, -18, -81, -52, -15, -69, -54, 25], "withholdReward": false, "trial_id": "mdp_trial_27", "block": "test", "trialIndex": 30, "score": -12, "costs": 0, "simulationMode": [null, null, null, null, null], "rewards": [-1, 3, 2, -13, -3], "path": ["0", "0", "12", "13", "14", "15", "17"], "rt": [360, 59, 506, 420, 222], "actions": ["right", "right", "right", "up", "right"], "actionTimes": [1288, 1856, 2903, 3834, 4567], "queries": {"click": {"state": {"target": [], "time": []}, "edge": {"target": [], "time": []}}, "mouseover": {"state": {"target": [], "time": []}, "edge": {"target": [], "time": []}}, "mouseout": {"state": {"target": [], "time": []}, "edge": {"target": [], "time": []}}}, "displayed_time": "14.94", "trialTime": 16263, "trial_type": "mouselab-mdp", "trial_index": 41, "time_elapsed": 922788, "internal_node_id": "0.0-4.0-1.0-26.0"}}, {"uniqueid": "w23448887:a23046011", "current_trial": 42, "dateTime": 1691486229660, "trialdata": {"revealed_states": [], "clicked_states": [], "num_clicks_accrued": [0, 0, 0, 0, 0, 0, 0, 0, 0, 0, 0, 0, 0], "stateRewards": ["", 1, -2, -3, 14, -42, -87, -37, -11, -50, 33, -44, -2, 4, -7, 13, 48, -75, -66, 12, 23, -2, 82, 1, -4, 3, 12, 51, -15, -26, -11, -52, -29, 82], "withholdReward": false, "trial_id": "mdp_trial_28", "block": "test", "trialIndex": 31, "score": 56, "costs": 0, "simulationMode": [null, null, null, null, null], "rewards": [-2, 4, -7, 13, 48], "path": ["0", "0", "12", "13", "14", "15", "16"], "rt": [748, 52, 13, 120, 549], "actions": ["right", "right", "right", "up", "up"], "actionTimes": [1962, 2539, 3083, 3737, 4803], "queries": {"click": {"state": {"target": [], "time": []}, "edge": {"target": [], "time": []}}, "mouseover": {"state": {"target": [], "time": []}, "edge": {"target": [], "time": []}}, "mouseout": {"state": {"target": [], "time": []}, "edge": {"target": [], "time": []}}}, "displayed_time": "15.22", "trialTime": 16361, "trial_type": "mouselab-mdp", "trial_index": 42, "time_elapsed": 939940, "internal_node_id": "0.0-4.0-1.0-27.0"}}, {"uniqueid": "w23448887:a23046011", "current_trial": 43, "dateTime": 1691486246401, "trialdata": {"revealed_states": [], "clicked_states": [], "num_clicks_accrued": [0, 0, 0, 0, 0, 0, 0, 0, 0, 0, 0, 0, 0], "stateRewards": ["", -2, -4, 6, 14, -34, 49, 36, -8, -3, 32, -4, 1, -2, 1, -8, -20, -71, -57, -7, -86, -62, -16, -2, -3, -5, 11, 23, -21, 53, 5, -5, 85, 73], "withholdReward": false, "trial_id": "mdp_trial_29", "block": "test", "trialIndex": 32, "score": 24, "costs": 0, "simulationMode": [null, null, null, null, null], "rewards": [-2, -3, -5, 11, 23], "path": ["0", "0", "23", "24", "25", "26", "27"], "rt": [331, 41, 109, 146, 138], "actions": ["left", "left", "left", "up", "up"], "actionTimes": [1191, 1740, 2346, 2997, 3638], "queries": {"click": {"state": {"target": [], "time": []}, "edge": {"target": [], "time": []}}, "mouseover": {"state": {"target": [], "time": []}, "edge": {"target": [], "time": []}}, "mouseout": {"state": {"target": ["0"], "time": [53]}, "edge": {"target": [], "time": []}}}, "displayed_time": "14.86", "trialTime": 15952, "trial_type": "mouselab-mdp", "trial_index": 43, "time_elapsed": 956682, "internal_node_id": "0.0-4.0-1.0-28.0"}}, {"uniqueid": "w23448887:a23046011", "current_trial": 44, "dateTime": 1691486266024, "trialdata": {"revealed_states": [], "clicked_states": [], "num_clicks_accrued": [0, 0, 0, 0, 0, 0, 0, 0, 0, 0, 0, 0, 0], "stateRewards": ["", 2, 3, 6, -12, -29, 12, 87, 4, 35, -30, 67, 2, 3, -5, -9, 44, 69, -8, 1, 45, -8, 28, -2, -1, -8, 11, -12, -5, 81, 9, 87, 82, 88], "withholdReward": false, "trial_id": "mdp_trial_30", "block": "test", "trialIndex": 33, "score": 80, "costs": 0, "simulationMode": [null, null, null, null, null], "rewards": [-2, -1, -8, 9, 82], "path": ["0", "0", "23", "24", "25", "30", "32"], "rt": [806, 711, 106, 557, 160], "actions": ["left", "left", "left", "down", "down"], "actionTimes": [4737, 5956, 6588, 7672, 8360], "queries": {"click": {"state": {"target": [], "time": []}, "edge": {"target": [], "time": []}}, "mouseover": {"state": {"target": [], "time": []}, "edge": {"target": [], "time": []}}, "mouseout": {"state": {"target": [], "time": []}, "edge": {"target": [], "time": []}}}, "displayed_time": "17.94", "trialTime": 18794, "trial_type": "mouselab-mdp", "trial_index": 44, "time_elapsed": 976304, "internal_node_id": "0.0-4.0-1.0-29.0"}}, {"uniqueid": "w23448887:a23046011", "current_trial": 45, "dateTime": 1691486284495, "trialdata": {"revealed_states": [], "clicked_states": [], "num_clicks_accrued": [0, 0, 0, 0, 0, 0, 0, 0, 0, 0, 0, 0, 0], "stateRewards": ["", -2, -4, 2, 10, -17, 18, 73, 11, -32, 23, -13, -2, -4, 7, 12, -25, 66, -23, 15, 40, -76, -9, 1, 2, -7, -5, -20, 24, 3, -5, 16, -73, 70], "withholdReward": false, "trial_id": "mdp_trial_31", "block": "test", "trialIndex": 34, "score": -60, "costs": 0, "simulationMode": [null, null, null, null, null], "rewards": [-2, -4, 7, 15, -76], "path": ["0", "0", "12", "13", "14", "19", "21"], "rt": [414, 106, 75, 30, 5], "actions": ["right", "right", "right", "down", "down"], "actionTimes": [1885, 2506, 3095, 3648, 4189], "queries": {"click": {"state": {"target": [], "time": []}, "edge": {"target": [], "time": []}}, "mouseover": {"state": {"target": [], "time": []}, "edge": {"target": [], "time": []}}, "mouseout": {"state": {"target": [], "time": []}, "edge": {"target": [], "time": []}}}, "displayed_time": "15.48", "trialTime": 17656, "trial_type": "mouselab-mdp", "trial_index": 45, "time_elapsed": 994776, "internal_node_id": "0.0-4.0-1.0-30.0"}}, {"uniqueid": "w23448887:a23046011", "current_trial": 46, "dateTime": 1691486301701, "trialdata": {"revealed_states": [], "clicked_states": [], "num_clicks_accrued": [0, 0, 0, 0, 0, 0, 0, 0, 0, 0, 0, 0, 0], "stateRewards": ["", 2, -2, -3, 10, -4, -1, -11, -8, -9, -36, -78, 2, 1, 7, -7, 44, -1, -31, -1, 26, 47, 83, 2, -4, -4, -6, -52, -76, -81, -1, -59, 45, 67], "withholdReward": false, "trial_id": "mdp_trial_32", "block": "test", "trialIndex": 35, "score": 3, "costs": 0, "simulationMode": [null, null, null, null, null], "rewards": [2, -2, -3, 10, -4], "path": ["0", "0", "1", "2", "3", "4", "5"], "rt": [8386, 29, 100, 26, 86], "actions": ["up", "up", "up", "right", "up"], "actionTimes": [9746, 10288, 10893, 11437, 12048], "queries": {"click": {"state": {"target": [], "time": []}, "edge": {"target": [], "time": []}}, "mouseover": {"state": {"target": [], "time": []}, "edge": {"target": [], "time": []}}, "mouseout": {"state": {"target": [], "time": []}, "edge": {"target": [], "time": []}}}, "displayed_time": "15.37", "trialTime": 16373, "trial_type": "mouselab-mdp", "trial_index": 46, "time_elapsed": 1011981, "internal_node_id": "0.0-4.0-1.0-31.0"}}, {"uniqueid": "w23448887:a23046011", "current_trial": 47, "dateTime": 1691486319127, "trialdata": {"revealed_states": [], "clicked_states": [], "num_clicks_accrued": [0, 0, 0, 0, 0, 0, 0, 0, 0, 0, 0, 0, 0], "stateRewards": ["", 1, -4, -6, -1, -21, 17, -72, 10, 77, 67, -46, -1, 4, -2, 14, -66, -49, -45, -15, -52, 23, -67, 2, -2, -2, 15, -3, 45, -64, 5, -44, 83, 61], "withholdReward": false, "trial_id": "mdp_trial_33", "block": "test", "trialIndex": 36, "score": -82, "costs": 0, "simulationMode": [null, null, null, null, null], "rewards": [1, -4, -6, -1, -72], "path": ["0", "0", "1", "2", "3", "4", "7"], "rt": [856, 29, 9, 199, 38], "actions": ["up", "up", "up", "right", "down"], "actionTimes": [2175, 2725, 3264, 3982, 4535], "queries": {"click": {"state": {"target": [], "time": []}, "edge": {"target": [], "time": []}}, "mouseover": {"state": {"target": [], "time": []}, "edge": {"target": [], "time": []}}, "mouseout": {"state": {"target": [], "time": []}, "edge": {"target": [], "time": []}}}, "displayed_time": "15.32", "trialTime": 16590, "trial_type": "mouselab-mdp", "trial_index": 47, "time_elapsed": 1029407, "internal_node_id": "0.0-4.0-1.0-32.0"}}, {"uniqueid": "w23448887:a23046011", "current_trial": 48, "dateTime": 1691486346592, "trialdata": {"revealed_states": [], "clicked_states": [], "num_clicks_accrued": [0, 0, 0, 0, 0, 0, 0, 0, 0, 0, 0, 0, 0], "stateRewards": ["", -1, 2, -2, 5, 80, -61, -27, 12, 44, -26, -75, -2, -4, 1, -16, 42, -49, -50, 4, -44, 2, 80, -2, -2, 5, -2, 59, 10, 24, 7, -48, -86, -44], "withholdReward": false, "trial_id": "mdp_trial_34", "block": "test", "trialIndex": 37, "score": 84, "costs": 0, "simulationMode": [null, null, null, null, null], "rewards": [-1, 2, -2, 5, 80], "path": ["0", "0", "1", "2", "3", "4", "5"], "rt": [660, 261, 96, 68, 547], "actions": ["up", "up", "up", "right", "up"], "actionTimes": [2451, 3237, 3856, 4453, 5543], "queries": {"click": {"state": {"target": [], "time": []}, "edge": {"target": [], "time": []}}, "mouseover": {"state": {"target": [], "time": []}, "edge": {"target": [], "time": []}}, "mouseout": {"state": {"target": [], "time": []}, "edge": {"target": [], "time": []}}}, "displayed_time": "15.79", "trialTime": 26623, "trial_type": "mouselab-mdp", "trial_index": 48, "time_elapsed": 1056872, "internal_node_id": "0.0-4.0-1.0-33.0"}}, {"uniqueid": "w23448887:a23046011", "current_trial": 49, "dateTime": 1691486365832, "trialdata": {"revealed_states": [], "clicked_states": [], "num_clicks_accrued": [0, 0, 0, 0, 0, 0, 0, 0, 0, 0, 0, 0, 0], "stateRewards": ["", 1, -1, 4, 5, -32, 18, 20, 6, -88, -74, 9, -2, 1, -2, -14, 34, -77, -38, -1, 80, -36, 73, 2, 3, -8, 10, -48, -73, -71, -11, -22, 20, 54], "withholdReward": false, "trial_id": "mdp_trial_35", "block": "test", "trialIndex": 38, "score": 17, "costs": 0, "simulationMode": [null, null, null, null, null], "rewards": [-2, 1, -2, -14, 34], "path": ["0", "0", "12", "13", "14", "15", "16"], "rt": [268, 86, 18, 658, 8], "actions": ["right", "right", "right", "up", "up"], "actionTimes": [1408, 2013, 2563, 3754, 4283], "queries": {"click": {"state": {"target": [], "time": []}, "edge": {"target": [], "time": []}}, "mouseover": {"state": {"target": [], "time": []}, "edge": {"target": [], "time": []}}, "mouseout": {"state": {"target": [], "time": []}, "edge": {"target": [], "time": []}}}, "displayed_time": "15.14", "trialTime": 18436, "trial_type": "mouselab-mdp", "trial_index": 49, "time_elapsed": 1076113, "internal_node_id": "0.0-4.0-1.0-34.0"}}, {"uniqueid": "w23448887:a23046011", "current_trial": 50, "dateTime": 1691486383054, "trialdata": {"revealed_states": [], "clicked_states": [], "num_clicks_accrued": [0, 0, 0, 0, 0, 0, 0, 0, 0, 0, 0, 0, 0], "stateRewards": ["", -2, -1, 3, -3, 71, -58, -21, 7, -10, -75, -37, 2, 4, -1, -12, -79, -29, -48, 3, -41, -10, -30, -1, -2, 1, -15, 13, 66, 22, -1, -42, -86, -55], "withholdReward": false, "trial_id": "mdp_trial_36", "block": "test", "trialIndex": 39, "score": -3, "costs": 0, "simulationMode": [null, null, null, null, null], "rewards": [-2, -1, 3, 7, -10], "path": ["0", "0", "1", "2", "3", "8", "9"], "rt": [782, 95, 49, 29, 8], "actions": ["up", "up", "up", "left", "up"], "actionTimes": [2198, 2815, 3390, 3950, 4496], "queries": {"click": {"state": {"target": [], "time": []}, "edge": {"target": [], "time": []}}, "mouseover": {"state": {"target": [], "time": []}, "edge": {"target": [], "time": []}}, "mouseout": {"state": {"target": [], "time": []}, "edge": {"target": [], "time": []}}}, "displayed_time": "15.43", "trialTime": 16373, "trial_type": "mouselab-mdp", "trial_index": 50, "time_elapsed": 1093335, "internal_node_id": "0.0-4.0-1.0-35.0"}}, {"uniqueid": "w23448887:a23046011", "current_trial": 51, "dateTime": 1691486400892, "trialdata": {"revealed_states": [], "clicked_states": ["17"], "num_clicks_accrued": [0, 0, 0, 0, 0, 0, 0, 0, 0, 0, 0, 0, 0], "stateRewards": ["", -1, -3, -7, -7, -76, 30, -49, 11, -70, 56, 2, 1, 4, -3, -14, -59, -83, -25, -9, -21, -67, -73, -2, 4, 4, -9, -11, -32, 60, 9, -87, 22, -64], "withholdReward": false, "trial_id": "mdp_trial_37", "block": "test", "trialIndex": 40, "score": 53.85, "costs": -2.15, "simulationMode": [null, null, null, null, null], "rewards": [-1, -3, -7, 11, 56], "path": ["0", "0", "1", "2", "3", "8", "10"], "rt": [6696, 83, 32, 21, 110], "actions": ["up", "up", "up", "left", "down"], "actionTimes": [8409, 9007, 9557, 10099, 10733], "queries": {"click": {"state": {"target": ["17"], "time": [2934]}, "edge": {"target": [], "time": []}}, "mouseover": {"state": {"target": ["17", "15", "1", "26", "29", "26", "29", "24", "23", "0"], "time": [2472, 3288, 3318, 3402, 3518, 4148, 4585, 5502, 5541, 5970]}, "edge": {"target": [], "time": []}}, "mouseout": {"state": {"target": ["0", "17", "15", "1", "26", "29", "26", "29", "24", "23", "0"], "time": [2188, 3285, 3304, 3335, 3470, 4120, 4174, 5452, 5519, 5709, 6271]}, "edge": {"target": [], "time": []}}}, "displayed_time": "15.73", "trialTime": 16929, "trial_type": "mouselab-mdp", "trial_index": 51, "time_elapsed": 1111172, "internal_node_id": "0.0-4.0-1.0-36.0"}}, {"uniqueid": "w23448887:a23046011", "current_trial": 52, "dateTime": 1691486418446, "trialdata": {"revealed_states": [], "clicked_states": ["21"], "num_clicks_accrued": [0, 0, 0, 0, 0, 0, 0, 0, 0, 0, 0, 0, 0], "stateRewards": ["", -1, 4, -8, 12, 14, 69, -8, 5, -72, -14, 56, -1, -1, -1, 9, 67, 19, 11, -9, -88, -58, 3, 2, -4, -8, 4, 62, 77, -74, 5, -31, 65, 88], "withholdReward": false, "trial_id": "mdp_trial_38", "block": "test", "trialIndex": 41, "score": 53.85, "costs": -2.15, "simulationMode": [null, null, null, null, null], "rewards": [2, -4, -8, 4, 62], "path": ["0", "0", "23", "24", "25", "26", "27"], "rt": [4423, 52, 662, 122, 8], "actions": ["left", "left", "left", "up", "up"], "actionTimes": [5829, 6378, 7570, 8214, 8736], "queries": {"click": {"state": {"target": ["21"], "time": [2657]}, "edge": {"target": [], "time": []}}, "mouseover": {"state": {"target": ["22", "19", "20", "21", "19", "13", "12", "0", "0"], "time": [1710, 1776, 1841, 2341, 3873, 3925, 3959, 4008, 4858]}, "edge": {"target": [], "time": []}}, "mouseout": {"state": {"target": ["0", "22", "19", "20", "21", "19", "13", "12", "0", "0"], "time": [653, 1742, 1810, 2293, 2727, 3907, 3941, 3973, 4026, 5290]}, "edge": {"target": [], "time": []}}}, "displayed_time": "15.41", "trialTime": 16740, "trial_type": "mouselab-mdp", "trial_index": 52, "time_elapsed": 1128725, "internal_node_id": "0.0-4.0-1.0-37.0"}}, {"uniqueid": "w23448887:a23046011", "current_trial": 53, "dateTime": 1691486435837, "trialdata": {"revealed_states": [], "clicked_states": ["5"], "num_clicks_accrued": [0, 0, 0, 0, 0, 0, 0, 0, 0, 0, 0, 0, 0], "stateRewards": ["", -2, -3, 1, -14, 48, -49, 67, -1, -35, -48, 3, -2, 1, -4, -5, 86, -84, 39, 1, 48, 41, -42, -1, -4, 2, -7, 18, -86, 17, 7, -9, 57, -69], "withholdReward": false, "trial_id": "mdp_trial_39", "block": "test", "trialIndex": 42, "score": 27.85, "costs": -2.15, "simulationMode": [null, null, null, null, null, null], "rewards": [-2, -3, 1, -14, 48], "path": ["0", "0", "1", "2", "3", "4", "5"], "rt": [2568, 1273, 107, 136, 198, 108], "actions": ["up", "up", "up", "up", "right", "up"], "actionTimes": [4094, 5372, 5992, 6641, 7349, 7978], "queries": {"click": {"state": {"target": ["5"], "time": [2498]}, "edge": {"target": [], "time": []}}, "mouseover": {"state": {"target": ["1", "2", "3", "5"], "time": [1835, 1876, 1906, 2067]}, "edge": {"target": [], "time": []}}, "mouseout": {"state": {"target": ["0", "0", "1", "2", "3", "5"], "time": [865, 1666, 1852, 1900, 1948, 2605]}, "edge": {"target": [], "time": []}}}, "displayed_time": "15.53", "trialTime": 16510, "trial_type": "mouselab-mdp", "trial_index": 53, "time_elapsed": 1146117, "internal_node_id": "0.0-4.0-1.0-38.0"}}, {"uniqueid": "w23448887:a23046011", "current_trial": 54, "dateTime": 1691486454168, "trialdata": {"revealed_states": [], "clicked_states": ["11"], "num_clicks_accrued": [0, 0, 0, 0, 0, 0, 0, 0, 0, 0, 0, 0, 0], "stateRewards": ["", 2, 4, 7, -6, -76, -81, 2, 5, -66, -3, 36, -2, -4, 6, -2, -69, 4, -49, -6, 67, 38, -67, 2, 1, 1, 6, -68, -21, 52, -16, -16, 6, -70], "withholdReward": false, "trial_id": "mdp_trial_40", "block": "test", "trialIndex": 43, "score": 51.85, "costs": -2.15, "simulationMode": [null, null, null, null, null], "rewards": [2, 4, 7, 5, 36], "path": ["0", "0", "1", "2", "3", "8", "11"], "rt": [4111, 10, 41, 803, 36], "actions": ["up", "up", "up", "left", "left"], "actionTimes": [5553, 6098, 6662, 7973, 8524], "queries": {"click": {"state": {"target": ["11"], "time": [2284]}, "edge": {"target": [], "time": []}}, "mouseover": {"state": {"target": ["2", "8", "11", "11", "8", "3", "16"], "time": [1506, 1792, 1838, 2106, 2659, 2685, 2781]}, "edge": {"target": [], "time": []}}, "mouseout": {"state": {"target": ["18", "2", "8", "11", "11", "8", "3", "16", "13"], "time": [456, 1523, 1812, 1871, 2638, 2680, 2702, 17151, 17218]}, "edge": {"target": [], "time": []}}}, "displayed_time": "15.45", "trialTime": 17501, "trial_type": "mouselab-mdp", "trial_index": 54, "time_elapsed": 1164448, "internal_node_id": "0.0-4.0-1.0-39.0"}}, {"uniqueid": "w23448887:a23046011", "current_trial": 55, "dateTime": 1691486512317, "trialdata": {"rt": 58131, "response": {"Q0": "$-88 to $88", "Q1": "$-32 to $32", "Q2": "$-16 to $16", "Q3": "The cost for clicking on nodes varied between nodes.", "Q4": "Slightly motivated"}, "question_order": [0, 1, 2, 3, 4], "trial_id": "final_quiz_control", "trial_type": "survey-multi-choice", "trial_index": 55, "time_elapsed": 1222598, "internal_node_id": "0.0-4.0-2.0"}}, {"uniqueid": "w23448887:a23046011", "current_trial": 56, "dateTime": 1691486626912, "trialdata": {"rt": 114559, "response": {"Q0": " I first started by checking if by chance I could get high figures, then I inspected nodes, then I figured it would be best to end at the top right nodes as the chances of them being - was less, and at the end I figured out which nodes to inspect and follow the path to that node.", "Q1": " I first started by checking if by chance I could get high figures, then I inspected nodes, then I figured it would be best to end at the top right nodes as the chances of them being - was less, and at the end I figured out which nodes to inspect and follow the path to that node.", "Q2": "It was not that difficult I just had to figure all the tools and how to effctively use them"}, "trial_id": "self_report_control", "trial_type": "survey-text", "trial_index": 56, "time_elapsed": 1337192, "internal_node_id": "0.0-4.0-3.0"}}, {"uniqueid": "w23448887:a23046011", "current_trial": 57, "dateTime": 1691486671788, "trialdata": {"rt": 44864, "response": {"Q0": "Neither disagree nor agree", "Q1": "Disagree", "Q2": "Strongly agree", "Q3": "Agree", "Q4": "Neither disagree nor agree", "Q5": "Agree", "Q6": "Disagree"}, "question_order": [0, 1, 2, 3, 4, 5, 6], "trial_id": "self_report_2", "trial_type": "survey-multi-choice", "trial_index": 57, "time_elapsed": 1382069, "internal_node_id": "0.0-4.0-4.0"}}, {"uniqueid": "w23448887:a23046011", "current_trial": 58, "dateTime": 1691486693180, "trialdata": {"rt": 21376, "response": {"gender": "female", "age": "30", "colorblind": "0", "effort": "0"}, "trial_type": "survey-html-form", "trial_index": 58, "time_elapsed": 1403461, "internal_node_id": "0.0-4.0-5.0"}}, {"uniqueid": "w23448887:a23046011", "current_trial": 59, "dateTime": 1691486761265, "trialdata": {"rt": 68070, "response": {"Q0": "It was a little tricky at first to remember all the information I had read before that on the nodes and numbers and inspection of the nodes and penalties, but I eventually figured it out.", "Q1": "no, i have not participated before", "Q2": ""}, "trial_type": "survey-text", "trial_index": 59, "time_elapsed": 1471545, "internal_node_id": "0.0-4.0-6.0"}}, {"uniqueid": "w23448887:a23046011", "current_trial": 60, "dateTime": 1691486766943, "trialdata": {"rt": 5663, "stimulus": "Press 'Finish HIT' in order to reach the completion code. Once the data has been saved, you will receive the code either in this window or in the original browser window where you started the experiment.\n", "response": 0, "trial_type": "html-button-response", "trial_index": 60, "time_elapsed": 1477224, "internal_node_id": "0.0-5.0"}}, {"uniqueid": "w23448887:a23046011", "current_trial": 61, "dateTime": 1691486767966, "trialdata": {"success": true, "trial_type": "fullscreen", "trial_index": 61, "time_elapsed": 1478247, "internal_node_id": "0.0-6.0"}}], "questiondata": {"params": {"CODE": "C6DMOQA6", "MIN_TIME": 14, "inspectCost": 1, "startTime": "Tue Aug 08 2023 11:01:25 GMT+0200 (South Africa Standard Time)", "bonusRate": 0.002, "variance": "1_2_4_8_44", "branching": "31123"}, "final_score": 481.3}, "eventdata": [{"eventtype": "initialized", "value": null, "timestamp": 1691485284125, "interval": 0}, {"eventtype": "window_resize", "value": [1028, 752], "timestamp": 1691485284125, "interval": 0}, {"eventtype": "window_resize", "value": [1028, 752], "timestamp": 1691485285712, "interval": 1587}, {"eventtype": "window_resize", "value": [1536, 864], "timestamp": 1691485292771, "interval": 7059}, {"eventtype": "focus", "value": "off", "timestamp": 1691485512904, "interval": 220133}, {"eventtype": "focus", "value": "on", "timestamp": 1691485512905, "interval": 1}, {"eventtype": "window_resize", "value": [1028, 752], "timestamp": 1691485513133, "interval": 228}, {"eventtype": "window_resize", "value": [1536, 864], "timestamp": 1691485514960, "interval": 1827}, {"eventtype": "window_resize", "value": [1028, 752], "timestamp": 1691486767206, "interval": 1252246}], "useragent": "Mozilla/5.0 (Windows NT 10.0; Win64; x64) AppleWebKit/537.36 (KHTML, like Gecko) Chrome/115.0.0.0 Safari/537.36", "mode": "live", "id": "w23448887:a23046011", "status": "user data saved", "Beginhit": "2023-08-08 09:00:59.579418", "Beginexp": "2023-08-08 09:01:21.90674", "Endhit": "2023-08-08 09:25:57.723253", "psiturkStatus": 3, "browser": "<redacted>", "platform": "windows", "language": "en-US"}