{"condition": 1, "counterbalance": 0, "assignmentId": "a61883750", "workerId": "w69419495", "hitId": "h85905647", "currenttrial": 56, "bonus": 0, "data": [{"uniqueid": "w69419495:a61883750", "current_trial": 0, "dateTime": 1693580405829, "trialdata": {"success": true, "trial_type": "fullscreen", "trial_index": 0, "time_elapsed": 15065, "internal_node_id": "0.0-0.0"}}, {"uniqueid": "w69419495:a61883750", "current_trial": 1, "dateTime": 1693580429490, "trialdata": {"view_history": [{"page_index": 0, "viewing_time": 23659}], "rt": 23660, "trial_id": "exp_instructions_misaligned", "trial_type": "instructions", "trial_index": 1, "time_elapsed": 38727, "internal_node_id": "0.0-1.0"}}, {"uniqueid": "w69419495:a61883750", "current_trial": 2, "dateTime": 1693580674978, "trialdata": {"view_history": [{"page_index": 0, "viewing_time": 71391}, {"page_index": 1, "viewing_time": 99787}, {"page_index": 2, "viewing_time": 19187}, {"page_index": 3, "viewing_time": 55121}], "rt": 245486, "trial_id": "mouselab_instructions_1_misaligned", "trial_type": "instructions", "trial_index": 2, "time_elapsed": 284215, "internal_node_id": "0.0-2.0-1.0"}}, {"uniqueid": "w69419495:a61883750", "current_trial": 3, "dateTime": 1693580726258, "trialdata": {"revealed_states": [], "clicked_states": ["12", "13", "14", "15", "17", "19", "20", "23", "1", "2", "3", "21"], "num_clicks_accrued": [0, 0, 0, 0, 0, 0, 0, 0, 0, 0, 0, 0, 0], "stateRewards": ["", 10, 10, -10, 10, 10, -10, 10, -10, 10, -10, 10, 10, 10, 10, -10, -10, -10, -10, -10, -10, 10, 10, -10, 10, 10, 10, 10, 10, 10, 10, -10, -10, -10], "withholdReward": false, "trial_id": "practice_1", "block": "test", "trialIndex": 0, "score": 7.5, "costs": -6, "simulationMode": [null, null, null, null, null], "rewards": [10, 10, 10, -10, -10], "path": ["0", "0", "12", "13", "14", "19", "20"], "rt": [40864, 707, 370, 991, 178], "actions": ["right", "right", "right", "down", "right"], "actionTimes": [42764, 43971, 44835, 46323, 46995], "queries": {"click": {"state": {"target": ["12", "13", "14", "15", "17", "19", "20", "23", "1", "2", "3", "21"], "time": [4869, 8849, 12285, 13994, 15673, 17658, 19116, 24709, 27269, 29300, 30793, 34410]}, "edge": {"target": [], "time": []}}, "mouseover": {"state": {"target": ["0", "12", "13", "14", "15", "17", "19", "19", "20", "21", "22", "12", "1", "13", "14", "13", "23", "24", "1", "1", "2", "3", "7", "18", "19", "21", "22", "12"], "time": [2431, 2764, 6183, 10187, 13589, 15491, 16775, 17293, 18193, 20345, 20929, 20979, 21362, 22380, 22614, 23965, 24198, 25099, 26533, 26783, 28902, 29686, 33273, 33505, 33873, 34139, 34823, 41178]}, "edge": {"target": [], "time": []}}, "mouseout": {"state": {"target": ["12", "0", "0", "12", "13", "14", "15", "17", "19", "19", "20", "21", "22", "12", "1", "13", "14", "13", "23", "24", "1", "1", "2", "3", "7", "18", "19", "21", "22", "21", "12", "13", "13", "13"], "time": [null, 1536, 2530, 5366, 9553, 12555, 14407, 15942, 16842, 17943, 19311, 20862, 20945, 20995, 21996, 22530, 23948, 23998, 24982, 26433, 26567, 27468, 29552, 31087, 33322, 33589, 33939, 34673, 36441, 40744, 42129, 43413, 43664, 49502]}, "edge": {"target": [], "time": []}}}, "displayed_time": "47.48", "trialTime": 50979, "trial_type": "mouselab-mdp", "trial_index": 3, "time_elapsed": 335495, "internal_node_id": "0.0-2.0-2.0-0.0"}}, {"uniqueid": "w69419495:a61883750", "current_trial": 4, "dateTime": 1693580751483, "trialdata": {"revealed_states": [], "clicked_states": ["12", "1", "2", "3", "4", "5", "6"], "num_clicks_accrued": [0, 0, 0, 0, 0, 0, 0, 0, 0, 0, 0, 0, 0], "stateRewards": ["", 10, -10, 10, -10, -10, 10, -10, 10, 10, -10, 10, -10, -10, -10, 10, 10, -10, -10, 10, -10, 10, 10, 10, 10, -10, 10, 10, -10, -10, -10, -10, -10, 10], "withholdReward": false, "trial_id": "practice_2", "block": "test", "trialIndex": 1, "score": 10, "costs": -3.5, "simulationMode": [null, null, null, null, null], "rewards": [10, -10, 10, -10, 10], "path": ["0", "0", "1", "2", "3", "4", "6"], "rt": [18452, 39, 10, 476, 21], "actions": ["up", "up", "up", "right", "right"], "actionTimes": [19777, 20320, 20840, 21824, 22336], "queries": {"click": {"state": {"target": ["12", "1", "2", "3", "4", "5", "6"], "time": [3318, 5420, 7412, 9575, 12198, 14528, 16818]}, "edge": {"target": [], "time": []}}, "mouseover": {"state": {"target": ["0", "12", "1", "1", "1", "2", "3", "4", "5", "6", "7", "1"], "time": [1614, 1848, 4017, 4784, 4984, 7102, 9287, 11311, 14175, 16593, 18194, 19029]}, "edge": {"target": [], "time": []}}, "mouseout": {"state": {"target": ["0", "0", "12", "1", "1", "1", "1", "2", "3", "4", "4", "5", "6", "7", "1"], "time": [1131, 1715, 3816, 4567, 4851, 5735, 7019, 7770, 9888, 12607, 14041, 14875, 17277, 18895, 19195]}, "edge": {"target": [], "time": []}}}, "displayed_time": "22.83", "trialTime": 25081, "trial_type": "mouselab-mdp", "trial_index": 4, "time_elapsed": 360719, "internal_node_id": "0.0-2.0-2.0-1.0"}}, {"uniqueid": "w69419495:a61883750", "current_trial": 5, "dateTime": 1693580822128, "trialdata": {"view_history": [{"page_index": 0, "viewing_time": 62455}, {"page_index": 1, "viewing_time": 8188}], "rt": 70643, "trial_id": "mouselab_instructions_2_misaligned", "trial_type": "instructions", "trial_index": 5, "time_elapsed": 431365, "internal_node_id": "0.0-2.0-3.0"}}, {"uniqueid": "w69419495:a61883750", "current_trial": 6, "dateTime": 1693580858469, "trialdata": {"rt": 36338, "response": {"Q0": "The cost for clicking on nodes may vary between nodes.", "Q1": "The better I perform the higher my bonus will be.", "Q2": "No, the amount of cash at each node of the web may be different each time.", "Q3": "To get the highest total score.", "Q4": "Only before moving the spider.", "Q5": "3 seconds"}, "question_order": [0, 1, 2, 3, 4, 5], "correct": {"Q0": "The cost for clicking on nodes may vary between nodes.", "Q1": "The better I perform the higher my bonus will be.", "Q2": "No, the amount of cash at each node of the web may be different each time.", "Q3": "To get the highest total score.", "Q4": "Only before moving the spider.", "Q5": "3 seconds"}, "trial_id": "mouselab_quiz_misaligned", "trial_type": "survey-multi-choice", "trial_index": 6, "time_elapsed": 467705, "internal_node_id": "0.0-2.0-4.0"}}, {"uniqueid": "w69419495:a61883750", "current_trial": 7, "dateTime": 1693580870837, "trialdata": {"rt": 12364, "response": {"Q0": "No"}, "question_order": [0], "trial_id": "repeat_check", "trial_type": "survey-multi-choice", "trial_index": 7, "time_elapsed": 480074, "internal_node_id": "0.0-4.0-0.0"}}, {"uniqueid": "w69419495:a61883750", "current_trial": 8, "dateTime": 1693580881082, "trialdata": {"rt": 10242, "stimulus": "\n<h1> Get ready to start the game! </h1>\n\nThank you for reading the instructions. Get ready start with the 40 rounds of this game.\n<br><br>\nIf you need to take a break, feel free to take one after the end of a round, before continuing to the next one.\n<br><br>\nRemember, the more money the spider gets, the bigger your bonus will be!\n<br><br>\n<div style='text-align: center;'>Press <code>space</code> to begin.</div>\n\n<br><br>\n(If, at any point, the <code>space</code> key does not take you to the next page, click once on the text and try again.)", "response": " ", "trial_id": "mdp_ready", "trial_type": "html-keyboard-response", "trial_index": 8, "time_elapsed": 490319, "internal_node_id": "0.0-6.0-0.0"}}, {"uniqueid": "w69419495:a61883750", "current_trial": 9, "dateTime": 1693580906682, "trialdata": {"revealed_states": [], "clicked_states": ["1", "2", "3", "4", "12", "13", "14", "15", "23", "24", "25", "26", "29"], "num_clicks_accrued": [0, 0, 0, 0, 0, 0, 0, 0, 0, 0, 0, 0, 0], "stateRewards": ["", 2, -1, -2, -5, -47, -57, -33, -11, 31, -18, -72, -2, 1, -4, -8, -46, -53, -50, 15, -85, -9, 39, -2, -2, 1, 14, -1, -8, 53, -12, -41, -74, 62], "withholdReward": false, "trial_id": "mdp_trial_1", "block": "test", "trialIndex": 2, "score": 54.05, "costs": -9.95, "simulationMode": [null, null, null, null, null, null], "rewards": [-2, -2, 1, 14, 53], "path": ["0", "0", "23", "24", "25", "26", "29"], "rt": [16249, 1406, 144, 30, 73, 17], "actions": ["left", "left", "left", "left", "up", "left"], "actionTimes": [18943, 20350, 20982, 21502, 22079, 22590], "queries": {"click": {"state": {"target": ["1", "2", "3", "4", "12", "13", "14", "15", "23", "24", "25", "26", "29"], "time": [3606, 4772, 6443, 8235, 10074, 10959, 12264, 13368, 14706, 15279, 16118, 16871, 17424]}, "edge": {"target": [], "time": []}}, "mouseover": {"state": {"target": ["1", "2", "3", "4", "18", "12", "13", "14", "15", "17", "0", "23", "24", "25", "26", "29"], "time": [3357, 4257, 5442, 6993, 9345, 9545, 10629, 11663, 13031, 14032, 14299, 14582, 15133, 15901, 16684, 17218]}, "edge": {"target": [], "time": []}}, "mouseout": {"state": {"target": ["9", "8", "2", "12", "0", "1", "2", "3", "4", "18", "12", "13", "14", "15", "17", "0", "23", "24", "25", "26", "29", "23"], "time": [1221, 1288, 1355, 1988, 2338, 4091, 5175, 6876, 8561, 9395, 10496, 11380, 12681, 13848, 14115, 14482, 14999, 15716, 16567, 17101, 17718, 24407]}, "edge": {"target": [], "time": []}}}, "displayed_time": "23.09", "trialTime": 25446, "trial_type": "mouselab-mdp", "trial_index": 9, "time_elapsed": 515919, "internal_node_id": "0.0-6.0-1.0-0.0"}}, {"uniqueid": "w69419495:a61883750", "current_trial": 10, "dateTime": 1693580945122, "trialdata": {"revealed_states": [], "clicked_states": ["1", "2", "3", "4", "12", "13", "14", "15", "17", "16", "18", "19", "20", "21", "22", "23", "24", "25", "30"], "num_clicks_accrued": [0, 0, 0, 0, 0, 0, 0, 0, 0, 0, 0, 0, 0], "stateRewards": ["", 2, -1, -4, -13, 74, 77, 3, 2, -43, -2, -11, 2, 3, 7, 11, -26, -29, -33, -3, -3, -13, -3, 1, 3, -7, 14, -59, 33, 9, -5, 34, 79, 68], "withholdReward": false, "trial_id": "mdp_trial_2", "block": "test", "trialIndex": 3, "score": -28.25, "costs": -22.25, "simulationMode": [null, null, null, null, null], "rewards": [2, 3, 7, 11, -29], "path": ["0", "0", "12", "13", "14", "15", "17"], "rt": [30422, 462, 38, 208, 2], "actions": ["right", "right", "right", "up", "right"], "actionTimes": [33062, 34021, 34565, 35285, 35784], "queries": {"click": {"state": {"target": ["1", "2", "3", "4", "12", "13", "14", "15", "17", "16", "18", "19", "20", "21", "22", "23", "24", "25", "30"], "time": [3614, 4279, 5091, 5942, 7210, 7779, 8347, 9084, 9806, 13000, 16926, 19862, 20605, 23868, 26652, 29678, 30281, 30969, 31670]}, "edge": {"target": [], "time": []}}, "mouseover": {"state": {"target": ["12", "1", "2", "3", "4", "6", "18", "12", "13", "14", "15", "17", "16", "16", "14", "19", "14", "15", "16", "15", "18", "18", "14", "19", "20", "19", "20", "21", "21", "22", "23", "23", "24", "25", "30", "31"], "time": [2934, 3319, 4085, 4902, 5552, 6270, 6737, 6954, 7521, 8155, 8905, 9372, 10523, 11257, 12058, 12425, 12642, 12692, 12808, 14143, 14359, 16077, 17462, 17913, 18296, 18930, 20298, 21832, 23784, 24401, 27220, 27321, 30106, 30790, 31507, 32057]}, "edge": {"target": [], "time": []}}, "mouseout": {"state": {"target": ["0", "12", "1", "2", "3", "4", "6", "18", "12", "13", "14", "15", "17", "15", "16", "16", "15", "14", "19", "14", "15", "16", "15", "18", "18", "14", "19", "20", "19", "20", "21", "21", "22", "23", "23", "24", "25", "30", "31", "22", "21"], "time": [2149, 3117, 3918, 4518, 5336, 6170, 6537, 6870, 7404, 8038, 8622, 9239, 10006, 10473, 11057, 11741, 11975, 12075, 12575, 12675, 12725, 13309, 14243, 15627, 17346, 17629, 18180, 18780, 20231, 20965, 22550, 24184, 27070, 27253, 30039, 30723, 31373, 31991, 32107, 37078, 37178]}, "edge": {"target": [], "time": []}}}, "displayed_time": "36.30", "trialTime": 38293, "trial_type": "mouselab-mdp", "trial_index": 10, "time_elapsed": 554359, "internal_node_id": "0.0-6.0-1.0-1.0"}}, {"uniqueid": "w69419495:a61883750", "current_trial": 11, "dateTime": 1693580978210, "trialdata": {"revealed_states": [], "clicked_states": ["1", "2", "3", "8", "9", "4", "5", "12", "13", "14", "15", "18", "19", "22"], "num_clicks_accrued": [0, 0, 0, 0, 0, 0, 0, 0, 0, 0, 0, 0, 0], "stateRewards": ["", -2, -3, -6, -7, 9, 16, 65, 5, -41, 20, -25, -1, -4, 1, -11, -49, -4, 71, 1, 39, -62, 52, -2, -3, 7, -9, -28, -70, 84, 8, 24, -58, 82], "withholdReward": false, "trial_id": "mdp_trial_3", "block": "test", "trialIndex": 4, "score": 32.1, "costs": -16.9, "simulationMode": [null, null, null, null, null], "rewards": [-1, -4, 1, 1, 52], "path": ["0", "0", "12", "13", "14", "19", "22"], "rt": [26714, 550, 27, 30, 9], "actions": ["right", "right", "right", "down", "left"], "actionTimes": [28164, 29211, 29739, 30259, 30771], "queries": {"click": {"state": {"target": ["1", "2", "3", "8", "9", "4", "5", "12", "13", "14", "15", "18", "19", "22"], "time": [2550, 3758, 5281, 7087, 8023, 11318, 12004, 16156, 16960, 17751, 18558, 20132, 22913, 23585]}, "edge": {"target": [], "time": []}}, "mouseover": {"state": {"target": ["1", "2", "3", "8", "9", "3", "4", "4", "5", "7", "7", "6", "16", "15", "18", "13", "12", "13", "14", "15", "17", "16", "18", "13", "22", "19", "22", "24", "23", "0", "12"], "time": [2172, 3440, 5024, 6692, 7860, 8827, 8978, 9395, 11847, 12731, 12931, 15232, 15332, 15533, 15616, 15733, 15833, 16684, 17518, 18402, 19503, 19736, 20003, 20537, 20756, 21104, 23323, 24807, 26475, 27092, 27309]}, "edge": {"target": [], "time": []}}, "mouseout": {"state": {"target": ["0", "1", "2", "3", "3", "8", "9", "3", "4", "4", "5", "4", "7", "7", "4", "5", "5", "6", "16", "15", "18", "13", "12", "13", "14", "15", "17", "16", "18", "18", "13", "22", "19", "22", "24", "23", "0", "12"], "time": [1688, 3023, 4123, 5975, 6526, 7660, 8377, 8944, 9194, 11747, 12347, 12697, 12798, 12981, 13014, 13398, 15149, 15266, 15416, 15566, 15633, 15750, 16550, 17384, 18285, 18970, 19669, 19903, 20195, 20437, 20704, 20987, 23256, 23973, 25257, 27025, 27259, 31913]}, "edge": {"target": [], "time": []}}}, "displayed_time": "31.28", "trialTime": 32939, "trial_type": "mouselab-mdp", "trial_index": 11, "time_elapsed": 587447, "internal_node_id": "0.0-6.0-1.0-2.0"}}, {"uniqueid": "w69419495:a61883750", "current_trial": 12, "dateTime": 1693581006258, "trialdata": {"revealed_states": [], "clicked_states": ["23", "24", "25", "26", "29", "27", "28", "30", "31", "32"], "num_clicks_accrued": [0, 0, 0, 0, 0, 0, 0, 0, 0, 0, 0, 0, 0], "stateRewards": ["", 2, 3, 8, 14, 69, -27, 17, 2, -71, -65, -10, 2, -3, 7, 8, 65, -10, 65, -12, 73, -12, 13, -2, -2, 6, 10, -79, -69, -18, 10, -85, 67, 74], "withholdReward": false, "trial_id": "mdp_trial_4", "block": "test", "trialIndex": 5, "score": 64.1, "costs": -14.900000000000002, "simulationMode": [null, null, null, null, null], "rewards": [-2, -2, 6, 10, 67], "path": ["0", "0", "23", "24", "25", "30", "32"], "rt": [22792, 300, 12, 31, 297], "actions": ["left", "left", "left", "down", "down"], "actionTimes": [23754, 24545, 25057, 25593, 26409], "queries": {"click": {"state": {"target": ["23", "24", "25", "26", "29", "27", "28", "30", "31", "32"], "time": [2099, 2683, 3281, 4157, 5014, 8291, 11669, 15139, 16356, 19557]}, "edge": {"target": [], "time": []}}, "mouseover": {"state": {"target": ["23", "23", "24", "25", "26", "29", "27", "28", "24", "31", "30", "31", "32", "33", "30", "31"], "time": [1374, 1575, 2442, 3093, 3810, 4744, 5962, 8864, 12000, 12117, 12684, 16003, 17187, 20290, 22842, 22909]}, "edge": {"target": [], "time": []}}, "mouseout": {"state": {"target": ["0", "0", "0", "23", "23", "24", "25", "26", "29", "26", "27", "28", "24", "31", "30", "31", "32", "33", "30"], "time": [473, 623, 1275, 1425, 2375, 3026, 3610, 4511, 5278, 5595, 8580, 11917, 12050, 12517, 15403, 16587, 19790, 22792, 22892]}, "edge": {"target": [], "time": []}}}, "displayed_time": "26.90", "trialTime": 27897, "trial_type": "mouselab-mdp", "trial_index": 12, "time_elapsed": 615495, "internal_node_id": "0.0-6.0-1.0-3.0"}}, {"uniqueid": "w69419495:a61883750", "current_trial": 13, "dateTime": 1693581023659, "trialdata": {"revealed_states": [], "clicked_states": ["1", "2", "3", "4", "5", "6"], "num_clicks_accrued": [0, 0, 0, 0, 0, 0, 0, 0, 0, 0, 0, 0, 0], "stateRewards": ["", -2, 2, 2, -6, 9, 37, 50, -13, -7, -18, -75, -2, -4, 4, 7, 23, -57, -66, -7, -81, -48, -76, 1, 1, -8, 1, 51, -2, 70, 14, 59, 71, -37], "withholdReward": false, "trial_id": "mdp_trial_5", "block": "test", "trialIndex": 6, "score": 26.1, "costs": -6.9, "simulationMode": [null, null, null, null, null], "rewards": [-2, 2, 2, -6, 37], "path": ["0", "0", "1", "2", "3", "4", "6"], "rt": [11958, 322, 18, 413, 1], "actions": ["up", "up", "up", "right", "right"], "actionTimes": [13216, 14031, 14543, 15455, 15944], "queries": {"click": {"state": {"target": ["1", "2", "3", "4", "5", "6"], "time": [2774, 3488, 4133, 4827, 5627, 8763]}, "edge": {"target": [], "time": []}}, "mouseover": {"state": {"target": ["0", "1", "10", "1", "2", "3", "4", "6", "5", "6", "7", "15"], "time": [1581, 2198, 2248, 2548, 3232, 4016, 4533, 5217, 5467, 5968, 9487, 12573]}, "edge": {"target": [], "time": []}}, "mouseout": {"state": {"target": ["31", "0", "0", "0", "1", "10", "1", "2", "3", "4", "6", "5", "6", "7", "15", "15"], "time": [629, 946, 1063, 1631, 2215, 2465, 3015, 3766, 4467, 5134, 5284, 5868, 9020, 12473, 12623, 17012]}, "edge": {"target": [], "time": []}}}, "displayed_time": "16.46", "trialTime": 17247, "trial_type": "mouselab-mdp", "trial_index": 13, "time_elapsed": 632895, "internal_node_id": "0.0-6.0-1.0-4.0"}}, {"uniqueid": "w69419495:a61883750", "current_trial": 14, "dateTime": 1693581040098, "trialdata": {"revealed_states": [], "clicked_states": ["23", "24", "25", "26", "29", "27"], "num_clicks_accrued": [0, 0, 0, 0, 0, 0, 0, 0, 0, 0, 0, 0, 0], "stateRewards": ["", -1, 4, -8, 12, 14, 69, -8, 5, -72, -14, 56, -1, -1, -1, 9, 67, 19, 11, -9, -88, -58, 3, 2, -4, -8, 4, 62, 77, -74, 5, -31, 65, 88], "withholdReward": false, "trial_id": "mdp_trial_6", "block": "test", "trialIndex": 7, "score": 49.1, "costs": -6.9, "simulationMode": [null, null, null, null, null], "rewards": [2, -4, -8, 4, 62], "path": ["0", "0", "23", "24", "25", "26", "27"], "rt": [10748, 396, 64, 49, 3], "actions": ["left", "left", "left", "up", "up"], "actionTimes": [11795, 12691, 13243, 13795, 14299], "queries": {"click": {"state": {"target": ["23", "24", "25", "26", "29", "27"], "time": [1842, 2357, 2793, 3369, 3891, 7313]}, "edge": {"target": [], "time": []}}, "mouseover": {"state": {"target": ["23", "24", "25", "26", "29", "28", "27", "28"], "time": [1718, 2185, 2652, 3303, 3770, 4704, 4921, 7756]}, "edge": {"target": [], "time": []}}, "mouseout": {"state": {"target": ["17", "14", "0", "23", "24", "25", "26", "29", "26", "24", "28", "27", "28"], "time": [583, 617, 1151, 2068, 2619, 3169, 3736, 4187, 4288, 4620, 4821, 7640, 10842]}, "edge": {"target": [], "time": []}}}, "displayed_time": "15.05", "trialTime": 16227, "trial_type": "mouselab-mdp", "trial_index": 14, "time_elapsed": 649335, "internal_node_id": "0.0-6.0-1.0-5.0"}}, {"uniqueid": "w69419495:a61883750", "current_trial": 15, "dateTime": 1693581056681, "trialdata": {"revealed_states": [], "clicked_states": ["1", "2", "3", "4", "5", "6"], "num_clicks_accrued": [0, 0, 0, 0, 0, 0, 0, 0, 0, 0, 0, 0, 0], "stateRewards": ["", -2, -1, -6, -14, -55, 78, -13, 11, 14, -71, 59, 2, 2, 6, -6, 9, 38, 14, 7, 85, 11, 68, 1, -4, -1, -3, -63, -85, 9, -2, 63, -86, -10], "withholdReward": false, "trial_id": "mdp_trial_7", "block": "test", "trialIndex": 8, "score": 48.1, "costs": -6.9, "simulationMode": [null, null, null, null, null], "rewards": [-2, -1, -6, -14, 78], "path": ["0", "0", "1", "2", "3", "4", "6"], "rt": [11121, 67, 20, 415, 18], "actions": ["up", "up", "up", "right", "right"], "actionTimes": [12507, 13066, 13586, 14497, 15017], "queries": {"click": {"state": {"target": ["1", "2", "3", "4", "5", "6"], "time": [1818, 2600, 3068, 3583, 4331, 7520]}, "edge": {"target": [], "time": []}}, "mouseover": {"state": {"target": ["1", "2", "3", "4", "5", "6", "7"], "time": [1689, 2322, 2940, 3407, 4157, 5425, 7943]}, "edge": {"target": [], "time": []}}, "mouseout": {"state": {"target": ["1", "0", "0", "1", "2", "3", "4", "5", "6", "7"], "time": [670, 937, 1221, 2105, 2856, 3323, 3857, 4558, 7760, 11296]}, "edge": {"target": [], "time": []}}}, "displayed_time": "15.52", "trialTime": 16417, "trial_type": "mouselab-mdp", "trial_index": 15, "time_elapsed": 665918, "internal_node_id": "0.0-6.0-1.0-6.0"}}, {"uniqueid": "w69419495:a61883750", "current_trial": 16, "dateTime": 1693581071842, "trialdata": {"revealed_states": [], "clicked_states": ["12", "13", "14", "15", "17"], "num_clicks_accrued": [0, 0, 0, 0, 0, 0, 0, 0, 0, 0, 0, 0, 0], "stateRewards": ["", -2, 2, -2, -7, -50, -62, -45, 7, 36, -24, -72, -1, -1, 8, -1, -67, 20, -52, 2, 35, -50, 80, -1, 1, 6, -6, -70, 6, 88, 8, -47, 74, -19], "withholdReward": false, "trial_id": "mdp_trial_8", "block": "test", "trialIndex": 9, "score": 20.25, "costs": -4.75, "simulationMode": [null, null, null, null, null], "rewards": [-1, -1, 8, -1, 20], "path": ["0", "0", "12", "13", "14", "15", "17"], "rt": [8126, 30, 1, 27, 438], "actions": ["right", "right", "right", "up", "right"], "actionTimes": [8803, 9330, 9852, 10394, 11322], "queries": {"click": {"state": {"target": ["12", "13", "14", "15", "17"], "time": [1464, 1971, 2454, 3031, 3603]}, "edge": {"target": [], "time": []}}, "mouseover": {"state": {"target": ["12", "13", "14", "15", "17", "16"], "time": [1226, 1859, 2226, 2777, 3428, 4412]}, "edge": {"target": [], "time": []}}, "mouseout": {"state": {"target": ["0", "0", "12", "13", "14", "15", "17", "16", "15", "14", "19", "21"], "time": [425, 959, 1709, 2193, 2677, 3327, 3911, 12235, 12304, 12353, 12370, 12403]}, "edge": {"target": [], "time": []}}}, "displayed_time": "14.68", "trialTime": 15003, "trial_type": "mouselab-mdp", "trial_index": 16, "time_elapsed": 681078, "internal_node_id": "0.0-6.0-1.0-7.0"}}, {"uniqueid": "w69419495:a61883750", "current_trial": 17, "dateTime": 1693581092833, "trialdata": {"revealed_states": [], "clicked_states": ["23", "24", "25", "26", "29", "30", "28", "27"], "num_clicks_accrued": [0, 0, 0, 0, 0, 0, 0, 0, 0, 0, 0, 0, 0], "stateRewards": ["", 2, 1, -3, 7, 46, 11, -36, 16, 71, 5, 1, 2, -2, -8, -3, -4, 6, 55, 7, 68, -54, 2, 1, 1, 6, -6, 42, -4, -84, -11, -65, 63, 25], "withholdReward": false, "trial_id": "mdp_trial_9", "block": "test", "trialIndex": 10, "score": 33.4, "costs": -10.6, "simulationMode": [null, null, null, null, null], "rewards": [1, 1, 6, -6, 42], "path": ["0", "0", "23", "24", "25", "26", "27"], "rt": [15417, 31, 472, 8, 428], "actions": ["left", "left", "left", "up", "up"], "actionTimes": [16587, 17114, 18106, 18610, 19546], "queries": {"click": {"state": {"target": ["23", "24", "25", "26", "29", "30", "28", "27"], "time": [1703, 2243, 2843, 3512, 4494, 7778, 9127, 12280]}, "edge": {"target": [], "time": []}}, "mouseover": {"state": {"target": ["23", "24", "25", "26", "29", "29", "30", "24", "28", "27", "31"], "time": [1520, 2037, 2605, 3388, 3972, 4339, 5173, 8292, 8359, 9526, 13196]}, "edge": {"target": [], "time": []}}, "mouseout": {"state": {"target": ["0", "23", "24", "25", "26", "29", "29", "25", "30", "24", "28", "27", "31"], "time": [1487, 1970, 2521, 3238, 3906, 4089, 4907, 5107, 8175, 8309, 9410, 12579, 15848]}, "edge": {"target": [], "time": []}}}, "displayed_time": "20.04", "trialTime": 20826, "trial_type": "mouselab-mdp", "trial_index": 17, "time_elapsed": 702070, "internal_node_id": "0.0-6.0-1.0-8.0"}}, {"uniqueid": "w69419495:a61883750", "current_trial": 18, "dateTime": 1693581111282, "trialdata": {"revealed_states": [], "clicked_states": ["12", "13", "14", "15", "17", "16", "18"], "num_clicks_accrued": [0, 0, 0, 0, 0, 0, 0, 0, 0, 0, 0, 0, 0], "stateRewards": ["", -2, 2, 3, -7, -31, -33, 29, -8, -57, 50, -83, -1, -1, 5, 13, -23, -62, 25, 5, -66, -85, 14, 1, -2, -1, 16, 71, 33, -19, -14, 5, -43, 79], "withholdReward": false, "trial_id": "mdp_trial_10", "block": "test", "trialIndex": 11, "score": 31.95, "costs": -9.05, "simulationMode": [null, null, null, null, null], "rewards": [-1, -1, 5, 13, 25], "path": ["0", "0", "12", "13", "14", "15", "18"], "rt": [13584, 72, 104, 8, 19], "actions": ["right", "right", "right", "up", "left"], "actionTimes": [14798, 15357, 15957, 16461, 16989], "queries": {"click": {"state": {"target": ["12", "13", "14", "15", "17", "16", "18"], "time": [2056, 2547, 2957, 3679, 4307, 7520, 10643]}, "edge": {"target": [], "time": []}}, "mouseover": {"state": {"target": ["0", "12", "13", "14", "15", "17", "16", "16", "18", "14", "19", "20"], "time": [1507, 1824, 2374, 2842, 3375, 4109, 5043, 5260, 7912, 11015, 11548, 13900]}, "edge": {"target": [], "time": []}}, "mouseout": {"state": {"target": ["0", "0", "12", "13", "14", "15", "17", "17", "16", "16", "18", "14", "19", "20"], "time": [1022, 1723, 2291, 2774, 3241, 3978, 4593, 4993, 5077, 7795, 10931, 11048, 13883, 13917]}, "edge": {"target": [], "time": []}}}, "displayed_time": "17.49", "trialTime": 18278, "trial_type": "mouselab-mdp", "trial_index": 18, "time_elapsed": 720518, "internal_node_id": "0.0-6.0-1.0-9.0"}}, {"uniqueid": "w69419495:a61883750", "current_trial": 19, "dateTime": 1693581127346, "trialdata": {"revealed_states": [], "clicked_states": ["1", "2", "3", "4", "6"], "num_clicks_accrued": [0, 0, 0, 0, 0, 0, 0, 0, 0, 0, 0, 0, 0], "stateRewards": ["", -2, -3, 8, 14, -73, 73, 84, -12, -2, -50, -17, 2, 1, -2, -9, -44, -27, -33, 16, -63, -47, -66, -2, 1, 4, -5, -33, -11, 50, 9, 38, -79, 31], "withholdReward": false, "trial_id": "mdp_trial_11", "block": "test", "trialIndex": 12, "score": 85.25, "costs": -4.75, "simulationMode": [null, null, null, null, null], "rewards": [-2, -3, 8, 14, 73], "path": ["0", "0", "1", "2", "3", "4", "6"], "rt": [9475, 13, 1, 387, 31], "actions": ["up", "up", "up", "right", "right"], "actionTimes": [10912, 11423, 11928, 12831, 13359], "queries": {"click": {"state": {"target": ["1", "2", "3", "4", "6"], "time": [2589, 3206, 3728, 5632, 6680]}, "edge": {"target": [], "time": []}}, "mouseover": {"state": {"target": ["1", "2", "3", "4", "6", "5"], "time": [2267, 2952, 3535, 5053, 6454, 8406]}, "edge": {"target": [], "time": []}}, "mouseout": {"state": {"target": ["13", "12", "1", "2", "3", "4", "6", "5", "5", "18", "13", "21"], "time": [882, 982, 2851, 3419, 4970, 5954, 7072, 10157, 15395, 15479, 15496, 15545]}, "edge": {"target": [], "time": []}}}, "displayed_time": "15.44", "trialTime": 15887, "trial_type": "mouselab-mdp", "trial_index": 19, "time_elapsed": 736582, "internal_node_id": "0.0-6.0-1.0-10.0"}}, {"uniqueid": "w69419495:a61883750", "current_trial": 20, "dateTime": 1693581143010, "trialdata": {"revealed_states": [], "clicked_states": ["23", "24", "25", "26", "29"], "num_clicks_accrued": [0, 0, 0, 0, 0, 0, 0, 0, 0, 0, 0, 0, 0], "stateRewards": ["", -1, 3, 1, -11, -22, -36, 19, -5, -70, -52, 50, -2, -4, 4, -2, -41, -83, 29, -2, 22, 10, -6, -2, 3, -2, 14, 54, 44, 77, -9, -65, -37, -40], "withholdReward": false, "trial_id": "mdp_trial_12", "block": "test", "trialIndex": 13, "score": 85.25, "costs": -4.75, "simulationMode": [null, null, null, null, null], "rewards": [-2, 3, -2, 14, 77], "path": ["0", "0", "23", "24", "25", "26", "29"], "rt": [7089, 24, 11, 46, 16], "actions": ["left", "left", "left", "up", "left"], "actionTimes": [8126, 8653, 9157, 9709, 10229], "queries": {"click": {"state": {"target": ["23", "24", "25", "26", "29"], "time": [1771, 2174, 2845, 3403, 3988]}, "edge": {"target": [], "time": []}}, "mouseover": {"state": {"target": ["1", "23", "24", "25", "26", "29", "27"], "time": [1238, 1556, 2006, 2757, 3257, 3774, 4659]}, "edge": {"target": [], "time": []}}, "mouseout": {"state": {"target": ["0", "1", "23", "24", "25", "26", "26", "29", "26", "27", "28", "0"], "time": [1172, 1455, 1939, 2456, 3157, 3474, 3707, 4308, 4441, 7527, 11930, 11981]}, "edge": {"target": [], "time": []}}}, "displayed_time": "15.04", "trialTime": 15493, "trial_type": "mouselab-mdp", "trial_index": 20, "time_elapsed": 752246, "internal_node_id": "0.0-6.0-1.0-11.0"}}, {"uniqueid": "w69419495:a61883750", "current_trial": 21, "dateTime": 1693581172873, "trialdata": {"revealed_states": [], "clicked_states": ["12", "13", "14", "15", "17", "16", "18", "19", "20", "21", "22"], "num_clicks_accrued": [0, 0, 0, 0, 0, 0, 0, 0, 0, 0, 0, 0, 0], "stateRewards": ["", -2, 2, -1, -6, 22, 6, 6, -5, 70, -42, 65, 1, 3, 5, -6, -67, -9, 3, 14, 7, -62, -13, -2, 4, 1, 16, 42, -21, -52, -8, 32, 53, 81], "withholdReward": false, "trial_id": "mdp_trial_13", "block": "test", "trialIndex": 14, "score": 12.95, "costs": -17.05, "simulationMode": [null, null, null, null, null], "rewards": [1, 3, 5, 14, 7], "path": ["0", "0", "12", "13", "14", "19", "20"], "rt": [24813, 360, 53, 478, 71], "actions": ["right", "right", "right", "down", "right"], "actionTimes": [25633, 26488, 27032, 28024, 28584], "queries": {"click": {"state": {"target": ["12", "13", "14", "15", "17", "16", "18", "19", "20", "21", "22"], "time": [1987, 2340, 2847, 3368, 3884, 7143, 10542, 13747, 15328, 18475, 21605]}, "edge": {"target": [], "time": []}}, "mouseover": {"state": {"target": ["1", "12", "13", "14", "15", "17", "16", "18", "20", "19", "20", "21", "22"], "time": [957, 1691, 2174, 2625, 3258, 3692, 5093, 7479, 11148, 11682, 14068, 15702, 18854]}, "edge": {"target": [], "time": []}}, "mouseout": {"state": {"target": ["0", "1", "12", "12", "13", "14", "15", "17", "17", "16", "18", "20", "19", "20", "21", "22"], "time": [608, 1624, 2045, 2124, 2550, 3025, 3610, 4126, 4843, 7362, 10814, 11465, 14017, 15585, 18738, 21924]}, "edge": {"target": [], "time": []}}}, "displayed_time": "29.08", "trialTime": 29696, "trial_type": "mouselab-mdp", "trial_index": 21, "time_elapsed": 782110, "internal_node_id": "0.0-6.0-1.0-12.0"}}, {"uniqueid": "w69419495:a61883750", "current_trial": 22, "dateTime": 1693581195266, "trialdata": {"revealed_states": [], "clicked_states": ["23", "24", "25", "30", "32", "31", "33", "26", "27"], "num_clicks_accrued": [0, 0, 0, 0, 0, 0, 0, 0, 0, 0, 0, 0, 0], "stateRewards": ["", -1, 4, 3, 12, -27, 34, -33, 3, -63, 1, 6, 2, 2, -6, -11, -77, -85, 68, -6, 51, 81, -60, -2, -2, 1, 15, 20, 15, 68, -10, -14, 6, -4], "withholdReward": false, "trial_id": "mdp_trial_14", "block": "test", "trialIndex": 15, "score": 19.25, "costs": -12.750000000000002, "simulationMode": [null, null, null, null, null], "rewards": [-2, -2, 1, 15, 20], "path": ["0", "0", "23", "24", "25", "26", "27"], "rt": [16913, 62, 528, 350, 28], "actions": ["left", "left", "left", "up", "up"], "actionTimes": [17760, 18311, 19343, 20183, 20711], "queries": {"click": {"state": {"target": ["23", "24", "25", "30", "32", "31", "33", "26", "27"], "time": [1701, 2189, 2607, 3107, 3844, 7021, 10152, 13286, 13836]}, "edge": {"target": [], "time": []}}, "mouseover": {"state": {"target": ["23", "24", "25", "30", "32", "31", "30", "33", "26", "27", "28"], "time": [1416, 2068, 2551, 2934, 3551, 4352, 7238, 7405, 10858, 13610, 14344]}, "edge": {"target": [], "time": []}}, "mouseout": {"state": {"target": ["20", "23", "24", "25", "30", "30", "32", "31", "30", "33", "26", "27", "28"], "time": [282, 1884, 2467, 2868, 3146, 3435, 3915, 7205, 7321, 10374, 13493, 14094, 17079]}, "edge": {"target": [], "time": []}}}, "displayed_time": "21.20", "trialTime": 22207, "trial_type": "mouselab-mdp", "trial_index": 22, "time_elapsed": 804502, "internal_node_id": "0.0-6.0-1.0-13.0"}}, {"uniqueid": "w69419495:a61883750", "current_trial": 23, "dateTime": 1693581218282, "trialdata": {"revealed_states": [], "clicked_states": ["1", "2", "3", "4", "6", "7", "5", "8", "9"], "num_clicks_accrued": [0, 0, 0, 0, 0, 0, 0, 0, 0, 0, 0, 0, 0], "stateRewards": ["", 1, 1, 1, -3, -7, -1, -41, -10, 20, -72, -63, 1, -4, -2, 2, -66, 30, -84, -2, 49, 23, 71, -1, -4, 4, -12, 67, 5, 18, -16, 88, 56, -5], "withholdReward": false, "trial_id": "mdp_trial_15", "block": "test", "trialIndex": 16, "score": 0.25, "costs": -12.750000000000002, "simulationMode": [null, null, null, null, null], "rewards": [1, 1, 1, -10, 20], "path": ["0", "0", "1", "2", "3", "8", "9"], "rt": [16935, 4, 430, 401, 36], "actions": ["up", "up", "up", "left", "up"], "actionTimes": [18199, 18695, 19639, 20543, 21079], "queries": {"click": {"state": {"target": ["1", "2", "3", "4", "6", "7", "5", "8", "9"], "time": [1880, 2252, 2657, 3332, 3900, 7012, 10066, 13241, 14014]}, "edge": {"target": [], "time": []}}, "mouseover": {"state": {"target": ["1", "2", "3", "4", "4", "6", "7", "7", "4", "5", "3", "8", "9", "11", "8"], "time": [1643, 2110, 2510, 2944, 3227, 3711, 4562, 4712, 7264, 7347, 10417, 10467, 13587, 14620, 17623]}, "edge": {"target": [], "time": []}}, "mouseout": {"state": {"target": ["1", "15", "19", "12", "0", "1", "2", "3", "4", "4", "6", "7", "7", "4", "5", "3", "8", "9", "11"], "time": [58, 275, 692, 775, 1125, 2010, 2410, 2894, 3061, 3578, 4112, 4596, 7214, 7281, 10350, 10434, 13486, 14303, 17606]}, "edge": {"target": [], "time": []}}}, "displayed_time": "21.59", "trialTime": 22831, "trial_type": "mouselab-mdp", "trial_index": 23, "time_elapsed": 827518, "internal_node_id": "0.0-6.0-1.0-14.0"}}, {"uniqueid": "w69419495:a61883750", "current_trial": 24, "dateTime": 1693581234377, "trialdata": {"revealed_states": [], "clicked_states": ["12", "13", "14", "15", "17", "19", "20"], "num_clicks_accrued": [0, 0, 0, 0, 0, 0, 0, 0, 0, 0, 0, 0, 0], "stateRewards": ["", 1, -3, -4, -11, -56, 61, -47, -16, -28, -9, 69, -2, -3, -4, -8, 40, -86, 59, -4, 80, 27, 54, -1, 3, -1, 8, 67, 23, 50, 6, 83, -43, -29], "withholdReward": false, "trial_id": "mdp_trial_16", "block": "test", "trialIndex": 17, "score": 58.55, "costs": -8.45, "simulationMode": [null, null, null, null, null], "rewards": [-2, -3, -4, -4, 80], "path": ["0", "0", "12", "13", "14", "19", "20"], "rt": [11310, 31, 80, 432, 50], "actions": ["right", "right", "right", "down", "right"], "actionTimes": [12603, 13131, 13731, 14667, 15219], "queries": {"click": {"state": {"target": ["12", "13", "14", "15", "17", "19", "20"], "time": [2494, 3064, 3689, 4151, 4668, 7844, 8396]}, "edge": {"target": [], "time": []}}, "mouseover": {"state": {"target": ["0", "12", "13", "14", "15", "17", "19", "19", "20", "13", "1"], "time": [1990, 2207, 2774, 3408, 3975, 4609, 5693, 6010, 8245, 10031, 10330]}, "edge": {"target": [], "time": []}}, "mouseout": {"state": {"target": ["8", "10", "12", "0", "0", "12", "13", "14", "15", "15", "17", "19", "19", "20", "19", "19", "13", "1"], "time": [239, 305, 772, 1506, 2124, 2691, 3325, 3858, 4213, 4442, 4909, 5860, 8179, 8679, 9046, 9413, 10047, 11898]}, "edge": {"target": [], "time": []}}}, "displayed_time": "15.72", "trialTime": 15939, "trial_type": "mouselab-mdp", "trial_index": 24, "time_elapsed": 843614, "internal_node_id": "0.0-6.0-1.0-15.0"}}, {"uniqueid": "w69419495:a61883750", "current_trial": 25, "dateTime": 1693581250018, "trialdata": {"revealed_states": [], "clicked_states": ["1", "2", "3", "4", "5"], "num_clicks_accrued": [0, 0, 0, 0, 0, 0, 0, 0, 0, 0, 0, 0, 0], "stateRewards": ["", -2, 3, 8, -9, 59, 41, -50, -1, 82, 66, 33, 2, -2, 7, 8, 1, -38, 12, -16, 24, -37, 67, 1, 4, -2, 5, 35, -83, 28, 8, -27, 69, -64], "withholdReward": false, "trial_id": "mdp_trial_17", "block": "test", "trialIndex": 18, "score": 54.25, "costs": -4.75, "simulationMode": [null, null, null, null, null], "rewards": [-2, 3, 8, -9, 59], "path": ["0", "0", "1", "2", "3", "4", "5"], "rt": [7694, 30, 24, 59, 37], "actions": ["up", "up", "up", "right", "up"], "actionTimes": [8810, 9337, 9881, 10433, 10961], "queries": {"click": {"state": {"target": ["1", "2", "3", "4", "5"], "time": [1896, 2422, 3056, 3849, 4724]}, "edge": {"target": [], "time": []}}, "mouseover": {"state": {"target": ["1", "2", "3", "4", "4", "5", "6"], "time": [1399, 2300, 2667, 3385, 3685, 4252, 5419]}, "edge": {"target": [], "time": []}}, "mouseout": {"state": {"target": ["1", "1", "2", "3", "4", "4", "5", "6"], "time": [715, 2100, 2601, 3318, 3451, 4135, 5054, 7988]}, "edge": {"target": [], "time": []}}}, "displayed_time": "15.12", "trialTime": 15426, "trial_type": "mouselab-mdp", "trial_index": 25, "time_elapsed": 859255, "internal_node_id": "0.0-6.0-1.0-16.0"}}, {"uniqueid": "w69419495:a61883750", "current_trial": 26, "dateTime": 1693581267281, "trialdata": {"revealed_states": [], "clicked_states": ["23", "24", "25", "26", "27", "28"], "num_clicks_accrued": [0, 0, 0, 0, 0, 0, 0, 0, 0, 0, 0, 0, 0], "stateRewards": ["", 1, 2, 7, 13, 88, -71, 27, 3, 60, 5, -53, -2, 2, -6, -1, -30, 79, 47, -4, -14, 46, 68, 1, 1, 8, 10, -14, 86, 48, -11, -67, -44, 5], "withholdReward": false, "trial_id": "mdp_trial_18", "block": "test", "trialIndex": 19, "score": 99.1, "costs": -6.9, "simulationMode": [null, null, null, null, null], "rewards": [1, 1, 8, 10, 86], "path": ["0", "0", "23", "24", "25", "26", "28"], "rt": [10344, 67, 12, 103, 7], "actions": ["left", "left", "left", "up", "right"], "actionTimes": [13096, 13654, 14166, 14774, 15278], "queries": {"click": {"state": {"target": ["23", "24", "25", "26", "27", "28"], "time": [3652, 4190, 4647, 5203, 5969, 9205]}, "edge": {"target": [], "time": []}}, "mouseover": {"state": {"target": ["12", "18", "23", "24", "25", "26", "27", "28", "26", "29"], "time": [2894, 2977, 3461, 3979, 4529, 5012, 5930, 7548, 9433, 9566]}, "edge": {"target": [], "time": []}}, "mouseout": {"state": {"target": ["6", "9", "8", "0", "12", "18", "23", "24", "25", "26", "26", "27", "28", "26", "29"], "time": [1893, 1960, 2110, 2878, 2911, 3128, 3912, 4412, 4862, 5646, 5813, 6314, 9400, 9500, 12485]}, "edge": {"target": [], "time": []}}}, "displayed_time": "16.75", "trialTime": 17070, "trial_type": "mouselab-mdp", "trial_index": 26, "time_elapsed": 876518, "internal_node_id": "0.0-6.0-1.0-17.0"}}, {"uniqueid": "w69419495:a61883750", "current_trial": 27, "dateTime": 1693581293137, "trialdata": {"revealed_states": [], "clicked_states": [], "num_clicks_accrued": [0, 0, 0, 0, 0, 0, 0, 0, 0, 0, 0, 0, 0], "stateRewards": ["", 2, -2, -3, 10, -4, -1, -11, -8, -9, -36, -78, 2, 1, 7, -7, 44, -1, -31, -1, 26, 47, 83, 2, -4, -4, -6, -52, -76, -81, -1, -59, 45, 67], "withholdReward": false, "trial_id": "mdp_trial_19", "block": "test", "trialIndex": 20, "score": 3, "costs": 0, "simulationMode": [null, null, null, null, null], "rewards": [2, -2, -3, 10, -4], "path": ["0", "0", "1", "2", "3", "4", "5"], "rt": [20969, 36, 150, 42, 13], "actions": ["up", "up", "up", "right", "up"], "actionTimes": [21936, 22463, 23111, 23655, 24175], "queries": {"click": {"state": {"target": [], "time": []}, "edge": {"target": [], "time": []}}, "mouseover": {"state": {"target": ["12", "6", "8", "1", "18", "18", "12", "1"], "time": [1293, 11535, 11685, 11885, 17139, 19958, 20108, 20525]}, "edge": {"target": [], "time": []}}, "mouseout": {"state": {"target": ["26", "28", "23", "0", "12", "19", "19", "22", "12", "0", "12", "6", "8", "1", "18", "18", "12"], "time": [125, 192, 242, 275, 308, 409, 492, 525, 675, 1210, 1860, 11551, 11718, 15038, 17340, 19975, 20258]}, "edge": {"target": [], "time": []}}}, "displayed_time": "24.68", "trialTime": 25679, "trial_type": "mouselab-mdp", "trial_index": 27, "time_elapsed": 902374, "internal_node_id": "0.0-6.0-1.0-18.0"}}, {"uniqueid": "w69419495:a61883750", "current_trial": 28, "dateTime": 1693581315146, "trialdata": {"revealed_states": [], "clicked_states": ["12", "13", "14", "15", "17", "16", "18", "19", "20"], "num_clicks_accrued": [0, 0, 0, 0, 0, 0, 0, 0, 0, 0, 0, 0, 0], "stateRewards": ["", 1, -3, -6, -5, 47, 80, -29, 11, -71, 10, -29, -2, 3, -6, 12, 2, -78, -6, 8, 34, -16, -5, -1, 3, 3, -13, 84, -36, -62, -3, -27, 66, 15], "withholdReward": false, "trial_id": "mdp_trial_20", "block": "test", "trialIndex": 21, "score": 24.25, "costs": -12.750000000000002, "simulationMode": [null, null, null, null, null], "rewards": [-2, 3, -6, 8, 34], "path": ["0", "0", "12", "13", "14", "19", "20"], "rt": [17075, 470, 23, 50, 35], "actions": ["right", "right", "right", "down", "right"], "actionTimes": [18371, 19338, 19858, 20402, 20938], "queries": {"click": {"state": {"target": ["12", "13", "14", "15", "17", "16", "18", "19", "20"], "time": [1982, 2405, 2829, 3327, 3705, 6860, 9989, 13084, 13880]}, "edge": {"target": [], "time": []}}, "mouseover": {"state": {"target": ["0", "12", "13", "14", "15", "17", "16", "18", "14", "19", "20", "21", "19"], "time": [1520, 1820, 2287, 2671, 3154, 3588, 4255, 7324, 10327, 10383, 13696, 14230, 17566]}, "edge": {"target": [], "time": []}}, "mouseout": {"state": {"target": ["1", "0", "12", "13", "14", "15", "17", "16", "18", "14", "19", "20", "21", "19"], "time": [835, 1653, 2221, 2587, 3021, 3521, 3988, 7108, 10243, 10360, 13413, 14131, 17418, 17633]}, "edge": {"target": [], "time": []}}}, "displayed_time": "21.45", "trialTime": 21826, "trial_type": "mouselab-mdp", "trial_index": 28, "time_elapsed": 924382, "internal_node_id": "0.0-6.0-1.0-19.0"}}, {"uniqueid": "w69419495:a61883750", "current_trial": 29, "dateTime": 1693581331241, "trialdata": {"revealed_states": [], "clicked_states": ["23", "24", "25", "26", "27", "28"], "num_clicks_accrued": [0, 0, 0, 0, 0, 0, 0, 0, 0, 0, 0, 0, 0], "stateRewards": ["", 1, -1, -7, -7, -22, 15, -13, 13, 26, -32, 38, -1, 1, -7, -4, 16, -62, 86, 12, -54, 56, 64, -2, -1, 6, 14, -57, 37, 62, -6, -25, 50, -70], "withholdReward": false, "trial_id": "mdp_trial_21", "block": "test", "trialIndex": 22, "score": 47.1, "costs": -6.9, "simulationMode": [null, null, null, null, null], "rewards": [-2, -1, 6, 14, 37], "path": ["0", "0", "23", "24", "25", "26", "28"], "rt": [9766, 25, 92, 69, 454], "actions": ["left", "left", "left", "up", "right"], "actionTimes": [11174, 11693, 12277, 12837, 13789], "queries": {"click": {"state": {"target": ["23", "24", "25", "26", "27", "28"], "time": [2134, 2418, 2875, 3357, 4000, 7220]}, "edge": {"target": [], "time": []}}, "mouseover": {"state": {"target": ["12", "23", "24", "25", "26", "27", "28", "23", "24", "30", "28", "26", "29", "29"], "time": [1608, 1975, 2309, 2776, 3193, 3761, 4344, 5345, 5428, 6012, 7046, 7413, 7480, 7880]}, "edge": {"target": [], "time": []}}, "mouseout": {"state": {"target": ["12", "0", "12", "23", "23", "24", "25", "26", "27", "28", "23", "24", "30", "28", "28", "26", "29", "29", "26", "23"], "time": [1074, 1157, 1725, 2185, 2259, 2609, 3079, 3403, 4229, 4427, 5378, 5812, 6729, 7274, 7396, 7463, 7563, 10549, 14669, 15086]}, "edge": {"target": [], "time": []}}}, "displayed_time": "15.41", "trialTime": 15893, "trial_type": "mouselab-mdp", "trial_index": 29, "time_elapsed": 940478, "internal_node_id": "0.0-6.0-1.0-20.0"}}, {"uniqueid": "w69419495:a61883750", "current_trial": 30, "dateTime": 1693581346793, "trialdata": {"revealed_states": [], "clicked_states": ["1", "2", "3", "4", "5"], "num_clicks_accrued": [0, 0, 0, 0, 0, 0, 0, 0, 0, 0, 0, 0, 0], "stateRewards": ["", -2, -3, 7, -13, 60, 9, 37, -6, 37, 20, 1, 2, -2, -8, 6, -80, -31, -10, -7, 70, -65, -44, -1, 1, 7, 6, -11, 73, -85, 16, -21, 47, 34], "withholdReward": false, "trial_id": "mdp_trial_22", "block": "test", "trialIndex": 23, "score": 44.25, "costs": -4.75, "simulationMode": [null, null, null, null, null], "rewards": [-2, -3, 7, -13, 60], "path": ["0", "0", "1", "2", "3", "4", "5"], "rt": [6963, 45, 55, 48, 26], "actions": ["up", "up", "up", "right", "up"], "actionTimes": [7739, 8274, 8818, 9378, 9906], "queries": {"click": {"state": {"target": ["1", "2", "3", "4", "5"], "time": [1225, 1615, 2147, 2719, 3248]}, "edge": {"target": [], "time": []}}, "mouseover": {"state": {"target": ["0", "1", "2", "3", "4", "5", "6"], "time": [785, 1072, 1456, 1939, 2457, 2940, 3591]}, "edge": {"target": [], "time": []}}, "mouseout": {"state": {"target": ["22", "22", "0", "0", "1", "2", "3", "4", "5", "6"], "time": [121, 388, 471, 872, 1339, 1839, 2389, 2840, 3440, 7210]}, "edge": {"target": [], "time": []}}}, "displayed_time": "14.78", "trialTime": 15346, "trial_type": "mouselab-mdp", "trial_index": 30, "time_elapsed": 956030, "internal_node_id": "0.0-6.0-1.0-21.0"}}, {"uniqueid": "w69419495:a61883750", "current_trial": 31, "dateTime": 1693581362954, "trialdata": {"revealed_states": [], "clicked_states": ["12", "13", "14", "15", "17", "16"], "num_clicks_accrued": [0, 0, 0, 0, 0, 0, 0, 0, 0, 0, 0, 0, 0], "stateRewards": ["", 1, 2, 2, -15, -84, 28, -26, 13, 31, 86, 30, -2, 1, -1, -8, 66, -40, -1, -10, -32, 57, -17, 1, 2, -2, 9, -23, 77, 85, 12, -32, -62, -35], "withholdReward": false, "trial_id": "mdp_trial_23", "block": "test", "trialIndex": 24, "score": 49.1, "costs": -6.9, "simulationMode": [null, null, null, null, null], "rewards": [-2, 1, -1, -8, 66], "path": ["0", "0", "12", "13", "14", "15", "16"], "rt": [9794, 337, 87, 23, 442], "actions": ["right", "right", "right", "up", "up"], "actionTimes": [10947, 11786, 12369, 12889, 13825], "queries": {"click": {"state": {"target": ["12", "13", "14", "15", "17", "16"], "time": [1819, 2150, 2540, 2933, 3439, 6602]}, "edge": {"target": [], "time": []}}, "mouseover": {"state": {"target": ["0", "12", "13", "14", "15", "17", "16", "16", "18"], "time": [1305, 1656, 2040, 2373, 2790, 3140, 3841, 4091, 7077]}, "edge": {"target": [], "time": []}}, "mouseout": {"state": {"target": ["6", "3", "2", "1", "0", "12", "12", "13", "14", "15", "17", "16", "16", "18"], "time": [388, 688, 705, 788, 1405, 1897, 2005, 2307, 2690, 3074, 3641, 3858, 6794, 10080]}, "edge": {"target": [], "time": []}}}, "displayed_time": "15.15", "trialTime": 15978, "trial_type": "mouselab-mdp", "trial_index": 31, "time_elapsed": 972190, "internal_node_id": "0.0-6.0-1.0-22.0"}}, {"uniqueid": "w69419495:a61883750", "current_trial": 32, "dateTime": 1693581380842, "trialdata": {"revealed_states": [], "clicked_states": ["23", "24", "25", "26", "29"], "num_clicks_accrued": [0, 0, 0, 0, 0, 0, 0, 0, 0, 0, 0, 0, 0], "stateRewards": ["", -2, -3, 8, -4, -30, 31, 69, 9, 66, 87, 64, -2, 2, 8, 5, 47, 16, -39, -8, -54, 51, -19, 1, -2, -2, -11, -25, -26, 43, -9, 19, -84, 86], "withholdReward": false, "trial_id": "mdp_trial_24", "block": "test", "trialIndex": 25, "score": 24.25, "costs": -4.75, "simulationMode": [null, null, null, null, null], "rewards": [1, -2, -2, -11, 43], "path": ["0", "0", "23", "24", "25", "26", "29"], "rt": [6532, 126, 54, 14, 17], "actions": ["left", "left", "left", "up", "left"], "actionTimes": [9951, 10574, 11118, 11646, 12166], "queries": {"click": {"state": {"target": ["23", "24", "25", "26", "29"], "time": [4006, 4542, 4891, 5400, 5752]}, "edge": {"target": [], "time": []}}, "mouseover": {"state": {"target": ["0", "23", "24", "25", "26", "29"], "time": [3591, 3874, 4247, 4775, 5309, 5643]}, "edge": {"target": [], "time": []}}, "mouseout": {"state": {"target": ["14", "13", "12", "0", "23", "24", "25", "26", "29", "24", "22", "19"], "time": [1739, 2156, 2957, 3825, 4192, 4709, 5176, 5593, 6010, 6110, 13482, 13499]}, "edge": {"target": [], "time": []}}}, "displayed_time": "17.42", "trialTime": 17703, "trial_type": "mouselab-mdp", "trial_index": 32, "time_elapsed": 990078, "internal_node_id": "0.0-6.0-1.0-23.0"}}, {"uniqueid": "w69419495:a61883750", "current_trial": 33, "dateTime": 1693581397945, "trialdata": {"revealed_states": [], "clicked_states": ["12", "13", "14", "15", "17", "16"], "num_clicks_accrued": [0, 0, 0, 0, 0, 0, 0, 0, 0, 0, 0, 0, 0], "stateRewards": ["", 1, 4, 5, -5, 58, -80, 75, 6, 25, -39, 46, 2, -2, 4, 2, 59, 31, -22, -12, -61, 15, 72, 1, -2, -7, 8, 77, 76, -23, -7, 71, -15, -3], "withholdReward": false, "trial_id": "mdp_trial_25", "block": "test", "trialIndex": 26, "score": 58.1, "costs": -6.9, "simulationMode": [null, null, null, null, null], "rewards": [2, -2, 4, 2, 59], "path": ["0", "0", "12", "13", "14", "15", "16"], "rt": [11605, 459, 53, 6, 9], "actions": ["right", "right", "right", "up", "up"], "actionTimes": [13322, 14281, 14825, 15345, 15865], "queries": {"click": {"state": {"target": ["12", "13", "14", "15", "17", "16"], "time": [2188, 2604, 3030, 3405, 3754, 8953]}, "edge": {"target": [], "time": []}}, "mouseover": {"state": {"target": ["12", "13", "14", "15", "17", "20", "20", "16", "16", "18", "15"], "time": [2095, 2499, 2879, 3379, 3680, 4197, 4497, 4881, 8700, 9367, 12586]}, "edge": {"target": [], "time": []}}, "mouseout": {"state": {"target": ["19", "22", "0", "12", "13", "14", "15", "17", "20", "20", "16", "16", "18"], "time": [1194, 1277, 2012, 2450, 2795, 3246, 3563, 3980, 4247, 4764, 7349, 9167, 12553]}, "edge": {"target": [], "time": []}}}, "displayed_time": "16.37", "trialTime": 16913, "trial_type": "mouselab-mdp", "trial_index": 33, "time_elapsed": 1007182, "internal_node_id": "0.0-6.0-1.0-24.0"}}, {"uniqueid": "w69419495:a61883750", "current_trial": 34, "dateTime": 1693581413897, "trialdata": {"revealed_states": [], "clicked_states": ["1", "2", "3", "4", "5", "6"], "num_clicks_accrued": [0, 0, 0, 0, 0, 0, 0, 0, 0, 0, 0, 0, 0], "stateRewards": ["", -1, 1, 8, -8, -49, 62, -78, 16, 28, -81, 78, -2, -3, -1, -4, 67, 49, -2, -13, -16, -39, 83, 1, -4, 4, -5, -20, 7, 84, 7, -32, -59, 19], "withholdReward": false, "trial_id": "mdp_trial_26", "block": "test", "trialIndex": 27, "score": 55.1, "costs": -6.9, "simulationMode": [null, null, null, null, null], "rewards": [-1, 1, 8, -8, 62], "path": ["0", "0", "1", "2", "3", "4", "6"], "rt": [10022, 436, 59, 23, 4], "actions": ["up", "up", "up", "right", "right"], "actionTimes": [11505, 12440, 13001, 13512, 14031], "queries": {"click": {"state": {"target": ["1", "2", "3", "4", "5", "6"], "time": [1967, 2380, 2875, 3336, 4243, 7586]}, "edge": {"target": [], "time": []}}, "mouseover": {"state": {"target": ["1", "2", "3", "4", "5", "6", "7"], "time": [1795, 2195, 2629, 3180, 3831, 4547, 7867]}, "edge": {"target": [], "time": []}}, "mouseout": {"state": {"target": ["15", "18", "1", "2", "3", "4", "5", "6", "7"], "time": [828, 877, 2112, 2564, 2936, 3530, 4481, 7817, 10902]}, "edge": {"target": [], "time": []}}}, "displayed_time": "15.48", "trialTime": 15752, "trial_type": "mouselab-mdp", "trial_index": 34, "time_elapsed": 1023134, "internal_node_id": "0.0-6.0-1.0-25.0"}}, {"uniqueid": "w69419495:a61883750", "current_trial": 35, "dateTime": 1693581429386, "trialdata": {"revealed_states": [], "clicked_states": ["23", "24", "25", "26", "29"], "num_clicks_accrued": [0, 0, 0, 0, 0, 0, 0, 0, 0, 0, 0, 0, 0], "stateRewards": ["", -1, -4, -1, -5, -28, -23, -15, -15, -38, 59, -87, 2, 2, -5, 9, -55, -39, -71, -6, 85, -85, -11, -1, -2, 5, -10, 1, 25, 41, -4, 69, -35, 86], "withholdReward": false, "trial_id": "mdp_trial_27", "block": "test", "trialIndex": 28, "score": 28.25, "costs": -4.75, "simulationMode": [null, null, null, null, null], "rewards": [-1, -2, 5, -10, 41], "path": ["0", "0", "23", "24", "25", "26", "29"], "rt": [5929, 26, 453, 22, 49], "actions": ["left", "left", "left", "up", "left"], "actionTimes": [6949, 7468, 8412, 8932, 9476], "queries": {"click": {"state": {"target": ["23", "24", "25", "26", "29"], "time": [1340, 1663, 2060, 2495, 3067]}, "edge": {"target": [], "time": []}}, "mouseover": {"state": {"target": ["23", "24", "25", "26", "29", "27"], "time": [1186, 1536, 1970, 2388, 2971, 3588]}, "edge": {"target": [], "time": []}}, "mouseout": {"state": {"target": ["15", "14", "0", "23", "24", "25", "26", "29", "26", "27", "0", "22", "21"], "time": [353, 569, 1119, 1520, 1922, 2304, 2905, 3305, 3488, 10627, 10727, 10761, 10778]}, "edge": {"target": [], "time": []}}}, "displayed_time": "15.02", "trialTime": 15253, "trial_type": "mouselab-mdp", "trial_index": 35, "time_elapsed": 1038622, "internal_node_id": "0.0-6.0-1.0-26.0"}}, {"uniqueid": "w69419495:a61883750", "current_trial": 36, "dateTime": 1693581445154, "trialdata": {"revealed_states": [], "clicked_states": ["1", "2", "3", "4", "5"], "num_clicks_accrued": [0, 0, 0, 0, 0, 0, 0, 0, 0, 0, 0, 0, 0], "stateRewards": ["", -1, -3, -6, 14, 41, 18, 63, -14, 80, 21, 17, -2, -4, -2, -5, 13, 70, 8, -4, -64, -10, -20, 2, -1, 4, -1, -17, -55, 42, -7, 47, 54, 15], "withholdReward": false, "trial_id": "mdp_trial_28", "block": "test", "trialIndex": 29, "score": 40.25, "costs": -4.75, "simulationMode": [null, null, null, null, null], "rewards": [-1, -3, -6, 14, 41], "path": ["0", "0", "1", "2", "3", "4", "5"], "rt": [6011, 19, 29, 7, 27], "actions": ["up", "up", "up", "right", "up"], "actionTimes": [6720, 7231, 7775, 8271, 8807], "queries": {"click": {"state": {"target": ["1", "2", "3", "4", "5"], "time": [1159, 1463, 1864, 2350, 2748]}, "edge": {"target": [], "time": []}}, "mouseover": {"state": {"target": ["1", "2", "3", "4", "5", "6"], "time": [1056, 1373, 1775, 2207, 2625, 3159]}, "edge": {"target": [], "time": []}}, "mouseout": {"state": {"target": ["19", "22", "12", "1", "2", "3", "4", "5"], "time": [72, 255, 472, 1290, 1673, 2124, 2508, 3058]}, "edge": {"target": [], "time": []}}}, "displayed_time": "14.71", "trialTime": 15512, "trial_type": "mouselab-mdp", "trial_index": 36, "time_elapsed": 1054390, "internal_node_id": "0.0-6.0-1.0-27.0"}}, {"uniqueid": "w69419495:a61883750", "current_trial": 37, "dateTime": 1693581463858, "trialdata": {"revealed_states": [], "clicked_states": ["23", "24", "25", "26", "29"], "num_clicks_accrued": [0, 0, 0, 0, 0, 0, 0, 0, 0, 0, 0, 0, 0], "stateRewards": ["", -1, -4, -1, -11, 43, 69, 39, 4, 17, -20, -82, -2, -1, 4, 8, -79, 24, -79, 11, 36, 64, 41, 2, 4, -1, 11, -79, -47, 75, -3, 63, -36, -19], "withholdReward": false, "trial_id": "mdp_trial_29", "block": "test", "trialIndex": 30, "score": 86.25, "costs": -4.75, "simulationMode": [null, null, null, null, null], "rewards": [2, 4, -1, 11, 75], "path": ["0", "0", "23", "24", "25", "26", "29"], "rt": [6193, 19, 503, 31, 40], "actions": ["left", "left", "left", "up", "left"], "actionTimes": [7411, 7930, 8930, 9459, 10019], "queries": {"click": {"state": {"target": ["23", "24", "25", "26", "29"], "time": [1625, 2152, 2464, 2750, 3296]}, "edge": {"target": [], "time": []}}, "mouseover": {"state": {"target": ["0", "23", "24", "25", "26", "29", "27"], "time": [1303, 1487, 1904, 2371, 2704, 3041, 3689]}, "edge": {"target": [], "time": []}}, "mouseout": {"state": {"target": ["6", "18", "0", "23", "24", "25", "26", "29", "27", "10", "3", "2", "12", "22", "21"], "time": [536, 753, 1387, 1870, 2321, 2604, 2988, 3489, 6774, 17417, 17617, 17667, 17700, 17717, 17751]}, "edge": {"target": [], "time": []}}}, "displayed_time": "15.22", "trialTime": 18467, "trial_type": "mouselab-mdp", "trial_index": 37, "time_elapsed": 1073095, "internal_node_id": "0.0-6.0-1.0-28.0"}}, {"uniqueid": "w69419495:a61883750", "current_trial": 38, "dateTime": 1693581493617, "trialdata": {"revealed_states": [], "clicked_states": ["1", "2", "3", "4", "5", "6", "7", "8", "9", "11", "10"], "num_clicks_accrued": [0, 0, 0, 0, 0, 0, 0, 0, 0, 0, 0, 0, 0], "stateRewards": ["", 2, 4, 4, 9, -88, -10, 44, 16, -54, 64, 78, 1, 2, 5, 16, 80, 36, 7, -4, 9, -47, -70, -1, -3, 6, -16, 11, 80, 28, 8, -1, 34, -17], "withholdReward": false, "trial_id": "mdp_trial_30", "block": "test", "trialIndex": 31, "score": 86.95, "costs": -17.05, "simulationMode": [null, null, null, null, null], "rewards": [2, 4, 4, 16, 78], "path": ["0", "0", "1", "2", "3", "8", "11"], "rt": [23807, 464, 441, 59, 84], "actions": ["up", "up", "up", "left", "left"], "actionTimes": [24898, 25865, 26809, 27361, 27937], "queries": {"click": {"state": {"target": ["1", "2", "3", "4", "5", "6", "7", "8", "9", "11", "10"], "time": [1470, 1845, 2307, 2778, 3460, 6847, 10007, 13512, 14198, 17453, 21396]}, "edge": {"target": [], "time": []}}, "mouseover": {"state": {"target": ["1", "2", "3", "4", "5", "6", "6", "7", "2", "8", "9", "11", "10", "1", "12"], "time": [1398, 1714, 2115, 2565, 3266, 3766, 5217, 7202, 10271, 10471, 13941, 14958, 18011, 21681, 21847]}, "edge": {"target": [], "time": []}}, "mouseout": {"state": {"target": ["21", "22", "12", "0", "1", "2", "3", "4", "5", "6", "6", "7", "2", "8", "9", "8", "11", "10", "1"], "time": [7, 280, 580, 1108, 1615, 2031, 2482, 2982, 3599, 3866, 7102, 10238, 10321, 13841, 14491, 14675, 17694, 21631, 21747]}, "edge": {"target": [], "time": []}}}, "displayed_time": "28.44", "trialTime": 29505, "trial_type": "mouselab-mdp", "trial_index": 38, "time_elapsed": 1102854, "internal_node_id": "0.0-6.0-1.0-29.0"}}, {"uniqueid": "w69419495:a61883750", "current_trial": 39, "dateTime": 1693581511089, "trialdata": {"revealed_states": [], "clicked_states": ["23", "24", "25", "26", "27", "28", "29"], "num_clicks_accrued": [0, 0, 0, 0, 0, 0, 0, 0, 0, 0, 0, 0, 0], "stateRewards": ["", -1, 2, -2, 13, -56, -28, 10, 14, 53, -80, -29, 1, -3, -3, -14, 14, 9, -40, -9, 18, 18, 48, 1, 1, 1, -9, 64, -39, -9, 7, -52, -78, 7], "withholdReward": false, "trial_id": "mdp_trial_31", "block": "test", "trialIndex": 32, "score": 48.95, "costs": -9.05, "simulationMode": [null, null, null, null, null], "rewards": [1, 1, 1, -9, 64], "path": ["0", "0", "23", "24", "25", "26", "27"], "rt": [12369, 410, 78, 39, 25], "actions": ["left", "left", "left", "up", "up"], "actionTimes": [13563, 14466, 15034, 15562, 16082], "queries": {"click": {"state": {"target": ["23", "24", "25", "26", "27", "28", "29"], "time": [1806, 2223, 2564, 2944, 4039, 7258, 10362]}, "edge": {"target": [], "time": []}}, "mouseover": {"state": {"target": ["0", "23", "24", "25", "26", "27", "28", "26", "29", "26"], "time": [1378, 1461, 1995, 2445, 2862, 3830, 4530, 7550, 7700, 10652]}, "edge": {"target": [], "time": []}}, "mouseout": {"state": {"target": ["12", "0", "23", "24", "25", "26", "27", "28", "26", "29", "26"], "time": [493, 1394, 1962, 2395, 2762, 3429, 4280, 7500, 7633, 10619, 10669]}, "edge": {"target": [], "time": []}}}, "displayed_time": "16.57", "trialTime": 17250, "trial_type": "mouselab-mdp", "trial_index": 39, "time_elapsed": 1120326, "internal_node_id": "0.0-6.0-1.0-30.0"}}, {"uniqueid": "w69419495:a61883750", "current_trial": 40, "dateTime": 1693581530745, "trialdata": {"revealed_states": [], "clicked_states": ["1", "2", "3", "8", "9", "11", "10"], "num_clicks_accrued": [0, 0, 0, 0, 0, 0, 0, 0, 0, 0, 0, 0, 0], "stateRewards": ["", -2, -3, 4, 1, 33, -53, 15, 9, -12, 61, -6, -2, 4, 6, -11, 47, -43, -7, -11, 46, 23, -28, -1, -1, 3, -10, 11, 76, -76, 10, 18, -38, 87], "withholdReward": false, "trial_id": "mdp_trial_32", "block": "test", "trialIndex": 33, "score": 59.95, "costs": -9.05, "simulationMode": [null, null, null, null, null], "rewards": [-2, -3, 4, 9, 61], "path": ["0", "0", "1", "2", "3", "8", "10"], "rt": [14067, 344, 39, 489, 41], "actions": ["up", "up", "up", "left", "down"], "actionTimes": [15167, 16014, 16542, 17526, 18062], "queries": {"click": {"state": {"target": ["1", "2", "3", "8", "9", "11", "10"], "time": [2459, 3115, 3654, 4209, 4600, 7753, 11025]}, "edge": {"target": [], "time": []}}, "mouseover": {"state": {"target": ["0", "1", "2", "3", "8", "9", "11", "10", "2", "7", "4", "7"], "time": [2091, 2325, 2692, 3509, 3976, 4493, 5645, 8179, 11249, 11315, 11465, 14635]}, "edge": {"target": [], "time": []}}, "mouseout": {"state": {"target": ["23", "0", "0", "1", "2", "3", "8", "9", "8", "11", "10", "2", "7", "4", "7", "1"], "time": [656, 890, 2175, 2575, 3242, 3926, 4326, 4927, 5043, 7997, 11215, 11299, 11349, 14568, 18971, 19355]}, "edge": {"target": [], "time": []}}}, "displayed_time": "18.57", "trialTime": 19438, "trial_type": "mouselab-mdp", "trial_index": 40, "time_elapsed": 1139982, "internal_node_id": "0.0-6.0-1.0-31.0"}}, {"uniqueid": "w69419495:a61883750", "current_trial": 41, "dateTime": 1693581548058, "trialdata": {"revealed_states": [], "clicked_states": ["12", "13", "14", "15", "17", "16", "18"], "num_clicks_accrued": [0, 0, 0, 0, 0, 0, 0, 0, 0, 0, 0, 0, 0], "stateRewards": ["", 1, -1, 4, -2, -75, -75, 84, -9, -60, -79, 59, 2, -4, 8, 9, -17, -82, 80, 14, -4, 49, 49, -1, 3, 6, -11, -33, 34, 55, 9, -57, 5, 59], "withholdReward": false, "trial_id": "mdp_trial_33", "block": "test", "trialIndex": 34, "score": 85.95, "costs": -9.05, "simulationMode": [null, null, null, null, null], "rewards": [2, -4, 8, 9, 80], "path": ["0", "0", "12", "13", "14", "15", "18"], "rt": [12145, 325, 63, 3, 347], "actions": ["right", "right", "right", "up", "left"], "actionTimes": [12980, 13811, 14363, 14870, 15731], "queries": {"click": {"state": {"target": ["12", "13", "14", "15", "17", "16", "18"], "time": [1219, 1545, 1881, 2181, 2730, 5929, 9044]}, "edge": {"target": [], "time": []}}, "mouseover": {"state": {"target": ["12", "13", "14", "15", "17", "16", "18", "20", "19", "20"], "time": [1105, 1405, 1806, 2073, 2523, 3607, 6509, 9462, 9695, 12397]}, "edge": {"target": [], "time": []}}, "mouseout": {"state": {"target": ["1", "12", "22", "12", "13", "14", "15", "17", "17", "16", "18", "20", "19", "20"], "time": [12, 104, 170, 1339, 1756, 2006, 2440, 2940, 3390, 6126, 9262, 9645, 12381, 12414]}, "edge": {"target": [], "time": []}}}, "displayed_time": "16.23", "trialTime": 17100, "trial_type": "mouselab-mdp", "trial_index": 41, "time_elapsed": 1157294, "internal_node_id": "0.0-6.0-1.0-32.0"}}, {"uniqueid": "w69419495:a61883750", "current_trial": 42, "dateTime": 1693581564593, "trialdata": {"revealed_states": [], "clicked_states": ["23", "24", "25", "26", "27", "28", "29"], "num_clicks_accrued": [0, 0, 0, 0, 0, 0, 0, 0, 0, 0, 0, 0, 0], "stateRewards": ["", 1, 2, 8, -2, 23, -69, -18, -16, 54, -21, 71, -1, -4, 7, 11, 43, -6, 88, 6, -55, 72, 43, 1, -3, -2, -1, 68, -31, -54, 4, -8, 25, -2], "withholdReward": false, "trial_id": "mdp_trial_34", "block": "test", "trialIndex": 35, "score": 53.95, "costs": -9.05, "simulationMode": [null, null, null, null, null], "rewards": [1, -3, -2, -1, 68], "path": ["0", "0", "23", "24", "25", "26", "27"], "rt": [11521, 30, 417, 220, 31], "actions": ["left", "left", "left", "up", "up"], "actionTimes": [12576, 13095, 14015, 14735, 15263], "queries": {"click": {"state": {"target": ["23", "24", "25", "26", "27", "28", "29"], "time": [1489, 1948, 2446, 2781, 3204, 6403, 9460]}, "edge": {"target": [], "time": []}}, "mouseover": {"state": {"target": ["23", "24", "25", "26", "27", "28", "26", "29"], "time": [1404, 1704, 2238, 2688, 3073, 3472, 6658, 6842]}, "edge": {"target": [], "time": []}}, "mouseout": {"state": {"target": ["20", "19", "22", "0", "23", "24", "25", "26", "27", "28", "26", "29"], "time": [319, 369, 552, 1171, 1654, 2155, 2621, 2972, 3389, 6626, 6742, 9711]}, "edge": {"target": [], "time": []}}}, "displayed_time": "15.78", "trialTime": 16303, "trial_type": "mouselab-mdp", "trial_index": 42, "time_elapsed": 1173830, "internal_node_id": "0.0-6.0-1.0-33.0"}}, {"uniqueid": "w69419495:a61883750", "current_trial": 43, "dateTime": 1693581581113, "trialdata": {"revealed_states": [], "clicked_states": ["12", "13", "14", "15", "17", "16", "18"], "num_clicks_accrued": [0, 0, 0, 0, 0, 0, 0, 0, 0, 0, 0, 0, 0], "stateRewards": ["", 2, -3, -2, 14, -4, 85, 46, 15, -28, 41, 31, -1, -1, -1, 5, 62, 79, 57, 12, -73, -64, 86, -1, 1, -3, -5, 68, 11, -32, 8, -80, -21, -56], "withholdReward": false, "trial_id": "mdp_trial_35", "block": "test", "trialIndex": 36, "score": 71.95, "costs": -9.05, "simulationMode": [null, null, null, null, null], "rewards": [-1, -1, -1, 5, 79], "path": ["0", "0", "12", "13", "14", "15", "17"], "rt": [11988, 363, 112, 64, 8], "actions": ["right", "right", "right", "up", "right"], "actionTimes": [13036, 13891, 14491, 15043, 15555], "queries": {"click": {"state": {"target": ["12", "13", "14", "15", "17", "16", "18"], "time": [1801, 2242, 2537, 2887, 3253, 6455, 9573]}, "edge": {"target": [], "time": []}}, "mouseover": {"state": {"target": ["12", "13", "14", "15", "17", "16", "15", "18", "13", "13"], "time": [1701, 2102, 2469, 2802, 3127, 4654, 6872, 7339, 10075, 10692]}, "edge": {"target": [], "time": []}}, "mouseout": {"state": {"target": ["24", "18", "14", "12", "0", "12", "13", "14", "15", "17", "17", "16", "15", "18", "13", "13"], "time": [267, 400, 500, 734, 1167, 2035, 2419, 2702, 3100, 3570, 3653, 6805, 6939, 9842, 10343, 10709]}, "edge": {"target": [], "time": []}}}, "displayed_time": "16.06", "trialTime": 16307, "trial_type": "mouselab-mdp", "trial_index": 43, "time_elapsed": 1190350, "internal_node_id": "0.0-6.0-1.0-34.0"}}, {"uniqueid": "w69419495:a61883750", "current_trial": 44, "dateTime": 1693581613392, "trialdata": {"revealed_states": [], "clicked_states": ["12", "13", "14", "15", "17", "16", "18", "19", "20", "1", "2", "3", "4", "5", "6"], "num_clicks_accrued": [0, 0, 0, 0, 0, 0, 0, 0, 0, 0, 0, 0, 0], "stateRewards": ["", 2, -1, 5, 6, 10, 86, 55, 10, -45, 63, -71, 1, -2, 5, -8, -50, -72, 36, 15, 61, 12, 33, -1, -4, 6, 5, 79, -56, -21, -16, -87, 60, -81], "withholdReward": false, "trial_id": "mdp_trial_36", "block": "test", "trialIndex": 37, "score": 78.35, "costs": -19.65, "simulationMode": [null, null, null, null, null], "rewards": [2, -1, 5, 6, 86], "path": ["0", "0", "1", "2", "3", "4", "6"], "rt": [27732, 46, 48, 9, 36], "actions": ["up", "up", "up", "right", "right"], "actionTimes": [28802, 29346, 29897, 30409, 30953], "queries": {"click": {"state": {"target": ["12", "13", "14", "15", "17", "16", "18", "19", "20", "1", "2", "3", "4", "5", "6"], "time": [1435, 1668, 2254, 2511, 2703, 5840, 8965, 12557, 13854, 18043, 18681, 19198, 19687, 20381, 23721]}, "edge": {"target": [], "time": []}}, "mouseover": {"state": {"target": ["12", "13", "14", "14", "15", "17", "16", "18", "19", "20", "21", "19", "13", "1", "2", "3", "4", "5", "6", "7"], "time": [1293, 1577, 1810, 2228, 2444, 2645, 3479, 6197, 9633, 12969, 14286, 17589, 17639, 17906, 18490, 19057, 19524, 20041, 20758, 24645]}, "edge": {"target": [], "time": []}}, "mouseout": {"state": {"target": ["13", "12", "12", "0", "12", "13", "14", "14", "15", "17", "17", "16", "18", "19", "20", "21", "19", "13", "1", "2", "3", "4", "5", "6", "7"], "time": [559, 625, 759, 1176, 1510, 1777, 1860, 2263, 2611, 2961, 3414, 5998, 9133, 12819, 14219, 17572, 17606, 17656, 18356, 18923, 19457, 19958, 20675, 23994, 27797]}, "edge": {"target": [], "time": []}}}, "displayed_time": "31.47", "trialTime": 32065, "trial_type": "mouselab-mdp", "trial_index": 44, "time_elapsed": 1222629, "internal_node_id": "0.0-6.0-1.0-35.0"}}, {"uniqueid": "w69419495:a61883750", "current_trial": 45, "dateTime": 1693581634448, "trialdata": {"revealed_states": [], "clicked_states": ["23", "24", "25", "26", "27", "28", "29", "30", "31"], "num_clicks_accrued": [0, 0, 0, 0, 0, 0, 0, 0, 0, 0, 0, 0, 0], "stateRewards": ["", 2, 3, 6, -12, -29, 12, 87, 4, 35, -30, 67, 2, 3, -5, -9, 44, 69, -8, 1, 45, -8, 28, -2, -1, -8, 11, -12, -5, 81, 9, 87, 82, 88], "withholdReward": false, "trial_id": "mdp_trial_37", "block": "test", "trialIndex": 38, "score": 72.25, "costs": -12.750000000000002, "simulationMode": [null, null, null, null, null], "rewards": [-2, -1, -8, 9, 87], "path": ["0", "0", "23", "24", "25", "30", "31"], "rt": [16920, 23, 58, 107, 43], "actions": ["left", "left", "left", "down", "right"], "actionTimes": [17678, 18197, 18749, 19365, 19901], "queries": {"click": {"state": {"target": ["23", "24", "25", "26", "27", "28", "29", "30", "31"], "time": [1168, 1550, 2167, 2686, 3327, 6456, 9525, 12771, 13334]}, "edge": {"target": [], "time": []}}, "mouseover": {"state": {"target": ["23", "24", "25", "26", "27", "28", "26", "29", "25", "30", "31", "32", "32"], "time": [1059, 1393, 2043, 2560, 3322, 3895, 6698, 6897, 9857, 9916, 13119, 13652, 14353]}, "edge": {"target": [], "time": []}}, "mouseout": {"state": {"target": ["18", "13", "12", "0", "23", "24", "25", "26", "27", "28", "26", "29", "25", "30", "31", "32"], "time": [141, 324, 358, 993, 1326, 1843, 2410, 3111, 3594, 6630, 6781, 9805, 9895, 13069, 13556, 14253]}, "edge": {"target": [], "time": []}}}, "displayed_time": "20.41", "trialTime": 20845, "trial_type": "mouselab-mdp", "trial_index": 45, "time_elapsed": 1243685, "internal_node_id": "0.0-6.0-1.0-36.0"}}, {"uniqueid": "w69419495:a61883750", "current_trial": 46, "dateTime": 1693581659425, "trialdata": {"revealed_states": [], "clicked_states": ["1", "2", "3", "4", "5", "6", "7", "8", "9", "11"], "num_clicks_accrued": [0, 0, 0, 0, 0, 0, 0, 0, 0, 0, 0, 0, 0], "stateRewards": ["", -1, -3, 1, -4, -48, -63, -49, -2, -84, -19, 65, 2, -2, -2, -12, -4, 59, 9, 6, 75, 69, -13, -1, -3, -3, -2, -37, -68, -36, 13, 32, 18, -14], "withholdReward": false, "trial_id": "mdp_trial_38", "block": "test", "trialIndex": 39, "score": 45.099999999999994, "costs": -14.900000000000002, "simulationMode": [null, null, null, null, null], "rewards": [-1, -3, 1, -2, 65], "path": ["0", "0", "1", "2", "3", "8", "11"], "rt": [18982, 351, 1013, 39, 106], "actions": ["up", "up", "up", "left", "left"], "actionTimes": [20174, 21021, 22533, 23061, 23661], "queries": {"click": {"state": {"target": ["1", "2", "3", "4", "5", "6", "7", "8", "9", "11"], "time": [1512, 1776, 2195, 2599, 3098, 6201, 9327, 12457, 12867, 15969]}, "edge": {"target": [], "time": []}}, "mouseover": {"state": {"target": ["1", "2", "3", "4", "5", "6", "7", "8", "9", "11", "10", "11", "10"], "time": [1436, 1719, 2086, 2470, 2837, 3404, 6557, 9709, 12729, 13412, 13867, 14447, 16465]}, "edge": {"target": [], "time": []}}, "mouseout": {"state": {"target": ["32", "12", "0", "1", "2", "3", "4", "5", "6", "7", "8", "9", "11", "10", "11"], "time": [101, 918, 985, 1653, 1936, 2410, 2770, 3321, 6407, 9559, 12628, 13146, 13779, 14363, 16213]}, "edge": {"target": [], "time": []}}}, "displayed_time": "24.16", "trialTime": 24765, "trial_type": "mouselab-mdp", "trial_index": 46, "time_elapsed": 1268662, "internal_node_id": "0.0-6.0-1.0-37.0"}}, {"uniqueid": "w69419495:a61883750", "current_trial": 47, "dateTime": 1693581686801, "trialdata": {"revealed_states": [], "clicked_states": ["23", "24", "25", "26", "29", "27", "28", "30", "31", "32", "33"], "num_clicks_accrued": [0, 0, 0, 0, 0, 0, 0, 0, 0, 0, 0, 0, 0], "stateRewards": ["", 2, -3, -8, 14, -7, -51, 73, 2, 36, 36, -43, -1, 3, -4, 1, 6, 87, -65, 15, 61, -42, -83, -1, 3, -2, -7, 30, -48, 35, 13, 26, 60, 78], "withholdReward": false, "trial_id": "mdp_trial_39", "block": "test", "trialIndex": 40, "score": 73.95, "costs": -17.05, "simulationMode": [null, null, null, null, null], "rewards": [-1, 3, -2, 13, 78], "path": ["0", "0", "23", "24", "25", "30", "33"], "rt": [22622, 75, 16, 75, 68], "actions": ["left", "left", "left", "down", "left"], "actionTimes": [23630, 24213, 24717, 25309, 25869], "queries": {"click": {"state": {"target": ["23", "24", "25", "26", "29", "27", "28", "30", "31", "32", "33"], "time": [1717, 2039, 2324, 2612, 2925, 6389, 9611, 12744, 13227, 16683, 20356]}, "edge": {"target": [], "time": []}}, "mouseover": {"state": {"target": ["23", "24", "25", "26", "29", "27", "28", "30", "30", "31", "32", "32", "33", "30"], "time": [1614, 1931, 2215, 2534, 2833, 3483, 6652, 10171, 10355, 12990, 14258, 14758, 16994, 20597]}, "edge": {"target": [], "time": []}}, "mouseout": {"state": {"target": ["10", "0", "23", "24", "25", "26", "29", "26", "27", "28", "30", "30", "31", "32", "32", "33", "30"], "time": [346, 1397, 1881, 2165, 2467, 2766, 3182, 3300, 6602, 9905, 10205, 12957, 13521, 14375, 16860, 20563, 20646]}, "edge": {"target": [], "time": []}}}, "displayed_time": "26.37", "trialTime": 27165, "trial_type": "mouselab-mdp", "trial_index": 47, "time_elapsed": 1296038, "internal_node_id": "0.0-6.0-1.0-38.0"}}, {"uniqueid": "w69419495:a61883750", "current_trial": 48, "dateTime": 1693581712361, "trialdata": {"revealed_states": [], "clicked_states": ["1", "2", "3", "4", "5", "6", "7", "8", "9", "11"], "num_clicks_accrued": [0, 0, 0, 0, 0, 0, 0, 0, 0, 0, 0, 0, 0], "stateRewards": ["", -2, 2, -5, 1, 42, -63, -58, -6, 2, 16, 81, -2, 4, 7, -10, 33, 3, -33, -2, -52, -84, -27, 2, -3, -3, 15, -74, -14, -5, -5, -84, 79, -31], "withholdReward": false, "trial_id": "mdp_trial_40", "block": "test", "trialIndex": 41, "score": 55.099999999999994, "costs": -14.900000000000002, "simulationMode": [null, null, null, null, null], "rewards": [-2, 2, -5, -6, 81], "path": ["0", "0", "1", "2", "3", "8", "11"], "rt": [19740, 377, 53, 327, 141], "actions": ["up", "up", "up", "left", "left"], "actionTimes": [21336, 22213, 22757, 23597, 24229], "queries": {"click": {"state": {"target": ["1", "2", "3", "4", "5", "6", "7", "8", "9", "11"], "time": [2144, 2413, 2846, 3237, 3812, 6954, 10076, 13164, 14027, 17127]}, "edge": {"target": [], "time": []}}, "mouseover": {"state": {"target": ["1", "2", "3", "4", "5", "5", "6", "7", "8", "8", "9", "11", "10"], "time": [1963, 2353, 2754, 3103, 3439, 3637, 4154, 7341, 10460, 10910, 13545, 14463, 17498]}, "edge": {"target": [], "time": []}}, "mouseout": {"state": {"target": ["0", "1", "2", "3", "4", "5", "5", "6", "7", "8", "8", "9", "11", "11", "10"], "time": [1752, 2253, 2653, 3036, 3370, 3474, 4021, 7190, 10310, 10610, 13378, 14329, 17205, 17398, 20534]}, "edge": {"target": [], "time": []}}}, "displayed_time": "24.72", "trialTime": 25341, "trial_type": "mouselab-mdp", "trial_index": 48, "time_elapsed": 1321598, "internal_node_id": "0.0-6.0-1.0-39.0"}}, {"uniqueid": "w69419495:a61883750", "current_trial": 49, "dateTime": 1693581809805, "trialdata": {"rt": 97441, "response": {"Q0": "$-2 to $2", "Q1": "$-16 to $16", "Q2": "$-88 to $88", "Q3": "The cost for clicking on nodes varied between nodes.", "Q4": "Slightly motivated"}, "question_order": [0, 1, 2, 3, 4], "trial_id": "final_quiz_control", "trial_type": "survey-multi-choice", "trial_index": 49, "time_elapsed": 1419042, "internal_node_id": "0.0-6.0-2.0"}}, {"uniqueid": "w69419495:a61883750", "current_trial": 50, "dateTime": 1693582708176, "trialdata": {"rt": 898365, "response": {"Q0": "I was assuming the game was \"fair\", in that the values of the nodes are determined at round start, and not while the \"inspector process\" is going on. If that is not true, and the values are defined in relation to user behavior, then I would have acted differently, if I had been made aware of this. Since I assumed it was \"fair\" I used experiental data (observed range of values by me & cost of node clicking) to calculate my behavior. In the beginning, it seemed to me the revelation cost was quite steep in relation to potential outcome, so I tried to minimize revelations and took first route that seemed proportionally efficient (good enough method). ", "Q1": "During the game I considered, if I were in your shoes designing this, to actually make an unfair game (although I am thinking you might scientifically be in a bit of a bad spot here, if that's the case. i would assume participants have a sort of rightful expectation to not be tricked by the design. i am aware that this is not the case at all, but psychologically, I did end up making this assumption. the reason why i am saying this might put you in a bad spot scientifically, is the following: isn't it a confounding variable if people either suspect or don't suspect that the web maybe really isn't \"fair\" and more of a \"on-the-go\" calculation, based on prior user choices. personally, i may have considered to inquire about prior experience with processes such as this, to perhaps gauge the likelihood people might realize this or not. or, alternatively, you could ask this question after the survey \"do you think the values were determined at the start of the round, or do you think the values were actually not set and only decided once you revealed a node?\" \"would you have behaved differently, had you known the board is not determined, but adaptive?\"). Then I realized, if this is an \"unfair\" game, then you might actually watch me for exploratory behavior after a \"good enough\" route is discovered, a sort of measure of if a person thinks there might be a hidden super-node, if they just keep clicking. In any case, based on thoughts such as this, I decided to enlarge my seeking algorithm a bit, to check if the values are actually not predetermined at the beginning (fair). I had the impression that you are actually rewarding doing a bit of a risk, and thereby doing an unfair game as I defined it, thus I explored a bit further and then took the maximized path, since I had a hunch this behavior might maximize my return. However, I never opened all nodes.", "Q2": "I didn't really see it as a game where I can enhance my performance, it seemed pretty clear from the tutorial. i just needed to learn the variables (ranges, behavior of the program) and try to best-path my performance. but yes, to answer the question, i guess i \"improved my performance\" by just learning a bit and trying to optimize, based on what I suspected you are doing in the background, based on my experience / thoughts if I would design the system."}, "trial_id": "self_report_control", "trial_type": "survey-text", "trial_index": 50, "time_elapsed": 2317413, "internal_node_id": "0.0-6.0-3.0"}}, {"uniqueid": "w69419495:a61883750", "current_trial": 51, "dateTime": 1693582807642, "trialdata": {"rt": 99462, "response": {"Q0": "Strongly agree", "Q1": "Strongly disagree", "Q2": "Strongly agree", "Q3": "Neither disagree nor agree", "Q4": "Strongly agree", "Q5": "Neither disagree nor agree", "Q6": "Disagree"}, "question_order": [0, 1, 2, 3, 4, 5, 6], "trial_id": "self_report_2", "trial_type": "survey-multi-choice", "trial_index": 51, "time_elapsed": 2416879, "internal_node_id": "0.0-6.0-4.0"}}, {"uniqueid": "w69419495:a61883750", "current_trial": 52, "dateTime": 1693582871113, "trialdata": {"rt": 63467, "response": {"gender": "male", "age": "37", "colorblind": "0", "effort": "0"}, "trial_type": "survey-html-form", "trial_index": 52, "time_elapsed": 2480350, "internal_node_id": "0.0-6.0-5.0"}}, {"uniqueid": "w69419495:a61883750", "current_trial": 53, "dateTime": 1693583080276, "trialdata": {"rt": 209159, "response": {"Q0": "No.", "Q1": "No, of course not (I have never played this \"game\" before) and since I am very exact and truthful in this context, I feel that you are asking this question a lot, and I would ask you to please accept my answer and not reask this so often. But I also understand why you are doing it, so it is okay. I just have to be patient. for science. ;)", "Q2": "quite cool, i'd like to read the study when you're done. at the moment, i'm especially interested if you precalculate all the values at round start, or if they are determined on the fly through the exploration behavior of the user. i'm guessing it's the latter. also, you make me miss science and study design, it's a nice project and well done."}, "trial_type": "survey-text", "trial_index": 53, "time_elapsed": 2689513, "internal_node_id": "0.0-6.0-6.0"}}, {"uniqueid": "w69419495:a61883750", "current_trial": 54, "dateTime": 1693583131121, "trialdata": {"rt": 50842, "stimulus": "<h1>Completion Code Instructions (1/2)</h1>\n<br><br><br><br>\nYou have reached the end of the experiment! The completion code consists of two parts: (1) a code with 2 characters (2) a code with 6 characters. On this page, you will receive the second part of the code. The first part of the completion code will be on the next page.\n<br><br>\nThe second part of your completion code is: <b>EWEK22</b>\n<br><br>\nPlease note this down. Then, press 'Next' in order to find the first part of your completion code. Once the data has been saved, you will receive this code either in this window or in the original browser window where you started the experiment.\n <br><br>\n<h2 style='color: red;'>Note: this is <strong>NOT</strong> the full completion code. Copy this down and click 'Next' to get the full completion code on the next page.</h2>", "response": 0, "trial_type": "html-button-response", "trial_index": 54, "time_elapsed": 2740358, "internal_node_id": "0.0-6.0-7.0"}}, {"uniqueid": "w69419495:a61883750", "current_trial": 55, "dateTime": 1693583132123, "trialdata": {"success": true, "trial_type": "fullscreen", "trial_index": 55, "time_elapsed": 2741360, "internal_node_id": "0.0-7.0"}}], "questiondata": {"params": {"CODE": "C6DMOQA6", "MIN_TIME": 14, "inspectCost": 1, "startTime": "Fri Sep 01 2023 16:59:50 GMT+0200 (Central European Summer Time)", "bonusRate": 0.002, "variance": "1_2_4_8_44", "branching": "31123"}, "final_score": 1938.1}, "eventdata": [{"eventtype": "initialized", "value": null, "timestamp": 1693580389646, "interval": 0}, {"eventtype": "window_resize", "value": [1026, 770], "timestamp": 1693580389646, "interval": 0}, {"eventtype": "window_resize", "value": [1026, 770], "timestamp": 1693580389967, "interval": 321}, {"eventtype": "focus", "value": "off", "timestamp": 1693580399524, "interval": 9557}, {"eventtype": "focus", "value": "on", "timestamp": 1693580402432, "interval": 2908}, {"eventtype": "focus", "value": "off", "timestamp": 1693580403347, "interval": 915}, {"eventtype": "focus", "value": "on", "timestamp": 1693580404780, "interval": 1433}, {"eventtype": "window_resize", "value": [2393, 1347], "timestamp": 1693580405099, "interval": 319}, {"eventtype": "focus", "value": "off", "timestamp": 1693581270198, "interval": 865099}, {"eventtype": "focus", "value": "on", "timestamp": 1693581288072, "interval": 17874}, {"eventtype": "focus", "value": "off", "timestamp": 1693582697220, "interval": 1409148}, {"eventtype": "focus", "value": "on", "timestamp": 1693582701198, "interval": 3978}, {"eventtype": "focus", "value": "off", "timestamp": 1693582702477, "interval": 1279}, {"eventtype": "focus", "value": "on", "timestamp": 1693582703782, "interval": 1305}, {"eventtype": "focus", "value": "off", "timestamp": 1693582705220, "interval": 1438}, {"eventtype": "focus", "value": "on", "timestamp": 1693582707356, "interval": 2136}, {"eventtype": "focus", "value": "off", "timestamp": 1693582826843, "interval": 119487}, {"eventtype": "focus", "value": "on", "timestamp": 1693582828404, "interval": 1561}, {"eventtype": "focus", "value": "off", "timestamp": 1693583092412, "interval": 264008}, {"eventtype": "focus", "value": "on", "timestamp": 1693583122381, "interval": 29969}, {"eventtype": "window_resize", "value": [1026, 770], "timestamp": 1693583131366, "interval": 8985}], "useragent": "Mozilla/5.0 (Windows NT 10.0; Win64; x64) AppleWebKit/537.36 (KHTML, like Gecko) Chrome/116.0.0.0 Safari/537.36 Edg/116.0.1938.62", "mode": "live", "id": "w69419495:a61883750", "status": "user data saved", "Beginhit": "2023-09-01 14:59:49.928425", "Beginexp": "2023-09-01 15:00:07.256998", "Endhit": "2023-09-01 15:45:34.034849", "psiturkStatus": 3, "browser": "<redacted>", "platform": "windows", "language": "en-US"}