{"condition": 0, "counterbalance": 0, "assignmentId": "a57328894", "workerId": "w65555241", "hitId": "h86476719", "currenttrial": 61, "bonus": 0, "data": [{"uniqueid": "w65555241:a57328894", "current_trial": 0, "dateTime": 1693564905722, "trialdata": {"success": true, "trial_type": "fullscreen", "trial_index": 0, "time_elapsed": 47500, "internal_node_id": "0.0-0.0"}}, {"uniqueid": "w65555241:a57328894", "current_trial": 1, "dateTime": 1693564920365, "trialdata": {"view_history": [{"page_index": 0, "viewing_time": 14640}], "rt": 14640, "trial_id": "exp_instructions_control", "trial_type": "instructions", "trial_index": 1, "time_elapsed": 62143, "internal_node_id": "0.0-1.0"}}, {"uniqueid": "w65555241:a57328894", "current_trial": 2, "dateTime": 1693565179133, "trialdata": {"view_history": [{"page_index": 0, "viewing_time": 66497}, {"page_index": 1, "viewing_time": 64480}, {"page_index": 2, "viewing_time": 70220}, {"page_index": 3, "viewing_time": 57570}], "rt": 258767, "trial_id": "mouselab_instructions_1_control", "trial_type": "instructions", "trial_index": 2, "time_elapsed": 320911, "internal_node_id": "0.0-2.0-1.0"}}, {"uniqueid": "w65555241:a57328894", "current_trial": 3, "dateTime": 1693565210672, "trialdata": {"revealed_states": [], "clicked_states": ["26", "24", "33", "32", "30", "14"], "num_clicks_accrued": [0, 0, 0, 0, 0, 0, 0, 0, 0, 0, 0, 0, 0], "stateRewards": ["", 10, -10, 10, -10, -10, 10, 10, -10, -10, 10, -10, -10, -10, -10, 10, 10, 10, 10, -10, 10, -10, 10, -10, 10, 10, -10, 10, -10, -10, 10, -10, -10, -10], "withholdReward": false, "trial_id": "practice_1", "block": "test", "trialIndex": 0, "score": -9.5, "costs": -3, "simulationMode": [null, null, null, null, null], "rewards": [-10, 10, 10, -10, -10], "path": ["0", "0", "23", "24", "25", "26", "29"], "rt": [17599, 390, 327, 871, 257], "actions": ["left", "left", "left", "up", "left"], "actionTimes": [23916, 24793, 25614, 26975, 27729], "queries": {"click": {"state": {"target": ["26", "24", "33", "32", "30", "14"], "time": [8652, 12958, 16424, 19084, 20621, 22220]}, "edge": {"target": [], "time": []}}, "mouseover": {"state": {"target": ["23", "24", "25", "26", "26", "25", "24", "25", "29", "27", "25", "30", "33", "30", "32", "31", "30", "31", "19", "20", "14", "14", "0", "23"], "time": [6636, 6703, 6803, 7170, 7354, 9272, 12024, 14093, 14260, 14727, 15644, 16061, 16145, 16929, 17446, 19514, 19981, 21049, 21399, 21432, 21616, 22049, 22700, 22733]}, "edge": {"target": [], "time": []}}, "mouseout": {"state": {"target": ["0", "1", "23", "0", "23", "24", "24", "25", "26", "24", "23", "23", "24", "25", "26", "26", "25", "24", "25", "29", "27", "25", "30", "33", "30", "32", "31", "30", "31", "19", "20", "14", "14", "0", "23"], "time": [null, 81, 231, 531, 681, 2950, 3300, 3384, 4101, 4151, 4768, 6670, 6753, 6870, 7204, 9122, 11674, 14060, 14110, 14643, 15227, 15978, 16111, 16812, 17346, 19331, 19915, 20982, 21266, 21416, 21549, 21749, 22516, 22717, 30040]}, "edge": {"target": [], "time": []}}}, "displayed_time": "28.22", "trialTime": 30812, "trial_type": "mouselab-mdp", "trial_index": 3, "time_elapsed": 352450, "internal_node_id": "0.0-2.0-2.0-0.0"}}, {"uniqueid": "w65555241:a57328894", "current_trial": 4, "dateTime": 1693565231345, "trialdata": {"revealed_states": [], "clicked_states": ["2", "9"], "num_clicks_accrued": [0, 0, 0, 0, 0, 0, 0, 0, 0, 0, 0, 0, 0], "stateRewards": ["", 10, -10, -10, 10, -10, -10, -10, 10, -10, -10, -10, 10, -10, 10, -10, -10, 10, -10, 10, -10, -10, -10, 10, 10, 10, 10, -10, 10, -10, -10, 10, 10, 10], "withholdReward": false, "trial_id": "practice_2", "block": "test", "trialIndex": 1, "score": -7.5, "costs": -1, "simulationMode": [null, null, null, null, null], "rewards": [10, -10, -10, 10, -10], "path": ["0", "0", "1", "2", "3", "8", "10"], "rt": [8017, 183, 252, 651, 84], "actions": ["up", "up", "up", "left", "down"], "actionTimes": [11456, 12130, 12885, 14033, 14617], "queries": {"click": {"state": {"target": ["2", "9"], "time": [6782, 8621]}, "edge": {"target": [], "time": []}}, "mouseover": {"state": {"target": ["1", "2", "1", "3", "8", "9", "8", "3", "3", "8", "8", "8", "3", "4"], "time": [6291, 6408, 7492, 7960, 8243, 8443, 8910, 8960, 9160, 9227, 9394, 10111, 10878, 10928]}, "edge": {"target": [], "time": []}}, "mouseout": {"state": {"target": ["21", "12", "0", "1", "2", "1", "3", "8", "9", "9", "8", "3", "3", "8", "8", "8", "3", "4", "12"], "time": [2905, 2971, 5891, 6358, 7409, 7809, 8176, 8359, 8702, 8893, 8927, 9044, 9210, 9260, 9911, 10862, 10912, 10945, 18985]}, "edge": {"target": [], "time": []}}}, "displayed_time": "15.12", "trialTime": 20565, "trial_type": "mouselab-mdp", "trial_index": 4, "time_elapsed": 373123, "internal_node_id": "0.0-2.0-2.0-1.0"}}, {"uniqueid": "w65555241:a57328894", "current_trial": 5, "dateTime": 1693565271610, "trialdata": {"view_history": [{"page_index": 0, "viewing_time": 29580}, {"page_index": 1, "viewing_time": 10683}], "rt": 40263, "trial_id": "mouselab_instructions_2_control", "trial_type": "instructions", "trial_index": 5, "time_elapsed": 413388, "internal_node_id": "0.0-2.0-3.0"}}, {"uniqueid": "w65555241:a57328894", "current_trial": 6, "dateTime": 1693565300904, "trialdata": {"rt": 29291, "response": {"Q0": "The cost for clicking on nodes may vary between nodes.", "Q1": "The better I perform the higher my bonus will be.", "Q2": "No, the amount of cash at each node of the web may be different each time.", "Q3": "To get the highest total score.", "Q4": "Only before moving the spider.", "Q5": "10 seconds"}, "question_order": [0, 1, 2, 3, 4, 5], "correct": {"Q0": "The cost for clicking on nodes may vary between nodes.", "Q1": "The better I perform the higher my bonus will be.", "Q2": "No, the amount of cash at each node of the web may be different each time.", "Q3": "To get the highest total score.", "Q4": "Only before moving the spider.", "Q5": "3 seconds"}, "trial_id": "mouselab_quiz_control", "trial_type": "survey-multi-choice", "trial_index": 6, "time_elapsed": 442682, "internal_node_id": "0.0-2.0-4.0"}}, {"uniqueid": "w65555241:a57328894", "current_trial": 7, "dateTime": 1693565306343, "trialdata": {"success": true, "trial_type": "fullscreen", "trial_index": 7, "time_elapsed": 448121, "internal_node_id": "0.0-2.1-0.1-0.1"}}, {"uniqueid": "w65555241:a57328894", "current_trial": 8, "dateTime": 1693565342976, "trialdata": {"view_history": [{"page_index": 0, "viewing_time": 15863}, {"page_index": 1, "viewing_time": 17747}, {"page_index": 2, "viewing_time": 1543}, {"page_index": 3, "viewing_time": 1479}], "rt": 36632, "trial_id": "mouselab_instructions_1_control", "trial_type": "instructions", "trial_index": 8, "time_elapsed": 484754, "internal_node_id": "0.0-2.1-1.1"}}, {"uniqueid": "w65555241:a57328894", "current_trial": 9, "dateTime": 1693565351131, "trialdata": {"revealed_states": [], "clicked_states": [], "num_clicks_accrued": [0, 0, 0, 0, 0, 0, 0, 0, 0, 0, 0, 0, 0], "stateRewards": ["", 10, -10, 10, -10, -10, 10, 10, -10, -10, 10, -10, -10, -10, -10, 10, 10, 10, 10, -10, 10, -10, 10, -10, 10, 10, -10, 10, -10, -10, 10, -10, -10, -10], "withholdReward": false, "trial_id": "practice_1", "block": "test", "trialIndex": 2, "score": -6.5, "costs": 0, "simulationMode": [null, null, null, null, null], "rewards": [-10, 10, 10, -10, -10], "path": ["0", "0", "23", "24", "25", "26", "29"], "rt": [663, 6, 176, 622, 33], "actions": ["left", "left", "left", "up", "left"], "actionTimes": [3367, 3862, 4548, 5662, 6190], "queries": {"click": {"state": {"target": [], "time": []}, "edge": {"target": [], "time": []}}, "mouseover": {"state": {"target": [], "time": []}, "edge": {"target": [], "time": []}}, "mouseout": {"state": {"target": ["12", "0", "23", "31"], "time": [2336, 7174, 7190, 7207]}, "edge": {"target": [], "time": []}}}, "displayed_time": "6.71", "trialTime": 8037, "trial_type": "mouselab-mdp", "trial_index": 9, "time_elapsed": 492909, "internal_node_id": "0.0-2.1-2.1-0.1"}}, {"uniqueid": "w65555241:a57328894", "current_trial": 10, "dateTime": 1693565362639, "trialdata": {"revealed_states": [], "clicked_states": [], "num_clicks_accrued": [0, 0, 0, 0, 0, 0, 0, 0, 0, 0, 0, 0, 0], "stateRewards": ["", 10, -10, -10, 10, -10, -10, -10, 10, -10, -10, -10, 10, -10, 10, -10, -10, 10, -10, 10, -10, -10, -10, 10, 10, 10, 10, -10, 10, -10, -10, 10, 10, 10], "withholdReward": false, "trial_id": "practice_2", "block": "test", "trialIndex": 3, "score": -6.5, "costs": 0, "simulationMode": [null, null, null, null, null], "rewards": [10, -10, -10, 10, -10], "path": ["0", "0", "1", "2", "3", "4", "7"], "rt": [373, 94, 84, 850, 512], "actions": ["up", "up", "up", "right", "down"], "actionTimes": [5623, 6207, 6781, 8131, 9144], "queries": {"click": {"state": {"target": [], "time": []}, "edge": {"target": [], "time": []}}, "mouseover": {"state": {"target": [], "time": []}, "edge": {"target": [], "time": []}}, "mouseout": {"state": {"target": ["31", "25", "26", "28", "23"], "time": [907, 957, 2925, 2959, 3192]}, "edge": {"target": [], "time": []}}}, "displayed_time": "9.63", "trialTime": 11394, "trial_type": "mouselab-mdp", "trial_index": 10, "time_elapsed": 504416, "internal_node_id": "0.0-2.1-2.1-1.1"}}, {"uniqueid": "w65555241:a57328894", "current_trial": 11, "dateTime": 1693565368823, "trialdata": {"view_history": [{"page_index": 0, "viewing_time": 4627}, {"page_index": 1, "viewing_time": 1555}], "rt": 6183, "trial_id": "mouselab_instructions_2_control", "trial_type": "instructions", "trial_index": 11, "time_elapsed": 510601, "internal_node_id": "0.0-2.1-3.1"}}, {"uniqueid": "w65555241:a57328894", "current_trial": 12, "dateTime": 1693565384392, "trialdata": {"rt": 15567, "response": {"Q0": "The cost for clicking on nodes may vary between nodes.", "Q1": "The better I perform the higher my bonus will be.", "Q2": "No, the amount of cash at each node of the web may be different each time.", "Q3": "To get the highest total score.", "Q4": "Only before moving the spider.", "Q5": "3 seconds"}, "question_order": [0, 1, 2, 3, 4, 5], "correct": {"Q0": "The cost for clicking on nodes may vary between nodes.", "Q1": "The better I perform the higher my bonus will be.", "Q2": "No, the amount of cash at each node of the web may be different each time.", "Q3": "To get the highest total score.", "Q4": "Only before moving the spider.", "Q5": "3 seconds"}, "trial_id": "mouselab_quiz_control", "trial_type": "survey-multi-choice", "trial_index": 12, "time_elapsed": 526170, "internal_node_id": "0.0-2.1-4.1"}}, {"uniqueid": "w65555241:a57328894", "current_trial": 13, "dateTime": 1693565389062, "trialdata": {"rt": 4666, "response": {"Q0": "No"}, "question_order": [0], "trial_id": "repeat_check", "trial_type": "survey-multi-choice", "trial_index": 13, "time_elapsed": 530840, "internal_node_id": "0.0-4.0-0.0"}}, {"uniqueid": "w65555241:a57328894", "current_trial": 14, "dateTime": 1693565405726, "trialdata": {"rt": 16661, "stimulus": "\n<h1> Get ready to start the game! </h1>\n\nThank you for reading the instructions. Get ready start with the 40 rounds of this game.\n<br><br>\nIf you need to take a break, feel free to take one after the end of a round, before continuing to the next one.\n<br><br>\nRemember, the more money the spider gets, the bigger your bonus will be!\n<br><br>\n<div style='text-align: center;'>Press <code>space</code> to begin.</div>\n\n<br><br>\n(If, at any point, the <code>space</code> key does not take you to the next page, click once on the text and try again.)", "response": " ", "trial_id": "mdp_ready", "trial_type": "html-keyboard-response", "trial_index": 14, "time_elapsed": 547504, "internal_node_id": "0.0-6.0-0.0"}}, {"uniqueid": "w65555241:a57328894", "current_trial": 15, "dateTime": 1693565428474, "trialdata": {"revealed_states": [], "clicked_states": ["29"], "num_clicks_accrued": [0, 0, 0, 0, 0, 0, 0, 0, 0, 0, 0, 0, 0], "stateRewards": ["", 2, -1, 1, 10, -52, 86, -22, -2, -14, -63, 38, 1, 3, 7, -8, 11, -32, -27, 9, -71, 40, -87, -2, -1, 5, -7, 12, 31, -57, 13, 86, -58, 29], "withholdReward": false, "trial_id": "mdp_trial_1", "block": "test", "trialIndex": 4, "score": 42.6, "costs": -1.4, "simulationMode": [null, null, null, null, null], "rewards": [-2, -1, 5, 13, 29], "path": ["0", "0", "23", "24", "25", "30", "33"], "rt": [6908, 72, 67, 614, 165], "actions": ["left", "left", "left", "down", "left"], "actionTimes": [13253, 13816, 14379, 15493, 16145], "queries": {"click": {"state": {"target": ["29"], "time": [7094]}, "edge": {"target": [], "time": []}}, "mouseover": {"state": {"target": ["23", "29", "25", "30", "32"], "time": [6487, 6704, 12226, 12359, 12442]}, "edge": {"target": [], "time": []}}, "mouseout": {"state": {"target": ["9", "8", "28", "26", "29", "26", "23", "0", "23", "29", "25", "30", "32", "33", "32"], "time": [1833, 1867, 2117, 3084, 5686, 5753, 6004, 6454, 6504, 7405, 12309, 12409, 18964, 20382, 20416]}, "edge": {"target": [], "time": []}}}, "displayed_time": "20.35", "trialTime": 22625, "trial_type": "mouselab-mdp", "trial_index": 15, "time_elapsed": 570252, "internal_node_id": "0.0-6.0-1.0-0.0"}}, {"uniqueid": "w65555241:a57328894", "current_trial": 16, "dateTime": 1693565453293, "trialdata": {"revealed_states": [], "clicked_states": ["27"], "num_clicks_accrued": [0, 0, 0, 0, 0, 0, 0, 0, 0, 0, 0, 0, 0], "stateRewards": ["", -1, 3, -5, -2, -13, -9, -34, -7, -81, 32, 35, -2, -2, 1, -14, -32, 81, 7, 4, 82, 56, -8, -1, 3, -8, 6, -24, -24, -53, 2, 38, 61, 54], "withholdReward": false, "trial_id": "mdp_trial_2", "block": "test", "trialIndex": 5, "score": 48.6, "costs": -1.4, "simulationMode": [null, null, null, null, null], "rewards": [-1, 3, -8, 2, 54], "path": ["0", "0", "23", "24", "25", "30", "33"], "rt": [3599, 168, 715, 116, 804], "actions": ["left", "left", "left", "down", "left"], "actionTimes": [11248, 11911, 13126, 13744, 15050], "queries": {"click": {"state": {"target": ["27"], "time": [8185]}, "edge": {"target": [], "time": []}}, "mouseover": {"state": {"target": ["28", "27"], "time": [7756, 7839]}, "edge": {"target": [], "time": []}}, "mouseout": {"state": {"target": ["30", "33", "29", "26", "27", "28", "27", "28", "27"], "time": [2501, 4703, 5187, 5337, 6137, 6488, 7155, 7789, 8406]}, "edge": {"target": [], "time": []}}}, "displayed_time": "22.30", "trialTime": 24692, "trial_type": "mouselab-mdp", "trial_index": 16, "time_elapsed": 595070, "internal_node_id": "0.0-6.0-1.0-1.0"}}, {"uniqueid": "w65555241:a57328894", "current_trial": 17, "dateTime": 1693565474170, "trialdata": {"revealed_states": [], "clicked_states": ["5", "10"], "num_clicks_accrued": [0, 0, 0, 0, 0, 0, 0, 0, 0, 0, 0, 0, 0], "stateRewards": ["", 1, -4, -6, 11, -20, 8, -30, 1, -38, 88, 42, 2, 3, 5, -12, -8, -74, 30, -8, 67, -19, 42, 2, -1, 4, 13, 50, -68, 2, -8, -15, 87, -46], "withholdReward": false, "trial_id": "mdp_trial_3", "block": "test", "trialIndex": 6, "score": 77.2, "costs": -2.8, "simulationMode": [null, null, null, null, null], "rewards": [1, -4, -6, 1, 88], "path": ["0", "0", "1", "2", "3", "8", "10"], "rt": [9549, 95, 175, 48, 27], "actions": ["up", "up", "up", "left", "down"], "actionTimes": [12574, 13158, 13822, 14362, 14891], "queries": {"click": {"state": {"target": ["5", "10"], "time": [3999, 10522]}, "edge": {"target": [], "time": []}}, "mouseover": {"state": {"target": ["1", "4", "5", "4", "2", "8", "11", "10", "2", "7"], "time": [3320, 3404, 3554, 4204, 4955, 7140, 7774, 10393, 10777, 10927]}, "edge": {"target": [], "time": []}}, "mouseout": {"state": {"target": ["0", "1", "4", "5", "4", "2", "8", "11", "10", "2", "7", "2"], "time": [3270, 3337, 3487, 4171, 4405, 6890, 7590, 10159, 10626, 10810, 19500, 19534]}, "edge": {"target": [], "time": []}}}, "displayed_time": "17.49", "trialTime": 20750, "trial_type": "mouselab-mdp", "trial_index": 17, "time_elapsed": 615948, "internal_node_id": "0.0-6.0-1.0-2.0"}}, {"uniqueid": "w65555241:a57328894", "current_trial": 18, "dateTime": 1693565493331, "trialdata": {"revealed_states": [], "clicked_states": ["17", "20"], "num_clicks_accrued": [0, 0, 0, 0, 0, 0, 0, 0, 0, 0, 0, 0, 0], "stateRewards": ["", 1, -3, -6, -5, 47, 80, -29, 11, -71, 10, -29, -2, 3, -6, 12, 2, -78, -6, 8, 34, -16, -5, -1, 3, 3, -13, 84, -36, -62, -3, -27, 66, 15], "withholdReward": false, "trial_id": "mdp_trial_4", "block": "test", "trialIndex": 7, "score": -4.8, "costs": -2.8, "simulationMode": [null, null, null, null, null], "rewards": [-2, 3, -6, 8, -5], "path": ["0", "0", "12", "13", "14", "19", "22"], "rt": [11358, 559, 194, 162, 1031], "actions": ["right", "right", "right", "down", "left"], "actionTimes": [13070, 14130, 14816, 15468, 16987], "queries": {"click": {"state": {"target": ["17", "20"], "time": [5101, 9526]}, "edge": {"target": [], "time": []}}, "mouseover": {"state": {"target": ["12", "13", "14", "17", "16", "17", "21", "22", "19", "20"], "time": [1893, 1993, 2043, 2443, 2544, 4529, 7381, 7898, 8599, 8649]}, "edge": {"target": [], "time": []}}, "mouseout": {"state": {"target": ["22", "13", "12", "0", "12", "13", "14", "17", "16", "17", "21", "22", "19", "20"], "time": [558, 1142, 1159, 1843, 1976, 2026, 2060, 2460, 4028, 5379, 7464, 8582, 8616, 9766]}, "edge": {"target": [], "time": []}}}, "displayed_time": "17.47", "trialTime": 19034, "trial_type": "mouselab-mdp", "trial_index": 18, "time_elapsed": 635109, "internal_node_id": "0.0-6.0-1.0-3.0"}}, {"uniqueid": "w65555241:a57328894", "current_trial": 19, "dateTime": 1693565511666, "trialdata": {"revealed_states": [], "clicked_states": ["33", "29"], "num_clicks_accrued": [0, 0, 0, 0, 0, 0, 0, 0, 0, 0, 0, 0, 0], "stateRewards": ["", 1, -4, -4, 8, 1, -79, 68, -10, -79, 8, -74, -1, -3, -6, 14, 43, 23, 9, 5, -51, 63, 61, -2, 4, 6, -10, 69, -32, 57, 15, -80, -80, -77], "withholdReward": false, "trial_id": "mdp_trial_5", "block": "test", "trialIndex": 8, "score": 52.2, "costs": -2.8, "simulationMode": [null, null, null, null, null], "rewards": [-2, 4, 6, -10, 57], "path": ["0", "0", "23", "24", "25", "26", "29"], "rt": [8380, 658, 193, 185, 1111], "actions": ["left", "left", "left", "up", "left"], "actionTimes": [11623, 12774, 13460, 14135, 15745], "queries": {"click": {"state": {"target": ["33", "29"], "time": [4264, 9307]}, "edge": {"target": [], "time": []}}, "mouseover": {"state": {"target": ["23", "28", "26", "29", "33", "30", "0", "31", "23", "23", "31", "24", "26", "29", "27", "29", "28"], "time": [3424, 3508, 3541, 3791, 3941, 4475, 5943, 6477, 7328, 7495, 7544, 7594, 7644, 7961, 8395, 9196, 9713]}, "edge": {"target": [], "time": []}}, "mouseout": {"state": {"target": ["31", "30", "29", "26", "28", "23", "23", "28", "26", "29", "33", "30", "0", "31", "23", "23", "31", "24", "26", "29", "27", "29", "28"], "time": [1589, 1989, 2606, 2640, 2673, 2923, 3458, 3524, 3558, 3875, 4459, 4492, 5960, 7311, 7344, 7511, 7578, 7611, 7911, 8312, 9112, 9398, 9730]}, "edge": {"target": [], "time": []}}}, "displayed_time": "17.25", "trialTime": 18216, "trial_type": "mouselab-mdp", "trial_index": 19, "time_elapsed": 653443, "internal_node_id": "0.0-6.0-1.0-4.0"}}, {"uniqueid": "w65555241:a57328894", "current_trial": 20, "dateTime": 1693565534324, "trialdata": {"revealed_states": [], "clicked_states": ["28"], "num_clicks_accrued": [0, 0, 0, 0, 0, 0, 0, 0, 0, 0, 0, 0, 0], "stateRewards": ["", -2, 2, 2, -6, 9, 37, 50, -13, -7, -18, -75, -2, -4, 4, 7, 23, -57, -66, -7, -81, -48, -76, 1, 1, -8, 1, 51, -2, 70, 14, 59, 71, -37], "withholdReward": false, "trial_id": "mdp_trial_6", "block": "test", "trialIndex": 9, "score": -30.4, "costs": -1.4, "simulationMode": [null, null, null, null, null], "rewards": [1, 1, -8, 14, -37], "path": ["0", "0", "23", "24", "25", "30", "33"], "rt": [6530, 125, 139, 112, 333], "actions": ["left", "left", "left", "down", "left"], "actionTimes": [12757, 13375, 14005, 14613, 15434], "queries": {"click": {"state": {"target": ["28"], "time": [6601]}, "edge": {"target": [], "time": []}}, "mouseover": {"state": {"target": ["28", "23", "31", "30", "33", "29", "33", "33", "30", "31"], "time": [6309, 6826, 9628, 9812, 9929, 10680, 10780, 11230, 11931, 11964]}, "edge": {"target": [], "time": []}}, "mouseout": {"state": {"target": ["24", "26", "26", "27", "28", "12", "28", "28", "28", "23", "31", "30", "33", "29", "33", "33", "30", "31"], "time": [2172, 2506, 2772, 4190, 4891, 5274, 5808, 6662, 6793, 6843, 9729, 9895, 10229, 10696, 10796, 11914, 11947, 11997]}, "edge": {"target": [], "time": []}}}, "displayed_time": "21.13", "trialTime": 22541, "trial_type": "mouselab-mdp", "trial_index": 20, "time_elapsed": 676102, "internal_node_id": "0.0-6.0-1.0-5.0"}}, {"uniqueid": "w65555241:a57328894", "current_trial": 21, "dateTime": 1693565555961, "trialdata": {"revealed_states": [], "clicked_states": ["29", "28", "27"], "num_clicks_accrued": [0, 0, 0, 0, 0, 0, 0, 0, 0, 0, 0, 0, 0], "stateRewards": ["", -2, -3, 1, -14, 48, -49, 67, -1, -35, -48, 3, -2, 1, -4, -5, 86, -84, 39, 1, 48, 41, -42, -1, -4, 2, -7, 18, -86, 17, 7, -9, 57, -69], "withholdReward": false, "trial_id": "mdp_trial_7", "block": "test", "trialIndex": 10, "score": 3.8000000000000007, "costs": -4.199999999999999, "simulationMode": [null, null, null, null, null], "rewards": [-1, -4, 2, -7, 18], "path": ["0", "0", "23", "24", "25", "26", "27"], "rt": [10946, 107, 215, 49, 726], "actions": ["left", "left", "left", "up", "up"], "actionTimes": [15974, 16581, 17289, 17841, 19067], "queries": {"click": {"state": {"target": ["29", "28", "27"], "time": [7305, 10870, 13762]}, "edge": {"target": [], "time": []}}, "mouseover": {"state": {"target": ["23", "24", "28", "26", "29", "25", "31", "31", "30", "31", "31", "24", "28", "28", "24", "31", "31", "24", "27"], "time": [5147, 5414, 5464, 6981, 7198, 7465, 7515, 7748, 7815, 8332, 8582, 9918, 10350, 10517, 11084, 11118, 13020, 13069, 13503]}, "edge": {"target": [], "time": []}}, "mouseout": {"state": {"target": ["24", "10", "24", "31", "23", "0", "23", "24", "28", "26", "29", "25", "31", "31", "30", "31", "31", "24", "28", "28", "24", "31", "31", "24", "27"], "time": [1093, 3812, 4029, 4446, 4546, 4830, 5197, 5447, 6964, 7098, 7332, 7482, 7532, 7782, 8249, 8466, 9917, 9934, 10418, 11068, 11101, 11135, 13053, 13086, 13921]}, "edge": {"target": [], "time": []}}}, "displayed_time": "19.56", "trialTime": 21498, "trial_type": "mouselab-mdp", "trial_index": 21, "time_elapsed": 697739, "internal_node_id": "0.0-6.0-1.0-6.0"}}, {"uniqueid": "w65555241:a57328894", "current_trial": 22, "dateTime": 1693565577234, "trialdata": {"revealed_states": [], "clicked_states": ["9", "7", "11", "22"], "num_clicks_accrued": [0, 0, 0, 0, 0, 0, 0, 0, 0, 0, 0, 0, 0], "stateRewards": ["", -1, 3, 8, 9, -53, 20, -84, 2, -28, -62, -31, -1, -2, -7, 2, 51, 58, 45, -4, -17, -41, 36, 2, -2, -7, -15, 29, -54, -37, -16, -43, 65, -17], "withholdReward": false, "trial_id": "mdp_trial_8", "block": "test", "trialIndex": 11, "score": 16.4, "costs": -5.6, "simulationMode": [null, null, null, null, null], "rewards": [-1, -2, -7, -4, 36], "path": ["0", "0", "12", "13", "14", "19", "22"], "rt": [14067, 84, 174, 25, 49], "actions": ["right", "right", "right", "down", "left"], "actionTimes": [16957, 17542, 18217, 18734, 19275], "queries": {"click": {"state": {"target": ["9", "7", "11", "22"], "time": [4889, 7803, 11418, 14318]}, "edge": {"target": [], "time": []}}, "mouseover": {"state": {"target": ["7", "4", "5", "9", "8", "2", "7", "7", "18", "18", "2", "10", "11", "12", "19", "22", "21"], "time": [3111, 3129, 3262, 4112, 5096, 5630, 5864, 7565, 8116, 8866, 10968, 11018, 11285, 13770, 14188, 14237, 14521]}, "edge": {"target": [], "time": []}}, "mouseout": {"state": {"target": ["0", "7", "4", "5", "9", "8", "2", "7", "7", "18", "18", "2", "10", "11", "12", "19", "22", "21"], "time": [3045, 3128, 3161, 3996, 5080, 5113, 5780, 5880, 8015, 8199, 9200, 11001, 11035, 11652, 13787, 14204, 14488, 14554]}, "edge": {"target": [], "time": []}}}, "displayed_time": "19.78", "trialTime": 21153, "trial_type": "mouselab-mdp", "trial_index": 22, "time_elapsed": 719011, "internal_node_id": "0.0-6.0-1.0-7.0"}}, {"uniqueid": "w65555241:a57328894", "current_trial": 23, "dateTime": 1693565596512, "trialdata": {"revealed_states": [], "clicked_states": ["18", "16"], "num_clicks_accrued": [0, 0, 0, 0, 0, 0, 0, 0, 0, 0, 0, 0, 0], "stateRewards": ["", 2, 4, 4, 9, -88, -10, 44, 16, -54, 64, 78, 1, 2, 5, 16, 80, 36, 7, -4, 9, -47, -70, -1, -3, 6, -16, 11, 80, 28, 8, -1, 34, -17], "withholdReward": false, "trial_id": "mdp_trial_9", "block": "test", "trialIndex": 12, "score": 101.2, "costs": -2.8, "simulationMode": [null, null, null, null, null], "rewards": [1, 2, 5, 16, 80], "path": ["0", "0", "12", "13", "14", "15", "16"], "rt": [7237, 44, 35, 463, 447], "actions": ["right", "right", "right", "up", "up"], "actionTimes": [9701, 10240, 10781, 11759, 12694], "queries": {"click": {"state": {"target": ["18", "16"], "time": [3056, 6803]}, "edge": {"target": [], "time": []}}, "mouseover": {"state": {"target": ["18", "13", "21", "19", "22", "0", "16", "17", "17", "16", "17"], "time": [2708, 3255, 3723, 4323, 4356, 5157, 5624, 5724, 5824, 6658, 7109]}, "edge": {"target": [], "time": []}}, "mouseout": {"state": {"target": ["21", "12", "15", "16", "18", "18", "13", "21", "19", "22", "0", "18", "16", "17", "17", "16", "17", "20"], "time": [703, 1153, 1220, 1720, 2004, 3239, 3272, 3756, 4339, 4390, 5174, 5207, 5657, 5741, 6608, 7059, 17467, 17517]}, "edge": {"target": [], "time": []}}}, "displayed_time": "16.55", "trialTime": 19157, "trial_type": "mouselab-mdp", "trial_index": 23, "time_elapsed": 738290, "internal_node_id": "0.0-6.0-1.0-8.0"}}, {"uniqueid": "w65555241:a57328894", "current_trial": 24, "dateTime": 1693565625383, "trialdata": {"revealed_states": [], "clicked_states": ["16", "21", "31", "29", "27", "33", "32"], "num_clicks_accrued": [0, 0, 0, 0, 0, 0, 0, 0, 0, 0, 0, 0, 0], "stateRewards": ["", 2, -1, -2, -5, -47, -57, -33, -11, 31, -18, -72, -2, 1, -4, -8, -46, -53, -50, 15, -85, -9, 39, -2, -2, 1, 14, -1, -8, 53, -12, -41, -74, 62], "withholdReward": false, "trial_id": "mdp_trial_10", "block": "test", "trialIndex": 13, "score": 37.2, "costs": -9.8, "simulationMode": [null, null, null, null, null], "rewards": [-2, -2, 1, -12, 62], "path": ["0", "0", "23", "24", "25", "30", "33"], "rt": [19804, 8, 43, 26, 444], "actions": ["left", "left", "left", "down", "left"], "actionTimes": [23992, 24487, 25039, 25557, 26491], "queries": {"click": {"state": {"target": ["16", "21", "31", "29", "27", "33", "32"], "time": [4962, 6966, 10763, 13085, 16198, 18838, 21878]}, "edge": {"target": [], "time": []}}, "mouseover": {"state": {"target": ["16", "18", "13", "14", "21", "20", "19", "14", "18", "13", "22", "0", "23", "30", "31", "32", "33", "33", "29", "25", "24", "2", "7", "3", "9", "27", "28", "28", "25", "33", "32"], "time": [4727, 5245, 5762, 5812, 6496, 7714, 9365, 9449, 9582, 9966, 9999, 10199, 10250, 10433, 10700, 11233, 11517, 12668, 12751, 13285, 13402, 13535, 13569, 13869, 14169, 15637, 16471, 16838, 18490, 18523, 21809]}, "edge": {"target": [], "time": []}}, "mouseout": {"state": {"target": ["0", "26", "28", "16", "15", "22", "13", "13", "0", "16", "18", "13", "14", "21", "20", "19", "14", "18", "13", "22", "0", "23", "30", "31", "32", "33", "33", "29", "25", "24", "2", "7", "3", "9", "27", "28", "28", "25", "33", "33", "32"], "time": [773, 1291, 1307, 2141, 2158, 2892, 2942, 3626, 4277, 5179, 5545, 5779, 5829, 7130, 9332, 9415, 9465, 9949, 9982, 10132, 10249, 10266, 10666, 10983, 11267, 12184, 12685, 13235, 13319, 13435, 13552, 13636, 13886, 15404, 16388, 16588, 18456, 18506, 18874, 19040, 22059]}, "edge": {"target": [], "time": []}}}, "displayed_time": "26.98", "trialTime": 28749, "trial_type": "mouselab-mdp", "trial_index": 24, "time_elapsed": 767161, "internal_node_id": "0.0-6.0-1.0-9.0"}}, {"uniqueid": "w65555241:a57328894", "current_trial": 25, "dateTime": 1693565644790, "trialdata": {"revealed_states": [], "clicked_states": ["11", "10", "9"], "num_clicks_accrued": [0, 0, 0, 0, 0, 0, 0, 0, 0, 0, 0, 0, 0], "stateRewards": ["", 2, 3, 6, -5, -74, -53, 17, -12, 46, 44, 18, -2, 4, 1, -8, 22, -23, -49, 9, -45, 55, 81, 1, -1, -7, -16, -83, -71, -45, 2, 51, 82, 61], "withholdReward": false, "trial_id": "mdp_trial_11", "block": "test", "trialIndex": 14, "score": 40.8, "costs": -4.199999999999999, "simulationMode": [null, null, null, null, null], "rewards": [2, 3, 6, -12, 46], "path": ["0", "0", "1", "2", "3", "8", "9"], "rt": [11231, 485, 142, 14, 3], "actions": ["up", "up", "up", "left", "up"], "actionTimes": [14246, 15225, 15866, 16372, 16878], "queries": {"click": {"state": {"target": ["11", "10", "9"], "time": [4212, 7876, 11089]}, "edge": {"target": [], "time": []}}, "mouseover": {"state": {"target": ["1", "9", "11", "10", "4", "7", "7", "3", "8", "10", "2", "3", "9", "5", "5", "5"], "time": [3096, 3379, 3980, 4514, 5998, 6165, 6615, 7016, 7049, 7216, 8200, 8233, 9851, 11503, 11770, 13538]}, "edge": {"target": [], "time": []}}, "mouseout": {"state": {"target": ["10", "8", "11", "1", "0", "1", "2", "1", "1", "9", "11", "10", "4", "7", "7", "3", "8", "10", "10", "2", "3", "9", "5", "5"], "time": [643, 1544, 1978, 2111, 2244, 2328, 2511, 2712, 3112, 3913, 4447, 5948, 6115, 6415, 6982, 7032, 7149, 7932, 8083, 8217, 8267, 11120, 11636, 11786]}, "edge": {"target": [], "time": []}}}, "displayed_time": "17.39", "trialTime": 19284, "trial_type": "mouselab-mdp", "trial_index": 25, "time_elapsed": 786568, "internal_node_id": "0.0-6.0-1.0-10.0"}}, {"uniqueid": "w65555241:a57328894", "current_trial": 26, "dateTime": 1693565662285, "trialdata": {"revealed_states": [], "clicked_states": ["28", "29", "27", "33"], "num_clicks_accrued": [0, 0, 0, 0, 0, 0, 0, 0, 0, 0, 0, 0, 0], "stateRewards": ["", 1, -1, -7, -7, -22, 15, -13, 13, 26, -32, 38, -1, 1, -7, -4, 16, -62, 86, 12, -54, 56, 64, -2, -1, 6, 14, -57, 37, 62, -6, -25, 50, -70], "withholdReward": false, "trial_id": "mdp_trial_12", "block": "test", "trialIndex": 15, "score": 73.4, "costs": -5.6, "simulationMode": [null, null, null, null, null], "rewards": [-2, -1, 6, 14, 62], "path": ["0", "0", "23", "24", "25", "26", "29"], "rt": [11625, 381, 555, 55, 2], "actions": ["left", "left", "left", "up", "left"], "actionTimes": [12990, 13856, 14914, 15465, 15961], "queries": {"click": {"state": {"target": ["28", "29", "27", "33"], "time": [2920, 5549, 7859, 10401]}, "edge": {"target": [], "time": []}}, "mouseover": {"state": {"target": ["18", "0", "23", "28", "23", "0", "12", "15", "18", "26", "29", "26", "27", "28", "24", "33", "30", "0", "0"], "time": [1714, 2214, 2547, 2731, 3331, 3382, 3415, 3533, 3832, 5233, 5466, 5884, 6401, 8152, 10054, 10187, 10638, 10704, 12389]}, "edge": {"target": [], "time": []}}, "mouseout": {"state": {"target": ["5", "4", "1", "18", "0", "23", "28", "23", "0", "12", "15", "18", "28", "26", "29", "26", "27", "28", "24", "33", "33", "30", "0"], "time": [779, 812, 1013, 2081, 2298, 2581, 3298, 3348, 3398, 3448, 3815, 5017, 5083, 5367, 5867, 5900, 8102, 8169, 10104, 10405, 10621, 10654, 10738]}, "edge": {"target": [], "time": []}}}, "displayed_time": "16.48", "trialTime": 17365, "trial_type": "mouselab-mdp", "trial_index": 26, "time_elapsed": 804063, "internal_node_id": "0.0-6.0-1.0-11.0"}}, {"uniqueid": "w65555241:a57328894", "current_trial": 27, "dateTime": 1693565681478, "trialdata": {"revealed_states": [], "clicked_states": ["22", "17", "18", "16"], "num_clicks_accrued": [0, 0, 0, 0, 0, 0, 0, 0, 0, 0, 0, 0, 0], "stateRewards": ["", -1, -3, 1, -4, -48, -63, -49, -2, -84, -19, 65, 2, -2, -2, -12, -4, 59, 9, 6, 75, 69, -13, -1, -3, -3, -2, -37, -68, -36, 13, 32, 18, -14], "withholdReward": false, "trial_id": "mdp_trial_13", "block": "test", "trialIndex": 16, "score": 39.4, "costs": -5.6, "simulationMode": [null, null, null, null, null], "rewards": [2, -2, -2, -12, 59], "path": ["0", "0", "12", "13", "14", "15", "17"], "rt": [11748, 158, 93, 589, 2], "actions": ["right", "right", "right", "up", "right"], "actionTimes": [14491, 15143, 15728, 16807, 17305], "queries": {"click": {"state": {"target": ["22", "17", "18", "16"], "time": [3406, 6784, 10288, 12501]}, "edge": {"target": [], "time": []}}, "mouseover": {"state": {"target": ["0", "22", "22", "14", "15", "18", "15", "17", "21", "19", "14", "15", "16", "16", "18", "15", "16", "17"], "time": [2939, 3023, 3223, 3724, 3773, 4424, 6492, 6526, 7293, 7410, 8501, 8661, 9044, 9345, 9862, 10579, 10763, 12814]}, "edge": {"target": [], "time": []}}, "mouseout": {"state": {"target": ["0", "0", "0", "22", "22", "14", "15", "18", "15", "17", "17", "21", "19", "14", "15", "16", "16", "18", "15", "16", "17", "31"], "time": [1054, 2288, 2956, 3040, 3573, 3740, 4240, 6476, 6509, 6851, 6909, 7343, 8177, 8627, 8995, 9095, 9528, 10313, 10663, 12764, 12848, 18736]}, "edge": {"target": [], "time": []}}}, "displayed_time": "17.82", "trialTime": 19069, "trial_type": "mouselab-mdp", "trial_index": 27, "time_elapsed": 823256, "internal_node_id": "0.0-6.0-1.0-12.0"}}, {"uniqueid": "w65555241:a57328894", "current_trial": 28, "dateTime": 1693565700267, "trialdata": {"revealed_states": [], "clicked_states": ["20", "21"], "num_clicks_accrued": [0, 0, 0, 0, 0, 0, 0, 0, 0, 0, 0, 0, 0], "stateRewards": ["", -2, -3, 4, 1, 33, -53, 15, 9, -12, 61, -6, -2, 4, 6, -11, 47, -43, -7, -11, 46, 23, -28, -1, -1, 3, -10, 11, 76, -76, 10, 18, -38, 87], "withholdReward": false, "trial_id": "mdp_trial_14", "block": "test", "trialIndex": 17, "score": 40.2, "costs": -2.8, "simulationMode": [null, null, null, null, null], "rewards": [-2, 4, 6, -11, 46], "path": ["0", "0", "12", "13", "14", "19", "20"], "rt": [6635, 466, 62, 51, 564], "actions": ["right", "right", "right", "down", "right"], "actionTimes": [10627, 11585, 12148, 12688, 13768], "queries": {"click": {"state": {"target": ["20", "21"], "time": [4428, 8443]}, "edge": {"target": [], "time": []}}, "mouseover": {"state": {"target": ["12", "13", "20", "20", "2", "3", "21", "21", "22", "21", "19", "13"], "time": [4028, 4046, 4095, 4378, 5146, 5346, 6930, 7548, 7748, 8265, 8715, 8982]}, "edge": {"target": [], "time": []}}, "mouseout": {"state": {"target": ["30", "31", "22", "19", "19", "20", "13", "12", "0", "12", "13", "20", "20", "2", "3", "21", "21", "22", "21", "19", "13"], "time": [442, 475, 792, 1597, 1676, 3478, 3544, 3794, 3911, 4045, 4061, 4179, 4462, 5196, 6764, 7298, 7698, 8148, 8682, 8732, 9083]}, "edge": {"target": [], "time": []}}}, "displayed_time": "18.00", "trialTime": 18663, "trial_type": "mouselab-mdp", "trial_index": 28, "time_elapsed": 842044, "internal_node_id": "0.0-6.0-1.0-13.0"}}, {"uniqueid": "w65555241:a57328894", "current_trial": 29, "dateTime": 1693565717261, "trialdata": {"revealed_states": [], "clicked_states": ["28", "27"], "num_clicks_accrued": [0, 0, 0, 0, 0, 0, 0, 0, 0, 0, 0, 0, 0], "stateRewards": ["", -2, 2, 5, -14, -56, 64, 84, -5, 52, 39, 85, -2, 1, 7, 8, 21, 29, -78, -9, -10, -69, 10, -2, -1, -7, 15, 72, 20, 41, -2, 52, 80, 22], "withholdReward": false, "trial_id": "mdp_trial_15", "block": "test", "trialIndex": 18, "score": 74.2, "costs": -2.8, "simulationMode": [null, null, null, null, null], "rewards": [-2, -1, -7, 15, 72], "path": ["0", "0", "23", "24", "25", "26", "27"], "rt": [9668, 2, 116, 4, 590], "actions": ["left", "left", "left", "up", "up"], "actionTimes": [11370, 11868, 12498, 13003, 14106], "queries": {"click": {"state": {"target": ["28", "27"], "time": [2122, 6457]}, "edge": {"target": [], "time": []}}, "mouseover": {"state": {"target": ["28", "24", "26", "29", "29", "27", "29", "25", "24"], "time": [1855, 4224, 4307, 4491, 4858, 6142, 7276, 9278, 9311]}, "edge": {"target": [], "time": []}}, "mouseout": {"state": {"target": ["12", "0", "28", "24", "26", "29", "29", "27", "29", "25", "24"], "time": [1021, 1772, 2339, 4240, 4357, 4741, 6075, 7160, 9245, 9295, 9328]}, "edge": {"target": [], "time": []}}}, "displayed_time": "15.71", "trialTime": 16870, "trial_type": "mouselab-mdp", "trial_index": 29, "time_elapsed": 859038, "internal_node_id": "0.0-6.0-1.0-14.0"}}, {"uniqueid": "w65555241:a57328894", "current_trial": 30, "dateTime": 1693565737628, "trialdata": {"revealed_states": [], "clicked_states": ["33", "9", "28"], "num_clicks_accrued": [0, 0, 0, 0, 0, 0, 0, 0, 0, 0, 0, 0, 0], "stateRewards": ["", -2, 1, -8, 12, -65, -79, 16, 7, -80, -17, -45, -2, 2, -5, -2, -85, 23, -4, -7, 48, 27, -76, 2, 3, 5, 2, 43, 71, -13, 7, -49, 59, -31], "withholdReward": false, "trial_id": "mdp_trial_16", "block": "test", "trialIndex": 19, "score": 78.8, "costs": -4.199999999999999, "simulationMode": [null, null, null, null, null], "rewards": [2, 3, 5, 2, 71], "path": ["0", "0", "23", "24", "25", "26", "28"], "rt": [11111, 3, 71, 552, 18], "actions": ["left", "left", "left", "up", "right"], "actionTimes": [15251, 15745, 16330, 17377, 17894], "queries": {"click": {"state": {"target": ["33", "9", "28"], "time": [4660, 8492, 11207]}, "edge": {"target": [], "time": []}}, "mouseover": {"state": {"target": ["23", "24", "33", "30", "31", "24", "28", "8", "9", "8", "24", "31", "23", "10", "26", "28", "25", "29", "26"], "time": [4280, 4313, 4380, 4898, 6899, 7466, 7649, 8100, 8334, 8684, 8767, 8801, 9534, 10085, 10835, 11086, 11486, 13371, 14372]}, "edge": {"target": [], "time": []}}, "mouseout": {"state": {"target": ["31", "31", "30", "33", "0", "23", "24", "33", "30", "31", "24", "28", "8", "9", "9", "8", "24", "31", "23", "10", "26", "28", "25", "29", "26", "28", "23"], "time": [1460, 2061, 2161, 2795, 4263, 4297, 4330, 4752, 4914, 7449, 7483, 8034, 8317, 8534, 8667, 8701, 8784, 8951, 9568, 10752, 11019, 11453, 11520, 13421, 14389, 14639, 19543]}, "edge": {"target": [], "time": []}}}, "displayed_time": "18.39", "trialTime": 20245, "trial_type": "mouselab-mdp", "trial_index": 30, "time_elapsed": 879406, "internal_node_id": "0.0-6.0-1.0-15.0"}}, {"uniqueid": "w65555241:a57328894", "current_trial": 31, "dateTime": 1693565772571, "trialdata": {"revealed_states": [], "clicked_states": ["18", "20", "22", "21", "33", "9", "28", "29", "27"], "num_clicks_accrued": [0, 0, 0, 0, 0, 0, 0, 0, 0, 0, 0, 0, 0], "stateRewards": ["", 2, -2, 7, -11, -76, -65, -23, 16, -58, 30, 81, 1, 2, 7, 14, 9, 55, -2, 6, 11, -15, 31, -1, -1, -3, 2, 15, 2, 46, 15, 18, 45, -34], "withholdReward": false, "trial_id": "mdp_trial_17", "block": "test", "trialIndex": 20, "score": 30.4, "costs": -12.600000000000001, "simulationMode": [null, null, null, null, null], "rewards": [-1, -1, -3, 2, 46], "path": ["0", "0", "23", "24", "25", "26", "29"], "rt": [27061, 477, 27, 10, 472], "actions": ["left", "left", "left", "up", "left"], "actionTimes": [30568, 31546, 32063, 32580, 33559], "queries": {"click": {"state": {"target": ["18", "20", "22", "21", "33", "9", "28", "29", "27"], "time": [3931, 7737, 10342, 13116, 16387, 19616, 22041, 24400, 28415]}, "edge": {"target": [], "time": []}}, "mouseover": {"state": {"target": ["18", "13", "17", "17", "20", "20", "22", "21", "31", "30", "33", "30", "31", "31", "24", "28", "8", "9", "8", "10", "28", "10", "29", "27", "23", "23", "27"], "time": [3711, 4295, 4428, 4912, 7281, 7564, 10166, 12902, 15605, 15738, 16222, 16772, 16922, 17456, 18657, 19007, 19224, 19508, 19941, 20275, 21743, 22861, 24095, 24745, 27297, 27815, 27981]}, "edge": {"target": [], "time": []}}, "mouseout": {"state": {"target": ["12", "0", "0", "18", "13", "17", "17", "20", "20", "22", "21", "31", "30", "33", "30", "31", "31", "24", "28", "8", "9", "8", "10", "28", "10", "29", "27", "23", "23", "27"], "time": [1092, 1960, 3344, 4245, 4378, 4445, 7248, 7314, 7881, 10517, 13303, 15704, 15771, 16464, 16822, 17122, 18640, 18707, 19174, 19324, 19925, 19958, 21676, 22477, 23444, 24474, 27164, 27314, 27831, 28495]}, "edge": {"target": [], "time": []}}}, "displayed_time": "34.05", "trialTime": 34819, "trial_type": "mouselab-mdp", "trial_index": 31, "time_elapsed": 914348, "internal_node_id": "0.0-6.0-1.0-16.0"}}, {"uniqueid": "w65555241:a57328894", "current_trial": 32, "dateTime": 1693565790775, "trialdata": {"revealed_states": [], "clicked_states": ["31"], "num_clicks_accrued": [0, 0, 0, 0, 0, 0, 0, 0, 0, 0, 0, 0, 0], "stateRewards": ["", -2, 2, -4, -4, -59, 88, 62, -3, 69, -15, -34, 1, -2, -5, 7, -54, -20, 78, -16, -74, -53, -21, 2, -4, 2, 13, -8, -44, 26, 9, 72, 4, 17], "withholdReward": false, "trial_id": "mdp_trial_18", "block": "test", "trialIndex": 21, "score": 79.6, "costs": -1.4, "simulationMode": [null, null, null, null, null], "rewards": [2, -4, 2, 9, 72], "path": ["0", "0", "23", "24", "25", "30", "31"], "rt": [4720, 442, 70, 2, 381], "actions": ["left", "left", "left", "down", "right"], "actionTimes": [7112, 8045, 8607, 9107, 10002], "queries": {"click": {"state": {"target": ["31"], "time": [2998]}, "edge": {"target": [], "time": []}}, "mouseover": {"state": {"target": ["23", "31"], "time": [2481, 2614]}, "edge": {"target": [], "time": []}}, "mouseout": {"state": {"target": ["23", "0", "23", "31", "31"], "time": [1346, 2464, 2514, 3069, 3198]}, "edge": {"target": [], "time": []}}}, "displayed_time": "17.22", "trialTime": 18081, "trial_type": "mouselab-mdp", "trial_index": 32, "time_elapsed": 932552, "internal_node_id": "0.0-6.0-1.0-17.0"}}, {"uniqueid": "w65555241:a57328894", "current_trial": 33, "dateTime": 1693565808184, "trialdata": {"revealed_states": [], "clicked_states": ["29", "33"], "num_clicks_accrued": [0, 0, 0, 0, 0, 0, 0, 0, 0, 0, 0, 0, 0], "stateRewards": ["", -2, -3, 8, -4, -30, 31, 69, 9, 66, 87, 64, -2, 2, 8, 5, 47, 16, -39, -8, -54, 51, -19, 1, -2, -2, -11, -25, -26, 43, -9, 19, -84, 86], "withholdReward": false, "trial_id": "mdp_trial_19", "block": "test", "trialIndex": 22, "score": 71.2, "costs": -2.8, "simulationMode": [null, null, null, null, null], "rewards": [1, -2, -2, -9, 86], "path": ["0", "0", "23", "24", "25", "30", "33"], "rt": [7777, 65, 60, 601, 771], "actions": ["left", "left", "left", "down", "left"], "actionTimes": [9568, 10124, 10685, 11777, 13048], "queries": {"click": {"state": {"target": ["29", "33"], "time": [2502, 5890]}, "edge": {"target": [], "time": []}}, "mouseover": {"state": {"target": ["23", "28", "26", "29", "26", "1", "8", "9", "11", "11", "30", "33", "30", "31"], "time": [2017, 2084, 2301, 2401, 2785, 3469, 3569, 3786, 4803, 5137, 5470, 5771, 6104, 6204]}, "edge": {"target": [], "time": []}}, "mouseout": {"state": {"target": ["0", "23", "28", "26", "29", "29", "26", "1", "8", "9", "11", "11", "30", "33", "30", "31"], "time": [1550, 2034, 2268, 2368, 2518, 2768, 2802, 3502, 3719, 4770, 4820, 5154, 5738, 6071, 6171, 8273]}, "edge": {"target": [], "time": []}}}, "displayed_time": "15.80", "trialTime": 17262, "trial_type": "mouselab-mdp", "trial_index": 33, "time_elapsed": 949961, "internal_node_id": "0.0-6.0-1.0-18.0"}}, {"uniqueid": "w65555241:a57328894", "current_trial": 34, "dateTime": 1693565838260, "trialdata": {"revealed_states": [], "clicked_states": ["28", "33", "9", "7", "22", "18", "17", "16"], "num_clicks_accrued": [0, 0, 0, 0, 0, 0, 0, 0, 0, 0, 0, 0, 0], "stateRewards": ["", 2, 3, -1, 6, 44, -4, -59, -14, -3, 64, 16, 1, -3, 3, 6, 3, 49, 19, 3, -49, -14, -86, 1, 2, -3, -8, -33, 14, 32, -13, -77, -47, -67], "withholdReward": false, "trial_id": "mdp_trial_20", "block": "test", "trialIndex": 23, "score": 44.8, "costs": -11.200000000000001, "simulationMode": [null, null, null, null, null], "rewards": [1, -3, 3, 6, 49], "path": ["0", "0", "12", "13", "14", "15", "17"], "rt": [24757, 174, 431, 154, 78], "actions": ["right", "right", "right", "up", "right"], "actionTimes": [25779, 26454, 27377, 28018, 28592], "queries": {"click": {"state": {"target": ["28", "33", "9", "7", "22", "18", "17", "16"], "time": [1871, 6071, 9426, 12833, 15968, 18071, 20246, 22356]}, "edge": {"target": [], "time": []}}, "mouseover": {"state": {"target": ["28", "31", "30", "33", "33", "29", "33", "33", "32", "10", "9", "8", "10", "15", "16", "6", "7", "18", "14", "14", "22", "19", "14", "18", "15", "17", "16", "15"], "time": [1574, 2908, 3992, 4343, 4643, 4893, 5377, 5727, 6311, 8329, 8696, 9965, 10148, 11849, 12166, 12483, 12783, 13117, 14768, 15452, 15703, 16253, 16720, 16970, 18455, 18571, 20640, 22575]}, "edge": {"target": [], "time": []}}, "mouseout": {"state": {"target": ["0", "28", "28", "31", "30", "33", "33", "29", "33", "33", "32", "10", "9", "8", "10", "15", "16", "6", "7", "18", "14", "14", "22", "19", "14", "18", "15", "17", "16", "16", "15"], "time": [823, 1935, 2008, 3976, 4026, 4376, 4843, 5310, 5594, 6244, 6345, 8363, 9914, 10081, 11616, 12132, 12216, 12550, 13083, 13133, 15102, 15519, 16032, 16620, 16855, 18421, 18521, 20590, 22361, 22558, 23075]}, "edge": {"target": [], "time": []}}}, "displayed_time": "29.08", "trialTime": 29931, "trial_type": "mouselab-mdp", "trial_index": 34, "time_elapsed": 980038, "internal_node_id": "0.0-6.0-1.0-19.0"}}, {"uniqueid": "w65555241:a57328894", "current_trial": 35, "dateTime": 1693565860019, "trialdata": {"revealed_states": [], "clicked_states": ["28", "29", "33", "32"], "num_clicks_accrued": [0, 0, 0, 0, 0, 0, 0, 0, 0, 0, 0, 0, 0], "stateRewards": ["", -2, -3, -7, 7, -54, -69, -4, -14, -77, 22, 40, -2, -1, 5, 6, -35, 50, -60, 10, -28, 75, 57, 1, -4, -2, 2, 68, 34, -18, 12, 3, -21, -43], "withholdReward": false, "trial_id": "mdp_trial_21", "block": "test", "trialIndex": 24, "score": 25.4, "costs": -5.6, "simulationMode": [null, null, null, null, null], "rewards": [1, -4, -2, 2, 34], "path": ["0", "0", "23", "24", "25", "26", "28"], "rt": [12578, 255, 451, 5, 73], "actions": ["left", "left", "left", "up", "right"], "actionTimes": [17573, 18331, 19278, 19783, 20368], "queries": {"click": {"state": {"target": ["28", "29", "33", "32"], "time": [5805, 8831, 12091, 14741]}, "edge": {"target": [], "time": []}}, "mouseover": {"state": {"target": ["0", "23", "28", "25", "29", "26", "24", "31", "30", "33", "32"], "time": [5230, 5280, 5330, 6014, 8335, 9567, 11469, 11803, 11952, 12003, 14638]}, "edge": {"target": [], "time": []}}, "mouseout": {"state": {"target": ["7", "26", "29", "29", "29", "26", "24", "23", "0", "23", "28", "25", "29", "26", "24", "31", "30", "33", "32"], "time": [1109, 1660, 1844, 2344, 3546, 3578, 3645, 4696, 5247, 5297, 5964, 6031, 9551, 9602, 11502, 11919, 11986, 12320, 14756]}, "edge": {"target": [], "time": []}}}, "displayed_time": "20.86", "trialTime": 21617, "trial_type": "mouselab-mdp", "trial_index": 35, "time_elapsed": 1001796, "internal_node_id": "0.0-6.0-1.0-20.0"}}, {"uniqueid": "w65555241:a57328894", "current_trial": 36, "dateTime": 1693565876859, "trialdata": {"revealed_states": [], "clicked_states": ["9", "28", "33"], "num_clicks_accrued": [0, 0, 0, 0, 0, 0, 0, 0, 0, 0, 0, 0, 0], "stateRewards": ["", 1, -3, -1, 9, -34, -40, 22, -7, 45, 53, -11, 2, 4, 5, 15, 21, 37, -49, -3, 80, -28, -34, 1, -3, 1, 1, -40, -6, -5, -16, -85, -86, 59], "withholdReward": false, "trial_id": "mdp_trial_22", "block": "test", "trialIndex": 25, "score": 37.8, "costs": -4.199999999999999, "simulationMode": [null, null, null, null, null], "rewards": [1, -3, 1, -16, 59], "path": ["0", "0", "23", "24", "25", "30", "33"], "rt": [10658, 486, 503, 65, 477], "actions": ["left", "left", "left", "down", "left"], "actionTimes": [11751, 12730, 13730, 14293, 15272], "queries": {"click": {"state": {"target": ["9", "28", "33"], "time": [1814, 5790, 9248]}, "edge": {"target": [], "time": []}}, "mouseover": {"state": {"target": ["3", "9", "2", "12", "12", "10", "2", "7", "1", "26", "28", "24", "31", "23", "33", "30", "31"], "time": [1283, 1566, 2033, 2117, 3968, 4402, 4619, 4819, 5086, 5436, 5503, 5970, 6003, 6237, 9072, 9473, 9523]}, "edge": {"target": [], "time": []}}, "mouseout": {"state": {"target": ["0", "3", "9", "9", "2", "12", "12", "10", "2", "7", "1", "26", "28", "24", "31", "23", "33", "33", "30", "31"], "time": [1199, 1299, 1887, 2000, 2050, 2167, 3985, 4585, 4669, 5019, 5202, 5453, 5936, 5986, 6020, 6253, 9310, 9439, 9508, 9556]}, "edge": {"target": [], "time": []}}}, "displayed_time": "15.76", "trialTime": 16712, "trial_type": "mouselab-mdp", "trial_index": 36, "time_elapsed": 1018637, "internal_node_id": "0.0-6.0-1.0-21.0"}}, {"uniqueid": "w65555241:a57328894", "current_trial": 37, "dateTime": 1693565909574, "trialdata": {"revealed_states": [], "clicked_states": ["18", "17", "22", "33", "29", "28", "10"], "num_clicks_accrued": [0, 0, 0, 0, 0, 0, 0, 0, 0, 0, 0, 0, 0], "stateRewards": ["", 2, -1, 5, 6, 10, 86, 55, 10, -45, 63, -71, 1, -2, 5, -8, -50, -72, 36, 15, 61, 12, 33, -1, -4, 6, 5, 79, -56, -21, -16, -87, 60, -81], "withholdReward": false, "trial_id": "mdp_trial_23", "block": "test", "trialIndex": 26, "score": 69.2, "costs": -9.8, "simulationMode": [null, null, null, null, null], "rewards": [2, -1, 5, 10, 63], "path": ["0", "0", "1", "2", "3", "8", "10"], "rt": [23529, 199, 39, 186, 99], "actions": ["up", "up", "up", "left", "down"], "actionTimes": [26759, 27459, 27999, 28697, 29293], "queries": {"click": {"state": {"target": ["18", "17", "22", "33", "29", "28", "10"], "time": [3757, 6394, 8959, 12942, 15880, 18597, 22981]}, "edge": {"target": [], "time": []}}, "mouseover": {"state": {"target": ["18", "15", "17", "15", "18", "14", "17", "17", "16", "16", "17", "19", "22", "20", "21", "24", "25", "33", "32", "30", "25", "29", "26", "28", "10", "8", "9", "8", "10", "28", "10", "2", "3", "8", "10", "8"], "time": [3322, 3339, 3356, 3505, 3655, 4092, 4189, 4823, 4873, 5890, 6141, 8660, 8776, 11445, 11896, 12646, 12729, 12896, 13313, 15315, 15349, 15415, 16284, 16483, 16533, 16551, 16950, 17334, 17834, 18484, 19602, 21020, 21620, 21737, 22272, 25857]}, "edge": {"target": [], "time": []}}, "mouseout": {"state": {"target": ["15", "17", "15", "13", "12", "1", "18", "15", "17", "15", "18", "14", "17", "17", "16", "16", "17", "19", "22", "20", "21", "22", "22", "24", "25", "33", "32", "30", "25", "29", "26", "28", "10", "8", "9", "8", "10", "28", "10", "2", "3", "8", "10", "10", "8", "8", "0"], "time": [1070, 1937, 2003, 2654, 2721, 3004, 3338, 3355, 3372, 3589, 3922, 4139, 4239, 4840, 4890, 5924, 6558, 8726, 9260, 11829, 12113, 12263, 12363, 12680, 12796, 13297, 13330, 15332, 15365, 16149, 16400, 16516, 16550, 16583, 17267, 17450, 18451, 19035, 20987, 21570, 21687, 22121, 23205, 25840, 25874, 30994, 31061]}, "edge": {"target": [], "time": []}}}, "displayed_time": "29.80", "trialTime": 32566, "trial_type": "mouselab-mdp", "trial_index": 37, "time_elapsed": 1051352, "internal_node_id": "0.0-6.0-1.0-22.0"}}, {"uniqueid": "w65555241:a57328894", "current_trial": 38, "dateTime": 1693565944990, "trialdata": {"revealed_states": [], "clicked_states": ["24", "13", "3", "17", "33", "29", "28", "27"], "num_clicks_accrued": [0, 0, 0, 0, 0, 0, 0, 0, 0, 0, 0, 0, 0], "stateRewards": ["", -1, 1, -2, 5, 73, 15, 61, 8, 7, 38, 76, 2, 2, -4, -6, -6, -26, 43, -5, -45, -85, -35, -2, 1, -4, 15, -10, 69, 72, -11, 84, -49, -38], "withholdReward": false, "trial_id": "mdp_trial_24", "block": "test", "trialIndex": 27, "score": 70.8, "costs": -11.200000000000001, "simulationMode": [null, null, null, null, null], "rewards": [-2, 1, -4, 15, 72], "path": ["0", "0", "23", "24", "25", "26", "29"], "rt": [25482, 14, 150, 96, 221], "actions": ["left", "left", "left", "up", "left"], "actionTimes": [31695, 32204, 32857, 33453, 34162], "queries": {"click": {"state": {"target": ["24", "13", "3", "17", "33", "29", "28", "27"], "time": [6519, 9892, 14002, 16741, 19590, 22319, 25959, 29094]}, "edge": {"target": [], "time": []}}, "mouseover": {"state": {"target": ["23", "24", "31", "25", "29", "26", "28", "13", "13", "13", "19", "7", "3", "3", "2", "1", "18", "15", "17", "20", "19", "22", "31", "30", "33", "30", "25", "29", "26", "24", "24", "28", "27", "29", "28", "26", "27"], "time": [6267, 6383, 8468, 8518, 8752, 9169, 9187, 9252, 9436, 9720, 10220, 12706, 13089, 13906, 14290, 14340, 16175, 16258, 16642, 17409, 18977, 18995, 19194, 19277, 19494, 19878, 20712, 20829, 21579, 21629, 21796, 21846, 22147, 22263, 23133, 28819, 28969]}, "edge": {"target": [], "time": []}}, "mouseout": {"state": {"target": ["0", "0", "23", "24", "28", "26", "29", "26", "29", "26", "24", "23", "0", "23", "24", "31", "25", "29", "26", "28", "13", "13", "13", "19", "13", "7", "3", "3", "2", "1", "18", "15", "17", "20", "19", "22", "31", "30", "33", "30", "25", "29", "26", "24", "24", "28", "27", "29", "29", "28", "28", "26", "27", "28"], "time": [1129, 1662, 2146, 2913, 3080, 3147, 3631, 3981, 4381, 4531, 5833, 5866, 6250, 6316, 6767, 8502, 8585, 9152, 9186, 9202, 9286, 9586, 10187, 11004, 12672, 12722, 13623, 14273, 14323, 16126, 16208, 16275, 17226, 18961, 18994, 19011, 19244, 19344, 19845, 19928, 20745, 21563, 21596, 21646, 21813, 21863, 22180, 22404, 22547, 25984, 27551, 28919, 29403, 29469]}, "edge": {"target": [], "time": []}}}, "displayed_time": "34.66", "trialTime": 35264, "trial_type": "mouselab-mdp", "trial_index": 38, "time_elapsed": 1086768, "internal_node_id": "0.0-6.0-1.0-23.0"}}, {"uniqueid": "w65555241:a57328894", "current_trial": 39, "dateTime": 1693565968907, "trialdata": {"revealed_states": [], "clicked_states": ["11", "29", "28", "27", "33"], "num_clicks_accrued": [0, 0, 0, 0, 0, 0, 0, 0, 0, 0, 0, 0, 0], "stateRewards": ["", -2, -4, 6, 14, -34, 49, 36, -8, -3, 32, -4, 1, -2, 1, -8, -20, -71, -57, -7, -86, -62, -16, -2, -3, -5, 11, 23, -21, 53, 5, -5, 85, 73], "withholdReward": false, "trial_id": "mdp_trial_25", "block": "test", "trialIndex": 28, "score": 61, "costs": -7, "simulationMode": [null, null, null, null, null], "rewards": [-2, -3, -5, 5, 73], "path": ["0", "0", "23", "24", "25", "30", "33"], "rt": [14215, 56, 48, 194, 50], "actions": ["left", "left", "left", "down", "left"], "actionTimes": [20233, 20789, 21329, 22026, 22566], "queries": {"click": {"state": {"target": ["11", "29", "28", "27", "33"], "time": [6368, 8489, 11727, 13876, 17031]}, "edge": {"target": [], "time": []}}, "mouseover": {"state": {"target": ["10", "11", "24", "26", "29", "26", "28", "10", "2", "10", "28", "27", "25", "33", "33", "30", "31", "0", "23", "23", "23"], "time": [6101, 6217, 7235, 7369, 8403, 8803, 8853, 8903, 8953, 9353, 10338, 12957, 16142, 16476, 16960, 17393, 17443, 17727, 18494, 19228, 19579]}, "edge": {"target": [], "time": []}}, "mouseout": {"state": {"target": ["1", "10", "11", "27", "27", "11", "11", "10", "11", "10", "10", "0", "1", "10", "11", "24", "26", "29", "26", "28", "10", "2", "10", "28", "27", "28", "25", "33", "33", "30", "31", "0", "23", "23", "23"], "time": [646, 696, 896, 1063, 1213, 1296, 3048, 4249, 4833, 5251, 5466, 5617, 5833, 6134, 6618, 7302, 7802, 8770, 8837, 8870, 8920, 9320, 9437, 11822, 13961, 16076, 16293, 16509, 17360, 17427, 17477, 17794, 18528, 19278, 19729]}, "edge": {"target": [], "time": []}}}, "displayed_time": "23.08", "trialTime": 23770, "trial_type": "mouselab-mdp", "trial_index": 39, "time_elapsed": 1110685, "internal_node_id": "0.0-6.0-1.0-24.0"}}, {"uniqueid": "w65555241:a57328894", "current_trial": 40, "dateTime": 1693565988916, "trialdata": {"revealed_states": [], "clicked_states": ["10", "29"], "num_clicks_accrued": [0, 0, 0, 0, 0, 0, 0, 0, 0, 0, 0, 0, 0], "stateRewards": ["", 1, 2, -5, 14, 54, -14, -25, 16, -5, -87, 78, -1, 1, 3, -3, 52, 53, 53, -10, 73, -69, -48, 2, 3, 1, 8, -62, -7, 85, 7, 82, 52, -28], "withholdReward": false, "trial_id": "mdp_trial_26", "block": "test", "trialIndex": 29, "score": 96.2, "costs": -2.8, "simulationMode": [null, null, null, null, null], "rewards": [2, 3, 1, 8, 85], "path": ["0", "0", "23", "24", "25", "26", "29"], "rt": [7495, 31, 383, 645, 29], "actions": ["left", "left", "left", "up", "left"], "actionTimes": [11982, 12511, 13412, 14559, 15076], "queries": {"click": {"state": {"target": ["10", "29"], "time": [4767, 7741]}, "edge": {"target": [], "time": []}}, "mouseover": {"state": {"target": ["10", "1", "28", "26", "29", "25", "24", "28"], "time": [4604, 5205, 6973, 7523, 7674, 8091, 8157, 9425]}, "edge": {"target": [], "time": []}}, "mouseout": {"state": {"target": ["18", "16", "6", "5", "5", "9", "8", "10", "10", "10", "10", "1", "28", "26", "29", "29", "25", "24", "28"], "time": [834, 951, 1101, 1685, 2169, 2953, 3036, 3654, 4054, 4842, 5055, 6789, 7023, 7640, 7747, 8041, 8124, 9342, 11378]}, "edge": {"target": [], "time": []}}}, "displayed_time": "18.85", "trialTime": 19864, "trial_type": "mouselab-mdp", "trial_index": 40, "time_elapsed": 1130694, "internal_node_id": "0.0-6.0-1.0-25.0"}}, {"uniqueid": "w65555241:a57328894", "current_trial": 41, "dateTime": 1693566023078, "trialdata": {"revealed_states": [], "clicked_states": ["29", "22", "20", "21"], "num_clicks_accrued": [0, 0, 0, 0, 0, 0, 0, 0, 0, 0, 0, 0, 0], "stateRewards": ["", -2, -4, 4, -11, -63, -60, -7, 2, -14, 81, -43, -1, -1, -5, 7, 10, 69, 40, 8, -83, 52, 60, 1, 2, 5, -5, 16, 64, 14, -3, 29, 7, -51], "withholdReward": false, "trial_id": "mdp_trial_27", "block": "test", "trialIndex": 30, "score": 55.4, "costs": -5.6, "simulationMode": [null, null, null, null, null], "rewards": [-1, -1, -5, 8, 60], "path": ["0", "0", "12", "13", "14", "19", "22"], "rt": [13148, 103, 290, 23, 35], "actions": ["right", "right", "right", "down", "left"], "actionTimes": [16380, 16986, 17773, 18290, 18819], "queries": {"click": {"state": {"target": ["29", "22", "20", "21"], "time": [3929, 7742, 10400, 12548]}, "edge": {"target": [], "time": []}}, "mouseover": {"state": {"target": ["23", "29", "29", "26", "12", "12", "0", "23", "24", "31", "22", "19", "20", "21"], "time": [3453, 3520, 3820, 4337, 4421, 4905, 6639, 6689, 7006, 7340, 7540, 10125, 10242, 11593]}, "edge": {"target": [], "time": []}}, "mouseout": {"state": {"target": ["23", "24", "25", "29", "25", "24", "0", "23", "29", "29", "26", "12", "12", "0", "23", "24", "31", "22", "19", "20", "21"], "time": [650, 684, 817, 1818, 1885, 1935, 3437, 3470, 3537, 3937, 4354, 4454, 5071, 6673, 6739, 7040, 7357, 8291, 10159, 11293, 12649]}, "edge": {"target": [], "time": []}}}, "displayed_time": "19.33", "trialTime": 34008, "trial_type": "mouselab-mdp", "trial_index": 41, "time_elapsed": 1164856, "internal_node_id": "0.0-6.0-1.0-26.0"}}, {"uniqueid": "w65555241:a57328894", "current_trial": 42, "dateTime": 1693566038907, "trialdata": {"revealed_states": [], "clicked_states": ["29", "28", "27"], "num_clicks_accrued": [0, 0, 0, 0, 0, 0, 0, 0, 0, 0, 0, 0, 0], "stateRewards": ["", -2, -1, -5, 10, -36, -70, 68, -9, 86, 71, -10, 2, -4, 7, -7, 66, 44, -66, -13, -69, 43, 15, -2, 2, 6, -13, 62, 57, 50, -10, -69, 42, -72], "withholdReward": false, "trial_id": "mdp_trial_28", "block": "test", "trialIndex": 31, "score": 50.8, "costs": -4.199999999999999, "simulationMode": [null, null, null, null, null], "rewards": [-2, 2, 6, -13, 62], "path": ["0", "0", "23", "24", "25", "26", "27"], "rt": [10444, 194, 140, 23, 114], "actions": ["left", "left", "left", "up", "up"], "actionTimes": [11657, 12343, 12972, 13489, 14097], "queries": {"click": {"state": {"target": ["29", "28", "27"], "time": [1642, 4309, 6692]}, "edge": {"target": [], "time": []}}, "mouseover": {"state": {"target": ["23", "26", "29", "25", "28", "10", "27", "27", "28", "27", "31"], "time": [1322, 1372, 1522, 2039, 2723, 2840, 3323, 3607, 3774, 4858, 8911]}, "edge": {"target": [], "time": []}}, "mouseout": {"state": {"target": ["14", "18", "23", "26", "29", "29", "25", "28", "10", "27", "27", "28", "27", "28", "31"], "time": [671, 721, 1338, 1405, 1743, 2006, 2489, 2790, 3040, 3424, 3691, 4408, 7093, 7160, 8928]}, "edge": {"target": [], "time": []}}}, "displayed_time": "15.23", "trialTime": 15661, "trial_type": "mouselab-mdp", "trial_index": 42, "time_elapsed": 1180685, "internal_node_id": "0.0-6.0-1.0-27.0"}}, {"uniqueid": "w65555241:a57328894", "current_trial": 43, "dateTime": 1693566062577, "trialdata": {"revealed_states": [], "clicked_states": ["10", "29", "33", "21", "32", "31"], "num_clicks_accrued": [0, 0, 0, 0, 0, 0, 0, 0, 0, 0, 0, 0, 0], "stateRewards": ["", -1, 1, -1, 2, 19, 85, -18, 2, -3, -26, 36, 2, 4, 7, -9, -18, 70, 72, -5, 35, -20, -28, 1, -2, -4, -3, -59, -11, -63, -2, -72, 59, -69], "withholdReward": false, "trial_id": "mdp_trial_29", "block": "test", "trialIndex": 32, "score": 43.6, "costs": -8.4, "simulationMode": [null, null, null, null, null], "rewards": [1, -2, -4, -2, 59], "path": ["0", "0", "23", "24", "25", "30", "32"], "rt": [16589, 135, 356, 34, 113], "actions": ["left", "left", "left", "down", "down"], "actionTimes": [20218, 20848, 21703, 22232, 22862], "queries": {"click": {"state": {"target": ["10", "29", "33", "21", "32", "31"], "time": [4862, 7381, 10262, 12777, 15489, 18283]}, "edge": {"target": [], "time": []}}, "mouseover": {"state": {"target": ["10", "11", "10", "8", "8", "27", "29", "26", "28", "1", "12", "31", "30", "33", "30", "31", "21", "19", "22", "32", "31"], "time": [3998, 4181, 4798, 5466, 6883, 7100, 7284, 7651, 7701, 8385, 9502, 9619, 9786, 9936, 10670, 10688, 12488, 13506, 13556, 15390, 16758]}, "edge": {"target": [], "time": []}}, "mouseout": {"state": {"target": ["0", "1", "3", "8", "11", "10", "11", "10", "8", "8", "27", "29", "26", "28", "1", "12", "31", "30", "33", "30", "31", "21", "19", "22", "32", "31"], "time": [861, 911, 1178, 1379, 3013, 4014, 4531, 5416, 5566, 6917, 7134, 7634, 7684, 8335, 8401, 9519, 9669, 9886, 10653, 10687, 10703, 13089, 13522, 13572, 15758, 18527]}, "edge": {"target": [], "time": []}}}, "displayed_time": "23.35", "trialTime": 23458, "trial_type": "mouselab-mdp", "trial_index": 43, "time_elapsed": 1204355, "internal_node_id": "0.0-6.0-1.0-28.0"}}, {"uniqueid": "w65555241:a57328894", "current_trial": 44, "dateTime": 1693566079148, "trialdata": {"revealed_states": [], "clicked_states": ["9", "28", "33"], "num_clicks_accrued": [0, 0, 0, 0, 0, 0, 0, 0, 0, 0, 0, 0, 0], "stateRewards": ["", -2, 3, -1, 2, -72, 63, 20, -1, 62, -66, 39, -2, 3, -6, 14, 22, 47, 1, 8, -49, -1, -41, 2, 2, -6, -16, -64, -60, -34, 16, 54, 22, -7], "withholdReward": false, "trial_id": "mdp_trial_30", "block": "test", "trialIndex": 33, "score": 56.8, "costs": -4.199999999999999, "simulationMode": [null, null, null, null, null], "rewards": [-2, 3, -1, -1, 62], "path": ["0", "0", "1", "2", "3", "8", "9"], "rt": [10541, 107, 13, 14, 127], "actions": ["up", "up", "up", "left", "up"], "actionTimes": [12573, 13173, 13679, 14197, 14827], "queries": {"click": {"state": {"target": ["9", "28", "33"], "time": [2780, 6450, 9512]}, "edge": {"target": [], "time": []}}, "mouseover": {"state": {"target": ["1", "2", "3", "9", "8", "10", "10", "11", "10", "28", "28", "10", "29", "33", "25", "24"], "time": [2321, 2339, 2372, 2571, 3022, 3072, 4923, 5174, 5491, 5774, 6074, 8193, 8527, 9210, 11746, 11779]}, "edge": {"target": [], "time": []}}, "mouseout": {"state": {"target": ["0", "1", "2", "3", "9", "8", "10", "10", "11", "10", "28", "28", "10", "29", "33", "25", "24"], "time": [2304, 2338, 2355, 2488, 3005, 3055, 3089, 4990, 5407, 5724, 5824, 7376, 8293, 8793, 9582, 11763, 11929]}, "edge": {"target": [], "time": []}}}, "displayed_time": "16.04", "trialTime": 16402, "trial_type": "mouselab-mdp", "trial_index": 44, "time_elapsed": 1220926, "internal_node_id": "0.0-6.0-1.0-29.0"}}, {"uniqueid": "w65555241:a57328894", "current_trial": 45, "dateTime": 1693566096852, "trialdata": {"revealed_states": [], "clicked_states": ["16", "18", "17"], "num_clicks_accrued": [0, 0, 0, 0, 0, 0, 0, 0, 0, 0, 0, 0, 0], "stateRewards": ["", 2, -3, 5, 11, -79, 54, 11, -9, -78, 33, 22, -2, -1, 2, 14, 43, 34, 1, 10, 49, -65, 39, -1, 1, -1, 3, -16, -2, 11, 2, 12, 48, -65], "withholdReward": false, "trial_id": "mdp_trial_31", "block": "test", "trialIndex": 34, "score": 51.8, "costs": -4.199999999999999, "simulationMode": [null, null, null, null, null], "rewards": [-2, -1, 2, 14, 43], "path": ["0", "0", "12", "13", "14", "15", "16"], "rt": [8672, 9, 461, 241, 284], "actions": ["right", "right", "right", "up", "up"], "actionTimes": [11764, 12262, 13230, 13961, 14737], "queries": {"click": {"state": {"target": ["16", "18", "17"], "time": [3429, 5812, 8156]}, "edge": {"target": [], "time": []}}, "mouseover": {"state": {"target": ["18", "16", "13", "15", "18", "15", "17", "17", "20", "19"], "time": [3193, 3227, 3710, 5428, 5595, 6132, 6162, 6846, 10416, 10499]}, "edge": {"target": [], "time": []}}, "mouseout": {"state": {"target": ["12", "13", "15", "16", "15", "14", "14", "15", "18", "12", "0", "18", "16", "13", "15", "18", "15", "17", "17", "20", "19"], "time": [825, 875, 1108, 1692, 1742, 1792, 2109, 2158, 2625, 2659, 3143, 3210, 3660, 3727, 5445, 6096, 6146, 6229, 9215, 10432, 10549]}, "edge": {"target": [], "time": []}}}, "displayed_time": "17.11", "trialTime": 17547, "trial_type": "mouselab-mdp", "trial_index": 45, "time_elapsed": 1238630, "internal_node_id": "0.0-6.0-1.0-30.0"}}, {"uniqueid": "w65555241:a57328894", "current_trial": 46, "dateTime": 1693566119840, "trialdata": {"revealed_states": [], "clicked_states": ["31", "32", "33", "28", "29", "27"], "num_clicks_accrued": [0, 0, 0, 0, 0, 0, 0, 0, 0, 0, 0, 0, 0], "stateRewards": ["", 1, 2, -8, 9, 18, -83, -11, 6, -64, -48, 17, -2, -2, -5, -3, -24, -3, -86, -2, 48, -41, -22, -2, 4, 7, 8, 81, 13, -48, 10, 61, 19, 57], "withholdReward": false, "trial_id": "mdp_trial_32", "block": "test", "trialIndex": 35, "score": 89.6, "costs": -8.4, "simulationMode": [null, null, null, null, null], "rewards": [-2, 4, 7, 8, 81], "path": ["0", "0", "23", "24", "25", "26", "27"], "rt": [16725, 110, 210, 161, 96], "actions": ["left", "left", "left", "up", "up"], "actionTimes": [18276, 18888, 19586, 20238, 20823], "queries": {"click": {"state": {"target": ["31", "32", "33", "28", "29", "27"], "time": [2760, 5644, 8398, 11060, 13789, 15698]}, "edge": {"target": [], "time": []}}, "mouseover": {"state": {"target": ["31", "31", "30", "25", "29", "33", "32", "33", "33", "30", "23", "28", "23", "24", "29", "27", "24"], "time": [2393, 2677, 3344, 3529, 4412, 4879, 4946, 6380, 6714, 8732, 10233, 10851, 11401, 13403, 13703, 14137, 16005]}, "edge": {"target": [], "time": []}}, "mouseout": {"state": {"target": ["22", "0", "31", "31", "30", "25", "29", "33", "32", "31", "33", "33", "30", "23", "28", "23", "24", "29", "27", "27", "24"], "time": [842, 2344, 2427, 3311, 3428, 3578, 4829, 4896, 5980, 6247, 6547, 8432, 8749, 10284, 11385, 11451, 13420, 14087, 15765, 15955, 16022]}, "edge": {"target": [], "time": []}}}, "displayed_time": "21.31", "trialTime": 22837, "trial_type": "mouselab-mdp", "trial_index": 46, "time_elapsed": 1261617, "internal_node_id": "0.0-6.0-1.0-31.0"}}, {"uniqueid": "w65555241:a57328894", "current_trial": 47, "dateTime": 1693566136379, "trialdata": {"revealed_states": [], "clicked_states": ["18", "20"], "num_clicks_accrued": [0, 0, 0, 0, 0, 0, 0, 0, 0, 0, 0, 0, 0], "stateRewards": ["", -2, -3, 7, -13, 60, 9, 37, -6, 37, 20, 1, 2, -2, -8, 6, -80, -31, -10, -7, 70, -65, -44, -1, 1, 7, 6, -11, 73, -85, 16, -21, 47, 34], "withholdReward": false, "trial_id": "mdp_trial_33", "block": "test", "trialIndex": 36, "score": 52.2, "costs": -2.8, "simulationMode": [null, null, null, null, null], "rewards": [2, -2, -8, -7, 70], "path": ["0", "0", "12", "13", "14", "19", "20"], "rt": [7193, 27, 106, 180, 64], "actions": ["right", "right", "right", "down", "right"], "actionTimes": [8647, 9168, 9764, 10439, 10990], "queries": {"click": {"state": {"target": ["18", "20"], "time": [2127, 4940]}, "edge": {"target": [], "time": []}}, "mouseover": {"state": {"target": ["12", "15", "18", "0", "0", "15", "20", "19", "22", "22"], "time": [1684, 1767, 2017, 2868, 4020, 4119, 4820, 5204, 5287, 5887]}, "edge": {"target": [], "time": []}}, "mouseout": {"state": {"target": ["0", "12", "15", "18", "0", "0", "15", "20", "20", "19", "22", "22"], "time": [1667, 1701, 1951, 2618, 2935, 4036, 4153, 5011, 5187, 5237, 5521, 7506]}, "edge": {"target": [], "time": []}}}, "displayed_time": "15.90", "trialTime": 16381, "trial_type": "mouselab-mdp", "trial_index": 47, "time_elapsed": 1278157, "internal_node_id": "0.0-6.0-1.0-32.0"}}, {"uniqueid": "w65555241:a57328894", "current_trial": 48, "dateTime": 1693566159778, "trialdata": {"revealed_states": [], "clicked_states": ["10", "11", "9", "5", "7", "6"], "num_clicks_accrued": [0, 0, 0, 0, 0, 0, 0, 0, 0, 0, 0, 0, 0], "stateRewards": ["", 2, 3, -6, -5, -3, 55, 40, 11, 61, 11, 51, 2, -4, -6, 9, -25, 29, -15, -6, 7, -77, -2, -2, -4, 1, 14, -43, -1, 56, -12, -54, 41, -74], "withholdReward": false, "trial_id": "mdp_trial_34", "block": "test", "trialIndex": 37, "score": 62.6, "costs": -8.4, "simulationMode": [null, null, null, null, null], "rewards": [2, 3, -6, 11, 61], "path": ["0", "0", "1", "2", "3", "8", "9"], "rt": [16804, 106, 46, 12, 115], "actions": ["up", "up", "up", "left", "up"], "actionTimes": [19670, 20266, 20806, 21323, 21942], "queries": {"click": {"state": {"target": ["10", "11", "9", "5", "7", "6"], "time": [3704, 6594, 8741, 11389, 14186, 16607]}, "edge": {"target": [], "time": []}}, "mouseover": {"state": {"target": ["10", "8", "9", "11", "8", "3", "4", "9", "4", "6", "5", "4", "7", "6"], "time": [3061, 5880, 5930, 6531, 7014, 7047, 7098, 8115, 9316, 9833, 11234, 11668, 11718, 16472]}, "edge": {"target": [], "time": []}}, "mouseout": {"state": {"target": ["22", "12", "1", "10", "10", "1", "10", "8", "9", "11", "8", "3", "4", "9", "4", "6", "5", "4", "7"], "time": [792, 808, 842, 1176, 2394, 2577, 5864, 5913, 6163, 6704, 7031, 7064, 7498, 8750, 9766, 11151, 11651, 11701, 16405]}, "edge": {"target": [], "time": []}}}, "displayed_time": "22.45", "trialTime": 23225, "trial_type": "mouselab-mdp", "trial_index": 48, "time_elapsed": 1301555, "internal_node_id": "0.0-6.0-1.0-33.0"}}, {"uniqueid": "w65555241:a57328894", "current_trial": 49, "dateTime": 1693566180781, "trialdata": {"revealed_states": [], "clicked_states": ["33", "32", "27", "29", "18"], "num_clicks_accrued": [0, 0, 0, 0, 0, 0, 0, 0, 0, 0, 0, 0, 0], "stateRewards": ["", 1, -1, 8, 4, 76, -33, -17, -3, -1, -54, -74, -2, 2, -5, 13, -51, 63, 83, 1, 84, 29, -36, 2, -1, 7, -12, -10, -44, -43, -14, 8, -69, 19], "withholdReward": false, "trial_id": "mdp_trial_35", "block": "test", "trialIndex": 38, "score": 84, "costs": -7, "simulationMode": [null, null, null, null, null], "rewards": [-2, 2, -5, 13, 83], "path": ["0", "0", "12", "13", "14", "15", "18"], "rt": [15262, 33, 85, 198, 105], "actions": ["right", "right", "right", "up", "left"], "actionTimes": [17025, 17548, 18132, 18830, 19438], "queries": {"click": {"state": {"target": ["33", "32", "27", "29", "18"], "time": [3211, 5856, 9035, 11155, 13784]}, "edge": {"target": [], "time": []}}, "mouseover": {"state": {"target": ["31", "30", "30", "33", "31", "32", "31", "24", "27", "29", "26", "28", "13", "18", "13", "22", "14", "17"], "time": [2284, 2451, 2734, 3034, 5286, 5687, 8227, 8606, 8856, 10240, 11475, 11625, 13210, 13577, 14044, 14978, 16362, 16429]}, "edge": {"target": [], "time": []}}, "mouseout": {"state": {"target": ["6", "2", "10", "31", "30", "30", "33", "31", "32", "31", "24", "27", "27", "29", "26", "28", "13", "18", "13", "22", "14"], "time": [1066, 1116, 1182, 2417, 2467, 2934, 3568, 5503, 5945, 8589, 8639, 9105, 9590, 11442, 11508, 13126, 13293, 14027, 14060, 15645, 16396]}, "edge": {"target": [], "time": []}}}, "displayed_time": "19.93", "trialTime": 20832, "trial_type": "mouselab-mdp", "trial_index": 49, "time_elapsed": 1322559, "internal_node_id": "0.0-6.0-1.0-34.0"}}, {"uniqueid": "w65555241:a57328894", "current_trial": 50, "dateTime": 1693566202574, "trialdata": {"revealed_states": [], "clicked_states": ["31", "33", "27", "28"], "num_clicks_accrued": [0, 0, 0, 0, 0, 0, 0, 0, 0, 0, 0, 0, 0], "stateRewards": ["", -2, 1, -7, -8, -37, -76, -87, 11, 30, -63, 80, -1, 4, 2, -1, 42, 17, 52, -3, -75, -80, -68, 2, -3, -5, -15, -48, 82, 24, -7, 5, -22, -71], "withholdReward": false, "trial_id": "mdp_trial_36", "block": "test", "trialIndex": 39, "score": 55.4, "costs": -5.6, "simulationMode": [null, null, null, null, null], "rewards": [2, -3, -5, -15, 82], "path": ["0", "0", "23", "24", "25", "26", "28"], "rt": [11666, 82, 378, 140, 124], "actions": ["left", "left", "left", "up", "right"], "actionTimes": [17166, 17751, 18629, 19259, 19878], "queries": {"click": {"state": {"target": ["31", "33", "27", "28"], "time": [6554, 9040, 11978, 13985]}, "edge": {"target": [], "time": []}}, "mouseover": {"state": {"target": ["12", "22", "31", "0", "0", "23", "24", "33", "30", "32", "30", "25", "26", "27", "26", "28", "26", "29"], "time": [5624, 5690, 6224, 7158, 8493, 8510, 8527, 8826, 9527, 11145, 11378, 11428, 11478, 11862, 12296, 12746, 14364, 14431]}, "edge": {"target": [], "time": []}}, "mouseout": {"state": {"target": ["17", "12", "0", "18", "0", "12", "22", "31", "0", "0", "23", "24", "33", "30", "31", "31", "32", "30", "25", "26", "27", "26", "28", "26"], "time": [2405, 2821, 3304, 4973, 5607, 5657, 6141, 7008, 7208, 8509, 8526, 8543, 9094, 9561, 9644, 9977, 11362, 11412, 11462, 11762, 12263, 12329, 14331, 14397]}, "edge": {"target": [], "time": []}}}, "displayed_time": "20.37", "trialTime": 21611, "trial_type": "mouselab-mdp", "trial_index": 50, "time_elapsed": 1344352, "internal_node_id": "0.0-6.0-1.0-35.0"}}, {"uniqueid": "w65555241:a57328894", "current_trial": 51, "dateTime": 1693566219865, "trialdata": {"revealed_states": [], "clicked_states": ["31", "29", "9", "11", "10"], "num_clicks_accrued": [0, 0, 0, 0, 0, 0, 0, 0, 0, 0, 0, 0, 0], "stateRewards": ["", -2, -3, -5, 8, 27, 11, 43, -6, -24, -87, 69, -2, 1, 1, 9, 19, 48, -37, 9, -14, 45, 62, 1, 2, 1, 16, -81, -41, 22, 4, -6, -63, 47], "withholdReward": false, "trial_id": "mdp_trial_37", "block": "test", "trialIndex": 40, "score": 46, "costs": -7, "simulationMode": [null, null, null, null, null], "rewards": [-2, -3, -5, -6, 69], "path": ["0", "0", "1", "2", "3", "8", "11"], "rt": [12420, 29, 64, 138, 10], "actions": ["up", "up", "up", "left", "left"], "actionTimes": [13927, 14456, 15007, 15648, 16154], "queries": {"click": {"state": {"target": ["31", "29", "9", "11", "10"], "time": [2123, 4178, 6911, 8825, 11228]}, "edge": {"target": [], "time": []}}, "mouseover": {"state": {"target": ["31", "31", "30", "33", "29", "25", "26", "27", "11", "9", "11", "11", "10"], "time": [1697, 1964, 2565, 3782, 4032, 4550, 4700, 4917, 6601, 6785, 7202, 7635, 9454]}, "edge": {"target": [], "time": []}}, "mouseout": {"state": {"target": ["29", "26", "24", "23", "0", "31", "31", "30", "33", "29", "25", "26", "27", "11", "9", "11", "11", "10"], "time": [829, 863, 946, 1113, 1630, 1714, 2548, 2598, 3865, 4416, 4633, 4766, 6251, 6635, 7152, 7218, 9053, 12556]}, "edge": {"target": [], "time": []}}}, "displayed_time": "16.66", "trialTime": 17110, "trial_type": "mouselab-mdp", "trial_index": 51, "time_elapsed": 1361643, "internal_node_id": "0.0-6.0-1.0-36.0"}}, {"uniqueid": "w65555241:a57328894", "current_trial": 52, "dateTime": 1693566240802, "trialdata": {"revealed_states": [], "clicked_states": ["22", "29", "31", "33", "32"], "num_clicks_accrued": [0, 0, 0, 0, 0, 0, 0, 0, 0, 0, 0, 0, 0], "stateRewards": ["", -2, -4, -8, 8, 63, -50, -19, -7, -17, -31, 31, 1, 3, -5, 12, -35, -63, -29, -4, -17, -75, -79, -2, -3, -2, 8, -3, -85, 10, -2, -82, -82, 56], "withholdReward": false, "trial_id": "mdp_trial_38", "block": "test", "trialIndex": 41, "score": 40, "costs": -7, "simulationMode": [null, null, null, null, null], "rewards": [-2, -3, -2, -2, 56], "path": ["0", "0", "23", "24", "25", "30", "33"], "rt": [14704, 164, 4, 38, 151], "actions": ["left", "left", "left", "down", "left"], "actionTimes": [17398, 18049, 18556, 19107, 19771], "queries": {"click": {"state": {"target": ["22", "29", "31", "33", "32"], "time": [4000, 7291, 9990, 12026, 14215]}, "edge": {"target": [], "time": []}}, "mouseover": {"state": {"target": ["12", "13", "14", "20", "19", "22", "22", "31", "31", "0", "12", "18", "15", "17", "17", "13", "30", "30", "26", "29", "24", "23", "23", "24", "31", "30", "33", "32", "23", "10", "8"], "time": [2821, 2854, 2888, 3221, 3605, 3688, 3922, 4606, 5256, 5540, 5558, 5757, 6074, 6107, 6374, 6474, 6541, 6657, 6807, 7208, 7742, 7775, 8343, 9577, 9844, 10411, 11529, 13013, 16749, 16833, 16883]}, "edge": {"target": [], "time": []}}, "mouseout": {"state": {"target": ["13", "12", "28", "24", "12", "13", "14", "20", "19", "22", "22", "31", "31", "0", "12", "18", "15", "17", "17", "13", "30", "30", "26", "29", "24", "23", "23", "24", "31", "30", "33", "33", "32", "23", "10"], "time": [1436, 1603, 1788, 2003, 2838, 2871, 2921, 3588, 3655, 3822, 4339, 4873, 5513, 5557, 5573, 6057, 6090, 6141, 6440, 6491, 6557, 6707, 6874, 7692, 7758, 7875, 8426, 9793, 10099, 10561, 12109, 12396, 14282, 16783, 16849]}, "edge": {"target": [], "time": []}}}, "displayed_time": "20.27", "trialTime": 20772, "trial_type": "mouselab-mdp", "trial_index": 52, "time_elapsed": 1382579, "internal_node_id": "0.0-6.0-1.0-37.0"}}, {"uniqueid": "w65555241:a57328894", "current_trial": 53, "dateTime": 1693566275092, "trialdata": {"revealed_states": [], "clicked_states": ["10", "17", "22", "18", "16", "33", "32", "31", "29", "6"], "num_clicks_accrued": [0, 0, 0, 0, 0, 0, 0, 0, 0, 0, 0, 0, 0], "stateRewards": ["", -1, -3, -6, -2, -7, 80, -45, -3, -38, -72, 76, 2, 1, 7, 4, -62, 14, -74, 14, -87, -21, -88, -2, 1, -7, -10, 66, 56, -76, 10, -29, -72, -70], "withholdReward": false, "trial_id": "mdp_trial_39", "block": "test", "trialIndex": 42, "score": 54, "costs": -14.000000000000002, "simulationMode": [null, null, null, null, null], "rewards": [-1, -3, -6, -2, 80], "path": ["0", "0", "1", "2", "3", "4", "6"], "rt": [28067, 112, 547, 132, 162], "actions": ["up", "up", "up", "right", "right"], "actionTimes": [30093, 30703, 31738, 32357, 33021], "queries": {"click": {"state": {"target": ["10", "17", "22", "18", "16", "33", "32", "31", "29", "6"], "time": [2844, 5548, 9162, 11572, 13782, 17364, 19295, 21389, 24535, 27241]}, "edge": {"target": [], "time": []}}, "mouseover": {"state": {"target": ["10", "10", "8", "11", "8", "7", "18", "17", "14", "22", "22", "13", "13", "22", "19", "20", "14", "18", "16", "16", "12", "23", "30", "33", "30", "32", "31", "25", "29", "27", "27", "29", "25", "28", "2", "7", "6", "6", "7"], "time": [2166, 2700, 3484, 4353, 4785, 4868, 4968, 5452, 5852, 5919, 8572, 8605, 8871, 8921, 9806, 9841, 11240, 11307, 11941, 12191, 16728, 16828, 16978, 17278, 17712, 17862, 19997, 21832, 21899, 23734, 24251, 24401, 24818, 25135, 26603, 26636, 26736, 27087, 28188]}, "edge": {"target": [], "time": []}}, "mouseout": {"state": {"target": ["8", "3", "7", "10", "10", "8", "11", "8", "7", "18", "17", "14", "22", "22", "13", "13", "22", "19", "20", "14", "18", "16", "16", "16", "12", "23", "30", "33", "30", "32", "31", "25", "29", "27", "27", "29", "25", "28", "2", "7", "6", "6"], "time": [698, 714, 1048, 2299, 3283, 4017, 4768, 4818, 4919, 5001, 5819, 5869, 5952, 8604, 8638, 8905, 9789, 9822, 11223, 11273, 11580, 11974, 13858, 14076, 16745, 16878, 17111, 17662, 17729, 19580, 21799, 21866, 23684, 23751, 24268, 24785, 25053, 26553, 26620, 26653, 26870, 27621]}, "edge": {"target": [], "time": []}}}, "displayed_time": "33.51", "trialTime": 34123, "trial_type": "mouselab-mdp", "trial_index": 53, "time_elapsed": 1416869, "internal_node_id": "0.0-6.0-1.0-38.0"}}, {"uniqueid": "w65555241:a57328894", "current_trial": 54, "dateTime": 1693566300619, "trialdata": {"revealed_states": [], "clicked_states": ["28", "29", "27", "32", "33", "11"], "num_clicks_accrued": [0, 0, 0, 0, 0, 0, 0, 0, 0, 0, 0, 0, 0], "stateRewards": ["", -1, 2, -7, -12, -62, 12, -13, 5, 77, -71, 83, 1, -4, 7, 15, -42, -87, -4, 5, -25, 44, 88, -1, 4, -5, -8, 14, 51, 8, -5, 83, -24, -19], "withholdReward": false, "trial_id": "mdp_trial_40", "block": "test", "trialIndex": 43, "score": 73.6, "costs": -8.4, "simulationMode": [null, null, null, null, null], "rewards": [-1, 2, -7, 5, 83], "path": ["0", "0", "1", "2", "3", "8", "11"], "rt": [18748, 77, 523, 113, 7], "actions": ["up", "up", "up", "left", "left"], "actionTimes": [20797, 21363, 22376, 22983, 23478], "queries": {"click": {"state": {"target": ["28", "29", "27", "32", "33", "11"], "time": [3345, 6336, 9081, 11894, 14375, 18087]}, "edge": {"target": [], "time": []}}, "mouseover": {"state": {"target": ["23", "28", "27", "28", "0", "26", "29", "27", "26", "24", "23", "31", "32", "33", "30", "31", "13", "15", "6", "4", "3", "8", "11", "10"], "time": [2218, 2285, 2719, 2935, 3837, 5471, 6205, 6689, 9492, 9591, 9908, 11610, 11810, 12393, 14729, 15480, 16614, 16747, 17164, 17264, 17581, 17748, 17931, 18499]}, "edge": {"target": [], "time": []}}, "mouseout": {"state": {"target": ["7", "3", "10", "0", "0", "23", "28", "27", "28", "0", "28", "26", "29", "27", "26", "24", "23", "31", "32", "33", "30", "31", "13", "15", "6", "4", "3", "8", "11", "11"], "time": [700, 983, 1117, 1434, 2185, 2252, 2368, 2870, 3770, 4070, 5438, 5604, 6418, 9458, 9508, 9891, 9958, 11664, 11944, 14712, 14979, 16530, 16630, 16847, 17198, 17548, 17698, 17815, 18173, 18449]}, "edge": {"target": [], "time": []}}}, "displayed_time": "23.99", "trialTime": 25357, "trial_type": "mouselab-mdp", "trial_index": 54, "time_elapsed": 1442397, "internal_node_id": "0.0-6.0-1.0-39.0"}}, {"uniqueid": "w65555241:a57328894", "current_trial": 55, "dateTime": 1693566356631, "trialdata": {"rt": 56009, "response": {"Q0": "$-2 to $2", "Q1": "$-16 to $16", "Q2": "$-16 to $16", "Q3": "The cost was always $1.4.", "Q4": "Slightly motivated"}, "question_order": [0, 1, 2, 3, 4], "trial_id": "final_quiz_control", "trial_type": "survey-multi-choice", "trial_index": 55, "time_elapsed": 1498408, "internal_node_id": "0.0-6.0-2.0"}}, {"uniqueid": "w65555241:a57328894", "current_trial": 56, "dateTime": 1693566485395, "trialdata": {"rt": 128759, "response": {"Q0": "Look at the last nodes and find the highest value. If there is a large amount of red nodes I've revealed, I will attempt to inspect the opposite side e.g. if on the top left it is all negative I will go for right side bottom nodes and explore those.", "Q1": "I don't believe I did.", "Q2": "The randomness made it difficult as some rounds there were a large amount of red destination nodes and felt the more I spent, the less my bonus would be so I tried to spend as less as possible while obtaining the highest destination node value."}, "trial_id": "self_report_control", "trial_type": "survey-text", "trial_index": 56, "time_elapsed": 1627173, "internal_node_id": "0.0-6.0-3.0"}}, {"uniqueid": "w65555241:a57328894", "current_trial": 57, "dateTime": 1693566506676, "trialdata": {"rt": 21278, "response": {"gender": "male", "age": "25", "colorblind": "0", "effort": "1"}, "trial_type": "survey-html-form", "trial_index": 57, "time_elapsed": 1648454, "internal_node_id": "0.0-6.0-4.0"}}, {"uniqueid": "w65555241:a57328894", "current_trial": 58, "dateTime": 1693566538152, "trialdata": {"rt": 31472, "response": {"Q0": "No", "Q1": "No", "Q2": "Interesting and rewarding study. I hope my answers help your research."}, "trial_type": "survey-text", "trial_index": 58, "time_elapsed": 1679930, "internal_node_id": "0.0-6.0-5.0"}}, {"uniqueid": "w65555241:a57328894", "current_trial": 59, "dateTime": 1693566569762, "trialdata": {"rt": 31607, "stimulus": "<h1>Completion Code Instructions (1/2)</h1>\n<br><br><br><br>\nYou have reached the end of the experiment! The completion code consists of two parts: (1) a code with 2 characters (2) a code with 6 characters. On this page, you will receive the second part of the code. The first part of the completion code will be on the next page.\n<br><br>\nThe second part of your completion code is: <b>EWEK22</b>\n<br><br>\nPlease note this down. Then, press 'Finish HIT' in order to find the first part of your completion code. Once the data has been saved, you will receive this code either in this window or in the original browser window where you started the experiment.\n", "response": 0, "trial_type": "html-button-response", "trial_index": 59, "time_elapsed": 1711540, "internal_node_id": "0.0-6.0-6.0"}}, {"uniqueid": "w65555241:a57328894", "current_trial": 60, "dateTime": 1693566570773, "trialdata": {"success": true, "trial_type": "fullscreen", "trial_index": 60, "time_elapsed": 1712551, "internal_node_id": "0.0-7.0"}}], "questiondata": {"params": {"CODE": "C6DMOQA6", "MIN_TIME": 14, "inspectCost": 1, "startTime": "Fri Sep 01 2023 22:40:56 GMT+1200 (New Zealand Standard Time)", "bonusRate": 0.002, "variance": "1_2_4_8_44", "branching": "31123"}, "final_score": 2093}, "eventdata": [{"eventtype": "initialized", "value": null, "timestamp": 1693564856391, "interval": 0}, {"eventtype": "window_resize", "value": [1024, 768], "timestamp": 1693564856391, "interval": 0}, {"eventtype": "window_resize", "value": [1024, 768], "timestamp": 1693564856816, "interval": 425}, {"eventtype": "focus", "value": "off", "timestamp": 1693564865753, "interval": 8937}, {"eventtype": "focus", "value": "on", "timestamp": 1693564902845, "interval": 37092}, {"eventtype": "window_resize", "value": [2560, 1440], "timestamp": 1693564904934, "interval": 2089}, {"eventtype": "focus", "value": "off", "timestamp": 1693565303665, "interval": 398731}, {"eventtype": "focus", "value": "on", "timestamp": 1693565303665, "interval": 0}, {"eventtype": "window_resize", "value": [1024, 768], "timestamp": 1693565303883, "interval": 218}, {"eventtype": "window_resize", "value": [2560, 1440], "timestamp": 1693565305550, "interval": 1667}, {"eventtype": "window_resize", "value": [1024, 768], "timestamp": 1693566569992, "interval": 1264442}], "useragent": "Mozilla/5.0 (Windows NT 10.0; Win64; x64) AppleWebKit/537.36 (KHTML, like Gecko) Chrome/116.0.0.0 Safari/537.36 Edg/116.0.1938.62", "mode": "live", "id": "w65555241:a57328894", "status": "user data saved", "Beginhit": "2023-09-01 10:40:54.032431", "Beginexp": "2023-09-01 10:41:45.764506", "Endhit": "2023-09-01 11:09:31.480395", "psiturkStatus": 3, "browser": "<redacted>", "platform": "windows", "language": "en-US"}