{"condition": 1, "counterbalance": 0, "assignmentId": "a14781965", "workerId": "w28494679", "hitId": "h46837153", "currenttrial": 68, "bonus": 0, "data": [{"uniqueid": "w28494679:a14781965", "current_trial": 0, "dateTime": 1691141938560, "trialdata": {"success": true, "trial_type": "fullscreen", "trial_index": 0, "time_elapsed": 15109, "internal_node_id": "0.0-0.0"}}, {"uniqueid": "w28494679:a14781965", "current_trial": 1, "dateTime": 1691141963342, "trialdata": {"view_history": [{"page_index": 0, "viewing_time": 24776}], "rt": 24776, "trial_id": "exp_instructions_misaligned", "trial_type": "instructions", "trial_index": 1, "time_elapsed": 39891, "internal_node_id": "0.0-1.0"}}, {"uniqueid": "w28494679:a14781965", "current_trial": 2, "dateTime": 1691141973607, "trialdata": {"success": true, "trial_type": "fullscreen", "trial_index": 2, "time_elapsed": 50156, "internal_node_id": "0.0-2.0-0.0"}}, {"uniqueid": "w28494679:a14781965", "current_trial": 3, "dateTime": 1691142133737, "trialdata": {"view_history": [{"page_index": 0, "viewing_time": 61393}, {"page_index": 1, "viewing_time": 24607}, {"page_index": 2, "viewing_time": 13722}, {"page_index": 3, "viewing_time": 60403}], "rt": 160126, "trial_id": "mouselab_instructions_1_misaligned", "trial_type": "instructions", "trial_index": 3, "time_elapsed": 210286, "internal_node_id": "0.0-2.0-1.0"}}, {"uniqueid": "w28494679:a14781965", "current_trial": 4, "dateTime": 1691142183909, "trialdata": {"revealed_states": [], "clicked_states": ["23", "24", "25", "30", "31", "12", "13", "18", "7", "2", "10", "8", "3", "4", "6"], "num_clicks_accrued": [0, 0, 0, 0, 0, 0, 0, 0, 0, 0, 0, 0, 0], "stateRewards": ["", 10, -10, 10, 10, 10, -10, -10, -10, 10, -10, -10, 10, -10, 10, 10, -10, -10, 10, -10, 10, -10, -10, -10, 10, -10, 10, -10, -10, 10, -10, -10, 10, -10], "withholdReward": false, "trial_id": "practice_1", "block": "test", "trialIndex": 0, "score": -14, "costs": -7.5, "simulationMode": [null, null, null, null, null], "rewards": [-10, 10, -10, 10, -10], "path": ["0", "0", "23", "24", "25", "26", "27"], "rt": [35642, 683, 3992, 1570, 1154], "actions": ["left", "left", "left", "up", "up"], "actionTimes": [37675, 38856, 43347, 45412, 47065], "queries": {"click": {"state": {"target": ["23", "24", "25", "30", "31", "12", "13", "18", "7", "2", "10", "8", "3", "4", "6"], "time": [3318, 4802, 5993, 8636, 10425, 17005, 19543, 21328, 22815, 24473, 27409, 28547, 29596, 30663, 32633]}, "edge": {"target": [], "time": []}}, "mouseover": {"state": {"target": ["23", "28", "24", "25", "30", "33", "30", "30", "31", "30", "30", "25", "12", "13", "13", "14", "18", "7", "2", "10", "10", "8", "3", "4", "6", "4", "3", "8", "11"], "time": [3074, 3991, 4541, 5611, 6559, 7961, 8230, 8378, 10196, 13027, 14215, 16033, 16864, 18933, 19297, 20652, 21066, 22483, 24066, 26168, 26514, 28352, 29418, 30436, 31698, 36190, 36322, 36489, 36955]}, "edge": {"target": [], "time": []}}, "mouseout": {"state": {"target": ["0", "23", "28", "24", "25", "30", "33", "30", "30", "31", "30", "30", "25", "12", "13", "13", "14", "18", "7", "2", "10", "10", "8", "3", "4", "6", "4", "3", "8"], "time": [1124, 3871, 4309, 5377, 6358, 7910, 8174, 8327, 9462, 12897, 13114, 15730, 16365, 18850, 19032, 20601, 20846, 22116, 23983, 24482, 26218, 28205, 29359, 30369, 31638, 36157, 36251, 36424, 36637]}, "edge": {"target": [], "time": []}}}, "displayed_time": "47.56", "trialTime": 49528, "trial_type": "mouselab-mdp", "trial_index": 4, "time_elapsed": 260457, "internal_node_id": "0.0-2.0-2.0-0.0"}}, {"uniqueid": "w28494679:a14781965", "current_trial": 5, "dateTime": 1691142215266, "trialdata": {"revealed_states": [], "clicked_states": ["12", "23", "1", "24", "25", "10", "2", "3"], "num_clicks_accrued": [0, 0, 0, 0, 0, 0, 0, 0, 0, 0, 0, 0, 0], "stateRewards": ["", -10, 10, 10, 10, 10, 10, -10, 10, -10, 10, 10, -10, 10, -10, -10, 10, 10, 10, -10, -10, 10, -10, 10, 10, -10, -10, 10, -10, -10, 10, 10, 10, -10], "withholdReward": false, "trial_id": "practice_2", "block": "test", "trialIndex": 1, "score": 29.5, "costs": -4, "simulationMode": [null, null, null, null, null], "rewards": [-10, 10, 10, 10, 10], "path": ["0", "0", "1", "2", "3", "4", "5"], "rt": [18055, 219, 150, 471, 1657], "actions": ["up", "up", "up", "right", "up"], "actionTimes": [23714, 24436, 25083, 26053, 28205], "queries": {"click": {"state": {"target": ["12", "23", "1", "24", "25", "10", "2", "3"], "time": [7681, 8704, 10936, 14065, 15318, 17564, 18818, 21146]}, "edge": {"target": [], "time": []}}, "mouseover": {"state": {"target": ["12", "12", "23", "1", "0", "23", "24", "25", "28", "10", "2", "10", "2", "3", "3", "3", "7"], "time": [7090, 7538, 8406, 9426, 12459, 12807, 13874, 15144, 15941, 16958, 17046, 17258, 18091, 19326, 20244, 20645, 22261]}, "edge": {"target": [], "time": []}}, "mouseout": {"state": {"target": ["11", "10", "1", "1", "12", "12", "23", "1", "0", "23", "24", "25", "28", "10", "2", "10", "2", "3", "3", "3", "7"], "time": [4887, 4954, 5119, 5185, 7171, 8323, 9205, 12174, 12757, 13825, 15083, 15861, 16924, 16991, 17230, 18025, 19241, 19976, 20509, 21910, 22545]}, "edge": {"target": [], "time": []}}}, "displayed_time": "28.72", "trialTime": 30727, "trial_type": "mouselab-mdp", "trial_index": 5, "time_elapsed": 291814, "internal_node_id": "0.0-2.0-2.0-1.0"}}, {"uniqueid": "w28494679:a14781965", "current_trial": 6, "dateTime": 1691142247384, "trialdata": {"view_history": [{"page_index": 0, "viewing_time": 28545}, {"page_index": 1, "viewing_time": 3570}], "rt": 32115, "trial_id": "mouselab_instructions_2_misaligned", "trial_type": "instructions", "trial_index": 6, "time_elapsed": 323933, "internal_node_id": "0.0-2.0-3.0"}}, {"uniqueid": "w28494679:a14781965", "current_trial": 7, "dateTime": 1691142281356, "trialdata": {"rt": 33967, "response": {"Q0": "There is no cost for clicking on nodes.", "Q1": "I will receive a $1 bonus if I perform well, otherwise I will receive no bonus.", "Q2": "No, the amount of cash at each node of the web may be different each time.", "Q3": "To get the highest total score.", "Q4": "Only before moving the spider.", "Q5": "3 seconds"}, "question_order": [0, 1, 2, 3, 4, 5], "correct": {"Q0": "The cost for clicking on nodes may vary between nodes.", "Q1": "The better I perform the higher my bonus will be.", "Q2": "No, the amount of cash at each node of the web may be different each time.", "Q3": "To get the highest total score.", "Q4": "Only before moving the spider.", "Q5": "3 seconds"}, "trial_id": "mouselab_quiz_misaligned", "trial_type": "survey-multi-choice", "trial_index": 7, "time_elapsed": 357904, "internal_node_id": "0.0-2.0-4.0"}}, {"uniqueid": "w28494679:a14781965", "current_trial": 8, "dateTime": 1691142289081, "trialdata": {"success": true, "trial_type": "fullscreen", "trial_index": 8, "time_elapsed": 365630, "internal_node_id": "0.0-2.1-0.1"}}, {"uniqueid": "w28494679:a14781965", "current_trial": 9, "dateTime": 1691142364435, "trialdata": {"view_history": [{"page_index": 0, "viewing_time": 58457}, {"page_index": 1, "viewing_time": 10437}, {"page_index": 2, "viewing_time": 2323}, {"page_index": 3, "viewing_time": 3922}], "rt": 75139, "trial_id": "mouselab_instructions_1_misaligned", "trial_type": "instructions", "trial_index": 9, "time_elapsed": 440984, "internal_node_id": "0.0-2.1-1.1"}}, {"uniqueid": "w28494679:a14781965", "current_trial": 10, "dateTime": 1691142376329, "trialdata": {"revealed_states": [], "clicked_states": [], "num_clicks_accrued": [0, 0, 0, 0, 0, 0, 0, 0, 0, 0, 0, 0, 0], "stateRewards": ["", 10, -10, 10, 10, 10, -10, -10, -10, 10, -10, -10, 10, -10, 10, 10, -10, -10, 10, -10, 10, -10, -10, -10, 10, -10, 10, -10, -10, 10, -10, -10, 10, -10], "withholdReward": false, "trial_id": "practice_1", "block": "test", "trialIndex": 2, "score": -6.5, "costs": 0, "simulationMode": [null, null, null, null, null], "rewards": [-10, 10, -10, -10, 10], "path": ["0", "0", "23", "24", "25", "30", "32"], "rt": [1076, 28, 1419, 852, 1526], "actions": ["left", "left", "left", "down", "down"], "actionTimes": [3645, 4171, 6095, 7445, 9473], "queries": {"click": {"state": {"target": [], "time": []}, "edge": {"target": [], "time": []}}, "mouseover": {"state": {"target": [], "time": []}, "edge": {"target": [], "time": []}}, "mouseout": {"state": {"target": ["0"], "time": [1856]}, "edge": {"target": [], "time": []}}}, "displayed_time": "9.98", "trialTime": 11340, "trial_type": "mouselab-mdp", "trial_index": 10, "time_elapsed": 452877, "internal_node_id": "0.0-2.1-2.1-0.1"}}, {"uniqueid": "w28494679:a14781965", "current_trial": 11, "dateTime": 1691142387362, "trialdata": {"revealed_states": [], "clicked_states": [], "num_clicks_accrued": [0, 0, 0, 0, 0, 0, 0, 0, 0, 0, 0, 0, 0], "stateRewards": ["", -10, 10, 10, 10, 10, 10, -10, 10, -10, 10, 10, -10, 10, -10, -10, 10, 10, 10, -10, -10, 10, -10, 10, 10, -10, -10, 10, -10, -10, 10, 10, 10, -10], "withholdReward": false, "trial_id": "practice_2", "block": "test", "trialIndex": 3, "score": 33.5, "costs": 0, "simulationMode": [null, null, null, null, null], "rewards": [-10, 10, 10, 10, 10], "path": ["0", "0", "1", "2", "3", "8", "10"], "rt": [2793, 700, 346, 557, 191], "actions": ["up", "up", "up", "left", "down"], "actionTimes": [5294, 6498, 7346, 8409, 9108], "queries": {"click": {"state": {"target": [], "time": []}, "edge": {"target": [], "time": []}}, "mouseover": {"state": {"target": [], "time": []}, "edge": {"target": [], "time": []}}, "mouseout": {"state": {"target": [], "time": []}, "edge": {"target": [], "time": []}}}, "displayed_time": "9.62", "trialTime": 10543, "trial_type": "mouselab-mdp", "trial_index": 11, "time_elapsed": 463910, "internal_node_id": "0.0-2.1-2.1-1.1"}}, {"uniqueid": "w28494679:a14781965", "current_trial": 12, "dateTime": 1691142395006, "trialdata": {"view_history": [{"page_index": 0, "viewing_time": 5967}, {"page_index": 1, "viewing_time": 1673}], "rt": 7641, "trial_id": "mouselab_instructions_2_misaligned", "trial_type": "instructions", "trial_index": 12, "time_elapsed": 471555, "internal_node_id": "0.0-2.1-3.1"}}, {"uniqueid": "w28494679:a14781965", "current_trial": 13, "dateTime": 1691142411258, "trialdata": {"rt": 16249, "response": {"Q0": "There is no cost for clicking on nodes.", "Q1": "The better I perform the higher my bonus will be.", "Q2": "No, the amount of cash at each node of the web may be different each time.", "Q3": "To get the highest total score.", "Q4": "Only before moving the spider.", "Q5": "3 seconds"}, "question_order": [0, 1, 2, 3, 4, 5], "correct": {"Q0": "The cost for clicking on nodes may vary between nodes.", "Q1": "The better I perform the higher my bonus will be.", "Q2": "No, the amount of cash at each node of the web may be different each time.", "Q3": "To get the highest total score.", "Q4": "Only before moving the spider.", "Q5": "3 seconds"}, "trial_id": "mouselab_quiz_misaligned", "trial_type": "survey-multi-choice", "trial_index": 13, "time_elapsed": 487807, "internal_node_id": "0.0-2.1-4.1"}}, {"uniqueid": "w28494679:a14781965", "current_trial": 14, "dateTime": 1691142501950, "trialdata": {"success": true, "trial_type": "fullscreen", "trial_index": 14, "time_elapsed": 578499, "internal_node_id": "0.0-2.2-0.2"}}, {"uniqueid": "w28494679:a14781965", "current_trial": 15, "dateTime": 1691142524864, "trialdata": {"view_history": [{"page_index": 0, "viewing_time": 3320}, {"page_index": 1, "viewing_time": 16922}, {"page_index": 2, "viewing_time": 1865}, {"page_index": 3, "viewing_time": 803}], "rt": 22911, "trial_id": "mouselab_instructions_1_misaligned", "trial_type": "instructions", "trial_index": 15, "time_elapsed": 601412, "internal_node_id": "0.0-2.2-1.2"}}, {"uniqueid": "w28494679:a14781965", "current_trial": 16, "dateTime": 1691142532162, "trialdata": {"revealed_states": [], "clicked_states": [], "num_clicks_accrued": [0, 0, 0, 0, 0, 0, 0, 0, 0, 0, 0, 0, 0], "stateRewards": ["", 10, -10, 10, 10, 10, -10, -10, -10, 10, -10, -10, 10, -10, 10, 10, -10, -10, 10, -10, 10, -10, -10, -10, 10, -10, 10, -10, -10, 10, -10, -10, 10, -10], "withholdReward": false, "trial_id": "practice_1", "block": "test", "trialIndex": 4, "score": -6.5, "costs": 0, "simulationMode": [null, null, null, null, null], "rewards": [10, -10, 10, -10, -10], "path": ["0", "0", "12", "13", "14", "19", "21"], "rt": [927, 9, 149, 234, 33], "actions": ["right", "right", "right", "down", "down"], "actionTimes": [2226, 2737, 3409, 4144, 4680], "queries": {"click": {"state": {"target": [], "time": []}, "edge": {"target": [], "time": []}}, "mouseover": {"state": {"target": [], "time": []}, "edge": {"target": [], "time": []}}, "mouseout": {"state": {"target": ["0"], "time": [675]}, "edge": {"target": [], "time": []}}}, "displayed_time": "5.18", "trialTime": 6830, "trial_type": "mouselab-mdp", "trial_index": 16, "time_elapsed": 608710, "internal_node_id": "0.0-2.2-2.2-0.2"}}, {"uniqueid": "w28494679:a14781965", "current_trial": 17, "dateTime": 1691142538626, "trialdata": {"revealed_states": [], "clicked_states": [], "num_clicks_accrued": [0, 0, 0, 0, 0, 0, 0, 0, 0, 0, 0, 0, 0], "stateRewards": ["", -10, 10, 10, 10, 10, 10, -10, 10, -10, 10, 10, -10, 10, -10, -10, 10, 10, 10, -10, -10, 10, -10, 10, 10, -10, -10, 10, -10, -10, 10, 10, 10, -10], "withholdReward": false, "trial_id": "practice_2", "block": "test", "trialIndex": 5, "score": 33.5, "costs": 0, "simulationMode": [null, null, null, null, null], "rewards": [-10, 10, 10, 10, 10], "path": ["0", "0", "1", "2", "3", "8", "11"], "rt": [1153, 118, 185, 399, 273], "actions": ["up", "up", "up", "left", "left"], "actionTimes": [1713, 2336, 3048, 3947, 4725], "queries": {"click": {"state": {"target": [], "time": []}, "edge": {"target": [], "time": []}}, "mouseover": {"state": {"target": [], "time": []}, "edge": {"target": [], "time": []}}, "mouseout": {"state": {"target": ["0"], "time": [265]}, "edge": {"target": [], "time": []}}}, "displayed_time": "5.22", "trialTime": 6000, "trial_type": "mouselab-mdp", "trial_index": 17, "time_elapsed": 615174, "internal_node_id": "0.0-2.2-2.2-1.2"}}, {"uniqueid": "w28494679:a14781965", "current_trial": 18, "dateTime": 1691142543325, "trialdata": {"view_history": [{"page_index": 0, "viewing_time": 3276}, {"page_index": 1, "viewing_time": 1420}], "rt": 4696, "trial_id": "mouselab_instructions_2_misaligned", "trial_type": "instructions", "trial_index": 18, "time_elapsed": 619874, "internal_node_id": "0.0-2.2-3.2"}}, {"uniqueid": "w28494679:a14781965", "current_trial": 19, "dateTime": 1691142556077, "trialdata": {"rt": 12749, "response": {"Q0": "The cost for clicking on nodes may vary between nodes.", "Q1": "The better I perform the higher my bonus will be.", "Q2": "No, the amount of cash at each node of the web may be different each time.", "Q3": "To get the highest total score.", "Q4": "Only before moving the spider.", "Q5": "3 seconds"}, "question_order": [0, 1, 2, 3, 4, 5], "correct": {"Q0": "The cost for clicking on nodes may vary between nodes.", "Q1": "The better I perform the higher my bonus will be.", "Q2": "No, the amount of cash at each node of the web may be different each time.", "Q3": "To get the highest total score.", "Q4": "Only before moving the spider.", "Q5": "3 seconds"}, "trial_id": "mouselab_quiz_misaligned", "trial_type": "survey-multi-choice", "trial_index": 19, "time_elapsed": 632626, "internal_node_id": "0.0-2.2-4.2"}}, {"uniqueid": "w28494679:a14781965", "current_trial": 20, "dateTime": 1691142579517, "trialdata": {"rt": 23431, "stimulus": "\n<h1> Get ready to start the game! </h1>\n\nThank you for reading the instructions. Get ready start with the 40 rounds of this game.\n<br><br>\nIf you need to take a break, feel free to take one after the end of a round, before continuing to the next one.\n<br><br>\nRemember, the more money the spider gets, the bigger your bonus will be!\n<br><br>\n<div style='text-align: center;'>Press <code>space</code> to begin.</div>\n\n<br><br>\n(If, at any point, the <code>space</code> key does not take you to the next page, click once on the text and try again.)", "response": " ", "trial_id": "mdp_ready", "trial_type": "html-keyboard-response", "trial_index": 20, "time_elapsed": 656066, "internal_node_id": "0.0-4.0-0.0"}}, {"uniqueid": "w28494679:a14781965", "current_trial": 21, "dateTime": 1691142597550, "trialdata": {"revealed_states": [], "clicked_states": ["1"], "num_clicks_accrued": [0, 0, 0, 0, 0, 0, 0, 0, 0, 0, 0, 0, 0], "stateRewards": ["", -2, -4, 2, 10, -17, 18, 73, 11, -32, 23, -13, -2, -4, 7, 12, -25, 66, -23, 15, 40, -76, -9, 1, 2, -7, -5, -20, 24, 3, -5, 16, -73, 70], "withholdReward": false, "trial_id": "mdp_trial_1", "block": "test", "trialIndex": 6, "score": 79.25, "costs": 0.25, "simulationMode": [null, null, null, null, null], "rewards": [-2, -4, 2, 10, 73], "path": ["0", "0", "1", "2", "3", "4", "7"], "rt": [4023, 1041, 600, 846, 239], "actions": ["up", "up", "up", "right", "down"], "actionTimes": [5889, 7435, 8542, 9888, 10635], "queries": {"click": {"state": {"target": ["1"], "time": [4165]}, "edge": {"target": [], "time": []}}, "mouseover": {"state": {"target": ["23", "1", "1"], "time": [2859, 3155, 3455]}, "edge": {"target": [], "time": []}}, "mouseout": {"state": {"target": ["0", "23", "1"], "time": [2622, 3107, 3226]}, "edge": {"target": [], "time": []}}}, "displayed_time": "15.87", "trialTime": 17462, "trial_type": "mouselab-mdp", "trial_index": 21, "time_elapsed": 674098, "internal_node_id": "0.0-4.0-1.0-0.0"}}, {"uniqueid": "w28494679:a14781965", "current_trial": 22, "dateTime": 1691142614444, "trialdata": {"revealed_states": [], "clicked_states": [], "num_clicks_accrued": [0, 0, 0, 0, 0, 0, 0, 0, 0, 0, 0, 0, 0], "stateRewards": ["", -1, -3, -7, -4, -85, -70, 79, 8, 84, -66, 42, 2, -2, -3, -16, -54, -66, 68, -3, 21, -14, 7, -2, -1, -3, -8, 75, 80, 86, -7, -84, 73, -16], "withholdReward": false, "trial_id": "mdp_trial_2", "block": "test", "trialIndex": 7, "score": -20, "costs": 0, "simulationMode": [null, null, null, null, null], "rewards": [2, -2, -3, -3, -14], "path": ["0", "0", "12", "13", "14", "19", "21"], "rt": [1078, 55, 150, 151, 73], "actions": ["right", "right", "right", "down", "down"], "actionTimes": [2139, 2703, 3351, 4001, 4576], "queries": {"click": {"state": {"target": [], "time": []}, "edge": {"target": [], "time": []}}, "mouseover": {"state": {"target": [], "time": []}, "edge": {"target": [], "time": []}}, "mouseout": {"state": {"target": ["1"], "time": [560]}, "edge": {"target": [], "time": []}}}, "displayed_time": "15.07", "trialTime": 16222, "trial_type": "mouselab-mdp", "trial_index": 22, "time_elapsed": 690993, "internal_node_id": "0.0-4.0-1.0-1.0"}}, {"uniqueid": "w28494679:a14781965", "current_trial": 23, "dateTime": 1691142633393, "trialdata": {"revealed_states": [], "clicked_states": ["23"], "num_clicks_accrued": [0, 0, 0, 0, 0, 0, 0, 0, 0, 0, 0, 0, 0], "stateRewards": ["", -1, -2, -8, 8, -27, -82, 19, -14, -62, 4, 1, -2, 2, 6, 10, 73, -51, -2, 2, 73, -48, 54, -1, 2, -4, 11, -25, 47, 86, 15, 33, 43, -42], "withholdReward": false, "trial_id": "mdp_trial_3", "block": "test", "trialIndex": 8, "score": 55.25, "costs": 0.25, "simulationMode": [null, null, null, null, null], "rewards": [-1, 2, -4, 11, 47], "path": ["0", "0", "23", "24", "25", "26", "28"], "rt": [2256, 221, 157, 835, 157], "actions": ["left", "left", "left", "up", "right"], "actionTimes": [3970, 4694, 5350, 6693, 7350], "queries": {"click": {"state": {"target": ["23"], "time": [2704]}, "edge": {"target": [], "time": []}}, "mouseover": {"state": {"target": ["23", "0"], "time": [2260, 3476]}, "edge": {"target": [], "time": []}}, "mouseout": {"state": {"target": ["0", "23"], "time": [1397, 3426]}, "edge": {"target": [], "time": []}}}, "displayed_time": "15.72", "trialTime": 18408, "trial_type": "mouselab-mdp", "trial_index": 23, "time_elapsed": 709941, "internal_node_id": "0.0-4.0-1.0-2.0"}}, {"uniqueid": "w28494679:a14781965", "current_trial": 24, "dateTime": 1691142650974, "trialdata": {"revealed_states": [], "clicked_states": ["1"], "num_clicks_accrued": [0, 0, 0, 0, 0, 0, 0, 0, 0, 0, 0, 0, 0], "stateRewards": ["", -1, 3, 2, 9, 41, 4, -46, -12, -54, -87, -25, 2, 3, -1, 11, -77, 12, -33, -9, -32, 35, 72, 1, 3, -7, 4, 37, 65, -73, 6, 77, -43, 8], "withholdReward": false, "trial_id": "mdp_trial_4", "block": "test", "trialIndex": 9, "score": -32.75, "costs": 0.25, "simulationMode": [null, null, null, null, null], "rewards": [-1, 3, 2, -12, -25], "path": ["0", "0", "1", "2", "3", "8", "11"], "rt": [2027, 185, 126, 45, 71], "actions": ["up", "up", "up", "left", "left"], "actionTimes": [4129, 4822, 5450, 5997, 6589], "queries": {"click": {"state": {"target": ["1"], "time": [3026]}, "edge": {"target": [], "time": []}}, "mouseover": {"state": {"target": ["1", "2", "1"], "time": [2481, 2565, 2799]}, "edge": {"target": [], "time": []}}, "mouseout": {"state": {"target": ["0", "1", "0", "0", "1", "2"], "time": [348, 614, 679, 2399, 2517, 2733]}, "edge": {"target": [], "time": []}}}, "displayed_time": "16.11", "trialTime": 17007, "trial_type": "mouselab-mdp", "trial_index": 24, "time_elapsed": 727522, "internal_node_id": "0.0-4.0-1.0-3.0"}}, {"uniqueid": "w28494679:a14781965", "current_trial": 25, "dateTime": 1691142672591, "trialdata": {"revealed_states": [], "clicked_states": ["12", "13", "14"], "num_clicks_accrued": [0, 0, 0, 0, 0, 0, 0, 0, 0, 0, 0, 0, 0], "stateRewards": ["", 2, -1, -2, -5, -47, -57, -33, -11, 31, -18, -72, -2, 1, -4, -8, -46, -53, -50, 15, -85, -9, 39, -2, -2, 1, 14, -1, -8, 53, -12, -41, -74, 62], "withholdReward": false, "trial_id": "mdp_trial_5", "block": "test", "trialIndex": 10, "score": -60.05, "costs": -1.0499999999999998, "simulationMode": [null, null, null, null, null], "rewards": [-2, 1, -4, -8, -46], "path": ["0", "0", "12", "13", "14", "15", "16"], "rt": [6036, 99, 163, 1239, 62], "actions": ["right", "right", "right", "up", "up"], "actionTimes": [7417, 8027, 8690, 10430, 10990], "queries": {"click": {"state": {"target": ["12", "13", "14"], "time": [2018, 3639, 4710]}, "edge": {"target": [], "time": []}}, "mouseover": {"state": {"target": ["12", "13", "14"], "time": [1819, 3452, 4465]}, "edge": {"target": [], "time": []}}, "mouseout": {"state": {"target": ["1", "12", "13", "14", "13"], "time": [734, 3421, 4368, 19775, 19806]}, "edge": {"target": [], "time": []}}}, "displayed_time": "15.39", "trialTime": 21003, "trial_type": "mouselab-mdp", "trial_index": 25, "time_elapsed": 749139, "internal_node_id": "0.0-4.0-1.0-4.0"}}, {"uniqueid": "w28494679:a14781965", "current_trial": 26, "dateTime": 1691142690332, "trialdata": {"revealed_states": [], "clicked_states": [], "num_clicks_accrued": [0, 0, 0, 0, 0, 0, 0, 0, 0, 0, 0, 0, 0], "stateRewards": ["", 1, -2, 7, -14, 88, -56, -44, -14, 64, -51, -57, -2, 3, -4, -9, -11, 19, -77, -1, 68, 75, -67, -1, 1, -2, 5, -37, 70, -34, -10, -72, 63, -41], "withholdReward": false, "trial_id": "mdp_trial_6", "block": "test", "trialIndex": 11, "score": -64, "costs": 0, "simulationMode": [null, null, null, null, null], "rewards": [1, -2, 7, -14, -56], "path": ["0", "0", "1", "2", "3", "4", "6"], "rt": [935, 58, 110, 360, 371], "actions": ["up", "up", "up", "right", "right"], "actionTimes": [2325, 2882, 3501, 4369, 5244], "queries": {"click": {"state": {"target": [], "time": []}, "edge": {"target": [], "time": []}}, "mouseover": {"state": {"target": [], "time": []}, "edge": {"target": [], "time": []}}, "mouseout": {"state": {"target": ["0"], "time": [739]}, "edge": {"target": [], "time": []}}}, "displayed_time": "15.39", "trialTime": 16939, "trial_type": "mouselab-mdp", "trial_index": 26, "time_elapsed": 766880, "internal_node_id": "0.0-4.0-1.0-5.0"}}, {"uniqueid": "w28494679:a14781965", "current_trial": 27, "dateTime": 1691142710690, "trialdata": {"revealed_states": [], "clicked_states": [], "num_clicks_accrued": [0, 0, 0, 0, 0, 0, 0, 0, 0, 0, 0, 0, 0], "stateRewards": ["", -2, -1, -5, 10, -36, -70, 68, -9, 86, 71, -10, 2, -4, 7, -7, 66, 44, -66, -13, -69, 43, 15, -2, 2, 6, -13, 62, 57, 50, -10, -69, 42, -72], "withholdReward": false, "trial_id": "mdp_trial_7", "block": "test", "trialIndex": 12, "score": 38, "costs": 0, "simulationMode": [null, null, null, null, null], "rewards": [-2, 2, 6, -10, 42], "path": ["0", "0", "23", "24", "25", "30", "32"], "rt": [906, 126, 99, 94, 704], "actions": ["left", "left", "left", "down", "down"], "actionTimes": [2036, 2671, 3277, 3875, 5083], "queries": {"click": {"state": {"target": [], "time": []}, "edge": {"target": [], "time": []}}, "mouseover": {"state": {"target": [], "time": []}, "edge": {"target": [], "time": []}}, "mouseout": {"state": {"target": ["0", "0", "0"], "time": [136, 190, 576]}, "edge": {"target": [], "time": []}}}, "displayed_time": "15.13", "trialTime": 19662, "trial_type": "mouselab-mdp", "trial_index": 27, "time_elapsed": 787238, "internal_node_id": "0.0-4.0-1.0-6.0"}}, {"uniqueid": "w28494679:a14781965", "current_trial": 28, "dateTime": 1691142730660, "trialdata": {"revealed_states": [], "clicked_states": ["25", "30"], "num_clicks_accrued": [0, 0, 0, 0, 0, 0, 0, 0, 0, 0, 0, 0, 0], "stateRewards": ["", 2, -3, -2, 14, -4, 85, 46, 15, -28, 41, 31, -1, -1, -1, 5, 62, 79, 57, 12, -73, -64, 86, -1, 1, -3, -5, 68, 11, -32, 8, -80, -21, -56], "withholdReward": false, "trial_id": "mdp_trial_8", "block": "test", "trialIndex": 13, "score": 93.5, "costs": -2.5, "simulationMode": [null, null, null, null, null], "rewards": [2, -3, -2, 14, 85], "path": ["0", "0", "1", "2", "3", "4", "6"], "rt": [3825, 124, 136, 21, 82], "actions": ["up", "up", "up", "right", "right"], "actionTimes": [4787, 5407, 6051, 6572, 7163], "queries": {"click": {"state": {"target": ["25", "30"], "time": [1945, 3018]}, "edge": {"target": [], "time": []}}, "mouseover": {"state": {"target": ["23", "24", "25", "30"], "time": [1529, 1547, 1913, 2895]}, "edge": {"target": [], "time": []}}, "mouseout": {"state": {"target": ["0", "23", "24", "25", "30"], "time": [1516, 1544, 1596, 2783, 3030]}, "edge": {"target": [], "time": []}}}, "displayed_time": "14.97", "trialTime": 19292, "trial_type": "mouselab-mdp", "trial_index": 28, "time_elapsed": 807208, "internal_node_id": "0.0-4.0-1.0-7.0"}}, {"uniqueid": "w28494679:a14781965", "current_trial": 29, "dateTime": 1691142753727, "trialdata": {"revealed_states": [], "clicked_states": ["14", "25", "3"], "num_clicks_accrued": [0, 0, 0, 0, 0, 0, 0, 0, 0, 0, 0, 0, 0], "stateRewards": ["", 2, 4, -3, 16, -58, 30, -35, 11, -60, 47, 27, -2, -1, -7, -16, 23, -70, 68, -10, -65, -43, -34, -2, 1, 7, 9, -63, 34, -31, -8, -12, -86, 59], "withholdReward": false, "trial_id": "mdp_trial_9", "block": "test", "trialIndex": 14, "score": 58.15, "costs": -2.8499999999999996, "simulationMode": [null, null, null, null, null], "rewards": [2, 4, -3, 11, 47], "path": ["0", "0", "1", "2", "3", "8", "10"], "rt": [7770, 310, 199, 755, 202], "actions": ["up", "up", "up", "left", "down"], "actionTimes": [9738, 10548, 11258, 12512, 13207], "queries": {"click": {"state": {"target": ["14", "25", "3"], "time": [2802, 4226, 5630]}, "edge": {"target": [], "time": []}}, "mouseover": {"state": {"target": ["12", "14", "13", "30", "25", "28", "2", "3", "2"], "time": [2370, 2683, 3652, 3768, 4085, 5170, 5247, 5519, 6137]}, "edge": {"target": [], "time": []}}, "mouseout": {"state": {"target": ["30", "31", "0", "12", "14", "13", "30", "25", "28", "2", "3", "2"], "time": [84, 113, 1382, 2385, 3637, 3670, 3850, 5136, 5186, 5284, 6123, 6154]}, "edge": {"target": [], "time": []}}}, "displayed_time": "15.97", "trialTime": 22341, "trial_type": "mouselab-mdp", "trial_index": 29, "time_elapsed": 830275, "internal_node_id": "0.0-4.0-1.0-8.0"}}, {"uniqueid": "w28494679:a14781965", "current_trial": 30, "dateTime": 1691142774785, "trialdata": {"revealed_states": [], "clicked_states": [], "num_clicks_accrued": [0, 0, 0, 0, 0, 0, 0, 0, 0, 0, 0, 0, 0], "stateRewards": ["", -2, 2, 5, -14, -56, 64, 84, -5, 52, 39, 85, -2, 1, 7, 8, 21, 29, -78, -9, -10, -69, 10, -2, -1, -7, 15, 72, 20, 41, -2, 52, 80, 22], "withholdReward": false, "trial_id": "mdp_trial_10", "block": "test", "trialIndex": 15, "score": 75, "costs": 0, "simulationMode": [null, null, null, null, null], "rewards": [-2, 2, 5, -14, 84], "path": ["0", "0", "1", "2", "3", "4", "7"], "rt": [861, 18, 44, 629, 23], "actions": ["up", "up", "up", "right", "down"], "actionTimes": [2868, 3384, 3941, 5080, 5605], "queries": {"click": {"state": {"target": [], "time": []}, "edge": {"target": [], "time": []}}, "mouseover": {"state": {"target": [], "time": []}, "edge": {"target": [], "time": []}}, "mouseout": {"state": {"target": ["0"], "time": [2035]}, "edge": {"target": [], "time": []}}}, "displayed_time": "16.01", "trialTime": 20352, "trial_type": "mouselab-mdp", "trial_index": 30, "time_elapsed": 851333, "internal_node_id": "0.0-4.0-1.0-9.0"}}, {"uniqueid": "w28494679:a14781965", "current_trial": 31, "dateTime": 1691142803117, "trialdata": {"revealed_states": [], "clicked_states": [], "num_clicks_accrued": [0, 0, 0, 0, 0, 0, 0, 0, 0, 0, 0, 0, 0], "stateRewards": ["", -1, 4, -3, 3, 57, -61, 5, -11, 23, -1, 34, -2, -4, -1, -13, 27, 38, -36, 4, -45, 21, 88, 1, -2, -1, 1, -69, -5, -78, -12, -9, 38, -54], "withholdReward": false, "trial_id": "mdp_trial_11", "block": "test", "trialIndex": 16, "score": -56, "costs": 0, "simulationMode": [null, null, null, null, null], "rewards": [-2, -4, -1, -13, -36], "path": ["0", "0", "12", "13", "14", "15", "18"], "rt": [1697, 336, 296, 1077, 216], "actions": ["right", "right", "right", "up", "left"], "actionTimes": [2752, 3591, 4386, 5962, 6685], "queries": {"click": {"state": {"target": [], "time": []}, "edge": {"target": [], "time": []}}, "mouseover": {"state": {"target": [], "time": []}, "edge": {"target": [], "time": []}}, "mouseout": {"state": {"target": ["0", "0"], "time": [735, 26895]}, "edge": {"target": [], "time": []}}}, "displayed_time": "15.06", "trialTime": 27560, "trial_type": "mouselab-mdp", "trial_index": 31, "time_elapsed": 879665, "internal_node_id": "0.0-4.0-1.0-10.0"}}, {"uniqueid": "w28494679:a14781965", "current_trial": 32, "dateTime": 1691142822911, "trialdata": {"revealed_states": [], "clicked_states": [], "num_clicks_accrued": [0, 0, 0, 0, 0, 0, 0, 0, 0, 0, 0, 0, 0], "stateRewards": ["", 1, -1, 4, 5, -32, 18, 20, 6, -88, -74, 9, -2, 1, -2, -14, 34, -77, -38, -1, 80, -36, 73, 2, 3, -8, 10, -48, -73, -71, -11, -22, 20, 54], "withholdReward": false, "trial_id": "mdp_trial_12", "block": "test", "trialIndex": 17, "score": 68, "costs": 0, "simulationMode": [null, null, null, null, null, null, null, null, null, null, null, null], "rewards": [-2, -2, 1, 1, -2, -1, 73], "path": ["0", "0", "12", "12", "13", "13", "14", "19", "22"], "rt": [1683, 1642, 859, 362, 646, 147, 697, 197, 730, 231, 107, 133], "actions": ["right", "right", "right", "right", "right", "right", "right", "right", "right", "right", "down", "left"], "actionTimes": [1643, 1647, 2509, 2511, 3160, 3162, 3862, 3864, 4597, 4599, 5208, 5832], "queries": {"click": {"state": {"target": [], "time": []}, "edge": {"target": [], "time": []}}, "mouseover": {"state": {"target": [], "time": []}, "edge": {"target": [], "time": []}}, "mouseout": {"state": {"target": ["0"], "time": [null]}, "edge": {"target": [], "time": []}}}, "displayed_time": "13.97", "trialTime": 18508, "trial_type": "mouselab-mdp", "trial_index": 32, "time_elapsed": 899459, "internal_node_id": "0.0-4.0-1.0-11.0"}}, {"uniqueid": "w28494679:a14781965", "current_trial": 33, "dateTime": 1691142843790, "trialdata": {"revealed_states": [], "clicked_states": [], "num_clicks_accrued": [0, 0, 0, 0, 0, 0, 0, 0, 0, 0, 0, 0, 0], "stateRewards": ["", 2, 3, 3, 10, 19, -21, 6, 9, 54, 68, 16, 2, 2, -6, -8, 40, -2, -75, -2, -42, 55, 59, -1, 2, 4, -14, 11, -34, -30, -6, 61, -53, 13], "withholdReward": false, "trial_id": "mdp_trial_13", "block": "test", "trialIndex": 18, "score": -54, "costs": 0, "simulationMode": [null, null, null, null, null], "rewards": [-1, 2, 4, -6, -53], "path": ["0", "0", "23", "24", "25", "30", "32"], "rt": [759, 687, 211, 183, 365], "actions": ["left", "left", "left", "down", "down"], "actionTimes": [4259, 5446, 6153, 6842, 7710], "queries": {"click": {"state": {"target": [], "time": []}, "edge": {"target": [], "time": []}}, "mouseover": {"state": {"target": [], "time": []}, "edge": {"target": [], "time": []}}, "mouseout": {"state": {"target": ["0"], "time": [2982]}, "edge": {"target": [], "time": []}}}, "displayed_time": "17.50", "trialTime": 20140, "trial_type": "mouselab-mdp", "trial_index": 33, "time_elapsed": 920339, "internal_node_id": "0.0-4.0-1.0-12.0"}}, {"uniqueid": "w28494679:a14781965", "current_trial": 34, "dateTime": 1691142860019, "trialdata": {"revealed_states": [], "clicked_states": [], "num_clicks_accrued": [0, 0, 0, 0, 0, 0, 0, 0, 0, 0, 0, 0, 0], "stateRewards": ["", 1, 4, 5, 8, -55, -11, 8, 16, -37, 77, -22, -2, 3, -8, -10, 45, 87, -67, 4, 17, -33, -22, -1, -3, 7, 6, -39, -85, 75, -1, 7, -48, 45], "withholdReward": false, "trial_id": "mdp_trial_14", "block": "test", "trialIndex": 19, "score": 9, "costs": 0, "simulationMode": [null, null, null, null, null], "rewards": [-1, -3, 7, -1, 7], "path": ["0", "0", "23", "24", "25", "30", "31"], "rt": [714, 795, 185, 140, 255], "actions": ["left", "left", "left", "down", "right"], "actionTimes": [1581, 2880, 3570, 4208, 4970], "queries": {"click": {"state": {"target": [], "time": []}, "edge": {"target": [], "time": []}}, "mouseover": {"state": {"target": [], "time": []}, "edge": {"target": [], "time": []}}, "mouseout": {"state": {"target": ["0"], "time": [511]}, "edge": {"target": [], "time": []}}}, "displayed_time": "14.87", "trialTime": 15434, "trial_type": "mouselab-mdp", "trial_index": 34, "time_elapsed": 936567, "internal_node_id": "0.0-4.0-1.0-13.0"}}, {"uniqueid": "w28494679:a14781965", "current_trial": 35, "dateTime": 1691142877712, "trialdata": {"revealed_states": [], "clicked_states": [], "num_clicks_accrued": [0, 0, 0, 0, 0, 0, 0, 0, 0, 0, 0, 0, 0], "stateRewards": ["", 2, -1, 1, 10, -52, 86, -22, -2, -14, -63, 38, 1, 3, 7, -8, 11, -32, -27, 9, -71, 40, -87, -2, -1, 5, -7, 12, 31, -57, 13, 86, -58, 29], "withholdReward": false, "trial_id": "mdp_trial_15", "block": "test", "trialIndex": 20, "score": 44, "costs": 0, "simulationMode": [null, null, null, null, null], "rewards": [-2, -1, 5, 13, 29], "path": ["0", "0", "23", "24", "25", "30", "33"], "rt": [702, 235, 209, 120, 143], "actions": ["left", "left", "left", "down", "left"], "actionTimes": [1794, 2535, 3246, 3869, 4512], "queries": {"click": {"state": {"target": [], "time": []}, "edge": {"target": [], "time": []}}, "mouseover": {"state": {"target": [], "time": []}, "edge": {"target": [], "time": []}}, "mouseout": {"state": {"target": ["0"], "time": [136]}, "edge": {"target": [], "time": []}}}, "displayed_time": "15.10", "trialTime": 17056, "trial_type": "mouselab-mdp", "trial_index": 35, "time_elapsed": 954261, "internal_node_id": "0.0-4.0-1.0-14.0"}}, {"uniqueid": "w28494679:a14781965", "current_trial": 36, "dateTime": 1691142893963, "trialdata": {"revealed_states": [], "clicked_states": [], "num_clicks_accrued": [0, 0, 0, 0, 0, 0, 0, 0, 0, 0, 0, 0, 0], "stateRewards": ["", -2, -3, -3, 9, 79, 67, 22, -15, -56, 27, -85, -2, 4, -4, -15, -20, -32, 60, 15, 71, 57, 17, 1, 2, -8, 15, -37, -81, 82, 15, 21, -3, 2], "withholdReward": false, "trial_id": "mdp_trial_16", "block": "test", "trialIndex": 21, "score": -27, "costs": 0, "simulationMode": [null, null, null, null, null], "rewards": [1, 2, -8, 15, -37], "path": ["0", "0", "23", "24", "25", "26", "27"], "rt": [1137, 494, 42, 1352, 453], "actions": ["left", "left", "left", "up", "up"], "actionTimes": [2270, 3268, 3814, 5688, 6641], "queries": {"click": {"state": {"target": [], "time": []}, "edge": {"target": [], "time": []}}, "mouseover": {"state": {"target": [], "time": []}, "edge": {"target": [], "time": []}}, "mouseout": {"state": {"target": [], "time": []}, "edge": {"target": [], "time": []}}}, "displayed_time": "15.14", "trialTime": 15466, "trial_type": "mouselab-mdp", "trial_index": 36, "time_elapsed": 970511, "internal_node_id": "0.0-4.0-1.0-15.0"}}, {"uniqueid": "w28494679:a14781965", "current_trial": 37, "dateTime": 1691142910458, "trialdata": {"revealed_states": [], "clicked_states": [], "num_clicks_accrued": [0, 0, 0, 0, 0, 0, 0, 0, 0, 0, 0, 0, 0], "stateRewards": ["", -2, 2, -5, -6, 10, -66, -58, -10, -11, -63, -70, -1, -4, -5, 7, 66, -64, -43, -3, 45, -37, 4, -2, -2, -6, -4, -30, 33, 43, 15, -32, -65, -59], "withholdReward": false, "trial_id": "mdp_trial_17", "block": "test", "trialIndex": 22, "score": 19, "costs": 0, "simulationMode": [null, null, null, null, null], "rewards": [-2, -2, -6, -4, 33], "path": ["0", "0", "23", "24", "25", "26", "28"], "rt": [937, 402, 23, 681, 311], "actions": ["left", "left", "left", "up", "right"], "actionTimes": [1849, 2763, 3290, 4469, 5283], "queries": {"click": {"state": {"target": [], "time": []}, "edge": {"target": [], "time": []}}, "mouseover": {"state": {"target": [], "time": []}, "edge": {"target": [], "time": []}}, "mouseout": {"state": {"target": [], "time": []}, "edge": {"target": [], "time": []}}}, "displayed_time": "14.92", "trialTime": 15658, "trial_type": "mouselab-mdp", "trial_index": 37, "time_elapsed": 987006, "internal_node_id": "0.0-4.0-1.0-16.0"}}, {"uniqueid": "w28494679:a14781965", "current_trial": 38, "dateTime": 1691142927825, "trialdata": {"revealed_states": [], "clicked_states": [], "num_clicks_accrued": [0, 0, 0, 0, 0, 0, 0, 0, 0, 0, 0, 0, 0], "stateRewards": ["", 1, 1, -5, 10, -31, 73, 14, -8, -23, 63, -70, -1, 2, 8, 7, 25, -59, 27, -10, -40, -71, -15, -2, 3, -8, -5, -19, 77, -34, 7, 67, 63, 19], "withholdReward": false, "trial_id": "mdp_trial_18", "block": "test", "trialIndex": 23, "score": -46, "costs": 0, "simulationMode": [null, null, null, null, null], "rewards": [-2, 3, -8, -5, -34], "path": ["0", "0", "23", "24", "25", "26", "29"], "rt": [823, 118, 76, 543, 650], "actions": ["left", "left", "left", "up", "left"], "actionTimes": [2839, 3461, 4038, 5083, 6238], "queries": {"click": {"state": {"target": [], "time": []}, "edge": {"target": [], "time": []}}, "mouseover": {"state": {"target": [], "time": []}, "edge": {"target": [], "time": []}}, "mouseout": {"state": {"target": [], "time": []}, "edge": {"target": [], "time": []}}}, "displayed_time": "16.02", "trialTime": 16506, "trial_type": "mouselab-mdp", "trial_index": 38, "time_elapsed": 1004373, "internal_node_id": "0.0-4.0-1.0-17.0"}}, {"uniqueid": "w28494679:a14781965", "current_trial": 39, "dateTime": 1691142948080, "trialdata": {"revealed_states": [], "clicked_states": [], "num_clicks_accrued": [0, 0, 0, 0, 0, 0, 0, 0, 0, 0, 0, 0, 0], "stateRewards": ["", 1, -2, -3, 14, -42, -87, -37, -11, -50, 33, -44, -2, 4, -7, 13, 48, -75, -66, 12, 23, -2, 82, 1, -4, 3, 12, 51, -15, -26, -11, -52, -29, 82], "withholdReward": false, "trial_id": "mdp_trial_19", "block": "test", "trialIndex": 24, "score": 56, "costs": 0, "simulationMode": [null, null, null, null, null], "rewards": [-2, 4, -7, 13, 48], "path": ["0", "0", "12", "13", "14", "15", "16"], "rt": [2480, 899, 58, 1018, 54], "actions": ["right", "right", "right", "up", "up"], "actionTimes": [3972, 5371, 5932, 7457, 8011], "queries": {"click": {"state": {"target": [], "time": []}, "edge": {"target": [], "time": []}}, "mouseover": {"state": {"target": [], "time": []}, "edge": {"target": [], "time": []}}, "mouseout": {"state": {"target": ["0"], "time": [13054]}, "edge": {"target": [], "time": []}}}, "displayed_time": "15.50", "trialTime": 19434, "trial_type": "mouselab-mdp", "trial_index": 39, "time_elapsed": 1024628, "internal_node_id": "0.0-4.0-1.0-18.0"}}, {"uniqueid": "w28494679:a14781965", "current_trial": 40, "dateTime": 1691142967145, "trialdata": {"revealed_states": [], "clicked_states": [], "num_clicks_accrued": [0, 0, 0, 0, 0, 0, 0, 0, 0, 0, 0, 0, 0], "stateRewards": ["", -1, -4, -1, -5, -28, -23, -15, -15, -38, 59, -87, 2, 2, -5, 9, -55, -39, -71, -6, 85, -85, -11, -1, -2, 5, -10, 1, 25, 41, -4, 69, -35, 86], "withholdReward": false, "trial_id": "mdp_trial_20", "block": "test", "trialIndex": 25, "score": -63, "costs": 0, "simulationMode": [null, null, null, null, null], "rewards": [2, 2, -5, 9, -71], "path": ["0", "0", "12", "13", "14", "15", "18"], "rt": [837, 10, 40, 1032, 399], "actions": ["right", "right", "right", "up", "left"], "actionTimes": [2110, 2629, 3188, 4730, 5644], "queries": {"click": {"state": {"target": [], "time": []}, "edge": {"target": [], "time": []}}, "mouseover": {"state": {"target": [], "time": []}, "edge": {"target": [], "time": []}}, "mouseout": {"state": {"target": ["0"], "time": [926]}, "edge": {"target": [], "time": []}}}, "displayed_time": "15.28", "trialTime": 18218, "trial_type": "mouselab-mdp", "trial_index": 40, "time_elapsed": 1043693, "internal_node_id": "0.0-4.0-1.0-19.0"}}, {"uniqueid": "w28494679:a14781965", "current_trial": 41, "dateTime": 1691142984405, "trialdata": {"revealed_states": [], "clicked_states": [], "num_clicks_accrued": [0, 0, 0, 0, 0, 0, 0, 0, 0, 0, 0, 0, 0], "stateRewards": ["", -2, -3, -7, 7, -54, -69, -4, -14, -77, 22, 40, -2, -1, 5, 6, -35, 50, -60, 10, -28, 75, 57, 1, -4, -2, 2, 68, 34, -18, 12, 3, -21, -43], "withholdReward": false, "trial_id": "mdp_trial_21", "block": "test", "trialIndex": 26, "score": 58, "costs": 0, "simulationMode": [null, null, null, null, null], "rewards": [-2, -1, 5, 6, 50], "path": ["0", "0", "12", "13", "14", "15", "17"], "rt": [531, 60, 65, 661, 166], "actions": ["right", "right", "right", "up", "right"], "actionTimes": [1982, 2548, 3119, 4282, 4955], "queries": {"click": {"state": {"target": [], "time": []}, "edge": {"target": [], "time": []}}, "mouseover": {"state": {"target": [], "time": []}, "edge": {"target": [], "time": []}}, "mouseout": {"state": {"target": ["0"], "time": [993]}, "edge": {"target": [], "time": []}}}, "displayed_time": "15.46", "trialTime": 16411, "trial_type": "mouselab-mdp", "trial_index": 41, "time_elapsed": 1060953, "internal_node_id": "0.0-4.0-1.0-20.0"}}, {"uniqueid": "w28494679:a14781965", "current_trial": 42, "dateTime": 1691143001353, "trialdata": {"revealed_states": [], "clicked_states": [], "num_clicks_accrued": [0, 0, 0, 0, 0, 0, 0, 0, 0, 0, 0, 0, 0], "stateRewards": ["", 2, -3, -5, 5, 11, -9, -33, 6, 67, 6, -30, -1, -2, -6, 13, 55, 13, 72, -14, 75, 21, -66, -2, -4, 6, 15, -1, -35, 60, 2, 51, -73, 12], "withholdReward": false, "trial_id": "mdp_trial_22", "block": "test", "trialIndex": 27, "score": -2, "costs": 0, "simulationMode": [null, null, null, null, null], "rewards": [-1, -2, -6, -14, 21], "path": ["0", "0", "12", "13", "14", "19", "21"], "rt": [734, 507, 119, 156, 458], "actions": ["right", "right", "right", "down", "down"], "actionTimes": [2405, 3411, 4035, 4690, 5657], "queries": {"click": {"state": {"target": [], "time": []}, "edge": {"target": [], "time": []}}, "mouseover": {"state": {"target": [], "time": []}, "edge": {"target": [], "time": []}}, "mouseout": {"state": {"target": ["0"], "time": [1183]}, "edge": {"target": [], "time": []}}}, "displayed_time": "15.68", "trialTime": 16061, "trial_type": "mouselab-mdp", "trial_index": 42, "time_elapsed": 1077901, "internal_node_id": "0.0-4.0-1.0-21.0"}}, {"uniqueid": "w28494679:a14781965", "current_trial": 43, "dateTime": 1691143019699, "trialdata": {"revealed_states": [], "clicked_states": [], "num_clicks_accrued": [0, 0, 0, 0, 0, 0, 0, 0, 0, 0, 0, 0, 0], "stateRewards": ["", -1, 4, 3, 12, -27, 34, -33, 3, -63, 1, 6, 2, 2, -6, -11, -77, -85, 68, -6, 51, 81, -60, -2, -2, 1, 15, 20, 15, 68, -10, -14, 6, -4], "withholdReward": false, "trial_id": "mdp_trial_23", "block": "test", "trialIndex": 28, "score": -68, "costs": 0, "simulationMode": [null, null, null, null, null], "rewards": [2, 2, -6, -6, -60], "path": ["0", "0", "12", "13", "14", "19", "22"], "rt": [767, 4, 90, 373, 2259], "actions": ["right", "right", "right", "down", "left"], "actionTimes": [2164, 2676, 3279, 4145, 6901], "queries": {"click": {"state": {"target": [], "time": []}, "edge": {"target": [], "time": []}}, "mouseover": {"state": {"target": [], "time": []}, "edge": {"target": [], "time": []}}, "mouseout": {"state": {"target": ["0"], "time": [971]}, "edge": {"target": [], "time": []}}}, "displayed_time": "15.40", "trialTime": 17457, "trial_type": "mouselab-mdp", "trial_index": 43, "time_elapsed": 1096248, "internal_node_id": "0.0-4.0-1.0-22.0"}}, {"uniqueid": "w28494679:a14781965", "current_trial": 44, "dateTime": 1691143049817, "trialdata": {"revealed_states": [], "clicked_states": ["3", "11", "6"], "num_clicks_accrued": [0, 0, 0, 0, 0, 0, 0, 0, 0, 0, 0, 0, 0], "stateRewards": ["", -2, 2, 3, -7, -31, -33, 29, -8, -57, 50, -83, -1, -1, 5, 13, -23, -62, 25, 5, -66, -85, 14, 1, -2, -1, 16, 71, 33, -19, -14, 5, -43, 79], "withholdReward": false, "trial_id": "mdp_trial_24", "block": "test", "trialIndex": 29, "score": -64.25, "costs": -5.25, "simulationMode": [null, null, null, null, null, null], "rewards": [1, -2, -1, -14, -43], "path": ["0", "0", "23", "24", "25", "30", "32"], "rt": [8467, 378, 234, 247, 199, 553], "actions": ["left", "left", "left", "left", "down", "down"], "actionTimes": [9525, 9908, 10660, 11419, 12122, 13179], "queries": {"click": {"state": {"target": ["3", "11", "6"], "time": [1960, 3014, 7891]}, "edge": {"target": [], "time": []}}, "mouseover": {"state": {"target": ["3", "8", "11", "8", "6"], "time": [1835, 2719, 2754, 3567, 3920]}, "edge": {"target": [], "time": []}}, "mouseout": {"state": {"target": ["0", "3", "8", "11", "8", "3", "6"], "time": [1485, 2699, 2736, 3027, 3585, 3622, 28545]}, "edge": {"target": [], "time": []}}}, "displayed_time": "15.07", "trialTime": 29249, "trial_type": "mouselab-mdp", "trial_index": 44, "time_elapsed": 1126366, "internal_node_id": "0.0-4.0-1.0-23.0"}}, {"uniqueid": "w28494679:a14781965", "current_trial": 45, "dateTime": 1691143071663, "trialdata": {"revealed_states": [], "clicked_states": ["1"], "num_clicks_accrued": [0, 0, 0, 0, 0, 0, 0, 0, 0, 0, 0, 0, 0], "stateRewards": ["", 1, 1, -7, -9, -44, 24, -83, -15, 44, -24, 72, -2, -3, 4, -5, 57, 55, 29, -11, 22, 12, -25, -1, 2, 7, 12, 33, -8, 47, -4, 8, 50, -4], "withholdReward": false, "trial_id": "mdp_trial_25", "block": "test", "trialIndex": 30, "score": -96.75, "costs": 0.25, "simulationMode": [null, null, null, null, null], "rewards": [1, 1, -7, -9, -83], "path": ["0", "0", "1", "2", "3", "4", "7"], "rt": [2597, 180, 336, 252, 190], "actions": ["up", "up", "up", "right", "down"], "actionTimes": [5147, 5826, 6668, 7450, 8137], "queries": {"click": {"state": {"target": ["1"], "time": [4006]}, "edge": {"target": [], "time": []}}, "mouseover": {"state": {"target": ["1", "1"], "time": [3141, 3409]}, "edge": {"target": [], "time": []}}, "mouseout": {"state": {"target": ["0", "0", "0", "1"], "time": [1174, 1474, 3109, 3177]}, "edge": {"target": [], "time": []}}}, "displayed_time": "16.56", "trialTime": 21025, "trial_type": "mouselab-mdp", "trial_index": 45, "time_elapsed": 1148212, "internal_node_id": "0.0-4.0-1.0-24.0"}}, {"uniqueid": "w28494679:a14781965", "current_trial": 46, "dateTime": 1691143091271, "trialdata": {"revealed_states": [], "clicked_states": [], "num_clicks_accrued": [0, 0, 0, 0, 0, 0, 0, 0, 0, 0, 0, 0, 0], "stateRewards": ["", -2, 2, -5, 1, 42, -63, -58, -6, 2, 16, 81, -2, 4, 7, -10, 33, 3, -33, -2, -52, -84, -27, 2, -3, -3, 15, -74, -14, -5, -5, -84, 79, -31], "withholdReward": false, "trial_id": "mdp_trial_26", "block": "test", "trialIndex": 31, "score": 32, "costs": 0, "simulationMode": [null, null, null, null, null], "rewards": [-2, 4, 7, -10, 33], "path": ["0", "0", "12", "13", "14", "15", "16"], "rt": [1005, 356, 179, 930, 166], "actions": ["right", "right", "right", "up", "up"], "actionTimes": [5413, 6266, 6953, 8386, 9062], "queries": {"click": {"state": {"target": [], "time": []}, "edge": {"target": [], "time": []}}, "mouseover": {"state": {"target": [], "time": []}, "edge": {"target": [], "time": []}}, "mouseout": {"state": {"target": ["1", "0", "0", "0"], "time": [3588, 3771, 4005, 9888]}, "edge": {"target": [], "time": []}}}, "displayed_time": "18.41", "trialTime": 18752, "trial_type": "mouselab-mdp", "trial_index": 46, "time_elapsed": 1167820, "internal_node_id": "0.0-4.0-1.0-25.0"}}, {"uniqueid": "w28494679:a14781965", "current_trial": 47, "dateTime": 1691143108583, "trialdata": {"revealed_states": [], "clicked_states": [], "num_clicks_accrued": [0, 0, 0, 0, 0, 0, 0, 0, 0, 0, 0, 0, 0], "stateRewards": ["", 2, -1, 4, -9, -43, 7, 54, -13, 38, -40, -83, -1, 2, -8, -10, 34, -33, 11, -14, -79, 65, 26, 1, 2, 4, 10, 21, 1, 86, 4, -53, 28, -29], "withholdReward": false, "trial_id": "mdp_trial_27", "block": "test", "trialIndex": 32, "score": -48, "costs": 0, "simulationMode": [null, null, null, null, null], "rewards": [2, -1, 4, -13, -40], "path": ["0", "0", "1", "2", "3", "8", "10"], "rt": [1152, 132, 7, 142, 52], "actions": ["up", "up", "up", "left", "down"], "actionTimes": [3205, 3841, 4351, 5003, 5562], "queries": {"click": {"state": {"target": [], "time": []}, "edge": {"target": [], "time": []}}, "mouseover": {"state": {"target": [], "time": []}, "edge": {"target": [], "time": []}}, "mouseout": {"state": {"target": [], "time": []}, "edge": {"target": [], "time": []}}}, "displayed_time": "16.06", "trialTime": 16409, "trial_type": "mouselab-mdp", "trial_index": 47, "time_elapsed": 1185132, "internal_node_id": "0.0-4.0-1.0-26.0"}}, {"uniqueid": "w28494679:a14781965", "current_trial": 48, "dateTime": 1691143125214, "trialdata": {"revealed_states": [], "clicked_states": [], "num_clicks_accrued": [0, 0, 0, 0, 0, 0, 0, 0, 0, 0, 0, 0, 0], "stateRewards": ["", -1, 2, -7, -12, -62, 12, -13, 5, 77, -71, 83, 1, -4, 7, 15, -42, -87, -4, 5, -25, 44, 88, -1, 4, -5, -8, 14, 51, 8, -5, 83, -24, -19], "withholdReward": false, "trial_id": "mdp_trial_28", "block": "test", "trialIndex": 33, "score": -80, "costs": 0, "simulationMode": [null, null, null, null, null], "rewards": [-1, 2, -7, -12, -62], "path": ["0", "0", "1", "2", "3", "4", "5"], "rt": [1242, 66, 115, 126, 53], "actions": ["up", "up", "up", "right", "up"], "actionTimes": [2434, 2999, 3615, 4244, 4804], "queries": {"click": {"state": {"target": [], "time": []}, "edge": {"target": [], "time": []}}, "mouseover": {"state": {"target": [], "time": []}, "edge": {"target": [], "time": []}}, "mouseout": {"state": {"target": [], "time": []}, "edge": {"target": [], "time": []}}}, "displayed_time": "15.20", "trialTime": 15773, "trial_type": "mouselab-mdp", "trial_index": 48, "time_elapsed": 1201762, "internal_node_id": "0.0-4.0-1.0-27.0"}}, {"uniqueid": "w28494679:a14781965", "current_trial": 49, "dateTime": 1691143141705, "trialdata": {"revealed_states": [], "clicked_states": [], "num_clicks_accrued": [0, 0, 0, 0, 0, 0, 0, 0, 0, 0, 0, 0, 0], "stateRewards": ["", -2, -3, 4, 1, 33, -53, 15, 9, -12, 61, -6, -2, 4, 6, -11, 47, -43, -7, -11, 46, 23, -28, -1, -1, 3, -10, 11, 76, -76, 10, 18, -38, 87], "withholdReward": false, "trial_id": "mdp_trial_29", "block": "test", "trialIndex": 34, "score": -85, "costs": 0, "simulationMode": [null, null, null, null, null], "rewards": [-1, -1, 3, -10, -76], "path": ["0", "0", "23", "24", "25", "26", "29"], "rt": [1162, 33, 60, 1083, 568], "actions": ["left", "left", "left", "up", "left"], "actionTimes": [2431, 2961, 3523, 5111, 6179], "queries": {"click": {"state": {"target": [], "time": []}, "edge": {"target": [], "time": []}}, "mouseover": {"state": {"target": [], "time": []}, "edge": {"target": [], "time": []}}, "mouseout": {"state": {"target": [], "time": []}, "edge": {"target": [], "time": []}}}, "displayed_time": "15.28", "trialTime": 15601, "trial_type": "mouselab-mdp", "trial_index": 49, "time_elapsed": 1218253, "internal_node_id": "0.0-4.0-1.0-28.0"}}, {"uniqueid": "w28494679:a14781965", "current_trial": 50, "dateTime": 1691143167754, "trialdata": {"revealed_states": [], "clicked_states": [], "num_clicks_accrued": [0, 0, 0, 0, 0, 0, 0, 0, 0, 0, 0, 0, 0], "stateRewards": ["", -2, 3, 8, -9, 59, 41, -50, -1, 82, 66, 33, 2, -2, 7, 8, 1, -38, 12, -16, 24, -37, 67, 1, 4, -2, 5, 35, -83, 28, 8, -27, 69, -64], "withholdReward": false, "trial_id": "mdp_trial_30", "block": "test", "trialIndex": 35, "score": 16, "costs": 0, "simulationMode": [null, null, null, null, null], "rewards": [2, -2, 7, 8, 1], "path": ["0", "0", "12", "13", "14", "15", "16"], "rt": [1105, 211, 770, 1506, 99], "actions": ["right", "right", "right", "up", "up"], "actionTimes": [2112, 2824, 4099, 6103, 6696], "queries": {"click": {"state": {"target": [], "time": []}, "edge": {"target": [], "time": []}}, "mouseover": {"state": {"target": [], "time": []}, "edge": {"target": [], "time": []}}, "mouseout": {"state": {"target": [], "time": []}, "edge": {"target": [], "time": []}}}, "displayed_time": "15.01", "trialTime": 24963, "trial_type": "mouselab-mdp", "trial_index": 50, "time_elapsed": 1244303, "internal_node_id": "0.0-4.0-1.0-29.0"}}, {"uniqueid": "w28494679:a14781965", "current_trial": 51, "dateTime": 1691143189357, "trialdata": {"revealed_states": [], "clicked_states": [], "num_clicks_accrued": [0, 0, 0, 0, 0, 0, 0, 0, 0, 0, 0, 0, 0], "stateRewards": ["", -1, 2, -6, 6, -82, -19, -39, -16, -83, 11, -33, -2, -2, 4, -6, -82, -1, -19, -6, -10, -67, -41, -2, 1, -7, 16, -23, -78, -52, 14, 31, -71, 74], "withholdReward": false, "trial_id": "mdp_trial_31", "block": "test", "trialIndex": 36, "score": -54, "costs": 0, "simulationMode": [null, null, null, null, null], "rewards": [-1, 2, -6, -16, -33], "path": ["0", "0", "1", "2", "3", "8", "11"], "rt": [1239, 133, 6, 309, 174], "actions": ["up", "up", "up", "left", "left"], "actionTimes": [2856, 3492, 4001, 4819, 5502], "queries": {"click": {"state": {"target": [], "time": []}, "edge": {"target": [], "time": []}}, "mouseover": {"state": {"target": [], "time": []}, "edge": {"target": [], "time": []}}, "mouseout": {"state": {"target": [], "time": []}, "edge": {"target": [], "time": []}}}, "displayed_time": "15.63", "trialTime": 20586, "trial_type": "mouselab-mdp", "trial_index": 51, "time_elapsed": 1265905, "internal_node_id": "0.0-4.0-1.0-30.0"}}, {"uniqueid": "w28494679:a14781965", "current_trial": 52, "dateTime": 1691143207242, "trialdata": {"revealed_states": [], "clicked_states": [], "num_clicks_accrued": [0, 0, 0, 0, 0, 0, 0, 0, 0, 0, 0, 0, 0], "stateRewards": ["", 1, 1, -2, 7, -31, -6, 76, 1, -36, -16, -53, 2, 1, 7, 13, -47, -10, 47, -7, 72, 46, -56, -2, -2, -2, 11, -80, 44, 38, 16, 67, 85, -78], "withholdReward": false, "trial_id": "mdp_trial_32", "block": "test", "trialIndex": 37, "score": 1, "costs": 0, "simulationMode": [null, null, null, null, null], "rewards": [1, 1, -2, 7, -6], "path": ["0", "0", "1", "2", "3", "4", "6"], "rt": [1315, 131, 94, 297, 76], "actions": ["up", "up", "up", "right", "right"], "actionTimes": [2726, 3358, 3954, 4816, 5387], "queries": {"click": {"state": {"target": [], "time": []}, "edge": {"target": [], "time": []}}, "mouseover": {"state": {"target": [], "time": []}, "edge": {"target": [], "time": []}}, "mouseout": {"state": {"target": [], "time": []}, "edge": {"target": [], "time": []}}}, "displayed_time": "15.41", "trialTime": 16980, "trial_type": "mouselab-mdp", "trial_index": 52, "time_elapsed": 1283790, "internal_node_id": "0.0-4.0-1.0-31.0"}}, {"uniqueid": "w28494679:a14781965", "current_trial": 53, "dateTime": 1691143225045, "trialdata": {"revealed_states": [], "clicked_states": [], "num_clicks_accrued": [0, 0, 0, 0, 0, 0, 0, 0, 0, 0, 0, 0, 0], "stateRewards": ["", 2, 3, 6, -5, -74, -53, 17, -12, 46, 44, 18, -2, 4, 1, -8, 22, -23, -49, 9, -45, 55, 81, 1, -1, -7, -16, -83, -71, -45, 2, 51, 82, 61], "withholdReward": false, "trial_id": "mdp_trial_33", "block": "test", "trialIndex": 38, "score": 45, "costs": 0, "simulationMode": [null, null, null, null, null], "rewards": [2, 3, 6, -12, 46], "path": ["0", "0", "1", "2", "3", "8", "9"], "rt": [1205, 325, 645, 235, 615], "actions": ["up", "up", "up", "left", "up"], "actionTimes": [2649, 3468, 4621, 5363, 6476], "queries": {"click": {"state": {"target": [], "time": []}, "edge": {"target": [], "time": []}}, "mouseover": {"state": {"target": [], "time": []}, "edge": {"target": [], "time": []}}, "mouseout": {"state": {"target": [], "time": []}, "edge": {"target": [], "time": []}}}, "displayed_time": "15.45", "trialTime": 16809, "trial_type": "mouselab-mdp", "trial_index": 53, "time_elapsed": 1301593, "internal_node_id": "0.0-4.0-1.0-32.0"}}, {"uniqueid": "w28494679:a14781965", "current_trial": 54, "dateTime": 1691143243013, "trialdata": {"revealed_states": [], "clicked_states": [], "num_clicks_accrued": [0, 0, 0, 0, 0, 0, 0, 0, 0, 0, 0, 0, 0], "stateRewards": ["", 1, 4, 7, -16, -84, -6, -46, -12, -7, -49, -26, -1, 2, -4, 2, 22, 37, -64, 1, 88, -13, -10, 1, -4, -2, 5, 2, -10, -34, 9, 66, 55, 38], "withholdReward": false, "trial_id": "mdp_trial_34", "block": "test", "trialIndex": 39, "score": -50, "costs": 0, "simulationMode": [null, null, null, null, null], "rewards": [1, 4, 7, -16, -46], "path": ["0", "0", "1", "2", "3", "4", "7"], "rt": [1266, 324, 210, 49, 527], "actions": ["up", "up", "up", "right", "down"], "actionTimes": [2653, 3485, 4202, 4757, 5789], "queries": {"click": {"state": {"target": [], "time": []}, "edge": {"target": [], "time": []}}, "mouseover": {"state": {"target": [], "time": []}, "edge": {"target": [], "time": []}}, "mouseout": {"state": {"target": [], "time": []}, "edge": {"target": [], "time": []}}}, "displayed_time": "15.40", "trialTime": 17069, "trial_type": "mouselab-mdp", "trial_index": 54, "time_elapsed": 1319561, "internal_node_id": "0.0-4.0-1.0-33.0"}}, {"uniqueid": "w28494679:a14781965", "current_trial": 55, "dateTime": 1691143263158, "trialdata": {"revealed_states": [], "clicked_states": [], "num_clicks_accrued": [0, 0, 0, 0, 0, 0, 0, 0, 0, 0, 0, 0, 0], "stateRewards": ["", -2, 1, -8, 12, -65, -79, 16, 7, -80, -17, -45, -2, 2, -5, -2, -85, 23, -4, -7, 48, 27, -76, 2, 3, 5, 2, 43, 71, -13, 7, -49, 59, -31], "withholdReward": false, "trial_id": "mdp_trial_35", "block": "test", "trialIndex": 40, "score": 15, "costs": 0, "simulationMode": [null, null, null, null, null], "rewards": [-2, 2, -5, -7, 27], "path": ["0", "0", "12", "13", "14", "19", "21"], "rt": [1473, 37, 179, 224, 103], "actions": ["right", "right", "right", "down", "down"], "actionTimes": [2822, 3367, 4041, 4770, 5383], "queries": {"click": {"state": {"target": [], "time": []}, "edge": {"target": [], "time": []}}, "mouseover": {"state": {"target": ["12", "13", "12"], "time": [1941, 2041, 2309]}, "edge": {"target": [], "time": []}}, "mouseout": {"state": {"target": ["0", "12", "13"], "time": [1910, 1992, 2257]}, "edge": {"target": [], "time": []}}}, "displayed_time": "15.36", "trialTime": 19145, "trial_type": "mouselab-mdp", "trial_index": 55, "time_elapsed": 1339707, "internal_node_id": "0.0-4.0-1.0-34.0"}}, {"uniqueid": "w28494679:a14781965", "current_trial": 56, "dateTime": 1691143280085, "trialdata": {"revealed_states": [], "clicked_states": [], "num_clicks_accrued": [0, 0, 0, 0, 0, 0, 0, 0, 0, 0, 0, 0, 0], "stateRewards": ["", 1, -3, -1, 9, -34, -40, 22, -7, 45, 53, -11, 2, 4, 5, 15, 21, 37, -49, -3, 80, -28, -34, 1, -3, 1, 1, -40, -6, -5, -16, -85, -86, 59], "withholdReward": false, "trial_id": "mdp_trial_36", "block": "test", "trialIndex": 41, "score": 43, "costs": 0, "simulationMode": [null, null, null, null, null], "rewards": [1, -3, -1, -7, 53], "path": ["0", "0", "1", "2", "3", "8", "10"], "rt": [831, 150, 23, 252, 22], "actions": ["up", "up", "up", "left", "down"], "actionTimes": [2420, 3064, 3591, 4352, 4875], "queries": {"click": {"state": {"target": [], "time": []}, "edge": {"target": [], "time": []}}, "mouseover": {"state": {"target": [], "time": []}, "edge": {"target": [], "time": []}}, "mouseout": {"state": {"target": ["12"], "time": [777]}, "edge": {"target": [], "time": []}}}, "displayed_time": "15.59", "trialTime": 15965, "trial_type": "mouselab-mdp", "trial_index": 56, "time_elapsed": 1356634, "internal_node_id": "0.0-4.0-1.0-35.0"}}, {"uniqueid": "w28494679:a14781965", "current_trial": 57, "dateTime": 1691143296843, "trialdata": {"revealed_states": [], "clicked_states": [], "num_clicks_accrued": [0, 0, 0, 0, 0, 0, 0, 0, 0, 0, 0, 0, 0], "stateRewards": ["", -2, -3, -5, 8, 27, 11, 43, -6, -24, -87, 69, -2, 1, 1, 9, 19, 48, -37, 9, -14, 45, 62, 1, 2, 1, 16, -81, -41, 22, 4, -6, -63, 47], "withholdReward": false, "trial_id": "mdp_trial_37", "block": "test", "trialIndex": 42, "score": 25, "costs": 0, "simulationMode": [null, null, null, null, null], "rewards": [-2, -3, -5, 8, 27], "path": ["0", "0", "1", "2", "3", "4", "5"], "rt": [1218, 88, 7, 242, 586], "actions": ["up", "up", "up", "right", "up"], "actionTimes": [2615, 3210, 3714, 4466, 5558], "queries": {"click": {"state": {"target": [], "time": []}, "edge": {"target": [], "time": []}}, "mouseover": {"state": {"target": [], "time": []}, "edge": {"target": [], "time": []}}, "mouseout": {"state": {"target": ["0"], "time": [6672]}, "edge": {"target": [], "time": []}}}, "displayed_time": "15.40", "trialTime": 15764, "trial_type": "mouselab-mdp", "trial_index": 57, "time_elapsed": 1373391, "internal_node_id": "0.0-4.0-1.0-36.0"}}, {"uniqueid": "w28494679:a14781965", "current_trial": 58, "dateTime": 1691143315620, "trialdata": {"revealed_states": [], "clicked_states": [], "num_clicks_accrued": [0, 0, 0, 0, 0, 0, 0, 0, 0, 0, 0, 0, 0], "stateRewards": ["", -2, -3, -6, -7, 9, 16, 65, 5, -41, 20, -25, -1, -4, 1, -11, -49, -4, 71, 1, 39, -62, 52, -2, -3, 7, -9, -28, -70, 84, 8, 24, -58, 82], "withholdReward": false, "trial_id": "mdp_trial_38", "block": "test", "trialIndex": 43, "score": 56, "costs": 0, "simulationMode": [null, null, null, null, null], "rewards": [-1, -4, 1, -11, 71], "path": ["0", "0", "12", "13", "14", "15", "18"], "rt": [1243, 74, 1018, 629, 78], "actions": ["right", "right", "right", "up", "left"], "actionTimes": [4317, 4885, 6412, 7539, 8122], "queries": {"click": {"state": {"target": [], "time": []}, "edge": {"target": [], "time": []}}, "mouseover": {"state": {"target": [], "time": []}, "edge": {"target": [], "time": []}}, "mouseout": {"state": {"target": ["0"], "time": [2241]}, "edge": {"target": [], "time": []}}}, "displayed_time": "17.08", "trialTime": 17859, "trial_type": "mouselab-mdp", "trial_index": 58, "time_elapsed": 1392168, "internal_node_id": "0.0-4.0-1.0-37.0"}}, {"uniqueid": "w28494679:a14781965", "current_trial": 59, "dateTime": 1691143334321, "trialdata": {"revealed_states": [], "clicked_states": [], "num_clicks_accrued": [0, 0, 0, 0, 0, 0, 0, 0, 0, 0, 0, 0, 0], "stateRewards": ["", -2, -3, 1, -7, 39, -67, 16, 5, -20, 73, 66, -1, 4, 5, -3, 23, -68, -87, -8, 3, -3, 17, 1, -4, -2, -13, -32, 34, 61, -5, -11, -18, 12], "withholdReward": false, "trial_id": "mdp_trial_39", "block": "test", "trialIndex": 44, "score": -63, "costs": 0, "simulationMode": [null, null, null, null, null], "rewards": [-1, 4, 5, -3, -68], "path": ["0", "0", "12", "13", "14", "15", "17"], "rt": [473, 64, 121, 1592, 292], "actions": ["right", "right", "right", "up", "right"], "actionTimes": [2194, 2758, 3393, 5481, 6290], "queries": {"click": {"state": {"target": [], "time": []}, "edge": {"target": [], "time": []}}, "mouseover": {"state": {"target": [], "time": []}, "edge": {"target": [], "time": []}}, "mouseout": {"state": {"target": [], "time": []}, "edge": {"target": [], "time": []}}}, "displayed_time": "15.73", "trialTime": 17666, "trial_type": "mouselab-mdp", "trial_index": 59, "time_elapsed": 1410870, "internal_node_id": "0.0-4.0-1.0-38.0"}}, {"uniqueid": "w28494679:a14781965", "current_trial": 60, "dateTime": 1691143381634, "trialdata": {"revealed_states": [], "clicked_states": [], "num_clicks_accrued": [0, 0, 0, 0, 0, 0, 0, 0, 0, 0, 0, 0, 0], "stateRewards": ["", 1, 2, -3, -5, 66, -50, -47, -5, 1, 28, -27, 1, 1, -1, -6, 37, -25, 56, 1, -82, -66, -40, -1, -4, -7, 15, -61, -23, 26, 10, 14, -56, 29], "withholdReward": false, "trial_id": "mdp_trial_40", "block": "test", "trialIndex": 45, "score": -4, "costs": 0, "simulationMode": [null, null, null, null, null], "rewards": [1, 2, -3, -5, 1], "path": ["0", "0", "1", "2", "3", "8", "9"], "rt": [1058, 17, 222, 2765, 215], "actions": ["up", "up", "up", "left", "up"], "actionTimes": [2750, 3273, 3999, 7271, 7992], "queries": {"click": {"state": {"target": [], "time": []}, "edge": {"target": [], "time": []}}, "mouseover": {"state": {"target": [], "time": []}, "edge": {"target": [], "time": []}}, "mouseout": {"state": {"target": ["0"], "time": [1278]}, "edge": {"target": [], "time": []}}}, "displayed_time": "15.70", "trialTime": 46306, "trial_type": "mouselab-mdp", "trial_index": 60, "time_elapsed": 1458182, "internal_node_id": "0.0-4.0-1.0-39.0"}}, {"uniqueid": "w28494679:a14781965", "current_trial": 61, "dateTime": 1691143405956, "trialdata": {"rt": 24317, "response": {"Q0": "$-2 to $2", "Q1": "$-4 to $4", "Q2": "$-16 to $16", "Q3": "The cost for clicking on nodes varied between nodes.", "Q4": "Slightly motivated"}, "question_order": [0, 1, 2, 3, 4], "trial_id": "final_quiz_control", "trial_type": "survey-multi-choice", "trial_index": 61, "time_elapsed": 1482505, "internal_node_id": "0.0-4.0-2.0"}}, {"uniqueid": "w28494679:a14781965", "current_trial": 62, "dateTime": 1691143441827, "trialdata": {"rt": 35861, "response": {"Q0": "i took the different routes varied times", "Q1": "No it was a gamble if it worked or not", "Q2": "very"}, "trial_id": "self_report_control", "trial_type": "survey-text", "trial_index": 62, "time_elapsed": 1518375, "internal_node_id": "0.0-4.0-3.0"}}, {"uniqueid": "w28494679:a14781965", "current_trial": 63, "dateTime": 1691143481282, "trialdata": {"rt": 39451, "response": {"Q0": "Disagree", "Q1": "Disagree", "Q2": "Strongly agree", "Q3": "Neither disagree nor agree", "Q4": "Agree", "Q5": "Agree", "Q6": "Strongly disagree"}, "question_order": [0, 1, 2, 3, 4, 5, 6], "trial_id": "self_report_2", "trial_type": "survey-multi-choice", "trial_index": 63, "time_elapsed": 1557831, "internal_node_id": "0.0-4.0-4.0"}}, {"uniqueid": "w28494679:a14781965", "current_trial": 64, "dateTime": 1691143503675, "trialdata": {"rt": 22385, "response": {"gender": "female", "age": "30", "colorblind": "0", "effort": "1"}, "trial_type": "survey-html-form", "trial_index": 64, "time_elapsed": 1580224, "internal_node_id": "0.0-4.0-5.0"}}, {"uniqueid": "w28494679:a14781965", "current_trial": 65, "dateTime": 1691143535812, "trialdata": {"rt": 32132, "response": {"Q0": "couldn't work out the formular to win", "Q1": "no", "Q2": "none"}, "trial_type": "survey-text", "trial_index": 65, "time_elapsed": 1612361, "internal_node_id": "0.0-4.0-6.0"}}, {"uniqueid": "w28494679:a14781965", "current_trial": 66, "dateTime": 1691143538389, "trialdata": {"rt": 2572, "stimulus": "Press 'Finish HIT' in order to reach the completion code. Once the data has been saved, you will receive the code either in this window or in the original browser window where you started the experiment.\n", "response": 0, "trial_type": "html-button-response", "trial_index": 66, "time_elapsed": 1614938, "internal_node_id": "0.0-5.0"}}, {"uniqueid": "w28494679:a14781965", "current_trial": 67, "dateTime": 1691143539397, "trialdata": {"success": true, "trial_type": "fullscreen", "trial_index": 67, "time_elapsed": 1615946, "internal_node_id": "0.0-6.0"}}], "questiondata": {"params": {"CODE": "C6DMOQA6", "MIN_TIME": 14, "inspectCost": 1, "startTime": "Fri Aug 04 2023 10:38:42 GMT+0100 (British Summer Time)", "bonusRate": 0.002, "variance": "1_2_4_8_44", "branching": "31123"}, "final_score": -151.65}, "eventdata": [{"eventtype": "initialized", "value": null, "timestamp": 1691141922248, "interval": 0}, {"eventtype": "window_resize", "value": [1024, 634], "timestamp": 1691141922248, "interval": 0}, {"eventtype": "window_resize", "value": [1024, 634], "timestamp": 1691141922579, "interval": 331}, {"eventtype": "window_resize", "value": [1280, 800], "timestamp": 1691141937790, "interval": 15211}, {"eventtype": "focus", "value": "off", "timestamp": 1691142286653, "interval": 348863}, {"eventtype": "focus", "value": "on", "timestamp": 1691142286823, "interval": 170}, {"eventtype": "window_resize", "value": [1024, 634], "timestamp": 1691142286865, "interval": 42}, {"eventtype": "window_resize", "value": [1280, 800], "timestamp": 1691142288305, "interval": 1440}, {"eventtype": "focus", "value": "off", "timestamp": 1691142499605, "interval": 211300}, {"eventtype": "focus", "value": "on", "timestamp": 1691142499769, "interval": 164}, {"eventtype": "window_resize", "value": [1024, 634], "timestamp": 1691142499822, "interval": 53}, {"eventtype": "window_resize", "value": [1280, 800], "timestamp": 1691142501182, "interval": 1360}, {"eventtype": "window_resize", "value": [1024, 634], "timestamp": 1691143538629, "interval": 1037447}], "useragent": "Mozilla/5.0 (Macintosh; Intel Mac OS X 10_15_7) AppleWebKit/537.36 (KHTML, like Gecko) Chrome/114.0.0.0 Safari/537.36", "mode": "live", "id": "w28494679:a14781965", "status": "user data saved", "Beginhit": "2023-08-04 09:38:41.569438", "Beginexp": "2023-08-04 09:38:58.843652", "Endhit": "2023-08-04 10:05:39.86025", "psiturkStatus": 3, "browser": "<redacted>", "platform": "macos", "language": "en-GB"}