{"condition": 1, "counterbalance": 0, "assignmentId": "a83584178", "workerId": "w80390260", "hitId": "h39773772", "currenttrial": 56, "bonus": 0, "data": [{"uniqueid": "w80390260:a83584178", "current_trial": 0, "dateTime": 1691142250953, "trialdata": {"success": true, "trial_type": "fullscreen", "trial_index": 0, "time_elapsed": 13402, "internal_node_id": "0.0-0.0"}}, {"uniqueid": "w80390260:a83584178", "current_trial": 1, "dateTime": 1691142295669, "trialdata": {"view_history": [{"page_index": 0, "viewing_time": 44709}], "rt": 44711, "trial_id": "exp_instructions_misaligned", "trial_type": "instructions", "trial_index": 1, "time_elapsed": 58119, "internal_node_id": "0.0-1.0"}}, {"uniqueid": "w80390260:a83584178", "current_trial": 2, "dateTime": 1691142301784, "trialdata": {"success": true, "trial_type": "fullscreen", "trial_index": 2, "time_elapsed": 64234, "internal_node_id": "0.0-2.0-0.0"}}, {"uniqueid": "w80390260:a83584178", "current_trial": 3, "dateTime": 1691142676195, "trialdata": {"view_history": [{"page_index": 0, "viewing_time": 139644}, {"page_index": 1, "viewing_time": 127673}, {"page_index": 2, "viewing_time": 21380}, {"page_index": 1, "viewing_time": 12435}, {"page_index": 2, "viewing_time": 21056}, {"page_index": 3, "viewing_time": 52219}], "rt": 374408, "trial_id": "mouselab_instructions_1_misaligned", "trial_type": "instructions", "trial_index": 3, "time_elapsed": 438645, "internal_node_id": "0.0-2.0-1.0"}}, {"uniqueid": "w80390260:a83584178", "current_trial": 4, "dateTime": 1691142726527, "trialdata": {"revealed_states": [], "clicked_states": ["25", "24", "28", "15", "4", "1", "13", "14", "2", "18", "21"], "num_clicks_accrued": [0, 0, 0, 0, 0, 0, 0, 0, 0, 0, 0, 0, 0], "stateRewards": ["", 10, 10, -10, 10, -10, -10, -10, 10, -10, 10, 10, -10, 10, 10, -10, 10, 10, -10, 10, 10, 10, 10, 10, -10, 10, 10, -10, -10, -10, 10, -10, 10, -10], "withholdReward": false, "trial_id": "practice_1", "block": "test", "trialIndex": 0, "score": 28, "costs": -5.5, "simulationMode": [null, null, null, null, null], "rewards": [-10, 10, 10, 10, 10], "path": ["0", "0", "12", "13", "14", "19", "21"], "rt": [36110, 197, 39, 1740, 37], "actions": ["right", "right", "right", "down", "down"], "actionTimes": [39264, 39967, 40504, 42754, 43286], "queries": {"click": {"state": {"target": ["25", "24", "28", "15", "4", "1", "13", "14", "2", "18", "21"], "time": [7467, 10405, 12649, 14780, 17201, 21304, 23934, 27394, 31200, 33301, 35269]}, "edge": {"target": [], "time": []}}, "mouseover": {"state": {"target": ["23", "24", "25", "31", "24", "28", "1", "18", "15", "18", "4", "2", "10", "1", "0", "12", "13", "12", "14", "13", "12", "0", "31", "24", "2", "28", "23", "0", "12", "18", "13", "21"], "time": [5849, 6382, 7098, 9165, 9682, 11683, 13598, 14081, 14413, 16081, 16847, 18782, 19199, 20931, 22746, 23081, 23549, 24397, 26963, 28330, 28614, 30018, 30265, 30463, 30765, 32213, 32447, 32496, 32614, 32997, 34114, 34731]}, "edge": {"target": [], "time": []}}, "mouseout": {"state": {"target": ["0", "23", "24", "25", "31", "24", "28", "28", "1", "18", "15", "18", "4", "2", "10", "1", "0", "12", "13", "13", "12", "13", "13", "14", "14", "13", "12", "0", "31", "24", "2", "28", "23", "0", "12", "18", "18", "13", "21", "21"], "time": [1996, 6302, 6982, 8964, 9263, 10548, 12789, 13497, 13630, 14181, 16013, 16097, 18498, 18898, 20532, 22379, 22763, 23230, 24047, 24230, 25581, 25746, 26765, 27497, 28213, 28531, 28781, 30098, 30416, 30615, 31996, 32364, 32463, 32580, 32682, 33347, 34046, 34146, 46942, 47448]}, "edge": {"target": [], "time": []}}}, "displayed_time": "43.82", "trialTime": 48866, "trial_type": "mouselab-mdp", "trial_index": 4, "time_elapsed": 488976, "internal_node_id": "0.0-2.0-2.0-0.0"}}, {"uniqueid": "w80390260:a83584178", "current_trial": 5, "dateTime": 1691142757536, "trialdata": {"revealed_states": [], "clicked_states": ["25", "3", "16", "19", "2", "31"], "num_clicks_accrued": [0, 0, 0, 0, 0, 0, 0, 0, 0, 0, 0, 0, 0], "stateRewards": ["", -10, 10, -10, -10, 10, -10, -10, -10, -10, -10, -10, -10, -10, 10, 10, 10, -10, -10, 10, -10, -10, 10, 10, -10, 10, -10, 10, 10, -10, 10, 10, 10, 10], "withholdReward": false, "trial_id": "practice_2", "block": "test", "trialIndex": 1, "score": 30.5, "costs": -3, "simulationMode": [null, null, null, null, null], "rewards": [10, -10, 10, 10, 10], "path": ["0", "0", "23", "24", "25", "30", "32"], "rt": [16139, 6, 71, 1302, 1], "actions": ["left", "left", "left", "down", "down"], "actionTimes": [20638, 21142, 21739, 23538, 24036], "queries": {"click": {"state": {"target": ["25", "3", "16", "19", "2", "31"], "time": [9329, 10845, 12563, 14073, 16773, 18704]}, "edge": {"target": [], "time": []}}, "mouseover": {"state": {"target": ["12", "24", "25", "28", "10", "3", "16", "18", "19", "22", "23", "2", "28", "24", "31"], "time": [7918, 8367, 8752, 10133, 10200, 10403, 12235, 13301, 13668, 15417, 15834, 16235, 17618, 18018, 18451]}, "edge": {"target": [], "time": []}}, "mouseout": {"state": {"target": ["0", "12", "24", "25", "28", "10", "3", "16", "18", "19", "22", "23", "2", "28", "24"], "time": [4034, 8185, 8417, 10033, 10184, 10218, 11484, 13217, 13350, 15401, 15450, 15850, 17317, 17935, 18168]}, "edge": {"target": [], "time": []}}}, "displayed_time": "24.57", "trialTime": 30876, "trial_type": "mouselab-mdp", "trial_index": 5, "time_elapsed": 519985, "internal_node_id": "0.0-2.0-2.0-1.0"}}, {"uniqueid": "w80390260:a83584178", "current_trial": 6, "dateTime": 1691142835924, "trialdata": {"view_history": [{"page_index": 0, "viewing_time": 62626}, {"page_index": 1, "viewing_time": 15759}], "rt": 78386, "trial_id": "mouselab_instructions_2_misaligned", "trial_type": "instructions", "trial_index": 6, "time_elapsed": 598374, "internal_node_id": "0.0-2.0-3.0"}}, {"uniqueid": "w80390260:a83584178", "current_trial": 7, "dateTime": 1691142908809, "trialdata": {"rt": 72880, "response": {"Q0": "The cost for clicking on nodes may vary between nodes.", "Q1": "The better I perform the higher my bonus will be.", "Q2": "No, the amount of cash at each node of the web may be different each time.", "Q3": "To get the highest total score.", "Q4": "Only before moving the spider.", "Q5": "3 seconds"}, "question_order": [0, 1, 2, 3, 4, 5], "correct": {"Q0": "The cost for clicking on nodes may vary between nodes.", "Q1": "The better I perform the higher my bonus will be.", "Q2": "No, the amount of cash at each node of the web may be different each time.", "Q3": "To get the highest total score.", "Q4": "Only before moving the spider.", "Q5": "3 seconds"}, "trial_id": "mouselab_quiz_misaligned", "trial_type": "survey-multi-choice", "trial_index": 7, "time_elapsed": 671259, "internal_node_id": "0.0-2.0-4.0"}}, {"uniqueid": "w80390260:a83584178", "current_trial": 8, "dateTime": 1691142940695, "trialdata": {"rt": 31878, "stimulus": "\n<h1> Get ready to start the game! </h1>\n\nThank you for reading the instructions. Get ready start with the 40 rounds of this game.\n<br><br>\nIf you need to take a break, feel free to take one after the end of a round, before continuing to the next one.\n<br><br>\nRemember, the more money the spider gets, the bigger your bonus will be!\n<br><br>\n<div style='text-align: center;'>Press <code>space</code> to begin.</div>\n\n<br><br>\n(If, at any point, the <code>space</code> key does not take you to the next page, click once on the text and try again.)", "response": " ", "trial_id": "mdp_ready", "trial_type": "html-keyboard-response", "trial_index": 8, "time_elapsed": 703145, "internal_node_id": "0.0-4.0-0.0"}}, {"uniqueid": "w80390260:a83584178", "current_trial": 9, "dateTime": 1691142976402, "trialdata": {"revealed_states": [], "clicked_states": ["23", "13"], "num_clicks_accrued": [0, 0, 0, 0, 0, 0, 0, 0, 0, 0, 0, 0, 0], "stateRewards": ["", 1, 2, -6, -13, -51, 22, -4, -12, -44, -12, 6, -2, -2, -2, -14, -46, -4, -77, -2, 36, -79, 41, 2, -4, 2, -6, -55, 59, 70, -5, 39, -19, 24], "withholdReward": false, "trial_id": "mdp_trial_1", "block": "test", "trialIndex": 2, "score": -9.1, "costs": -0.09999999999999998, "simulationMode": [null, null, null, null, null], "rewards": [1, 2, -6, -12, 6], "path": ["0", "0", "1", "2", "3", "8", "11"], "rt": [14251, 709, 389, 8009, 1109], "actions": ["up", "up", "up", "left", "left"], "actionTimes": [17379, 18588, 19483, 27986, 29587], "queries": {"click": {"state": {"target": ["23", "13"], "time": [5918, 7964]}, "edge": {"target": [], "time": []}}, "mouseover": {"state": {"target": ["23", "0", "12", "13", "12", "0", "23", "0", "24", "23"], "time": [5676, 6926, 7059, 7743, 8392, 8625, 9510, 10293, 10543, 13926]}, "edge": {"target": [], "time": []}}, "mouseout": {"state": {"target": ["1", "23", "0", "12", "13", "13", "12", "0", "23", "0", "24", "23", "31", "30", "11", "8", "2"], "time": [1725, 6860, 6993, 7275, 8123, 8275, 8509, 9459, 10177, 10326, 13478, 22292, 22660, 22842, 25093, 25443, 26160]}, "edge": {"target": [], "time": []}}}, "displayed_time": "30.08", "trialTime": 35551, "trial_type": "mouselab-mdp", "trial_index": 9, "time_elapsed": 738852, "internal_node_id": "0.0-4.0-1.0-0.0"}}, {"uniqueid": "w80390260:a83584178", "current_trial": 10, "dateTime": 1691142997140, "trialdata": {"revealed_states": [], "clicked_states": ["13", "24", "30", "26"], "num_clicks_accrued": [0, 0, 0, 0, 0, 0, 0, 0, 0, 0, 0, 0, 0], "stateRewards": ["", 1, 1, -7, -9, -44, 24, -83, -15, 44, -24, 72, -2, -3, 4, -5, 57, 55, 29, -11, 22, 12, -25, -1, 2, 7, 12, 33, -8, 47, -4, 8, 50, -4], "withholdReward": false, "trial_id": "mdp_trial_2", "block": "test", "trialIndex": 3, "score": 49.2, "costs": -3.8, "simulationMode": [null, null, null, null, null], "rewards": [-1, 2, 7, 12, 33], "path": ["0", "0", "23", "24", "25", "26", "27"], "rt": [6755, 10, 72, 1164, 94], "actions": ["left", "left", "left", "up", "up"], "actionTimes": [9437, 9955, 10533, 12206, 12802], "queries": {"click": {"state": {"target": ["13", "24", "30", "26"], "time": [3875, 5391, 6998, 8520]}, "edge": {"target": [], "time": []}}, "mouseover": {"state": {"target": ["12", "13", "12", "0", "24", "31", "30", "25", "26", "26"], "time": [3176, 3244, 4693, 4760, 5143, 6043, 6358, 7842, 7925, 8312]}, "edge": {"target": [], "time": []}}, "mouseout": {"state": {"target": ["1", "0", "12", "13", "12", "0", "24", "31", "30", "25", "26", "26", "25", "31"], "time": [1407, 3124, 3242, 4659, 4743, 4776, 5908, 6158, 7808, 7909, 8025, 17892, 18208, 18574]}, "edge": {"target": [], "time": []}}}, "displayed_time": "16.69", "trialTime": 20588, "trial_type": "mouselab-mdp", "trial_index": 10, "time_elapsed": 759589, "internal_node_id": "0.0-4.0-1.0-1.0"}}, {"uniqueid": "w80390260:a83584178", "current_trial": 11, "dateTime": 1691143017402, "trialdata": {"revealed_states": [], "clicked_states": ["24", "15", "1"], "num_clicks_accrued": [0, 0, 0, 0, 0, 0, 0, 0, 0, 0, 0, 0, 0], "stateRewards": ["", -1, 1, 6, -6, 70, 66, 67, -16, -75, -35, 37, -1, 4, 4, -6, 47, -9, 63, 15, 21, -63, 13, 1, 3, -6, 10, 79, -29, 18, -15, 9, -67, -19], "withholdReward": false, "trial_id": "mdp_trial_3", "block": "test", "trialIndex": 4, "score": 25.35, "costs": -1.65, "simulationMode": [null, null, null, null, null], "rewards": [-1, 1, 6, -16, 37], "path": ["0", "0", "1", "2", "3", "8", "11"], "rt": [7649, 1, 169, 3668, 534], "actions": ["up", "up", "up", "left", "left"], "actionTimes": [9928, 10446, 11131, 15313, 16361], "queries": {"click": {"state": {"target": ["24", "15", "1"], "time": [3526, 4866, 7231]}, "edge": {"target": [], "time": []}}, "mouseover": {"state": {"target": ["23", "24", "23", "0", "12", "18", "15", "1"], "time": [3044, 3193, 4077, 4112, 4145, 4360, 4560, 7229]}, "edge": {"target": [], "time": []}}, "mouseout": {"state": {"target": ["0", "23", "24", "23", "0", "12", "18", "15", "1", "0"], "time": [1860, 3144, 4061, 4095, 4128, 4160, 4478, 7226, 7576, 12446]}, "edge": {"target": [], "time": []}}}, "displayed_time": "16.88", "trialTime": 20102, "trial_type": "mouselab-mdp", "trial_index": 11, "time_elapsed": 779851, "internal_node_id": "0.0-4.0-1.0-2.0"}}, {"uniqueid": "w80390260:a83584178", "current_trial": 12, "dateTime": 1691143036965, "trialdata": {"revealed_states": [], "clicked_states": ["2", "26"], "num_clicks_accrued": [0, 0, 0, 0, 0, 0, 0, 0, 0, 0, 0, 0, 0], "stateRewards": ["", -1, 1, -1, 2, 19, 85, -18, 2, -3, -26, 36, 2, 4, 7, -9, -18, 70, 72, -5, 35, -20, -28, 1, -2, -4, -3, -59, -11, -63, -2, -72, 59, -69], "withholdReward": false, "trial_id": "mdp_trial_4", "block": "test", "trialIndex": 5, "score": 50.1, "costs": -1.9, "simulationMode": [null, null, null, null, null], "rewards": [1, -2, -4, -2, 59], "path": ["0", "0", "23", "24", "25", "30", "32"], "rt": [5343, 109, 15, 6367, 11], "actions": ["left", "left", "left", "down", "down"], "actionTimes": [7333, 7945, 8452, 15337, 15864], "queries": {"click": {"state": {"target": ["2", "26"], "time": [4738, 6044]}, "edge": {"target": [], "time": []}}, "mouseover": {"state": {"target": ["1", "2", "2", "10", "28", "26"], "time": [3785, 4102, 4485, 5419, 5585, 5769]}, "edge": {"target": [], "time": []}}, "mouseout": {"state": {"target": ["0", "1", "2", "2", "2", "10", "28", "26", "25", "30", "31"], "time": [1552, 4062, 4152, 4752, 5369, 5435, 5635, 10534, 10952, 18036, 18354]}, "edge": {"target": [], "time": []}}}, "displayed_time": "16.37", "trialTime": 19423, "trial_type": "mouselab-mdp", "trial_index": 12, "time_elapsed": 799415, "internal_node_id": "0.0-4.0-1.0-3.0"}}, {"uniqueid": "w80390260:a83584178", "current_trial": 13, "dateTime": 1691143057808, "trialdata": {"revealed_states": [], "clicked_states": ["15"], "num_clicks_accrued": [0, 0, 0, 0, 0, 0, 0, 0, 0, 0, 0, 0, 0], "stateRewards": ["", 1, -4, -6, -1, -21, 17, -72, 10, 77, 67, -46, -1, 4, -2, 14, -66, -49, -45, -15, -52, 23, -67, 2, -2, -2, 15, -3, 45, -64, 5, -44, 83, 61], "withholdReward": false, "trial_id": "mdp_trial_5", "block": "test", "trialIndex": 6, "score": -52.55, "costs": -1.55, "simulationMode": [null, null, null, null, null], "rewards": [-1, 4, -2, 14, -66], "path": ["0", "0", "12", "13", "14", "15", "16"], "rt": [2951, 87, 153, 1429, 3], "actions": ["right", "right", "right", "up", "up"], "actionTimes": [4671, 5276, 5925, 7868, 8358], "queries": {"click": {"state": {"target": ["15"], "time": [3352]}, "edge": {"target": [], "time": []}}, "mouseover": {"state": {"target": ["18", "15"], "time": [2604, 2905]}, "edge": {"target": [], "time": []}}, "mouseout": {"state": {"target": ["18", "15", "18"], "time": [2823, 15256, 15555]}, "edge": {"target": [], "time": []}}}, "displayed_time": "15.72", "trialTime": 20669, "trial_type": "mouselab-mdp", "trial_index": 13, "time_elapsed": 820257, "internal_node_id": "0.0-4.0-1.0-4.0"}}, {"uniqueid": "w80390260:a83584178", "current_trial": 14, "dateTime": 1691143102120, "trialdata": {"revealed_states": [], "clicked_states": [], "num_clicks_accrued": [0, 0, 0, 0, 0, 0, 0, 0, 0, 0, 0, 0, 0], "stateRewards": ["", 2, 2, 3, -15, 23, -14, 73, -7, -32, -20, -6, 1, 1, -5, -12, 73, 6, -84, 11, -81, -57, 13, -2, -1, -4, -8, -52, -58, 49, 13, 5, -41, -41], "withholdReward": false, "trial_id": "mdp_trial_6", "block": "test", "trialIndex": 7, "score": -35, "costs": 0, "simulationMode": [null, null, null, null, null], "rewards": [-2, -1, -4, 13, -41], "path": ["0", "0", "23", "24", "25", "30", "32"], "rt": [2592, 24923, 7698, 1690, 4], "actions": ["left", "left", "left", "down", "down"], "actionTimes": [3995, 29418, 37610, 39803, 40315], "queries": {"click": {"state": {"target": [], "time": []}, "edge": {"target": [], "time": []}}, "mouseover": {"state": {"target": [], "time": []}, "edge": {"target": [], "time": []}}, "mouseout": {"state": {"target": ["12", "0", "24", "24", "23", "0", "12", "0", "23", "23", "0", "0", "12"], "time": [860, 6545, 7913, 10295, 10477, 11743, 12459, 23311, 23711, 25645, 26062, 42627, 42981]}, "edge": {"target": [], "time": []}}}, "displayed_time": "40.84", "trialTime": 44155, "trial_type": "mouselab-mdp", "trial_index": 14, "time_elapsed": 864570, "internal_node_id": "0.0-4.0-1.0-5.0"}}, {"uniqueid": "w80390260:a83584178", "current_trial": 15, "dateTime": 1691143137326, "trialdata": {"revealed_states": [], "clicked_states": [], "num_clicks_accrued": [0, 0, 0, 0, 0, 0, 0, 0, 0, 0, 0, 0, 0], "stateRewards": ["", -2, 2, -5, -6, 10, -66, -58, -10, -11, -63, -70, -1, -4, -5, 7, 66, -64, -43, -3, 45, -37, 4, -2, -2, -6, -4, -30, 33, 43, 15, -32, -65, -59], "withholdReward": false, "trial_id": "mdp_trial_7", "block": "test", "trialIndex": 8, "score": -50, "costs": 0, "simulationMode": [null, null, null, null, null], "rewards": [-1, -4, -5, -3, -37], "path": ["0", "0", "12", "13", "14", "19", "21"], "rt": [14449, 4695, 281, 939, 282], "actions": ["right", "right", "right", "down", "down"], "actionTimes": [22450, 27661, 28481, 29921, 30714], "queries": {"click": {"state": {"target": [], "time": []}, "edge": {"target": [], "time": []}}, "mouseover": {"state": {"target": ["0", "12", "0"], "time": [8831, 11197, 19915]}, "edge": {"target": [], "time": []}}, "mouseout": {"state": {"target": ["0", "0", "12", "0"], "time": [947, 9247, 13682, 24815]}, "edge": {"target": [], "time": []}}}, "displayed_time": "31.23", "trialTime": 35030, "trial_type": "mouselab-mdp", "trial_index": 15, "time_elapsed": 899776, "internal_node_id": "0.0-4.0-1.0-6.0"}}, {"uniqueid": "w80390260:a83584178", "current_trial": 16, "dateTime": 1691143183630, "trialdata": {"revealed_states": [], "clicked_states": [], "num_clicks_accrued": [0, 0, 0, 0, 0, 0, 0, 0, 0, 0, 0, 0, 0], "stateRewards": ["", 1, -3, -6, -5, 47, 80, -29, 11, -71, 10, -29, -2, 3, -6, 12, 2, -78, -6, 8, 34, -16, -5, -1, 3, 3, -13, 84, -36, -62, -3, -27, 66, 15], "withholdReward": false, "trial_id": "mdp_trial_8", "block": "test", "trialIndex": 9, "score": 68, "costs": 0, "simulationMode": [null, null, null, null, null], "rewards": [-1, 3, 3, -3, 66], "path": ["0", "0", "23", "24", "25", "30", "32"], "rt": [3014, 30741, 299, 990, 105], "actions": ["left", "left", "left", "down", "down"], "actionTimes": [7961, 39199, 40009, 41515, 42129], "queries": {"click": {"state": {"target": [], "time": []}, "edge": {"target": [], "time": []}}, "mouseover": {"state": {"target": [], "time": []}, "edge": {"target": [], "time": []}}, "mouseout": {"state": {"target": ["12", "0", "0", "24", "0", "23", "23"], "time": [921, 2472, 9421, 13156, 24289, 24590, 27106]}, "edge": {"target": [], "time": []}}}, "displayed_time": "42.63", "trialTime": 46143, "trial_type": "mouselab-mdp", "trial_index": 16, "time_elapsed": 946079, "internal_node_id": "0.0-4.0-1.0-7.0"}}, {"uniqueid": "w80390260:a83584178", "current_trial": 17, "dateTime": 1691143212295, "trialdata": {"revealed_states": [], "clicked_states": [], "num_clicks_accrued": [0, 0, 0, 0, 0, 0, 0, 0, 0, 0, 0, 0, 0], "stateRewards": ["", 2, -4, -4, 13, -80, 62, 13, -11, 57, -13, -44, 1, 4, 3, -4, -29, -88, 15, 16, -58, 68, -45, -1, -3, -1, -9, -44, -86, -19, -7, -36, 59, 66], "withholdReward": false, "trial_id": "mdp_trial_9", "block": "test", "trialIndex": 10, "score": -25, "costs": 0, "simulationMode": [null, null, null, null, null], "rewards": [1, 4, 3, -4, -29], "path": ["0", "0", "12", "13", "14", "15", "16"], "rt": [12982, 307, 176, 971, 431], "actions": ["right", "right", "right", "up", "up"], "actionTimes": [17534, 18355, 19024, 20487, 21431], "queries": {"click": {"state": {"target": [], "time": []}, "edge": {"target": [], "time": []}}, "mouseover": {"state": {"target": ["0", "23", "24", "23", "0"], "time": [5100, 8746, 8980, 10564, 14752]}, "edge": {"target": [], "time": []}}, "mouseout": {"state": {"target": ["0", "0", "23", "24", "23", "0"], "time": [1030, 7793, 8913, 10463, 10712, 23696]}, "edge": {"target": [], "time": []}}}, "displayed_time": "21.95", "trialTime": 28499, "trial_type": "mouselab-mdp", "trial_index": 17, "time_elapsed": 974745, "internal_node_id": "0.0-4.0-1.0-8.0"}}, {"uniqueid": "w80390260:a83584178", "current_trial": 18, "dateTime": 1691143233474, "trialdata": {"revealed_states": [], "clicked_states": [], "num_clicks_accrued": [0, 0, 0, 0, 0, 0, 0, 0, 0, 0, 0, 0, 0], "stateRewards": ["", 1, -2, -2, 10, -31, -77, 35, 9, -47, 8, 48, -2, 1, -4, -3, -26, -50, 43, -11, 76, -38, 17, 1, -1, 6, 10, 15, -9, 12, -8, 85, 11, -55], "withholdReward": false, "trial_id": "mdp_trial_10", "block": "test", "trialIndex": 11, "score": 9, "costs": 0, "simulationMode": [null, null, null, null, null], "rewards": [1, -1, 6, -8, 11], "path": ["0", "0", "23", "24", "25", "30", "32"], "rt": [7978, 156, 14, 1356, 81], "actions": ["left", "left", "left", "down", "down"], "actionTimes": [10798, 11447, 11957, 13847, 14439], "queries": {"click": {"state": {"target": [], "time": []}, "edge": {"target": [], "time": []}}, "mouseover": {"state": {"target": ["0", "12", "0"], "time": [4575, 6487, 8023]}, "edge": {"target": [], "time": []}}, "mouseout": {"state": {"target": ["0", "0", "12", "0", "0"], "time": [1039, 6485, 7907, 8107, 18907]}, "edge": {"target": [], "time": []}}}, "displayed_time": "16.82", "trialTime": 21004, "trial_type": "mouselab-mdp", "trial_index": 18, "time_elapsed": 995923, "internal_node_id": "0.0-4.0-1.0-9.0"}}, {"uniqueid": "w80390260:a83584178", "current_trial": 19, "dateTime": 1691143253351, "trialdata": {"revealed_states": [], "clicked_states": [], "num_clicks_accrued": [0, 0, 0, 0, 0, 0, 0, 0, 0, 0, 0, 0, 0], "stateRewards": ["", 1, 4, 5, -5, 58, -80, 75, 6, 25, -39, 46, 2, -2, 4, 2, 59, 31, -22, -12, -61, 15, 72, 1, -2, -7, 8, 77, 76, -23, -7, 71, -15, -3], "withholdReward": false, "trial_id": "mdp_trial_11", "block": "test", "trialIndex": 12, "score": 7, "costs": 0, "simulationMode": [null, null, null, null, null], "rewards": [2, -2, 4, -12, 15], "path": ["0", "0", "12", "13", "14", "19", "21"], "rt": [9486, 1870, 591, 807, 176], "actions": ["right", "right", "right", "down", "down"], "actionTimes": [11249, 13623, 14711, 16025, 16695], "queries": {"click": {"state": {"target": [], "time": []}, "edge": {"target": [], "time": []}}, "mouseover": {"state": {"target": ["13"], "time": [7492]}, "edge": {"target": [], "time": []}}, "mouseout": {"state": {"target": ["0"], "time": [1318]}, "edge": {"target": [], "time": []}}}, "displayed_time": "17.19", "trialTime": 19726, "trial_type": "mouselab-mdp", "trial_index": 19, "time_elapsed": 1015801, "internal_node_id": "0.0-4.0-1.0-10.0"}}, {"uniqueid": "w80390260:a83584178", "current_trial": 20, "dateTime": 1691143273167, "trialdata": {"revealed_states": [], "clicked_states": [], "num_clicks_accrued": [0, 0, 0, 0, 0, 0, 0, 0, 0, 0, 0, 0, 0], "stateRewards": ["", -2, -3, -6, -7, 9, 16, 65, 5, -41, 20, -25, -1, -4, 1, -11, -49, -4, 71, 1, 39, -62, 52, -2, -3, 7, -9, -28, -70, 84, 8, 24, -58, 82], "withholdReward": false, "trial_id": "mdp_trial_12", "block": "test", "trialIndex": 13, "score": -35, "costs": 0, "simulationMode": [null, null, null, null, null], "rewards": [-2, -3, 7, -9, -28], "path": ["0", "0", "23", "24", "25", "26", "27"], "rt": [2248, 65, 8969, 1494, 107], "actions": ["left", "left", "left", "up", "up"], "actionTimes": [3614, 4196, 13667, 15658, 16271], "queries": {"click": {"state": {"target": [], "time": []}, "edge": {"target": [], "time": []}}, "mouseover": {"state": {"target": [], "time": []}, "edge": {"target": [], "time": []}}, "mouseout": {"state": {"target": ["13", "12", "0", "23", "24"], "time": [162, 396, 5529, 12047, 12281]}, "edge": {"target": [], "time": []}}}, "displayed_time": "16.76", "trialTime": 19637, "trial_type": "mouselab-mdp", "trial_index": 20, "time_elapsed": 1035616, "internal_node_id": "0.0-4.0-1.0-11.0"}}, {"uniqueid": "w80390260:a83584178", "current_trial": 21, "dateTime": 1691143293077, "trialdata": {"revealed_states": [], "clicked_states": ["25", "15"], "num_clicks_accrued": [0, 0, 0, 0, 0, 0, 0, 0, 0, 0, 0, 0, 0], "stateRewards": ["", -2, 2, 3, -7, -31, -33, 29, -8, -57, 50, -83, -1, -1, 5, 13, -23, -62, 25, 5, -66, -85, 14, 1, -2, -1, 16, 71, 33, -19, -14, 5, -43, 79], "withholdReward": false, "trial_id": "mdp_trial_13", "block": "test", "trialIndex": 14, "score": -9.5, "costs": -2.5, "simulationMode": [null, null, null, null, null], "rewards": [-1, -1, 5, 13, -23], "path": ["0", "0", "12", "13", "14", "15", "16"], "rt": [5696, 6, 340, 1776, 1041], "actions": ["right", "right", "right", "up", "up"], "actionTimes": [7714, 8238, 9089, 11375, 12906], "queries": {"click": {"state": {"target": ["25", "15"], "time": [4031, 6324]}, "edge": {"target": [], "time": []}}, "mouseover": {"state": {"target": ["23", "24", "24", "25", "1", "15"], "time": [2997, 3129, 3231, 3531, 5263, 5915]}, "edge": {"target": [], "time": []}}, "mouseout": {"state": {"target": ["24", "0", "23", "24", "24", "25", "1", "15"], "time": [921, 1513, 3097, 3163, 3431, 4183, 5296, 18298]}, "edge": {"target": [], "time": []}}}, "displayed_time": "16.02", "trialTime": 19731, "trial_type": "mouselab-mdp", "trial_index": 21, "time_elapsed": 1055526, "internal_node_id": "0.0-4.0-1.0-12.0"}}, {"uniqueid": "w80390260:a83584178", "current_trial": 22, "dateTime": 1691143315613, "trialdata": {"revealed_states": [], "clicked_states": ["23", "26"], "num_clicks_accrued": [0, 0, 0, 0, 0, 0, 0, 0, 0, 0, 0, 0, 0], "stateRewards": ["", 2, -1, 5, 6, 10, 86, 55, 10, -45, 63, -71, 1, -2, 5, -8, -50, -72, 36, 15, 61, 12, 33, -1, -4, 6, 5, 79, -56, -21, -16, -87, 60, -81], "withholdReward": false, "trial_id": "mdp_trial_14", "block": "test", "trialIndex": 15, "score": 43.7, "costs": -1.3, "simulationMode": [null, null, null, null, null], "rewards": [-1, -4, 6, -16, 60], "path": ["0", "0", "23", "24", "25", "30", "32"], "rt": [5266, 834, 1056, 2122, 625], "actions": ["left", "left", "left", "down", "down"], "actionTimes": [7584, 8937, 10492, 13108, 14228], "queries": {"click": {"state": {"target": ["23", "26"], "time": [4144, 6347]}, "edge": {"target": [], "time": []}}, "mouseover": {"state": {"target": ["23", "24", "28", "26"], "time": [3751, 5485, 5618, 6035]}, "edge": {"target": [], "time": []}}, "mouseout": {"state": {"target": ["15", "18", "23", "23", "24", "28", "26", "28", "1", "0"], "time": [1068, 1118, 4202, 5385, 5551, 5868, 6479, 18468, 19702, 20853]}, "edge": {"target": [], "time": []}}}, "displayed_time": "16.32", "trialTime": 22372, "trial_type": "mouselab-mdp", "trial_index": 22, "time_elapsed": 1078063, "internal_node_id": "0.0-4.0-1.0-13.0"}}, {"uniqueid": "w80390260:a83584178", "current_trial": 23, "dateTime": 1691143335226, "trialdata": {"revealed_states": [], "clicked_states": [], "num_clicks_accrued": [0, 0, 0, 0, 0, 0, 0, 0, 0, 0, 0, 0, 0], "stateRewards": ["", 1, -1, 4, -2, -75, -75, 84, -9, -60, -79, 59, 2, -4, 8, 9, -17, -82, 80, 14, -4, 49, 49, -1, 3, 6, -11, -33, 34, 55, 9, -57, 5, 59], "withholdReward": false, "trial_id": "mdp_trial_15", "block": "test", "trialIndex": 16, "score": -36, "costs": 0, "simulationMode": [null, null, null, null, null], "rewards": [-1, 3, 6, -11, -33], "path": ["0", "0", "23", "24", "25", "26", "27"], "rt": [9195, 531, 844, 2119, 208], "actions": ["left", "left", "left", "up", "up"], "actionTimes": [10638, 11687, 13034, 15643, 16364], "queries": {"click": {"state": {"target": [], "time": []}, "edge": {"target": [], "time": []}}, "mouseover": {"state": {"target": ["18", "15", "18", "12", "0"], "time": [3805, 4156, 9005, 9121, 9221]}, "edge": {"target": [], "time": []}}, "mouseout": {"state": {"target": ["0", "18", "15", "18", "12", "0", "0"], "time": [2855, 3971, 8789, 9055, 9172, 9255, 19138]}, "edge": {"target": [], "time": []}}}, "displayed_time": "16.86", "trialTime": 19438, "trial_type": "mouselab-mdp", "trial_index": 23, "time_elapsed": 1097676, "internal_node_id": "0.0-4.0-1.0-14.0"}}, {"uniqueid": "w80390260:a83584178", "current_trial": 24, "dateTime": 1691143357846, "trialdata": {"revealed_states": [], "clicked_states": ["14", "28"], "num_clicks_accrued": [0, 0, 0, 0, 0, 0, 0, 0, 0, 0, 0, 0, 0], "stateRewards": ["", -2, -4, 2, 10, -17, 18, 73, 11, -32, 23, -13, -2, -4, 7, 12, -25, 66, -23, 15, 40, -76, -9, 1, 2, -7, -5, -20, 24, 3, -5, 16, -73, 70], "withholdReward": false, "trial_id": "mdp_trial_16", "block": "test", "trialIndex": 17, "score": 11.9, "costs": -3.0999999999999996, "simulationMode": [null, null, null, null, null], "rewards": [1, 2, -7, -5, 24], "path": ["0", "0", "23", "24", "25", "26", "28"], "rt": [8164, 377, 4215, 1770, 928], "actions": ["left", "left", "left", "up", "right"], "actionTimes": [9936, 10812, 15533, 17805, 19230], "queries": {"click": {"state": {"target": ["14", "28"], "time": [3158, 4740]}, "edge": {"target": [], "time": []}}, "mouseover": {"state": {"target": ["12", "13", "14", "13", "12", "23", "24", "28", "3", "2", "23", "23"], "time": [2250, 2349, 2817, 3933, 3966, 4083, 4150, 4434, 5634, 6884, 7300, 7851]}, "edge": {"target": [], "time": []}}, "mouseout": {"state": {"target": ["0", "12", "13", "14", "13", "12", "23", "24", "28", "3", "2", "23", "23"], "time": [1050, 2299, 2383, 3883, 3957, 4017, 4116, 4250, 5451, 6867, 6900, 7687, 21318]}, "edge": {"target": [], "time": []}}}, "displayed_time": "19.73", "trialTime": 22420, "trial_type": "mouselab-mdp", "trial_index": 24, "time_elapsed": 1120295, "internal_node_id": "0.0-4.0-1.0-15.0"}}, {"uniqueid": "w80390260:a83584178", "current_trial": 25, "dateTime": 1691143379618, "trialdata": {"revealed_states": [], "clicked_states": ["24", "3", "15"], "num_clicks_accrued": [0, 0, 0, 0, 0, 0, 0, 0, 0, 0, 0, 0, 0], "stateRewards": ["", -2, -1, -2, -15, 87, 57, 29, -10, 77, -80, -7, 1, -3, 6, 14, -11, 87, -59, 4, -71, 16, -11, 2, 2, -7, 2, -47, 61, 50, 14, -20, 17, 81], "withholdReward": false, "trial_id": "mdp_trial_17", "block": "test", "trialIndex": 18, "score": 4.15, "costs": -2.8499999999999996, "simulationMode": [null, null, null, null, null], "rewards": [1, -3, 6, 14, -11], "path": ["0", "0", "12", "13", "14", "15", "16"], "rt": [7076, 1057, 1084, 3661, 723], "actions": ["right", "right", "right", "up", "up"], "actionTimes": [9480, 11054, 12630, 16809, 18020], "queries": {"click": {"state": {"target": ["24", "3", "15"], "time": [4743, 5906, 7438]}, "edge": {"target": [], "time": []}}, "mouseover": {"state": {"target": ["23", "24", "2", "3", "7", "18", "15"], "time": [4047, 4428, 5213, 5415, 6712, 6913, 7165]}, "edge": {"target": [], "time": []}}, "mouseout": {"state": {"target": ["0", "23", "24", "2", "3", "7", "18", "15", "15"], "time": [1996, 4213, 4902, 5413, 6528, 6763, 6995, 7585, 8062]}, "edge": {"target": [], "time": []}}}, "displayed_time": "18.52", "trialTime": 21570, "trial_type": "mouselab-mdp", "trial_index": 25, "time_elapsed": 1142067, "internal_node_id": "0.0-4.0-1.0-16.0"}}, {"uniqueid": "w80390260:a83584178", "current_trial": 26, "dateTime": 1691143403178, "trialdata": {"revealed_states": [], "clicked_states": ["25", "9"], "num_clicks_accrued": [0, 0, 0, 0, 0, 0, 0, 0, 0, 0, 0, 0, 0], "stateRewards": ["", -2, -4, 4, -11, -63, -60, -7, 2, -14, 81, -43, -1, -1, -5, 7, 10, 69, 40, 8, -83, 52, 60, 1, 2, 5, -5, 16, 64, 14, -3, 29, 7, -51], "withholdReward": false, "trial_id": "mdp_trial_18", "block": "test", "trialIndex": 19, "score": 6.9, "costs": -3.0999999999999996, "simulationMode": [null, null, null, null, null], "rewards": [-1, -1, -5, 7, 10], "path": ["0", "0", "12", "13", "14", "15", "16"], "rt": [7102, 2921, 3528, 1689, 527], "actions": ["right", "right", "right", "up", "up"], "actionTimes": [8919, 12335, 16360, 18553, 19574], "queries": {"click": {"state": {"target": ["25", "9"], "time": [3130, 4851]}, "edge": {"target": [], "time": []}}, "mouseover": {"state": {"target": ["23", "24", "25", "28", "8", "9", "3", "7", "15"], "time": [2362, 2495, 2696, 3779, 4015, 4471, 5562, 5679, 5896]}, "edge": {"target": [], "time": []}}, "mouseout": {"state": {"target": ["13", "12", "23", "24", "25", "28", "8", "9", "9", "3", "7", "15", "18", "0"], "time": [829, 1044, 2428, 2614, 3263, 3797, 4151, 4968, 5478, 5628, 5697, 21496, 21630, 21963]}, "edge": {"target": [], "time": []}}}, "displayed_time": "20.06", "trialTime": 23363, "trial_type": "mouselab-mdp", "trial_index": 26, "time_elapsed": 1165627, "internal_node_id": "0.0-4.0-1.0-17.0"}}, {"uniqueid": "w80390260:a83584178", "current_trial": 27, "dateTime": 1691143439858, "trialdata": {"revealed_states": [], "clicked_states": ["24", "3", "14"], "num_clicks_accrued": [0, 0, 0, 0, 0, 0, 0, 0, 0, 0, 0, 0, 0], "stateRewards": ["", 1, 4, 5, 8, -55, -11, 8, 16, -37, 77, -22, -2, 3, -8, -10, 45, 87, -67, 4, 17, -33, -22, -1, -3, 7, 6, -39, -85, 75, -1, 7, -48, 45], "withholdReward": false, "trial_id": "mdp_trial_19", "block": "test", "trialIndex": 20, "score": -48.25, "costs": -2.25, "simulationMode": [null, null, null, null, null], "rewards": [-1, -3, 7, -1, -48], "path": ["0", "0", "23", "24", "25", "30", "32"], "rt": [13156, 829, 12261, 2759, 89], "actions": ["left", "left", "left", "down", "down"], "actionTimes": [14807, 16157, 28937, 32276, 32903], "queries": {"click": {"state": {"target": ["24", "3", "14"], "time": [4165, 5630, 7267]}, "edge": {"target": [], "time": []}}, "mouseover": {"state": {"target": ["23", "24", "24", "10", "3", "7", "15", "14", "13", "12", "0"], "time": [3277, 3492, 3765, 4961, 5309, 6241, 6344, 6925, 12425, 12575, 12793]}, "edge": {"target": [], "time": []}}, "mouseout": {"state": {"target": ["0", "23", "24", "24", "10", "3", "7", "15", "14", "13", "12", "0", "0", "23", "0", "23", "24", "25", "25", "24", "23"], "time": [1174, 3409, 3593, 4678, 5012, 6209, 6277, 6376, 12375, 12526, 12675, 12842, 25559, 29909, 30159, 30308, 30491, 30707, 35192, 35541, 35875]}, "edge": {"target": [], "time": []}}}, "displayed_time": "33.41", "trialTime": 36474, "trial_type": "mouselab-mdp", "trial_index": 27, "time_elapsed": 1202307, "internal_node_id": "0.0-4.0-1.0-18.0"}}, {"uniqueid": "w80390260:a83584178", "current_trial": 28, "dateTime": 1691143464274, "trialdata": {"revealed_states": [], "clicked_states": [], "num_clicks_accrued": [0, 0, 0, 0, 0, 0, 0, 0, 0, 0, 0, 0, 0], "stateRewards": ["", 1, -2, 7, -14, 88, -56, -44, -14, 64, -51, -57, -2, 3, -4, -9, -11, 19, -77, -1, 68, 75, -67, -1, 1, -2, 5, -37, 70, -34, -10, -72, 63, -41], "withholdReward": false, "trial_id": "mdp_trial_20", "block": "test", "trialIndex": 21, "score": -34, "costs": 0, "simulationMode": [null, null, null, null, null], "rewards": [-1, 1, -2, 5, -37], "path": ["0", "0", "23", "24", "25", "26", "27"], "rt": [9354, 538, 1465, 2514, 390], "actions": ["left", "left", "left", "up", "up"], "actionTimes": [13851, 14909, 16871, 19888, 20779], "queries": {"click": {"state": {"target": [], "time": []}, "edge": {"target": [], "time": []}}, "mouseover": {"state": {"target": ["18", "15", "13", "12"], "time": [7422, 7786, 11953, 12069]}, "edge": {"target": [], "time": []}}, "mouseout": {"state": {"target": ["23", "0", "18", "15", "13", "12"], "time": [2991, 4053, 7487, 11487, 11970, 22903]}, "edge": {"target": [], "time": []}}}, "displayed_time": "21.27", "trialTime": 24183, "trial_type": "mouselab-mdp", "trial_index": 28, "time_elapsed": 1226723, "internal_node_id": "0.0-4.0-1.0-19.0"}}, {"uniqueid": "w80390260:a83584178", "current_trial": 29, "dateTime": 1691143495714, "trialdata": {"revealed_states": [], "clicked_states": [], "num_clicks_accrued": [0, 0, 0, 0, 0, 0, 0, 0, 0, 0, 0, 0, 0], "stateRewards": ["", 2, -2, -8, 9, -20, 55, -58, 14, 42, 2, 36, 1, -3, -5, 5, -58, 57, 60, 16, 57, 30, -70, -2, 1, 3, 10, 59, 23, 77, -13, -26, 88, -72], "withholdReward": false, "trial_id": "mdp_trial_21", "block": "test", "trialIndex": 22, "score": 42, "costs": 0, "simulationMode": [null, null, null, null, null], "rewards": [2, -2, -8, 14, 36], "path": ["0", "0", "1", "2", "3", "8", "11"], "rt": [10387, 1292, 564, 1566, 769], "actions": ["up", "up", "up", "left", "left"], "actionTimes": [21243, 23036, 24091, 26159, 27428], "queries": {"click": {"state": {"target": [], "time": []}, "edge": {"target": [], "time": []}}, "mouseover": {"state": {"target": ["12"], "time": [14772]}, "edge": {"target": [], "time": []}}, "mouseout": {"state": {"target": ["7", "2", "8", "1", "0", "12", "0"], "time": [9075, 9091, 9608, 9942, 10557, 16842, 29708]}, "edge": {"target": [], "time": []}}}, "displayed_time": "27.95", "trialTime": 31230, "trial_type": "mouselab-mdp", "trial_index": 29, "time_elapsed": 1258163, "internal_node_id": "0.0-4.0-1.0-20.0"}}, {"uniqueid": "w80390260:a83584178", "current_trial": 30, "dateTime": 1691143522393, "trialdata": {"revealed_states": [], "clicked_states": ["13", "2", "26", "30", "19", "22"], "num_clicks_accrued": [0, 0, 0, 0, 0, 0, 0, 0, 0, 0, 0, 0, 0], "stateRewards": ["", 2, 4, -3, 16, -58, 30, -35, 11, -60, 47, 27, -2, -1, -7, -16, 23, -70, 68, -10, -65, -43, -34, -2, 1, 7, 9, -63, 34, -31, -8, -12, -86, 59], "withholdReward": false, "trial_id": "mdp_trial_22", "block": "test", "trialIndex": 23, "score": -95.5, "costs": -7.5, "simulationMode": [null, null, null, null, null], "rewards": [-2, 1, 7, -8, -86], "path": ["0", "0", "23", "24", "25", "30", "32"], "rt": [13540, 1266, 1313, 1208, 919], "actions": ["left", "left", "left", "down", "down"], "actionTimes": [16370, 18145, 19959, 21670, 23082], "queries": {"click": {"state": {"target": ["13", "2", "26", "30", "19", "22"], "time": [3980, 5422, 6772, 8170, 11147, 13018]}, "edge": {"target": [], "time": []}}, "mouseover": {"state": {"target": ["0", "12", "13", "2", "2", "10", "26", "25", "30", "31", "22", "19", "19", "22", "13"], "time": [2950, 3494, 3628, 4764, 5405, 6012, 6313, 7444, 7879, 8678, 8812, 9998, 10811, 12312, 14278]}, "edge": {"target": [], "time": []}}, "mouseout": {"state": {"target": ["0", "0", "12", "13", "2", "2", "10", "26", "26", "25", "30", "30", "31", "22", "19", "19", "22", "13"], "time": [2412, 3447, 3595, 4581, 5111, 5444, 6095, 6906, 7378, 7761, 8290, 8644, 8696, 8827, 10012, 12078, 14062, 25294]}, "edge": {"target": [], "time": []}}}, "displayed_time": "23.58", "trialTime": 26461, "trial_type": "mouselab-mdp", "trial_index": 30, "time_elapsed": 1284842, "internal_node_id": "0.0-4.0-1.0-21.0"}}, {"uniqueid": "w80390260:a83584178", "current_trial": 31, "dateTime": 1691143558119, "trialdata": {"revealed_states": [], "clicked_states": ["14", "15", "26", "3", "24", "30", "32", "4", "10"], "num_clicks_accrued": [0, 0, 0, 0, 0, 0, 0, 0, 0, 0, 0, 0, 0], "stateRewards": ["", 2, -1, -1, -9, -81, -30, 55, -6, 78, 25, 62, 2, 4, -1, 9, -85, 1, -19, 1, -60, 12, -34, 1, 4, -1, -13, -24, -16, -83, -8, 16, 43, 9], "withholdReward": false, "trial_id": "mdp_trial_23", "block": "test", "trialIndex": 24, "score": 26.25, "costs": -12.75, "simulationMode": [null, null, null, null, null], "rewards": [1, 4, -1, -8, 43], "path": ["0", "0", "23", "24", "25", "30", "32"], "rt": [24644, 302, 768, 1384, 394], "actions": ["left", "left", "left", "down", "down"], "actionTimes": [26891, 27692, 28974, 30858, 31751], "queries": {"click": {"state": {"target": ["14", "15", "26", "3", "24", "30", "32", "4", "10"], "time": [4705, 6072, 7336, 9014, 10584, 12243, 13678, 19018, 20516]}, "edge": {"target": [], "time": []}}, "mouseover": {"state": {"target": ["12", "13", "14", "15", "18", "1", "28", "26", "10", "3", "10", "24", "25", "25", "30", "32", "22", "19", "13", "18", "4", "7", "2", "10", "1", "23"], "time": [3387, 3639, 3804, 5621, 6556, 6638, 6772, 7117, 8155, 8356, 9838, 10237, 11406, 11590, 11921, 13304, 14471, 15256, 18072, 18121, 18622, 19655, 19788, 19938, 21255, 21588]}, "edge": {"target": [], "time": []}}, "mouseout": {"state": {"target": ["12", "13", "14", "15", "18", "1", "28", "26", "10", "3", "3", "10", "24", "25", "25", "30", "32", "22", "19", "13", "18", "4", "7", "2", "10", "1", "23"], "time": [3438, 3738, 5471, 6554, 6572, 6655, 6838, 7722, 8188, 9194, 9755, 9905, 11290, 11439, 11722, 13005, 14288, 14888, 16738, 18088, 18154, 19538, 19738, 19888, 20988, 21271, 25955]}, "edge": {"target": [], "time": []}}}, "displayed_time": "32.24", "trialTime": 35514, "trial_type": "mouselab-mdp", "trial_index": 31, "time_elapsed": 1320568, "internal_node_id": "0.0-4.0-1.0-22.0"}}, {"uniqueid": "w80390260:a83584178", "current_trial": 32, "dateTime": 1691143610862, "trialdata": {"revealed_states": [], "clicked_states": ["1", "26", "4", "9", "14", "31", "2", "27", "20", "30", "12", "18", "10"], "num_clicks_accrued": [0, 0, 0, 0, 0, 0, 0, 0, 0, 0, 0, 0, 0], "stateRewards": ["", -2, 2, 3, -7, 76, 63, 21, 15, 35, -8, -44, 1, 1, -2, -12, 23, 24, 76, -9, 46, 66, -49, -2, -1, 7, 12, 40, -71, -45, -6, 38, -49, 46], "withholdReward": false, "trial_id": "mdp_trial_24", "block": "test", "trialIndex": 25, "score": -69.35, "costs": -18.349999999999998, "simulationMode": [null, null, null, null, null], "rewards": [-2, -1, 7, -6, -49], "path": ["0", "0", "23", "24", "25", "30", "32"], "rt": [41063, 111, 152, 1023, 415], "actions": ["left", "left", "left", "down", "down"], "actionTimes": [44028, 44653, 45309, 46830, 47739], "queries": {"click": {"state": {"target": ["1", "26", "4", "9", "14", "31", "2", "27", "20", "30", "12", "18", "10"], "time": [4748, 6434, 7969, 9214, 13133, 15197, 20497, 21968, 25867, 30311, 31990, 34389, 38024]}, "edge": {"target": [], "time": []}}, "mouseover": {"state": {"target": ["1", "28", "26", "10", "4", "9", "3", "2", "13", "14", "14", "13", "31", "31", "30", "33", "24", "23", "1", "2", "10", "27", "28", "1", "13", "17", "20", "19", "22", "31", "32", "30", "31", "12", "18", "16", "0", "23", "1", "10", "23"], "time": [4339, 5972, 6073, 7057, 7622, 8907, 11155, 11210, 11622, 11975, 12572, 13841, 14639, 14955, 15889, 16173, 18406, 18455, 19638, 20073, 21189, 21674, 22623, 22691, 22774, 23073, 25156, 26905, 27139, 27522, 27956, 29338, 30956, 31372, 33556, 35406, 36690, 36923, 37205, 37606, 40689]}, "edge": {"target": [], "time": []}}, "mouseout": {"state": {"target": ["0", "1", "1", "28", "26", "26", "10", "4", "4", "9", "3", "2", "13", "14", "14", "13", "31", "31", "30", "33", "24", "23", "1", "2", "2", "10", "27", "28", "1", "13", "17", "20", "20", "19", "22", "31", "32", "30", "31", "12", "12", "18", "16", "18", "0", "23", "1", "10", "23"], "time": [2122, 4902, 5822, 6022, 6458, 6990, 7093, 8076, 8490, 10764, 11190, 11229, 11945, 12188, 13710, 13908, 14921, 15839, 15989, 18322, 18439, 18489, 19989, 20653, 21142, 21272, 22557, 22640, 22707, 22800, 25005, 26051, 26839, 27022, 27222, 27572, 29123, 30890, 30989, 32106, 33122, 35373, 36506, 36639, 36839, 37056, 37222, 40289, 49871]}, "edge": {"target": [], "time": []}}}, "displayed_time": "48.24", "trialTime": 52557, "trial_type": "mouselab-mdp", "trial_index": 32, "time_elapsed": 1373311, "internal_node_id": "0.0-4.0-1.0-23.0"}}, {"uniqueid": "w80390260:a83584178", "current_trial": 33, "dateTime": 1691143647339, "trialdata": {"revealed_states": [], "clicked_states": ["15", "9", "32", "21", "26", "1", "2"], "num_clicks_accrued": [0, 0, 0, 0, 0, 0, 0, 0, 0, 0, 0, 0, 0], "stateRewards": ["", 2, -4, 1, -12, -59, -53, -74, 16, -88, -66, 66, 1, -2, 8, -9, -14, 22, 25, -1, -39, 47, -14, -1, -1, -2, 1, -4, 52, -26, 15, -7, 46, 43], "withholdReward": false, "trial_id": "mdp_trial_25", "block": "test", "trialIndex": 26, "score": -16.65, "costs": -9.65, "simulationMode": [null, null, null, null, null], "rewards": [-1, -1, -2, 1, -4], "path": ["0", "0", "23", "24", "25", "26", "27"], "rt": [25170, 2, 76, 2111, 5], "actions": ["left", "left", "left", "up", "up"], "actionTimes": [27465, 27980, 28588, 31205, 32720], "queries": {"click": {"state": {"target": ["15", "9", "32", "21", "26", "1", "2"], "time": [4353, 6116, 8902, 11976, 16244, 17844, 19618]}, "edge": {"target": [], "time": []}}, "mouseover": {"state": {"target": ["18", "15", "18", "7", "3", "9", "26", "33", "32", "22", "19", "21", "22", "23", "24", "26", "28", "1", "2", "23", "31"], "time": [3644, 3960, 4927, 4977, 5027, 5459, 6744, 6811, 7461, 10010, 10046, 10593, 12629, 13028, 13078, 13562, 16962, 17078, 18910, 22130, 26243]}, "edge": {"target": [], "time": []}}, "mouseout": {"state": {"target": ["0", "18", "15", "18", "7", "3", "9", "26", "33", "32", "22", "19", "21", "22", "23", "24", "26", "26", "28", "1", "2", "2", "23", "31"], "time": [1227, 3878, 4476, 4944, 4994, 5376, 6661, 6761, 7062, 8994, 10027, 10427, 12012, 12661, 13061, 13111, 16251, 16928, 16994, 18411, 19661, 20194, 26128, 34895]}, "edge": {"target": [], "time": []}}}, "displayed_time": "33.23", "trialTime": 36289, "trial_type": "mouselab-mdp", "trial_index": 33, "time_elapsed": 1409788, "internal_node_id": "0.0-4.0-1.0-24.0"}}, {"uniqueid": "w80390260:a83584178", "current_trial": 34, "dateTime": 1691143668596, "trialdata": {"revealed_states": [], "clicked_states": ["15", "28", "19"], "num_clicks_accrued": [0, 0, 0, 0, 0, 0, 0, 0, 0, 0, 0, 0, 0], "stateRewards": ["", 1, 1, 5, 6, -29, -7, 3, -16, 9, -46, 65, -1, 4, -1, -16, -63, -77, -87, 8, 80, -50, 43, -1, -1, -5, 5, -38, -71, -62, 9, 81, -50, -52], "withholdReward": false, "trial_id": "mdp_trial_26", "block": "test", "trialIndex": 27, "score": -45.25, "costs": -5.25, "simulationMode": [null, null, null, null, null], "rewards": [-1, 4, -1, 8, -50], "path": ["0", "0", "12", "13", "14", "19", "21"], "rt": [11061, 5, 168, 1355, 163], "actions": ["right", "right", "right", "down", "down"], "actionTimes": [13382, 13894, 14590, 16459, 17119], "queries": {"click": {"state": {"target": ["15", "28", "19"], "time": [4278, 6187, 10422]}, "edge": {"target": [], "time": []}}, "mouseover": {"state": {"target": ["18", "15", "18", "1", "28", "26", "28", "25", "30", "33", "30", "31", "19", "22", "31"], "time": [3424, 3857, 5097, 5253, 5420, 5536, 5921, 7154, 7290, 7605, 9119, 9186, 9853, 11237, 11536]}, "edge": {"target": [], "time": []}}, "mouseout": {"state": {"target": ["0", "18", "15", "15", "18", "1", "28", "26", "28", "25", "30", "33", "30", "31", "19", "22", "31"], "time": [1485, 3470, 4440, 5036, 5154, 5287, 5520, 5737, 6987, 7221, 7503, 9087, 9170, 9203, 11204, 11287, 11986]}, "edge": {"target": [], "time": []}}}, "displayed_time": "17.64", "trialTime": 21039, "trial_type": "mouselab-mdp", "trial_index": 34, "time_elapsed": 1431046, "internal_node_id": "0.0-4.0-1.0-25.0"}}, {"uniqueid": "w80390260:a83584178", "current_trial": 35, "dateTime": 1691143691335, "trialdata": {"revealed_states": [], "clicked_states": [], "num_clicks_accrued": [0, 0, 0, 0, 0, 0, 0, 0, 0, 0, 0, 0, 0], "stateRewards": ["", -2, -1, -3, -1, -78, -6, 2, -1, 22, -88, 32, 2, 2, -7, -8, -51, -17, 54, 2, -44, 54, 75, 2, -2, -8, -15, -29, 12, -67, 15, -1, -47, -47], "withholdReward": false, "trial_id": "mdp_trial_27", "block": "test", "trialIndex": 28, "score": 53, "costs": 0, "simulationMode": [null, null, null, null, null], "rewards": [2, 2, -7, 2, 54], "path": ["0", "0", "12", "13", "14", "19", "21"], "rt": [9461, 451, 342, 983, 328], "actions": ["right", "right", "right", "down", "down"], "actionTimes": [14600, 15562, 16419, 17893, 18738], "queries": {"click": {"state": {"target": [], "time": []}, "edge": {"target": [], "time": []}}, "mouseover": {"state": {"target": ["23", "24", "23", "0"], "time": [6726, 7003, 12275, 12459]}, "edge": {"target": [], "time": []}}, "mouseout": {"state": {"target": ["23", "32", "12", "13", "29", "3", "4", "6", "18", "12", "0", "23", "24", "23", "0"], "time": [2543, 2741, 2792, 2807, 3209, 3258, 3274, 3308, 3408, 3477, 4391, 7002, 12141, 12392, 12691]}, "edge": {"target": [], "time": []}}}, "displayed_time": "19.24", "trialTime": 22501, "trial_type": "mouselab-mdp", "trial_index": 35, "time_elapsed": 1453785, "internal_node_id": "0.0-4.0-1.0-26.0"}}, {"uniqueid": "w80390260:a83584178", "current_trial": 36, "dateTime": 1691143739304, "trialdata": {"revealed_states": [], "clicked_states": ["2", "24", "13", "31", "10", "17", "19", "33"], "num_clicks_accrued": [0, 0, 0, 0, 0, 0, 0, 0, 0, 0, 0, 0, 0], "stateRewards": ["", 1, 1, 4, 11, 83, -66, 18, -16, -23, 5, 25, 1, -3, 1, -12, 18, 24, -86, -11, -64, 36, 40, 2, 1, -6, 13, 55, 29, 72, -2, 81, -72, -41], "withholdReward": false, "trial_id": "mdp_trial_28", "block": "test", "trialIndex": 29, "score": -88.2, "costs": -11.200000000000001, "simulationMode": [null, null, null, null, null], "rewards": [2, 1, -6, -2, -72], "path": ["0", "0", "23", "24", "25", "30", "32"], "rt": [24592, 845, 8631, 1339, 566], "actions": ["left", "left", "left", "down", "down"], "actionTimes": [26498, 27862, 36997, 38844, 39916], "queries": {"click": {"state": {"target": ["2", "24", "13", "31", "10", "17", "19", "33"], "time": [3955, 5218, 7157, 9002, 12472, 16956, 19888, 22069]}, "edge": {"target": [], "time": []}}, "mouseover": {"state": {"target": ["23", "2", "2", "24", "23", "0", "12", "13", "31", "24", "24", "28", "10", "10", "2", "7", "6", "15", "17", "14", "19", "22", "30", "33", "32"], "time": [3082, 3348, 3686, 4816, 6200, 6286, 6381, 6481, 8666, 10023, 10232, 10282, 10599, 10961, 13282, 13366, 13683, 16332, 16515, 17715, 18032, 20850, 21331, 21732, 22750]}, "edge": {"target": [], "time": []}}, "mouseout": {"state": {"target": ["0", "1", "23", "2", "2", "24", "23", "0", "12", "13", "31", "24", "24", "28", "10", "10", "2", "7", "6", "15", "17", "17", "14", "19", "19", "22", "30", "33", "32", "0", "12", "0"], "time": [685, 1117, 3314, 3382, 4568, 6183, 6266, 6348, 6431, 8248, 10020, 10032, 10249, 10401, 10816, 13183, 13333, 13399, 15631, 16465, 17122, 17616, 17848, 20123, 20849, 20865, 21632, 22633, 24349, 45148, 46132, 46450]}, "edge": {"target": [], "time": []}}}, "displayed_time": "40.44", "trialTime": 47761, "trial_type": "mouselab-mdp", "trial_index": 36, "time_elapsed": 1501754, "internal_node_id": "0.0-4.0-1.0-27.0"}}, {"uniqueid": "w80390260:a83584178", "current_trial": 37, "dateTime": 1691143760039, "trialdata": {"revealed_states": [], "clicked_states": ["12"], "num_clicks_accrued": [0, 0, 0, 0, 0, 0, 0, 0, 0, 0, 0, 0, 0], "stateRewards": ["", 2, -1, -4, -13, 74, 77, 3, 2, -43, -2, -11, 2, 3, 7, 11, -26, -29, -33, -3, -3, -13, -3, 1, 3, -7, 14, -59, 33, 9, -5, 34, 79, 68], "withholdReward": false, "trial_id": "mdp_trial_29", "block": "test", "trialIndex": 30, "score": 61.25, "costs": 0.25, "simulationMode": [null, null, null, null, null], "rewards": [2, -1, -4, -13, 77], "path": ["0", "0", "1", "2", "3", "4", "6"], "rt": [11303, 86, 139, 1117, 461], "actions": ["up", "up", "up", "right", "right"], "actionTimes": [13102, 13698, 14334, 15962, 16941], "queries": {"click": {"state": {"target": ["12"], "time": [4593]}, "edge": {"target": [], "time": []}}, "mouseover": {"state": {"target": ["0", "12", "12", "0", "23"], "time": [3826, 3977, 4329, 5644, 5946]}, "edge": {"target": [], "time": []}}, "mouseout": {"state": {"target": ["0", "0", "12", "12", "0", "23"], "time": [1227, 3877, 4169, 5579, 5711, 8994]}, "edge": {"target": [], "time": []}}}, "displayed_time": "17.46", "trialTime": 20472, "trial_type": "mouselab-mdp", "trial_index": 37, "time_elapsed": 1522488, "internal_node_id": "0.0-4.0-1.0-28.0"}}, {"uniqueid": "w80390260:a83584178", "current_trial": 38, "dateTime": 1691143796473, "trialdata": {"revealed_states": [], "clicked_states": ["23", "6", "25", "19", "32", "2"], "num_clicks_accrued": [0, 0, 0, 0, 0, 0, 0, 0, 0, 0, 0, 0, 0], "stateRewards": ["", 1, 4, -4, 14, 35, 51, 19, -13, 54, 78, -74, -2, -1, -3, 13, -11, -42, -73, -15, -24, -3, -69, 2, -1, 5, 16, -27, 73, 58, 9, -60, 5, -60], "withholdReward": false, "trial_id": "mdp_trial_30", "block": "test", "trialIndex": 31, "score": 13.100000000000001, "costs": -6.899999999999999, "simulationMode": [null, null, null, null, null], "rewards": [2, -1, 5, 9, 5], "path": ["0", "0", "23", "24", "25", "30", "32"], "rt": [20564, 974, 463, 3455, 502], "actions": ["left", "left", "left", "down", "down"], "actionTimes": [25035, 26519, 27493, 31466, 32481], "queries": {"click": {"state": {"target": ["23", "6", "25", "19", "32", "2"], "time": [6097, 7855, 12003, 14262, 16416, 19287]}, "edge": {"target": [], "time": []}}, "mouseover": {"state": {"target": ["0", "23", "2", "4", "6", "4", "3", "27", "26", "25", "22", "19", "22", "32", "23", "2", "1", "23", "24"], "time": [4643, 5727, 6560, 6594, 7527, 8378, 8461, 9145, 10346, 10710, 12860, 13126, 14961, 15494, 17177, 17677, 20394, 21510, 21926]}, "edge": {"target": [], "time": []}}, "mouseout": {"state": {"target": ["0", "0", "23", "2", "4", "6", "6", "4", "3", "27", "26", "25", "22", "19", "19", "22", "32", "23", "2", "1", "23", "24"], "time": [919, 4895, 6527, 6578, 6811, 7961, 8345, 8428, 8479, 10295, 10413, 12643, 12976, 14411, 14927, 14995, 16962, 17210, 20244, 20560, 21560, 35798]}, "edge": {"target": [], "time": []}}}, "displayed_time": "33.00", "trialTime": 36208, "trial_type": "mouselab-mdp", "trial_index": 38, "time_elapsed": 1558923, "internal_node_id": "0.0-4.0-1.0-29.0"}}, {"uniqueid": "w80390260:a83584178", "current_trial": 39, "dateTime": 1691143815344, "trialdata": {"revealed_states": [], "clicked_states": [], "num_clicks_accrued": [0, 0, 0, 0, 0, 0, 0, 0, 0, 0, 0, 0, 0], "stateRewards": ["", 2, -3, -2, 14, -4, 85, 46, 15, -28, 41, 31, -1, -1, -1, 5, 62, 79, 57, 12, -73, -64, 86, -1, 1, -3, -5, 68, 11, -32, 8, -80, -21, -56], "withholdReward": false, "trial_id": "mdp_trial_31", "block": "test", "trialIndex": 32, "score": 60, "costs": 0, "simulationMode": [null, null, null, null, null], "rewards": [-1, 1, -3, -5, 68], "path": ["0", "0", "23", "24", "25", "26", "27"], "rt": [7639, 89, 477, 2562, 333], "actions": ["left", "left", "left", "up", "up"], "actionTimes": [9654, 10258, 11248, 14315, 15152], "queries": {"click": {"state": {"target": [], "time": []}, "edge": {"target": [], "time": []}}, "mouseover": {"state": {"target": ["12", "13", "14"], "time": [4268, 4518, 4868]}, "edge": {"target": [], "time": []}}, "mouseout": {"state": {"target": ["23", "0", "12", "13", "14", "19"], "time": [1268, 1584, 4502, 4718, 17202, 17268]}, "edge": {"target": [], "time": []}}}, "displayed_time": "16.02", "trialTime": 18636, "trial_type": "mouselab-mdp", "trial_index": 39, "time_elapsed": 1577794, "internal_node_id": "0.0-4.0-1.0-30.0"}}, {"uniqueid": "w80390260:a83584178", "current_trial": 40, "dateTime": 1691143844160, "trialdata": {"revealed_states": [], "clicked_states": ["15", "21"], "num_clicks_accrued": [0, 0, 0, 0, 0, 0, 0, 0, 0, 0, 0, 0, 0], "stateRewards": ["", -1, -4, -3, 1, -45, -67, -24, 14, 32, 22, 22, -1, 1, -5, -7, 72, 84, -79, -5, 19, -40, -2, -1, -2, 8, -3, 84, -25, -28, 11, 64, -66, 77], "withholdReward": false, "trial_id": "mdp_trial_32", "block": "test", "trialIndex": 33, "score": -53.7, "costs": -3.7, "simulationMode": [null, null, null, null, null], "rewards": [-1, -2, 8, 11, -66], "path": ["0", "0", "23", "24", "25", "30", "32"], "rt": [11782, 1017, 1091, 3322, 723], "actions": ["left", "left", "left", "down", "down"], "actionTimes": [17005, 18535, 20143, 23974, 25208], "queries": {"click": {"state": {"target": ["15", "21"], "time": [7462, 10463]}, "edge": {"target": [], "time": []}}, "mouseover": {"state": {"target": ["18", "15", "22", "14", "19", "21", "31", "30", "25"], "time": [6534, 6700, 8972, 9383, 9483, 9970, 11451, 11502, 14850]}, "edge": {"target": [], "time": []}}, "mouseout": {"state": {"target": ["21", "22", "13", "12", "0", "18", "15", "22", "14", "19", "21", "31", "30", "25"], "time": [3833, 3883, 3916, 4300, 4567, 6681, 8969, 9117, 9433, 9701, 11269, 11485, 14668, 15368]}, "edge": {"target": [], "time": []}}}, "displayed_time": "25.72", "trialTime": 28583, "trial_type": "mouselab-mdp", "trial_index": 40, "time_elapsed": 1606609, "internal_node_id": "0.0-4.0-1.0-31.0"}}, {"uniqueid": "w80390260:a83584178", "current_trial": 41, "dateTime": 1691143877070, "trialdata": {"revealed_states": [], "clicked_states": ["12", "21", "4", "8", "26", "30", "33", "19", "16"], "num_clicks_accrued": [0, 0, 0, 0, 0, 0, 0, 0, 0, 0, 0, 0, 0], "stateRewards": ["", 1, 1, 6, -14, -40, 37, 16, -13, 33, -68, 49, 2, 4, 3, 6, 55, 27, 32, 10, -65, 20, -87, 2, 1, -6, -5, -42, 12, 29, -8, 16, 76, -33], "withholdReward": false, "trial_id": "mdp_trial_33", "block": "test", "trialIndex": 34, "score": 56.05, "costs": -13.950000000000001, "simulationMode": [null, null, null, null, null, null], "rewards": [2, 4, 3, 6, 55], "path": ["0", "0", "12", "13", "14", "15", "16"], "rt": [21465, 593, 15, 678, 1773, 73], "actions": ["right", "right", "right", "right", "up", "up"], "actionTimes": [24227, 24821, 25355, 26536, 28814, 29396], "queries": {"click": {"state": {"target": ["12", "21", "4", "8", "26", "30", "33", "19", "16"], "time": [5176, 7809, 10804, 12665, 14087, 15786, 17006, 20146, 21817]}, "edge": {"target": [], "time": []}}, "mouseover": {"state": {"target": ["12", "13", "19", "21", "21", "19", "18", "4", "4", "3", "8", "8", "26", "26", "25", "30", "33", "31", "22", "19", "14", "15", "16", "18", "13"], "time": [4472, 6505, 6789, 7105, 7372, 8539, 8872, 9006, 9222, 11672, 11756, 12206, 13255, 13589, 14657, 15306, 16506, 17728, 17873, 18241, 20705, 20805, 20972, 22523, 22657]}, "edge": {"target": [], "time": []}}, "mouseout": {"state": {"target": ["28", "12", "12", "13", "19", "21", "21", "19", "18", "4", "4", "3", "8", "8", "26", "26", "26", "25", "30", "33", "33", "30", "31", "22", "19", "14", "15", "16", "18", "13"], "time": [1539, 5307, 6471, 6555, 6938, 7273, 8009, 8556, 8890, 9055, 10982, 11723, 11806, 13172, 13305, 14252, 14573, 15205, 16340, 17073, 17656, 17706, 17739, 17906, 20273, 20771, 20905, 22339, 22573, 22707]}, "edge": {"target": [], "time": []}}}, "displayed_time": "29.89", "trialTime": 32648, "trial_type": "mouselab-mdp", "trial_index": 41, "time_elapsed": 1639519, "internal_node_id": "0.0-4.0-1.0-32.0"}}, {"uniqueid": "w80390260:a83584178", "current_trial": 42, "dateTime": 1691143901069, "trialdata": {"revealed_states": [], "clicked_states": ["14"], "num_clicks_accrued": [0, 0, 0, 0, 0, 0, 0, 0, 0, 0, 0, 0, 0], "stateRewards": ["", 1, -1, 1, -14, -10, 67, -28, -11, 72, 40, -65, -1, 1, 1, -2, 8, -55, 34, -10, 61, 33, -15, 2, -4, 7, 4, -75, 63, -21, -16, 61, 19, 21], "withholdReward": false, "trial_id": "mdp_trial_34", "block": "test", "trialIndex": 35, "score": -66.95, "costs": -0.95, "simulationMode": [null, null, null, null, null], "rewards": [2, -4, 7, 4, -75], "path": ["0", "0", "23", "24", "25", "26", "27"], "rt": [8793, 2262, 603, 1826, 846], "actions": ["left", "left", "left", "up", "up"], "actionTimes": [12653, 15435, 16560, 18898, 20252], "queries": {"click": {"state": {"target": ["14"], "time": [5544]}, "edge": {"target": [], "time": []}}, "mouseover": {"state": {"target": ["12", "13", "14", "1", "12", "20", "20", "19"], "time": [4903, 4954, 5088, 7471, 7570, 7938, 8370, 8538]}, "edge": {"target": [], "time": []}}, "mouseout": {"state": {"target": ["0", "12", "13", "14", "1", "12", "20", "20"], "time": [2771, 4937, 5004, 7124, 7487, 7871, 7955, 8404]}, "edge": {"target": [], "time": []}}}, "displayed_time": "20.79", "trialTime": 23796, "trial_type": "mouselab-mdp", "trial_index": 42, "time_elapsed": 1663519, "internal_node_id": "0.0-4.0-1.0-33.0"}}, {"uniqueid": "w80390260:a83584178", "current_trial": 43, "dateTime": 1691143921195, "trialdata": {"revealed_states": [], "clicked_states": ["3", "7"], "num_clicks_accrued": [0, 0, 0, 0, 0, 0, 0, 0, 0, 0, 0, 0, 0], "stateRewards": ["", -1, 3, 1, -11, -22, -36, 19, -5, -70, -52, 50, -2, -4, 4, -2, -41, -83, 29, -2, 22, 10, -6, -2, 3, -2, 14, 54, 44, 77, -9, -65, -37, -40], "withholdReward": false, "trial_id": "mdp_trial_35", "block": "test", "trialIndex": 36, "score": 7.9, "costs": -3.0999999999999996, "simulationMode": [null, null, null, null, null], "rewards": [-1, 3, 1, -11, 19], "path": ["0", "0", "1", "2", "3", "4", "7"], "rt": [9893, 21, 683, 1510, 411], "actions": ["up", "up", "up", "right", "down"], "actionTimes": [12373, 12901, 14112, 16141, 17060], "queries": {"click": {"state": {"target": ["3", "7"], "time": [4820, 6254]}, "edge": {"target": [], "time": []}}, "mouseover": {"state": {"target": ["1", "2", "3", "4", "7", "18", "15", "18"], "time": [3446, 3798, 4095, 5514, 5729, 6729, 7096, 9963]}, "edge": {"target": [], "time": []}}, "mouseout": {"state": {"target": ["19", "20", "13", "12", "0", "1", "2", "3", "3", "4", "7", "18", "15", "18"], "time": [1079, 1311, 1429, 1762, 2012, 3545, 3913, 4970, 5430, 5613, 6698, 6762, 9862, 10029]}, "edge": {"target": [], "time": []}}}, "displayed_time": "17.60", "trialTime": 19913, "trial_type": "mouselab-mdp", "trial_index": 43, "time_elapsed": 1683644, "internal_node_id": "0.0-4.0-1.0-34.0"}}, {"uniqueid": "w80390260:a83584178", "current_trial": 44, "dateTime": 1691143949987, "trialdata": {"revealed_states": [], "clicked_states": ["25", "8", "15", "19", "12", "13", "31"], "num_clicks_accrued": [0, 0, 0, 0, 0, 0, 0, 0, 0, 0, 0, 0, 0], "stateRewards": ["", -2, -3, 8, -4, -30, 31, 69, 9, 66, 87, 64, -2, 2, 8, 5, 47, 16, -39, -8, -54, 51, -19, 1, -2, -2, -11, -25, -26, 43, -9, 19, -84, 86], "withholdReward": false, "trial_id": "mdp_trial_36", "block": "test", "trialIndex": 37, "score": -0.8500000000000014, "costs": -7.85, "simulationMode": [null, null, null, null, null], "rewards": [1, -2, -2, -9, 19], "path": ["0", "0", "23", "24", "25", "30", "31"], "rt": [15915, 688, 636, 2311, 1113], "actions": ["left", "left", "left", "down", "right"], "actionTimes": [17872, 19078, 20226, 23051, 24670], "queries": {"click": {"state": {"target": ["25", "8", "15", "19", "12", "13", "31"], "time": [3479, 5077, 6394, 8361, 9907, 11477, 12855]}, "edge": {"target": [], "time": []}}, "mouseover": {"state": {"target": ["23", "24", "24", "25", "26", "8", "3", "7", "15", "14", "19", "22", "12", "0", "12", "13", "0", "31", "30", "32", "24", "23"], "time": [2705, 2788, 2889, 3123, 4038, 4688, 5572, 5672, 6125, 6905, 7555, 9006, 9123, 9206, 9472, 11022, 12088, 12555, 13806, 14040, 16373, 16689]}, "edge": {"target": [], "time": []}}, "mouseout": {"state": {"target": ["23", "24", "24", "25", "26", "8", "3", "7", "15", "15", "14", "19", "22", "12", "0", "12", "13", "13", "12", "0", "31", "31", "30", "32", "24"], "time": [2755, 2838, 2922, 4023, 4055, 5555, 5589, 5722, 6544, 6839, 7105, 8956, 9039, 9141, 9306, 10888, 11627, 12054, 12073, 12122, 12889, 13739, 13872, 15905, 16405]}, "edge": {"target": [], "time": []}}}, "displayed_time": "25.21", "trialTime": 28581, "trial_type": "mouselab-mdp", "trial_index": 44, "time_elapsed": 1712436, "internal_node_id": "0.0-4.0-1.0-35.0"}}, {"uniqueid": "w80390260:a83584178", "current_trial": 45, "dateTime": 1691143990468, "trialdata": {"revealed_states": [], "clicked_states": ["2", "27", "16", "14", "30", "10", "4", "13", "31", "29"], "num_clicks_accrued": [0, 0, 0, 0, 0, 0, 0, 0, 0, 0, 0, 0, 0], "stateRewards": ["", -2, 2, -2, -7, -50, -62, -45, 7, 36, -24, -72, -1, -1, 8, -1, -67, 20, -52, 2, 35, -50, 80, -1, 1, 6, -6, -70, 6, 88, 8, -47, 74, -19], "withholdReward": false, "trial_id": "mdp_trial_37", "block": "test", "trialIndex": 38, "score": 25.5, "costs": -15.500000000000002, "simulationMode": [null, null, null, null, null, null], "rewards": [-2, 2, -2, 7, 36], "path": ["0", "0", "1", "2", "3", "8", "9"], "rt": [28417, 782, 608, 736, 1646, 1240], "actions": ["up", "up", "up", "up", "left", "up"], "actionTimes": [30003, 30786, 31906, 33152, 35312, 37056], "queries": {"click": {"state": {"target": ["2", "27", "16", "14", "30", "10", "4", "13", "31", "29"], "time": [3084, 4510, 7907, 11936, 14023, 15488, 18759, 21377, 23040, 27610]}, "edge": {"target": [], "time": []}}, "mouseover": {"state": {"target": ["1", "2", "10", "27", "16", "15", "14", "13", "31", "30", "10", "10", "3", "4", "7", "12", "13", "12", "31", "21", "29"], "time": [2297, 2449, 3731, 4148, 5233, 8565, 8720, 12980, 13114, 13530, 14849, 14948, 18182, 18381, 19501, 20682, 20997, 22082, 22464, 25131, 26949]}, "edge": {"target": [], "time": []}}, "mouseout": {"state": {"target": ["23", "1", "2", "10", "27", "16", "15", "14", "13", "31", "30", "10", "10", "3", "4", "7", "12", "13", "12", "31", "21", "29"], "time": [999, 2365, 3657, 3798, 4949, 8515, 8664, 12932, 13014, 13131, 14581, 14898, 17899, 18347, 19432, 19699, 20865, 22033, 22149, 24315, 26131, 28066]}, "edge": {"target": [], "time": []}}}, "displayed_time": "37.56", "trialTime": 40255, "trial_type": "mouselab-mdp", "trial_index": 45, "time_elapsed": 1752917, "internal_node_id": "0.0-4.0-1.0-36.0"}}, {"uniqueid": "w80390260:a83584178", "current_trial": 46, "dateTime": 1691144025642, "trialdata": {"revealed_states": [], "clicked_states": ["14", "12", "1", "23", "25", "24", "3", "7"], "num_clicks_accrued": [0, 0, 0, 0, 0, 0, 0, 0, 0, 0, 0, 0, 0], "stateRewards": ["", 1, 1, 7, -11, 80, -20, -53, -14, 3, 31, 27, 2, -1, -8, -10, 33, 41, 86, 9, 78, -37, -13, -1, -2, -6, -8, -80, 75, 4, -16, -49, -74, 24], "withholdReward": false, "trial_id": "mdp_trial_38", "block": "test", "trialIndex": 39, "score": -59.6, "costs": -4.6, "simulationMode": [null, null, null, null, null], "rewards": [1, 1, 7, -11, -53], "path": ["0", "0", "1", "2", "3", "4", "7"], "rt": [21780, 861, 686, 1485, 983], "actions": ["up", "up", "up", "right", "down"], "actionTimes": [25638, 27019, 28225, 30224, 31722], "queries": {"click": {"state": {"target": ["14", "12", "1", "23", "25", "24", "3", "7"], "time": [6246, 7459, 8781, 10241, 12506, 13438, 15176, 16620]}, "edge": {"target": [], "time": []}}, "mouseover": {"state": {"target": ["12", "13", "14", "13", "12", "1", "23", "0", "12", "0", "24", "25", "24", "2", "3", "2", "7", "18", "15", "18", "12", "12", "0", "1", "10", "0"], "time": [5274, 5571, 5787, 7004, 7137, 8454, 9837, 10988, 11138, 11520, 11721, 12020, 13121, 14438, 14820, 15854, 15937, 17587, 17725, 19621, 19936, 20354, 21753, 22137, 22559, 24287]}, "edge": {"target": [], "time": []}}, "mouseout": {"state": {"target": ["25", "24", "23", "12", "13", "14", "13", "12", "1", "1", "23", "23", "0", "12", "0", "23", "24", "25", "24", "2", "3", "3", "2", "7", "18", "15", "18", "12", "12", "0", "1", "10", "0"], "time": [1604, 1936, 2286, 5287, 5637, 6937, 7072, 8254, 9372, 9655, 10671, 10921, 11071, 11487, 11587, 11671, 11988, 13021, 13954, 14571, 15188, 15704, 15887, 17338, 17637, 19537, 19638, 20104, 21720, 22088, 22154, 23670, 24453]}, "edge": {"target": [], "time": []}}}, "displayed_time": "32.24", "trialTime": 34937, "trial_type": "mouselab-mdp", "trial_index": 46, "time_elapsed": 1788091, "internal_node_id": "0.0-4.0-1.0-37.0"}}, {"uniqueid": "w80390260:a83584178", "current_trial": 47, "dateTime": 1691144062897, "trialdata": {"revealed_states": [], "clicked_states": ["24", "25", "14", "16", "31", "3", "10", "22"], "num_clicks_accrued": [0, 0, 0, 0, 0, 0, 0, 0, 0, 0, 0, 0, 0], "stateRewards": ["", 2, 4, 7, -6, -76, -81, 2, 5, -66, -3, 36, -2, -4, 6, -2, -69, 4, -49, -6, 67, 38, -67, 2, 1, 1, 6, -68, -21, 52, -16, -16, 6, -70], "withholdReward": false, "trial_id": "mdp_trial_39", "block": "test", "trialIndex": 40, "score": -62.8, "costs": -11.8, "simulationMode": [null, null, null, null, null, null], "rewards": [-2, -4, 6, -2, -49], "path": ["0", "0", "12", "13", "14", "15", "18"], "rt": [21903, 870, 556, 602, 1341, 1953], "actions": ["right", "right", "right", "right", "up", "left"], "actionTimes": [25442, 26315, 27376, 28489, 30345, 32808], "queries": {"click": {"state": {"target": ["24", "25", "14", "16", "31", "3", "10", "22"], "time": [6128, 7826, 10101, 11402, 14678, 17602, 18932, 23122]}, "edge": {"target": [], "time": []}}, "mouseover": {"state": {"target": ["23", "24", "25", "1", "18", "14", "15", "16", "15", "19", "21", "31", "30", "24", "10", "3", "3", "8", "10", "1", "13", "19", "22"], "time": [4406, 4502, 7218, 9068, 9319, 9784, 10771, 10986, 12086, 12236, 12621, 14053, 15335, 16370, 16419, 16642, 16985, 18419, 18652, 19503, 19620, 19969, 20236]}, "edge": {"target": [], "time": []}}, "mouseout": {"state": {"target": ["23", "23", "24", "24", "25", "1", "18", "14", "15", "16", "15", "14", "19", "21", "31", "30", "24", "10", "3", "3", "8", "10", "10", "1", "13", "19", "22"], "time": [2851, 4453, 6920, 7087, 8502, 9235, 9352, 10636, 10902, 12037, 12136, 12203, 12303, 13636, 15268, 16335, 16386, 16435, 16658, 18302, 18436, 19037, 19452, 19536, 19644, 20068, 34985]}, "edge": {"target": [], "time": []}}}, "displayed_time": "33.32", "trialTime": 37039, "trial_type": "mouselab-mdp", "trial_index": 47, "time_elapsed": 1825347, "internal_node_id": "0.0-4.0-1.0-38.0"}}, {"uniqueid": "w80390260:a83584178", "current_trial": 48, "dateTime": 1691144104579, "trialdata": {"revealed_states": [], "clicked_states": ["24", "2", "15", "19", "30", "9", "4", "10", "13", "12", "23", "1", "22"], "num_clicks_accrued": [0, 0, 0, 0, 0, 0, 0, 0, 0, 0, 0, 0, 0], "stateRewards": ["", 1, -2, -8, -3, 31, -84, -55, -14, 15, -58, 17, -2, -3, 7, 7, -12, 48, 67, 4, -44, -68, 46, 2, 3, -5, -7, 76, 27, 5, 11, 57, 52, 59], "withholdReward": false, "trial_id": "mdp_trial_40", "block": "test", "trialIndex": 41, "score": 39.05, "costs": -12.950000000000001, "simulationMode": [null, null, null, null, null], "rewards": [-2, -3, 7, 4, 46], "path": ["0", "0", "12", "13", "14", "19", "22"], "rt": [29381, 571, 962, 902, 1091], "actions": ["right", "right", "right", "down", "left"], "actionTimes": [32717, 33800, 35274, 36681, 38286], "queries": {"click": {"state": {"target": ["24", "2", "15", "19", "30", "9", "4", "10", "13", "12", "23", "1", "22"], "time": [4658, 6104, 7577, 8860, 10339, 11812, 15668, 18092, 21127, 22073, 23495, 25352, 27475]}, "edge": {"target": [], "time": []}}, "mouseover": {"state": {"target": ["23", "24", "2", "2", "7", "18", "15", "14", "19", "22", "31", "30", "9", "4", "7", "2", "10", "13", "12", "0", "23", "1", "12", "22", "19", "21", "12"], "time": [4144, 4260, 5412, 5744, 6729, 6896, 7062, 8322, 8461, 9612, 9862, 10010, 11477, 12612, 16611, 16794, 17195, 19295, 21729, 22895, 23078, 24577, 26661, 27128, 28211, 28362, 30277]}, "edge": {"target": [], "time": []}}, "mouseout": {"state": {"target": ["0", "23", "24", "2", "2", "7", "18", "15", "14", "19", "22", "31", "30", "30", "9", "4", "7", "2", "10", "13", "13", "12", "12", "0", "23", "1", "12", "22", "22", "19", "21", "22", "12"], "time": [2894, 4194, 4786, 5612, 6661, 6746, 6962, 8297, 8361, 9495, 9645, 9961, 10412, 10827, 11962, 16528, 16662, 16994, 18796, 21312, 21597, 22271, 22845, 22946, 23712, 26377, 26874, 27666, 28111, 28231, 29795, 29912, 31093]}, "edge": {"target": [], "time": []}}}, "displayed_time": "38.80", "trialTime": 41446, "trial_type": "mouselab-mdp", "trial_index": 48, "time_elapsed": 1867028, "internal_node_id": "0.0-4.0-1.0-39.0"}}, {"uniqueid": "w80390260:a83584178", "current_trial": 49, "dateTime": 1691144198591, "trialdata": {"rt": 93959, "response": {"Q0": "$-2 to $2", "Q1": "$-16 to $16", "Q2": "$-32 to $32", "Q3": "The cost for clicking on nodes varied between nodes.", "Q4": "Very motivated"}, "question_order": [0, 1, 2, 3, 4], "trial_id": "final_quiz_control", "trial_type": "survey-multi-choice", "trial_index": 49, "time_elapsed": 1961040, "internal_node_id": "0.0-4.0-2.0"}}, {"uniqueid": "w80390260:a83584178", "current_trial": 50, "dateTime": 1691144329766, "trialdata": {"rt": 128930, "response": {"Q0": "I tried to click as quickly as possible and if a high number appeared I would try and aim kfor it.", "Q1": "I think I did on one or two near the end.", "Q2": "I think the speed made it difficult."}, "trial_id": "self_report_control", "trial_type": "survey-text", "trial_index": 50, "time_elapsed": 2092216, "internal_node_id": "0.0-4.0-3.0"}}, {"uniqueid": "w80390260:a83584178", "current_trial": 51, "dateTime": 1691144420230, "trialdata": {"rt": 90458, "response": {"Q0": "Disagree", "Q1": "Neither disagree nor agree", "Q2": "Neither disagree nor agree", "Q3": "Neither disagree nor agree", "Q4": "Disagree", "Q5": "Agree", "Q6": "Disagree"}, "question_order": [0, 1, 2, 3, 4, 5, 6], "trial_id": "self_report_2", "trial_type": "survey-multi-choice", "trial_index": 51, "time_elapsed": 2182680, "internal_node_id": "0.0-4.0-4.0"}}, {"uniqueid": "w80390260:a83584178", "current_trial": 52, "dateTime": 1691144478555, "trialdata": {"rt": 58282, "response": {"gender": "female", "age": "76", "colorblind": "0", "effort": "0"}, "trial_type": "survey-html-form", "trial_index": 52, "time_elapsed": 2241005, "internal_node_id": "0.0-4.0-5.0"}}, {"uniqueid": "w80390260:a83584178", "current_trial": 53, "dateTime": 1691144645102, "trialdata": {"rt": 166521, "response": {"Q0": "I was a bit confused to start with I kept moving the spider too early I think", "Q1": "No I did not realise I had participated in a Web of Cash HIT before.", "Q2": "I think it must have been a long time ago."}, "trial_type": "survey-text", "trial_index": 53, "time_elapsed": 2407551, "internal_node_id": "0.0-4.0-6.0"}}, {"uniqueid": "w80390260:a83584178", "current_trial": 54, "dateTime": 1691144650444, "trialdata": {"rt": 5190, "stimulus": "Press 'Finish HIT' in order to reach the completion code. Once the data has been saved, you will receive the code either in this window or in the original browser window where you started the experiment.\n", "response": 0, "trial_type": "html-button-response", "trial_index": 54, "time_elapsed": 2412893, "internal_node_id": "0.0-5.0"}}, {"uniqueid": "w80390260:a83584178", "current_trial": 55, "dateTime": 1691144651559, "trialdata": {"success": true, "trial_type": "fullscreen", "trial_index": 55, "time_elapsed": 2414009, "internal_node_id": "0.0-6.0"}}], "questiondata": {"params": {"CODE": "C6DMOQA6", "MIN_TIME": 14, "inspectCost": 1, "startTime": "Fri Aug 04 2023 11:43:54 GMT+0200 (South Africa Standard Time)", "bonusRate": 0.002, "variance": "1_2_4_8_44", "branching": "31123"}, "final_score": -233.85}, "eventdata": [{"eventtype": "initialized", "value": null, "timestamp": 1691142234219, "interval": 0}, {"eventtype": "window_resize", "value": [1028, 744], "timestamp": 1691142234219, "interval": 0}, {"eventtype": "window_resize", "value": [1028, 744], "timestamp": 1691142234738, "interval": 519}, {"eventtype": "window_resize", "value": [1536, 864], "timestamp": 1691142250337, "interval": 15599}], "useragent": "Mozilla/5.0 (Windows NT 10.0; Win64; x64) AppleWebKit/537.36 (KHTML, like Gecko) Chrome/115.0.0.0 Safari/537.36", "mode": "live", "id": "w80390260:a83584178", "status": "user data saved", "Beginhit": "2023-08-04 09:43:55.107678", "Beginexp": "2023-08-04 09:44:16.421027", "Endhit": "2023-08-04 10:24:20.296394", "psiturkStatus": 3, "browser": "<redacted>", "platform": "windows", "language": "en-GB"}