{"condition": 1, "counterbalance": 0, "assignmentId": "a93665578", "workerId": "w14820724", "hitId": "h17322086", "currenttrial": 56, "bonus": 0, "data": [{"uniqueid": "w14820724:a93665578", "current_trial": 0, "dateTime": 1691142315549, "trialdata": {"success": true, "trial_type": "fullscreen", "trial_index": 0, "time_elapsed": 10696, "internal_node_id": "0.0-0.0"}}, {"uniqueid": "w14820724:a93665578", "current_trial": 1, "dateTime": 1691142333361, "trialdata": {"view_history": [{"page_index": 0, "viewing_time": 17787}], "rt": 17789, "trial_id": "exp_instructions_misaligned", "trial_type": "instructions", "trial_index": 1, "time_elapsed": 28509, "internal_node_id": "0.0-1.0"}}, {"uniqueid": "w14820724:a93665578", "current_trial": 2, "dateTime": 1691142351117, "trialdata": {"success": true, "trial_type": "fullscreen", "trial_index": 2, "time_elapsed": 46265, "internal_node_id": "0.0-2.0-0.0"}}, {"uniqueid": "w14820724:a93665578", "current_trial": 3, "dateTime": 1691143037933, "trialdata": {"view_history": [{"page_index": 0, "viewing_time": 76038}, {"page_index": 1, "viewing_time": 101209}, {"page_index": 2, "viewing_time": 123325}, {"page_index": 3, "viewing_time": 386219}], "rt": 686792, "trial_id": "mouselab_instructions_1_misaligned", "trial_type": "instructions", "trial_index": 3, "time_elapsed": 733081, "internal_node_id": "0.0-2.0-1.0"}}, {"uniqueid": "w14820724:a93665578", "current_trial": 4, "dateTime": 1691143214694, "trialdata": {"revealed_states": [], "clicked_states": ["25", "14", "2", "3", "8", "15", "19", "30", "29", "10", "16", "17", "18", "31", "33", "7", "5", "6", "9", "11", "4", "1", "27", "26", "28", "24", "32", "23", "12", "13", "22", "20", "21"], "num_clicks_accrued": [0, 0, 0, 0, 0, 0, 0, 0, 0, 0, 0, 0, 0], "stateRewards": ["", 10, -10, -10, 10, -10, -10, 10, 10, -10, 10, 10, 10, -10, 10, -10, 10, -10, 10, -10, -10, 10, 10, 10, 10, -10, -10, -10, -10, -10, -10, 10, 10, -10], "withholdReward": false, "trial_id": "practice_1", "block": "test", "trialIndex": 0, "score": -3, "costs": -16.5, "simulationMode": [null, null, null, null, null], "rewards": [10, -10, 10, -10, 10], "path": ["0", "0", "12", "13", "14", "15", "16"], "rt": [138331, 9421, 730, 1684, 7748], "actions": ["right", "right", "right", "up", "up"], "actionTimes": [144766, 154731, 156003, 158221, 166525], "queries": {"click": {"state": {"target": ["25", "14", "2", "3", "8", "15", "19", "30", "29", "10", "16", "17", "18", "31", "33", "7", "5", "6", "9", "11", "4", "1", "27", "26", "28", "24", "32", "23", "12", "13", "22", "20", "21"], "time": [10290, 15430, 18433, 24670, 29507, 33502, 39812, 43591, 45671, 48087, 51809, 55463, 59913, 63664, 67374, 72154, 75698, 79105, 82946, 85495, 88833, 91213, 93633, 96932, 99814, 102072, 105044, 107520, 110463, 112379, 114493, 116396, 118503]}, "edge": {"target": [], "time": []}}, "mouseover": {"state": {"target": ["24", "25", "28", "12", "14", "13", "1", "2", "1", "0", "22", "19", "19", "2", "9", "8", "3", "8", "8", "10", "30", "31", "14", "14", "15", "14", "19", "19", "22", "31", "30", "29", "29", "27", "10", "7", "16", "1", "10", "7", "15", "17", "15", "18", "18", "14", "14", "22", "30", "31", "30", "33", "29", "27", "7", "4", "5", "6", "4", "9", "11", "8", "4", "1", "28", "26", "27", "26", "28", "24", "24", "25", "30", "32", "22", "12", "23", "12", "13", "22", "20", "21", "3", "10", "23", "0", "12", "13", "14", "0", "0", "14", "12"], "time": [9165, 9463, 13548, 13673, 14127, 17041, 17768, 18077, 18906, 21429, 21751, 21993, 22479, 23202, 23257, 23598, 24284, 28152, 28410, 30507, 31662, 31932, 32341, 32480, 33179, 34714, 34810, 35228, 42776, 42927, 43151, 44571, 45111, 47165, 47521, 49169, 49261, 53400, 54117, 54298, 54674, 55120, 59004, 59057, 59331, 61343, 62269, 62610, 63118, 63263, 66474, 66708, 69924, 70040, 71206, 74260, 74401, 78223, 81618, 82353, 84890, 85929, 87742, 90791, 92680, 92730, 93118, 94021, 98491, 100421, 101514, 103861, 104635, 104793, 105439, 106643, 106955, 109156, 111520, 113673, 114971, 117964, 123343, 123823, 124395, 124719, 124802, 124945, 127937, 129439, 135413, 141764, 143378]}, "edge": {"target": [], "time": []}}, "mouseout": {"state": {"target": ["0", "24", "25", "28", "12", "14", "13", "1", "2", "1", "0", "22", "19", "19", "2", "9", "8", "3", "8", "8", "10", "30", "31", "14", "14", "15", "14", "19", "19", "22", "31", "30", "29", "29", "27", "10", "7", "16", "1", "10", "7", "15", "17", "17", "15", "18", "18", "14", "14", "22", "30", "31", "30", "33", "29", "27", "7", "4", "5", "6", "4", "9", "11", "8", "4", "1", "28", "26", "27", "26", "28", "24", "24", "25", "30", "32", "22", "12", "23", "12", "13", "22", "20", "21", "20", "3", "10", "23", "0", "12", "13", "14", "0", "0", "14", "12", "15", "18", "12", "13", "20", "19", "13", "16"], "time": [4012, 9255, 13099, 13626, 13778, 17000, 17092, 17846, 18844, 19089, 21489, 21900, 22077, 23039, 23245, 23407, 23999, 25306, 28190, 30440, 30584, 31882, 31985, 32366, 32504, 34600, 34762, 34846, 42755, 42812, 43096, 44467, 44635, 47053, 47233, 49152, 49237, 53167, 53969, 54261, 54337, 54877, 55557, 58960, 59041, 59108, 60563, 61499, 62294, 62689, 63173, 66328, 66577, 69778, 69988, 70582, 72319, 74319, 76228, 81581, 81698, 83258, 85902, 86097, 89386, 91611, 92715, 92763, 93963, 98362, 100345, 100525, 102534, 104499, 104780, 105262, 106227, 106690, 108154, 110854, 112774, 114956, 116796, 118910, 119520, 123481, 123993, 124674, 124779, 124839, 127894, 127979, 133180, 137812, 141813, 143470, 149676, 149725, 150303, 151045, 152412, 152577, 152714, 164742]}, "edge": {"target": [], "time": []}}}, "displayed_time": "167.12", "trialTime": 174315, "trial_type": "mouselab-mdp", "trial_index": 4, "time_elapsed": 909841, "internal_node_id": "0.0-2.0-2.0-0.0"}}, {"uniqueid": "w14820724:a93665578", "current_trial": 5, "dateTime": 1691143273078, "trialdata": {"revealed_states": [], "clicked_states": ["12"], "num_clicks_accrued": [0, 0, 0, 0, 0, 0, 0, 0, 0, 0, 0, 0, 0], "stateRewards": ["", -10, 10, -10, 10, 10, -10, -10, 10, -10, -10, 10, 10, -10, -10, 10, -10, 10, 10, -10, -10, 10, -10, 10, -10, 10, -10, 10, 10, 10, -10, 10, 10, -10], "withholdReward": false, "trial_id": "practice_2", "block": "test", "trialIndex": 1, "score": -7, "costs": -0.5, "simulationMode": [null, null, null, null, null], "rewards": [10, -10, -10, 10, -10], "path": ["0", "0", "12", "13", "14", "15", "16"], "rt": [6975, 8897, 6034, 2162, 18498], "actions": ["right", "right", "right", "up", "up"], "actionTimes": [12017, 21458, 28023, 30723, 49772], "queries": {"click": {"state": {"target": ["12"], "time": [10629]}, "edge": {"target": [], "time": []}}, "mouseover": {"state": {"target": ["12", "12"], "time": [5078, 9910]}, "edge": {"target": [], "time": []}}, "mouseout": {"state": {"target": ["0", "12", "12", "13", "14", "15", "18", "13", "15", "18", "13", "0", "12", "14", "14", "14", "15", "15", "19", "19", "14", "16", "16", "15", "15", "14", "14", "17", "18", "10", "2", "16", "16", "4", "24", "28"], "time": [3656, 5226, 13235, 13556, 14278, 14760, 14823, 16539, 19079, 19208, 20863, 23581, 23630, 24267, 25942, 29299, 29641, 34463, 34555, 35300, 35900, 35965, 37275, 40212, 40347, 41239, 43295, 47129, 47168, 47429, 47493, 51522, 52367, 53963, 54298, 54689]}, "edge": {"target": [], "time": []}}}, "displayed_time": "50.36", "trialTime": 56881, "trial_type": "mouselab-mdp", "trial_index": 5, "time_elapsed": 968225, "internal_node_id": "0.0-2.0-2.0-1.0"}}, {"uniqueid": "w14820724:a93665578", "current_trial": 6, "dateTime": 1691143343962, "trialdata": {"view_history": [{"page_index": 0, "viewing_time": 47222}, {"page_index": 1, "viewing_time": 23650}], "rt": 70874, "trial_id": "mouselab_instructions_2_misaligned", "trial_type": "instructions", "trial_index": 6, "time_elapsed": 1039110, "internal_node_id": "0.0-2.0-3.0"}}, {"uniqueid": "w14820724:a93665578", "current_trial": 7, "dateTime": 1691143388330, "trialdata": {"rt": 44338, "response": {"Q0": "The cost for clicking on nodes may vary between nodes.", "Q1": "The better I perform the higher my bonus will be.", "Q2": "No, the amount of cash at each node of the web may be different each time.", "Q3": "To get the highest total score.", "Q4": "Only before moving the spider.", "Q5": "3 seconds"}, "question_order": [0, 1, 2, 3, 4, 5], "correct": {"Q0": "The cost for clicking on nodes may vary between nodes.", "Q1": "The better I perform the higher my bonus will be.", "Q2": "No, the amount of cash at each node of the web may be different each time.", "Q3": "To get the highest total score.", "Q4": "Only before moving the spider.", "Q5": "3 seconds"}, "trial_id": "mouselab_quiz_misaligned", "trial_type": "survey-multi-choice", "trial_index": 7, "time_elapsed": 1083477, "internal_node_id": "0.0-2.0-4.0"}}, {"uniqueid": "w14820724:a93665578", "current_trial": 8, "dateTime": 1691143411086, "trialdata": {"rt": 22723, "stimulus": "\n<h1> Get ready to start the game! </h1>\n\nThank you for reading the instructions. Get ready start with the 40 rounds of this game.\n<br><br>\nIf you need to take a break, feel free to take one after the end of a round, before continuing to the next one.\n<br><br>\nRemember, the more money the spider gets, the bigger your bonus will be!\n<br><br>\n<div style='text-align: center;'>Press <code>space</code> to begin.</div>\n\n<br><br>\n(If, at any point, the <code>space</code> key does not take you to the next page, click once on the text and try again.)", "response": " ", "trial_id": "mdp_ready", "trial_type": "html-keyboard-response", "trial_index": 8, "time_elapsed": 1106234, "internal_node_id": "0.0-4.0-0.0"}}, {"uniqueid": "w14820724:a93665578", "current_trial": 9, "dateTime": 1691143451169, "trialdata": {"revealed_states": [], "clicked_states": ["25", "27", "14"], "num_clicks_accrued": [0, 0, 0, 0, 0, 0, 0, 0, 0, 0, 0, 0, 0], "stateRewards": ["", 2, 4, -6, -13, -75, -81, 30, 7, 5, 59, -65, -1, -1, 7, 14, -38, 36, -41, 1, -54, -5, 64, 2, -1, 5, 6, -19, 79, 11, 16, -33, -50, 58], "withholdReward": false, "trial_id": "mdp_trial_1", "block": "test", "trialIndex": 2, "score": -11.05, "costs": -4.05, "simulationMode": [null, null, null, null, null], "rewards": [2, -1, 5, 6, -19], "path": ["0", "0", "23", "24", "25", "26", "27"], "rt": [21357, 263, 330, 2718, 363], "actions": ["left", "left", "left", "up", "up"], "actionTimes": [26934, 27788, 28661, 31936, 32857], "queries": {"click": {"state": {"target": ["25", "27", "14"], "time": [8442, 10655, 16514]}, "edge": {"target": [], "time": []}}, "mouseover": {"state": {"target": ["24", "25", "24", "26", "27", "26", "20", "14", "13", "15", "13", "22", "22", "12"], "time": [8001, 8236, 9767, 10097, 10300, 11324, 12031, 12544, 17355, 18666, 21067, 21238, 22687, 22851]}, "edge": {"target": [], "time": []}}, "mouseout": {"state": {"target": ["13", "12", "0", "0", "20", "19", "22", "12", "0", "24", "25", "24", "26", "27", "26", "20", "14", "13", "15", "13", "22", "22", "12"], "time": [603, 1531, 1595, 2209, 3225, 3568, 3613, 3832, 7164, 8039, 9003, 9808, 10236, 11255, 11385, 12171, 17209, 18388, 20998, 21194, 22159, 22751, 22939]}, "edge": {"target": [], "time": []}}}, "displayed_time": "33.40", "trialTime": 38509, "trial_type": "mouselab-mdp", "trial_index": 9, "time_elapsed": 1146314, "internal_node_id": "0.0-4.0-1.0-0.0"}}, {"uniqueid": "w14820724:a93665578", "current_trial": 10, "dateTime": 1691143527041, "trialdata": {"revealed_states": [], "clicked_states": ["2", "3", "8", "4", "5", "15", "14", "13", "12", "24", "23", "25", "26", "27", "30", "31", "1", "6", "19", "21"], "num_clicks_accrued": [0, 0, 0, 0, 0, 0, 0, 0, 0, 0, 0, 0, 0], "stateRewards": ["", -1, -3, -6, 14, 41, 18, 63, -14, 80, 21, 17, -2, -4, -2, -5, 13, 70, 8, -4, -64, -10, -20, 2, -1, 4, -1, -17, -55, 42, -7, 47, 54, 15], "withholdReward": false, "trial_id": "mdp_trial_2", "block": "test", "trialIndex": 3, "score": 21.800000000000004, "costs": -23.199999999999996, "simulationMode": [null, null, null, null, null], "rewards": [2, -1, 4, -7, 47], "path": ["0", "0", "23", "24", "25", "30", "31"], "rt": [52334, 9881, 1059, 1685, 997], "actions": ["left", "left", "left", "down", "right"], "actionTimes": [54914, 65324, 66942, 69184, 70751], "queries": {"click": {"state": {"target": ["2", "3", "8", "4", "5", "15", "14", "13", "12", "24", "23", "25", "26", "27", "30", "31", "1", "6", "19", "21"], "time": [4508, 6854, 8306, 9654, 11475, 14310, 15866, 17073, 18030, 19480, 20879, 21959, 22911, 23733, 27090, 28633, 32022, 34754, 37986, 39445]}, "edge": {"target": [], "time": []}}, "mouseover": {"state": {"target": ["1", "2", "3", "8", "4", "5", "15", "14", "13", "12", "13", "12", "24", "23", "25", "26", "27", "29", "25", "30", "31", "2", "1", "10", "7", "6", "17", "17", "14", "19", "21", "14", "15", "18", "0", "0", "0"], "time": [3423, 4032, 5814, 7856, 8957, 11194, 12565, 15240, 16574, 16728, 16876, 17651, 19233, 20666, 21615, 22605, 23514, 24910, 26457, 26633, 28366, 30103, 30193, 33775, 34133, 34430, 35737, 35954, 36270, 36540, 39083, 40695, 41094, 41234, 41473, 43199, 48231]}, "edge": {"target": [], "time": []}}, "mouseout": {"state": {"target": ["15", "18", "1", "1", "2", "3", "8", "4", "4", "5", "15", "14", "13", "12", "13", "12", "24", "23", "24", "25", "26", "27", "27", "27", "29", "25", "30", "31", "2", "1", "10", "7", "6", "17", "17", "14", "19", "21", "19", "14", "15", "18", "0", "0", "0", "1", "18", "19"], "time": [768, 833, 1023, 3940, 5608, 7750, 8881, 10750, 10939, 12336, 15154, 16554, 16668, 16830, 17591, 18959, 20153, 21445, 21600, 22430, 23389, 23845, 24321, 24650, 26273, 26517, 28175, 29576, 30180, 33620, 34019, 34217, 35673, 35781, 36014, 36363, 39070, 40237, 40606, 40866, 41195, 41372, 41543, 45264, 49254, 71866, 73287, 73783]}, "edge": {"target": [], "time": []}}}, "displayed_time": "71.28", "trialTime": 74342, "trial_type": "mouselab-mdp", "trial_index": 10, "time_elapsed": 1222187, "internal_node_id": "0.0-4.0-1.0-1.0"}}, {"uniqueid": "w14820724:a93665578", "current_trial": 11, "dateTime": 1691143591515, "trialdata": {"revealed_states": [], "clicked_states": ["24", "25", "26", "30", "12", "13", "14", "15", "19", "21", "2", "3", "8", "4", "5"], "num_clicks_accrued": [0, 0, 0, 0, 0, 0, 0, 0, 0, 0, 0, 0, 0], "stateRewards": ["", 1, 2, 8, -2, 23, -69, -18, -16, 54, -21, 71, -1, -4, 7, 11, 43, -6, 88, 6, -55, 72, 43, 1, -3, -2, -1, 68, -31, -54, 4, -8, 25, -2], "withholdReward": false, "trial_id": "mdp_trial_3", "block": "test", "trialIndex": 4, "score": 62.75, "costs": -17.25, "simulationMode": [null, null, null, null, null], "rewards": [-1, -4, 7, 6, 72], "path": ["0", "0", "12", "13", "14", "19", "21"], "rt": [27267, 328, 703, 496, 316], "actions": ["right", "right", "right", "down", "down"], "actionTimes": [30014, 30893, 32174, 33222, 34111], "queries": {"click": {"state": {"target": ["24", "25", "26", "30", "12", "13", "14", "15", "19", "21", "2", "3", "8", "4", "5"], "time": [4312, 5718, 7035, 8293, 9777, 10620, 11498, 12371, 13575, 14572, 18587, 19883, 21602, 22721, 23672]}, "edge": {"target": [], "time": []}}, "mouseover": {"state": {"target": ["1", "25", "24", "25", "26", "30", "13", "12", "13", "14", "15", "19", "21", "8", "2", "3", "8", "4", "5", "0", "1", "0"], "time": [3614, 3818, 4012, 4883, 6595, 7805, 9440, 9537, 10276, 11174, 12023, 13187, 14303, 15588, 16087, 19597, 20562, 22367, 23462, 25033, 25793, 28034]}, "edge": {"target": [], "time": []}}, "mouseout": {"state": {"target": ["0", "1", "25", "24", "25", "26", "25", "30", "13", "12", "13", "14", "15", "19", "21", "8", "2", "3", "8", "3", "4", "5", "4", "0", "1", "0", "22", "18", "0", "13", "18", "19", "17"], "time": [925, 3669, 3879, 4786, 6452, 7641, 7749, 8921, 9495, 10223, 11154, 11945, 13068, 14092, 15183, 15858, 19162, 20499, 22272, 22352, 23307, 24488, 24628, 25462, 27848, 28101, 35138, 35255, 35535, 36447, 58287, 60028, 61621]}, "edge": {"target": [], "time": []}}}, "displayed_time": "34.64", "trialTime": 62498, "trial_type": "mouselab-mdp", "trial_index": 11, "time_elapsed": 1286661, "internal_node_id": "0.0-4.0-1.0-2.0"}}, {"uniqueid": "w14820724:a93665578", "current_trial": 12, "dateTime": 1691143684075, "trialdata": {"revealed_states": [], "clicked_states": ["24", "25", "26", "27", "30", "32", "21", "19", "14", "15", "16", "17", "18", "20", "22", "1", "2", "3", "4", "5", "6", "7", "8", "9", "11", "10"], "num_clicks_accrued": [0, 0, 0, 0, 0, 0, 0, 0, 0, 0, 0, 0, 0], "stateRewards": ["", -2, -3, 1, -7, 39, -67, 16, 5, -20, 73, 66, -1, 4, 5, -3, 23, -68, -87, -8, 3, -3, 17, 1, -4, -2, -13, -32, 34, 61, -5, -11, -18, 12], "withholdReward": false, "trial_id": "mdp_trial_4", "block": "test", "trialIndex": 5, "score": 24.30000000000001, "costs": -42.69999999999999, "simulationMode": [null, null, null, null, null], "rewards": [-2, -3, 1, 5, 66], "path": ["0", "0", "1", "2", "3", "8", "11"], "rt": [79745, 111, 370, 652, 219], "actions": ["up", "up", "up", "left", "left"], "actionTimes": [82341, 83032, 83944, 85183, 85972], "queries": {"click": {"state": {"target": ["24", "25", "26", "27", "30", "32", "21", "19", "14", "15", "16", "17", "18", "20", "22", "1", "2", "3", "4", "5", "6", "7", "8", "9", "11", "10"], "time": [3911, 5016, 6112, 7108, 12084, 14047, 18292, 22334, 23884, 25735, 27477, 31313, 34527, 37875, 41602, 45041, 47410, 49152, 50209, 51793, 55249, 58132, 61732, 64407, 67791, 71380]}, "edge": {"target": [], "time": []}}, "mouseover": {"state": {"target": ["24", "23", "24", "25", "26", "27", "30", "32", "21", "21", "19", "14", "15", "16", "17", "15", "18", "13", "19", "20", "19", "22", "1", "2", "3", "4", "5", "6", "7", "8", "9", "11", "10", "2", "1", "1", "1", "1", "12", "0"], "time": [3195, 3456, 3524, 4785, 5572, 6738, 8197, 13185, 17276, 17608, 21866, 22969, 24641, 26932, 29914, 32148, 32331, 35926, 36357, 36586, 38384, 41339, 44115, 45955, 48295, 50050, 50978, 52602, 55853, 59022, 62512, 66921, 68898, 71943, 72092, 72571, 73755, 75010, 76797, 78058]}, "edge": {"target": [], "time": []}}, "mouseout": {"state": {"target": ["23", "0", "24", "23", "24", "25", "26", "27", "30", "32", "21", "21", "21", "19", "14", "15", "16", "15", "17", "15", "18", "13", "19", "20", "19", "22", "1", "2", "3", "4", "5", "6", "7", "8", "9", "11", "10", "2", "1", "1", "1", "1", "12", "0", "17", "13"], "time": [1125, 3128, 3328, 3511, 4419, 5464, 6513, 7673, 13123, 16943, 17322, 18463, 21460, 22488, 24622, 26766, 28460, 28696, 32031, 32192, 35578, 36163, 36530, 38318, 41196, 42088, 45731, 48097, 49670, 50794, 52303, 55669, 58759, 62251, 65091, 68266, 71924, 72006, 72202, 73077, 73887, 76512, 78013, 78102, 88313, 89024]}, "edge": {"target": [], "time": []}}}, "displayed_time": "86.50", "trialTime": 90731, "trial_type": "mouselab-mdp", "trial_index": 12, "time_elapsed": 1379221, "internal_node_id": "0.0-4.0-1.0-3.0"}}, {"uniqueid": "w14820724:a93665578", "current_trial": 13, "dateTime": 1691143792152, "trialdata": {"revealed_states": [], "clicked_states": ["23", "24", "28", "26", "27", "29", "30", "32", "31", "33", "13", "14", "15", "16", "18", "17", "20", "22", "21", "19", "11", "9", "10", "5", "7", "6", "1", "2", "3", "4"], "num_clicks_accrued": [0, 0, 0, 0, 0, 0, 0, 0, 0, 0, 0, 0, 0], "stateRewards": ["", 1, -1, 4, -2, -75, -75, 84, -9, -60, -79, 59, 2, -4, 8, 9, -17, -82, 80, 14, -4, 49, 49, -1, 3, 6, -11, -33, 34, 55, 9, -57, 5, 59], "withholdReward": false, "trial_id": "mdp_trial_5", "block": "test", "trialIndex": 6, "score": 37.100000000000016, "costs": -48.899999999999984, "simulationMode": [null, null, null, null, null], "rewards": [1, -1, 4, -2, 84], "path": ["0", "0", "1", "2", "3", "4", "7"], "rt": [90519, 52, 121, 1044, 848], "actions": ["up", "up", "up", "right", "down"], "actionTimes": [94552, 95131, 95793, 97381, 98763], "queries": {"click": {"state": {"target": ["23", "24", "28", "26", "27", "29", "30", "32", "31", "33", "13", "14", "15", "16", "18", "17", "20", "22", "21", "19", "11", "9", "10", "5", "7", "6", "1", "2", "3", "4"], "time": [5066, 6645, 7856, 11136, 12237, 15452, 19250, 21754, 25105, 28395, 32009, 34407, 35727, 37218, 40344, 44257, 49328, 52335, 55975, 59194, 61684, 65002, 69176, 72550, 75700, 79131, 82217, 84216, 85762, 87766]}, "edge": {"target": [], "time": []}}, "mouseover": {"state": {"target": ["23", "24", "28", "26", "27", "29", "25", "30", "32", "31", "30", "33", "20", "22", "13", "14", "15", "16", "18", "15", "17", "14", "19", "20", "22", "21", "19", "3", "8", "11", "9", "8", "10", "5", "3", "5", "7", "6", "1", "2", "3", "4", "1", "0"], "time": [4772, 5612, 7305, 8593, 11939, 12852, 15990, 16478, 20122, 22400, 25597, 25791, 29155, 29283, 29762, 32497, 35136, 36324, 37961, 40769, 40993, 44779, 45175, 45373, 50241, 53569, 56588, 60390, 60813, 60940, 62678, 65460, 65652, 70013, 70332, 70980, 73165, 76286, 81993, 82818, 85019, 87059, 89578, 92647]}, "edge": {"target": [], "time": []}}, "mouseout": {"state": {"target": ["8", "27", "25", "1", "0", "23", "24", "28", "26", "27", "27", "29", "25", "30", "32", "31", "30", "33", "20", "22", "13", "14", "15", "16", "18", "15", "17", "14", "19", "20", "22", "21", "19", "3", "8", "11", "9", "8", "10", "5", "3", "5", "7", "6", "1", "2", "3", "4", "1", "0", "19", "20", "19"], "time": [989, 1037, 1625, 2508, 4074, 5383, 7095, 8374, 11604, 12380, 12705, 15930, 16104, 19680, 22248, 25517, 25671, 28771, 29218, 29484, 32480, 35051, 35876, 37765, 40753, 40831, 44754, 44895, 45310, 50004, 53232, 56415, 59771, 60755, 60875, 62364, 65397, 65599, 69564, 70078, 70762, 72948, 76147, 79814, 82661, 84924, 86313, 88483, 89630, 92698, 100759, 101159, 101247]}, "edge": {"target": [], "time": []}}}, "displayed_time": "99.31", "trialTime": 105839, "trial_type": "mouselab-mdp", "trial_index": 13, "time_elapsed": 1487297, "internal_node_id": "0.0-4.0-1.0-4.0"}}, {"uniqueid": "w14820724:a93665578", "current_trial": 14, "dateTime": 1691143823700, "trialdata": {"revealed_states": [], "clicked_states": [], "num_clicks_accrued": [0, 0, 0, 0, 0, 0, 0, 0, 0, 0, 0, 0, 0], "stateRewards": ["", -1, 3, -5, -2, -13, -9, -34, -7, -81, 32, 35, -2, -2, 1, -14, -32, 81, 7, 4, 82, 56, -8, -1, 3, -8, 6, -24, -24, -53, 2, 38, 61, 54], "withholdReward": false, "trial_id": "mdp_trial_6", "block": "test", "trialIndex": 7, "score": 64, "costs": 0, "simulationMode": [null, null, null, null, null], "rewards": [-2, -2, 1, -14, 81], "path": ["0", "0", "12", "13", "14", "15", "17"], "rt": [12226, 187, 319, 889, 290], "actions": ["right", "right", "right", "up", "right"], "actionTimes": [14818, 15545, 16413, 17847, 18730], "queries": {"click": {"state": {"target": [], "time": []}, "edge": {"target": [], "time": []}}, "mouseover": {"state": {"target": ["23", "25", "27", "29", "26", "23"], "time": [3242, 3628, 5602, 6797, 9303, 9616]}, "edge": {"target": [], "time": []}}, "mouseout": {"state": {"target": ["0", "23", "25", "27", "29", "26", "23", "22", "18"], "time": [3016, 3306, 4931, 6627, 9248, 9455, 9799, 20201, 20563]}, "edge": {"target": [], "time": []}}}, "displayed_time": "19.30", "trialTime": 29078, "trial_type": "mouselab-mdp", "trial_index": 14, "time_elapsed": 1518845, "internal_node_id": "0.0-4.0-1.0-5.0"}}, {"uniqueid": "w14820724:a93665578", "current_trial": 15, "dateTime": 1691143872448, "trialdata": {"revealed_states": [], "clicked_states": ["12", "13", "16", "18", "17", "21", "22", "20", "14", "19"], "num_clicks_accrued": [0, 0, 0, 0, 0, 0, 0, 0, 0, 0, 0, 0, 0], "stateRewards": ["", 2, -3, 5, 11, -79, 54, 11, -9, -78, 33, 22, -2, -1, 2, 14, 43, 34, 1, 10, 49, -65, 39, -1, 1, -1, 3, -16, -2, 11, 2, 12, 48, -65], "withholdReward": false, "trial_id": "mdp_trial_7", "block": "test", "trialIndex": 8, "score": 42.5, "costs": -15.500000000000002, "simulationMode": [null, null, null, null, null], "rewards": [-2, -1, 2, 10, 49], "path": ["0", "0", "12", "13", "14", "19", "20"], "rt": [33074, 120, 493, 1305, 913], "actions": ["right", "right", "right", "down", "right"], "actionTimes": [37124, 37932, 38955, 40793, 42290], "queries": {"click": {"state": {"target": ["12", "13", "16", "18", "17", "21", "22", "20", "14", "19"], "time": [6661, 7872, 9465, 12802, 17145, 21015, 24204, 27654, 30912, 33053]}, "edge": {"target": [], "time": []}}, "mouseover": {"state": {"target": ["12", "13", "15", "16", "18", "17", "17", "14", "21", "22", "20", "15", "14", "19", "0", "0"], "time": [6398, 7647, 8383, 8550, 10247, 13477, 13783, 18117, 18542, 21564, 24676, 30258, 30432, 31367, 34746, 35244]}, "edge": {"target": [], "time": []}}, "mouseout": {"state": {"target": ["23", "0", "12", "13", "15", "16", "18", "17", "17", "14", "21", "22", "20", "15", "14", "19", "0", "0", "12", "25", "19"], "time": [1541, 5165, 7369, 8321, 8447, 10132, 13445, 13527, 17913, 18182, 21350, 24621, 28253, 30417, 31345, 33942, 34794, 35287, 43570, 44016, 44880]}, "edge": {"target": [], "time": []}}}, "displayed_time": "42.83", "trialTime": 46509, "trial_type": "mouselab-mdp", "trial_index": 15, "time_elapsed": 1567594, "internal_node_id": "0.0-4.0-1.0-6.0"}}, {"uniqueid": "w14820724:a93665578", "current_trial": 16, "dateTime": 1691143940996, "trialdata": {"revealed_states": [], "clicked_states": ["24", "27", "29", "28", "31", "33", "32", "16", "17", "18", "20", "22", "21", "19", "14", "13", "12"], "num_clicks_accrued": [0, 0, 0, 0, 0, 0, 0, 0, 0, 0, 0, 0, 0], "stateRewards": ["", -1, 3, 1, -7, 56, 76, 57, 3, 11, -9, 14, 1, -2, 2, 8, -77, -3, 79, -5, 88, 24, -66, -2, -1, 7, -7, -30, 14, -76, 11, -36, 28, -6], "withholdReward": false, "trial_id": "mdp_trial_8", "block": "test", "trialIndex": 9, "score": 55.25, "costs": -28.749999999999996, "simulationMode": [null, null, null, null, null], "rewards": [1, -2, 2, -5, 88], "path": ["0", "0", "12", "13", "14", "19", "20"], "rt": [53509, 507, 305, 1241, 706], "actions": ["right", "right", "right", "down", "right"], "actionTimes": [57285, 58330, 59195, 60990, 62236], "queries": {"click": {"state": {"target": ["24", "27", "29", "28", "31", "33", "32", "16", "17", "18", "20", "22", "21", "19", "14", "13", "12"], "time": [6565, 7797, 10758, 14073, 17665, 20849, 23998, 27303, 30505, 34698, 38357, 41830, 44970, 48133, 49957, 51522, 53123]}, "edge": {"target": [], "time": []}}, "mouseover": {"state": {"target": ["1", "23", "24", "24", "27", "26", "29", "26", "28", "31", "30", "33", "32", "12", "13", "14", "14", "15", "16", "15", "17", "15", "18", "20", "22", "21", "19", "14", "13", "12", "0"], "time": [4883, 5606, 5914, 6135, 7561, 8268, 8595, 11153, 11226, 15164, 18247, 18356, 21815, 24846, 24935, 25044, 25487, 25870, 26153, 27905, 28311, 30980, 31214, 35710, 38858, 42583, 45463, 48743, 50657, 52265, 53982]}, "edge": {"target": [], "time": []}}, "mouseout": {"state": {"target": ["0", "1", "23", "24", "24", "27", "27", "26", "29", "26", "28", "31", "30", "33", "32", "12", "13", "14", "14", "15", "16", "15", "17", "15", "18", "20", "22", "21", "19", "14", "13", "12", "0", "13", "1", "23"], "time": [2081, 4978, 5862, 5953, 7282, 7926, 8220, 8433, 11129, 11213, 14628, 18162, 18307, 21305, 24494, 24920, 25025, 25103, 25818, 26092, 27749, 27978, 30903, 31038, 35283, 38753, 42207, 45297, 48673, 50562, 52244, 53927, 54141, 64735, 64917, 65243]}, "edge": {"target": [], "time": []}}}, "displayed_time": "62.76", "trialTime": 66155, "trial_type": "mouselab-mdp", "trial_index": 16, "time_elapsed": 1636142, "internal_node_id": "0.0-4.0-1.0-7.0"}}, {"uniqueid": "w14820724:a93665578", "current_trial": 17, "dateTime": 1691144005885, "trialdata": {"revealed_states": [], "clicked_states": ["24", "27", "28", "29", "32", "31", "33", "26", "25", "23", "17", "16", "18", "20", "22", "21"], "num_clicks_accrued": [0, 0, 0, 0, 0, 0, 0, 0, 0, 0, 0, 0, 0], "stateRewards": ["", 1, 2, -6, -13, -51, 22, -4, -12, -44, -12, 6, -2, -2, -2, -14, -46, -4, -77, -2, 36, -79, 41, 2, -4, 2, -6, -55, 59, 70, -5, 39, -19, 24], "withholdReward": false, "trial_id": "mdp_trial_9", "block": "test", "trialIndex": 10, "score": 35.60000000000001, "costs": -28.399999999999995, "simulationMode": [null, null, null, null, null], "rewards": [2, -4, 2, -6, 70], "path": ["0", "0", "23", "24", "25", "26", "29"], "rt": [52081, 923, 330, 770, 161], "actions": ["left", "left", "left", "up", "left"], "actionTimes": [55317, 56780, 57659, 58971, 59664], "queries": {"click": {"state": {"target": ["24", "27", "28", "29", "32", "31", "33", "26", "25", "23", "17", "16", "18", "20", "22", "21"], "time": [5221, 6721, 9850, 13252, 16507, 19799, 23049, 26285, 27999, 29088, 30881, 34017, 36918, 40105, 43286, 46652]}, "edge": {"target": [], "time": []}}, "mouseover": {"state": {"target": ["23", "24", "28", "27", "28", "26", "29", "33", "32", "31", "30", "33", "26", "25", "24", "23", "12", "13", "14", "17", "16", "18", "20", "19", "22", "21", "19", "14", "13", "12"], "time": [4463, 4924, 6101, 6491, 7696, 10280, 10619, 13906, 14389, 17214, 20397, 20526, 24432, 26837, 28502, 28666, 29935, 30036, 30254, 30624, 31443, 34628, 37678, 40576, 40951, 43814, 47221, 47362, 49982, 50093]}, "edge": {"target": [], "time": []}}, "mouseout": {"state": {"target": ["33", "31", "0", "23", "24", "28", "27", "28", "26", "29", "33", "32", "31", "30", "33", "33", "26", "25", "24", "23", "12", "13", "14", "17", "16", "18", "20", "19", "22", "21", "19", "14", "13", "12", "14"], "time": [586, 671, 1521, 4707, 5973, 6220, 7143, 10201, 10338, 13727, 13977, 16923, 20357, 20512, 23189, 23649, 26776, 28445, 28610, 29846, 30019, 30182, 30302, 31321, 34397, 37456, 40510, 40844, 43684, 47093, 47302, 49929, 50033, 50172, 61710]}, "edge": {"target": [], "time": []}}}, "displayed_time": "60.23", "trialTime": 62712, "trial_type": "mouselab-mdp", "trial_index": 17, "time_elapsed": 1701032, "internal_node_id": "0.0-4.0-1.0-8.0"}}, {"uniqueid": "w14820724:a93665578", "current_trial": 18, "dateTime": 1691144030278, "trialdata": {"revealed_states": [], "clicked_states": [], "num_clicks_accrued": [0, 0, 0, 0, 0, 0, 0, 0, 0, 0, 0, 0, 0], "stateRewards": ["", 1, 4, 7, -16, -84, -6, -46, -12, -7, -49, -26, -1, 2, -4, 2, 22, 37, -64, 1, 88, -13, -10, 1, -4, -2, 5, 2, -10, -34, 9, 66, 55, 38], "withholdReward": false, "trial_id": "mdp_trial_10", "block": "test", "trialIndex": 11, "score": -88, "costs": 0, "simulationMode": [null, null, null, null, null], "rewards": [1, 4, 7, -16, -84], "path": ["0", "0", "1", "2", "3", "4", "5"], "rt": [6762, 201, 294, 766, 198], "actions": ["up", "up", "up", "right", "up"], "actionTimes": [9650, 10392, 11219, 12526, 13259], "queries": {"click": {"state": {"target": [], "time": []}, "edge": {"target": [], "time": []}}, "mouseover": {"state": {"target": ["1", "2", "3"], "time": [4096, 4200, 5364]}, "edge": {"target": [], "time": []}}, "mouseout": {"state": {"target": ["0", "1", "2", "3", "4", "6", "1"], "time": [1413, 4156, 5267, 16834, 16894, 20187, 20733]}, "edge": {"target": [], "time": []}}}, "displayed_time": "16.92", "trialTime": 21732, "trial_type": "mouselab-mdp", "trial_index": 18, "time_elapsed": 1725424, "internal_node_id": "0.0-4.0-1.0-9.0"}}, {"uniqueid": "w14820724:a93665578", "current_trial": 19, "dateTime": 1691144077110, "trialdata": {"revealed_states": [], "clicked_states": ["13", "14", "20", "22", "21", "16", "18", "17", "15", "12"], "num_clicks_accrued": [0, 0, 0, 0, 0, 0, 0, 0, 0, 0, 0, 0, 0], "stateRewards": ["", -1, -4, -3, 1, -45, -67, -24, 14, 32, 22, 22, -1, 1, -5, -7, 72, 84, -79, -5, 19, -40, -2, -1, -2, 8, -3, 84, -25, -28, 11, 64, -66, 77], "withholdReward": false, "trial_id": "mdp_trial_11", "block": "test", "trialIndex": 12, "score": 56.5, "costs": -15.500000000000002, "simulationMode": [null, null, null, null, null], "rewards": [-1, 1, -5, -7, 84], "path": ["0", "0", "12", "13", "14", "15", "17"], "rt": [34370, 310, 504, 383, 334], "actions": ["right", "right", "right", "up", "right"], "actionTimes": [37384, 38216, 39255, 40211, 41099], "queries": {"click": {"state": {"target": ["13", "14", "20", "22", "21", "16", "18", "17", "15", "12"], "time": [4117, 5329, 8317, 12011, 15515, 18656, 23166, 27976, 31102, 33040]}, "edge": {"target": [], "time": []}}, "mouseover": {"state": {"target": ["0", "13", "14", "19", "20", "19", "22", "21", "15", "21", "19", "15", "16", "18", "17", "17", "15", "15", "12", "1", "24", "24", "23", "0"], "time": [3544, 3903, 4858, 5941, 6260, 9213, 9410, 12596, 14395, 14647, 15996, 16131, 16269, 19395, 23744, 24185, 28679, 28927, 32317, 34993, 35219, 35857, 35925, 35982]}, "edge": {"target": [], "time": []}}, "mouseout": {"state": {"target": ["7", "23", "0", "0", "13", "14", "14", "19", "20", "20", "19", "22", "21", "15", "21", "19", "15", "16", "16", "18", "17", "17", "15", "15", "12", "1", "24", "24", "23", "0", "18", "0", "19", "20", "19"], "time": [902, 1168, 3078, 3636, 4845, 5504, 5867, 6002, 8418, 9182, 9337, 12482, 13996, 14460, 15980, 16058, 16212, 18815, 19060, 23675, 23795, 28663, 28729, 31757, 34909, 35041, 35603, 35910, 35971, 42275, 42374, 42700, 42803, 43571, 43624]}, "edge": {"target": [], "time": []}}}, "displayed_time": "41.65", "trialTime": 44305, "trial_type": "mouselab-mdp", "trial_index": 19, "time_elapsed": 1772256, "internal_node_id": "0.0-4.0-1.0-10.0"}}, {"uniqueid": "w14820724:a93665578", "current_trial": 20, "dateTime": 1691144111893, "trialdata": {"revealed_states": [], "clicked_states": ["24", "27", "29", "28", "25", "23", "26"], "num_clicks_accrued": [0, 0, 0, 0, 0, 0, 0, 0, 0, 0, 0, 0, 0], "stateRewards": ["", -1, 4, 3, 12, -27, 34, -33, 3, -63, 1, 6, 2, 2, -6, -11, -77, -85, 68, -6, 51, 81, -60, -2, -2, 1, 15, 20, 15, 68, -10, -14, 6, -4], "withholdReward": false, "trial_id": "mdp_trial_12", "block": "test", "trialIndex": 13, "score": 70.95, "costs": -9.05, "simulationMode": [null, null, null, null, null], "rewards": [-2, -2, 1, 15, 68], "path": ["0", "0", "23", "24", "25", "26", "29"], "rt": [21546, 390, 385, 782, 350], "actions": ["left", "left", "left", "up", "left"], "actionTimes": [24497, 25414, 26348, 27687, 28642], "queries": {"click": {"state": {"target": ["24", "27", "29", "28", "25", "23", "26"], "time": [4164, 5405, 9708, 13207, 16620, 17634, 19129]}, "edge": {"target": [], "time": []}}, "mouseover": {"state": {"target": ["23", "23", "24", "25", "26", "27", "29", "26", "26", "29", "26", "29", "26", "28", "28", "25", "28", "28", "25", "24", "23", "26", "24"], "time": [3086, 3648, 3781, 4690, 4881, 5140, 6022, 7114, 7470, 7569, 9115, 9292, 10218, 10289, 10554, 11331, 12260, 12544, 14904, 17101, 17177, 18451, 19903]}, "edge": {"target": [], "time": []}}, "mouseout": {"state": {"target": ["2", "0", "23", "23", "24", "25", "26", "27", "29", "26", "26", "29", "26", "29", "26", "28", "28", "25", "28", "28", "25", "24", "23", "26", "24", "23", "0", "12", "19", "19", "19"], "time": [1048, 3072, 3167, 3749, 4580, 4759, 5088, 5854, 7024, 7231, 7554, 9061, 9210, 10181, 10278, 10420, 11204, 12227, 12334, 13820, 17079, 17162, 18213, 19806, 20014, 20238, 29976, 30035, 30756, 30802, 30980]}, "edge": {"target": [], "time": []}}}, "displayed_time": "29.18", "trialTime": 31944, "trial_type": "mouselab-mdp", "trial_index": 20, "time_elapsed": 1807040, "internal_node_id": "0.0-4.0-1.0-11.0"}}, {"uniqueid": "w14820724:a93665578", "current_trial": 21, "dateTime": 1691144156014, "trialdata": {"revealed_states": [], "clicked_states": ["21", "20", "22", "16", "18", "17", "15", "14", "13", "12"], "num_clicks_accrued": [0, 0, 0, 0, 0, 0, 0, 0, 0, 0, 0, 0, 0], "stateRewards": ["", 2, 4, 7, 7, -79, -2, -21, -5, -53, 47, -21, 1, -3, -1, 7, 83, 7, 84, -7, 80, -37, 69, 2, -4, 5, 2, 4, -20, -30, 7, 71, 44, -81], "withholdReward": false, "trial_id": "mdp_trial_13", "block": "test", "trialIndex": 14, "score": 72.5, "costs": -15.5, "simulationMode": [null, null, null, null, null], "rewards": [1, -3, -1, 7, 84], "path": ["0", "0", "12", "13", "14", "15", "18"], "rt": [28207, 316, 289, 266, 435], "actions": ["right", "right", "right", "up", "left"], "actionTimes": [35092, 35940, 36762, 37586, 38572], "queries": {"click": {"state": {"target": ["21", "20", "22", "16", "18", "17", "15", "14", "13", "12"], "time": [8726, 11907, 15023, 18185, 21298, 24125, 27473, 28856, 30381, 31520]}, "edge": {"target": [], "time": []}}, "mouseover": {"state": {"target": ["2", "7", "21", "21", "20", "19", "22", "13", "14", "15", "16", "18", "15", "17", "15", "14", "13", "13", "12", "0"], "time": [7075, 7769, 8059, 8451, 9220, 12495, 12595, 15635, 16617, 16698, 17000, 18819, 21689, 22024, 24718, 27998, 29442, 29785, 31037, 32250]}, "edge": {"target": [], "time": []}}, "mouseout": {"state": {"target": ["22", "19", "4", "3", "2", "1", "0", "23", "0", "2", "7", "21", "21", "20", "19", "22", "13", "14", "15", "16", "18", "15", "17", "15", "14", "13", "13", "12", "0", "28", "25", "24", "23", "1", "0"], "time": [4203, 4255, 4502, 4586, 4649, 4748, 4813, 4952, 7026, 7308, 7817, 8106, 9164, 12430, 12571, 15561, 15690, 16681, 16933, 18639, 21673, 21750, 24616, 27874, 29372, 29607, 30884, 32235, 33060, 40155, 40615, 40665, 40867, 41124, 41328]}, "edge": {"target": [], "time": []}}}, "displayed_time": "39.13", "trialTime": 42233, "trial_type": "mouselab-mdp", "trial_index": 21, "time_elapsed": 1851161, "internal_node_id": "0.0-4.0-1.0-12.0"}}, {"uniqueid": "w14820724:a93665578", "current_trial": 22, "dateTime": 1691144188579, "trialdata": {"revealed_states": [], "clicked_states": ["27", "29", "28", "25", "26", "24", "23"], "num_clicks_accrued": [0, 0, 0, 0, 0, 0, 0, 0, 0, 0, 0, 0, 0], "stateRewards": ["", 1, 4, 5, 8, -55, -11, 8, 16, -37, 77, -22, -2, 3, -8, -10, 45, 87, -67, 4, 17, -33, -22, -1, -3, 7, 6, -39, -85, 75, -1, 7, -48, 45], "withholdReward": false, "trial_id": "mdp_trial_14", "block": "test", "trialIndex": 15, "score": 74.95, "costs": -9.049999999999999, "simulationMode": [null, null, null, null, null], "rewards": [-1, -3, 7, 6, 75], "path": ["0", "0", "23", "24", "25", "26", "29"], "rt": [20773, 334, 116, 617, 34], "actions": ["left", "left", "left", "up", "left"], "actionTimes": [23556, 24435, 25077, 26259, 26860], "queries": {"click": {"state": {"target": ["27", "29", "28", "25", "26", "24", "23"], "time": [4730, 8394, 11672, 15112, 16014, 16887, 18070]}, "edge": {"target": [], "time": []}}, "mouseover": {"state": {"target": ["23", "26", "27", "26", "25", "29", "28", "25", "26", "24", "23", "31", "32"], "time": [3853, 4292, 4419, 5153, 5512, 5591, 8941, 12691, 15735, 16575, 17466, 20740, 20813]}, "edge": {"target": [], "time": []}}, "mouseout": {"state": {"target": ["1", "1", "0", "23", "26", "27", "27", "26", "25", "29", "28", "25", "26", "24", "23", "31", "32", "5", "6", "15", "13"], "time": [627, 744, 2836, 3941, 4340, 4850, 5081, 5224, 5577, 8927, 12139, 15669, 16516, 17410, 18704, 20787, 20884, 28551, 28632, 28903, 29174]}, "edge": {"target": [], "time": []}}}, "displayed_time": "27.42", "trialTime": 30189, "trial_type": "mouselab-mdp", "trial_index": 22, "time_elapsed": 1883725, "internal_node_id": "0.0-4.0-1.0-13.0"}}, {"uniqueid": "w14820724:a93665578", "current_trial": 23, "dateTime": 1691144223168, "trialdata": {"revealed_states": [], "clicked_states": ["21", "20", "22", "13", "14", "19", "12"], "num_clicks_accrued": [0, 0, 0, 0, 0, 0, 0, 0, 0, 0, 0, 0, 0], "stateRewards": ["", -2, -3, -5, 8, 27, 11, 43, -6, -24, -87, 69, -2, 1, 1, 9, 19, 48, -37, 9, -14, 45, 62, 1, 2, 1, 16, -81, -41, 22, 4, -6, -63, 47], "withholdReward": false, "trial_id": "mdp_trial_15", "block": "test", "trialIndex": 16, "score": 61.95, "costs": -9.049999999999999, "simulationMode": [null, null, null, null, null], "rewards": [-2, 1, 1, 9, 62], "path": ["0", "0", "12", "13", "14", "19", "22"], "rt": [22553, 173, 100, 218, 558], "actions": ["right", "right", "right", "down", "left"], "actionTimes": [25315, 26038, 26697, 27467, 28560], "queries": {"click": {"state": {"target": ["21", "20", "22", "13", "14", "19", "12"], "time": [5769, 10419, 13469, 16957, 18820, 19798, 21199]}, "edge": {"target": [], "time": []}}, "mouseover": {"state": {"target": ["12", "19", "22", "21", "20", "19", "22", "19", "20", "19", "22", "13", "14", "19", "12", "0"], "time": [4378, 4502, 4925, 5181, 6540, 9406, 9654, 9924, 10202, 10958, 11115, 14688, 17711, 19481, 20589, 22245]}, "edge": {"target": [], "time": []}}, "mouseout": {"state": {"target": ["6", "7", "1", "0", "12", "19", "22", "21", "20", "19", "22", "19", "20", "19", "22", "13", "14", "19", "12", "0", "15", "13"], "time": [607, 672, 763, 4212, 4441, 4825, 5009, 6151, 9331, 9467, 9877, 9970, 10935, 11016, 14106, 17605, 19455, 20345, 21966, 22469, 30864, 30932]}, "edge": {"target": [], "time": []}}}, "displayed_time": "29.11", "trialTime": 31918, "trial_type": "mouselab-mdp", "trial_index": 23, "time_elapsed": 1918315, "internal_node_id": "0.0-4.0-1.0-14.0"}}, {"uniqueid": "w14820724:a93665578", "current_trial": 24, "dateTime": 1691144288285, "trialdata": {"revealed_states": [], "clicked_states": ["27", "29", "28", "32", "31", "33", "21", "22", "20", "14", "19", "13", "12", "16", "15", "17", "18"], "num_clicks_accrued": [0, 0, 0, 0, 0, 0, 0, 0, 0, 0, 0, 0, 0], "stateRewards": ["", 1, -1, 4, 5, -32, 18, 20, 6, -88, -74, 9, -2, 1, -2, -14, 34, -77, -38, -1, 80, -36, 73, 2, 3, -8, 10, -48, -73, -71, -11, -22, 20, 54], "withholdReward": false, "trial_id": "mdp_trial_16", "block": "test", "trialIndex": 17, "score": 46.050000000000004, "costs": -29.949999999999996, "simulationMode": [null, null, null, null, null], "rewards": [-2, 1, -2, -1, 80], "path": ["0", "0", "12", "13", "14", "19", "20"], "rt": [51712, 302, 453, 409, 586], "actions": ["right", "right", "right", "down", "right"], "actionTimes": [55540, 56401, 57409, 58341, 59464], "queries": {"click": {"state": {"target": ["27", "29", "28", "32", "31", "33", "21", "22", "20", "14", "19", "13", "12", "16", "15", "17", "18"], "time": [5378, 8614, 11873, 15090, 18448, 21654, 25096, 28283, 31591, 35251, 36757, 38068, 39160, 41142, 44326, 45883, 49222]}, "edge": {"target": [], "time": []}}, "mouseover": {"state": {"target": ["1", "24", "25", "26", "27", "29", "26", "28", "32", "31", "30", "33", "21", "22", "19", "20", "14", "19", "13", "12", "16", "16", "15", "17", "18", "30", "12"], "time": [4398, 4683, 4947, 5021, 5126, 6159, 9270, 9391, 13373, 15673, 19011, 19206, 23229, 26291, 28770, 28994, 32655, 35803, 37685, 38682, 40556, 40736, 42138, 44947, 46672, 49875, 50706]}, "edge": {"target": [], "time": []}}, "mouseout": {"state": {"target": ["22", "16", "7", "0", "1", "24", "25", "26", "27", "27", "29", "26", "28", "32", "31", "30", "33", "21", "22", "19", "20", "14", "19", "13", "12", "16", "16", "16", "15", "17", "15", "18", "30", "12", "0", "7", "4", "11", "26", "22"], "time": [1462, 1534, 1661, 3898, 4613, 4730, 5005, 5073, 5486, 5728, 9242, 9379, 12420, 15582, 18945, 19088, 22251, 25574, 28740, 28825, 32243, 35671, 37520, 38618, 40204, 40606, 41300, 41696, 44780, 46336, 46513, 49747, 50380, 50824, 60442, 60547, 60634, 60720, 60783, 61746]}, "edge": {"target": [], "time": []}}}, "displayed_time": "59.99", "trialTime": 62991, "trial_type": "mouselab-mdp", "trial_index": 24, "time_elapsed": 1983432, "internal_node_id": "0.0-4.0-1.0-15.0"}}, {"uniqueid": "w14820724:a93665578", "current_trial": 25, "dateTime": 1691144331119, "trialdata": {"revealed_states": [], "clicked_states": ["16", "18", "17", "20", "22", "21", "19", "14", "13", "12"], "num_clicks_accrued": [0, 0, 0, 0, 0, 0, 0, 0, 0, 0, 0, 0, 0], "stateRewards": ["", 2, -1, 5, 6, 10, 86, 55, 10, -45, 63, -71, 1, -2, 5, -8, -50, -72, 36, 15, 61, 12, 33, -1, -4, 6, 5, 79, -56, -21, -16, -87, 60, -81], "withholdReward": false, "trial_id": "mdp_trial_17", "block": "test", "trialIndex": 18, "score": 64.5, "costs": -15.5, "simulationMode": [null, null, null, null, null], "rewards": [1, -2, 5, 15, 61], "path": ["0", "0", "12", "13", "14", "19", "20"], "rt": [30770, 282, 188, 497, 279], "actions": ["right", "right", "right", "down", "right"], "actionTimes": [33324, 34140, 34852, 35875, 36701], "queries": {"click": {"state": {"target": ["16", "18", "17", "20", "22", "21", "19", "14", "13", "12"], "time": [5387, 8624, 11972, 15179, 18737, 21922, 25267, 27351, 28622, 29852]}, "edge": {"target": [], "time": []}}, "mouseover": {"state": {"target": ["2", "24", "12", "15", "16", "16", "18", "17", "17", "20", "14", "19", "14", "22", "21", "17", "14", "19", "14", "13", "12"], "time": [3318, 3518, 4134, 4659, 4787, 5096, 5855, 9140, 9674, 12655, 17092, 17371, 18100, 18362, 19479, 22619, 23571, 23998, 25761, 28093, 29422]}, "edge": {"target": [], "time": []}}, "mouseout": {"state": {"target": ["4", "2", "24", "12", "15", "16", "16", "16", "18", "17", "17", "17", "20", "14", "19", "14", "22", "21", "17", "14", "19", "14", "13", "12", "0", "3", "17", "15", "13", "19"], "time": [591, 3435, 4063, 4232, 4735, 4846, 5529, 5796, 8786, 9299, 12125, 12512, 15783, 17148, 17566, 18176, 19400, 22395, 22705, 23755, 25684, 28048, 29139, 30621, 37634, 38060, 38734, 38817, 39202, 39932]}, "edge": {"target": [], "time": []}}}, "displayed_time": "37.31", "trialTime": 40390, "trial_type": "mouselab-mdp", "trial_index": 25, "time_elapsed": 2026264, "internal_node_id": "0.0-4.0-1.0-16.0"}}, {"uniqueid": "w14820724:a93665578", "current_trial": 26, "dateTime": 1691144353288, "trialdata": {"revealed_states": [], "clicked_states": [], "num_clicks_accrued": [0, 0, 0, 0, 0, 0, 0, 0, 0, 0, 0, 0, 0], "stateRewards": ["", 2, -1, -3, 16, -3, -16, -62, -1, 13, -26, 43, -1, 4, 3, -9, -54, -37, -3, -12, -71, -68, -57, 1, -3, 2, -9, 2, -2, -9, -11, 84, -52, 55], "withholdReward": false, "trial_id": "mdp_trial_18", "block": "test", "trialIndex": 19, "score": 73, "costs": 0, "simulationMode": [null, null, null, null, null], "rewards": [1, -3, 2, -11, 84], "path": ["0", "0", "23", "24", "25", "30", "31"], "rt": [8935, 294, 822, 621, 593], "actions": ["left", "left", "left", "down", "right"], "actionTimes": [11480, 12329, 13702, 14862, 16011], "queries": {"click": {"state": {"target": [], "time": []}, "edge": {"target": [], "time": []}}, "mouseover": {"state": {"target": ["1", "23", "24", "25", "27", "23", "0"], "time": [3694, 4851, 5091, 5355, 6194, 7741, 8380]}, "edge": {"target": [], "time": []}}, "mouseout": {"state": {"target": ["10", "1", "23", "24", "25", "27", "23", "0", "16", "21"], "time": [740, 3899, 5036, 5280, 6114, 7496, 8294, 8935, 18043, 18743]}, "edge": {"target": [], "time": []}}}, "displayed_time": "16.56", "trialTime": 19905, "trial_type": "mouselab-mdp", "trial_index": 26, "time_elapsed": 2048434, "internal_node_id": "0.0-4.0-1.0-17.0"}}, {"uniqueid": "w14820724:a93665578", "current_trial": 27, "dateTime": 1691144378328, "trialdata": {"revealed_states": [], "clicked_states": ["27"], "num_clicks_accrued": [0, 0, 0, 0, 0, 0, 0, 0, 0, 0, 0, 0, 0], "stateRewards": ["", 2, 1, -3, 7, 46, 11, -36, 16, 71, 5, 1, 2, -2, -8, -3, -4, 6, 55, 7, 68, -54, 2, 1, 1, 6, -6, 42, -4, -84, -11, -65, 63, 25], "withholdReward": false, "trial_id": "mdp_trial_19", "block": "test", "trialIndex": 20, "score": -84.15, "costs": -2.15, "simulationMode": [null, null, null, null, null], "rewards": [1, 1, 6, -6, -84], "path": ["0", "0", "23", "24", "25", "26", "29"], "rt": [7510, 420, 490, 620, 285], "actions": ["left", "left", "left", "up", "left"], "actionTimes": [14092, 15025, 16044, 17213, 18105], "queries": {"click": {"state": {"target": ["27"], "time": [7718]}, "edge": {"target": [], "time": []}}, "mouseover": {"state": {"target": ["28", "27", "0", "24", "31"], "time": [7175, 7431, 8401, 9231, 11432]}, "edge": {"target": [], "time": []}}, "mouseout": {"state": {"target": ["0", "28", "27", "0", "24", "31", "20"], "time": [7126, 7234, 8192, 9168, 11415, 11480, 22135]}, "edge": {"target": [], "time": []}}}, "displayed_time": "20.59", "trialTime": 22747, "trial_type": "mouselab-mdp", "trial_index": 27, "time_elapsed": 2073474, "internal_node_id": "0.0-4.0-1.0-18.0"}}, {"uniqueid": "w14820724:a93665578", "current_trial": 28, "dateTime": 1691144422935, "trialdata": {"revealed_states": [], "clicked_states": ["14", "16", "21", "20", "13", "12", "22", "19", "17", "18"], "num_clicks_accrued": [0, 0, 0, 0, 0, 0, 0, 0, 0, 0, 0, 0, 0], "stateRewards": ["", -1, 4, -5, 9, 29, -75, -42, -16, 24, -28, -41, 2, -3, 1, 10, 60, 47, 55, -1, -53, 22, -40, 2, -3, -6, 4, -26, 44, 54, 15, -76, 42, 14], "withholdReward": false, "trial_id": "mdp_trial_20", "block": "test", "trialIndex": 21, "score": 49.5, "costs": -15.500000000000002, "simulationMode": [null, null, null, null, null], "rewards": [2, -3, 1, 10, 55], "path": ["0", "0", "12", "13", "14", "15", "18"], "rt": [31741, 310, 407, 262, 502], "actions": ["right", "right", "right", "up", "left"], "actionTimes": [35400, 36258, 37192, 38000, 39091], "queries": {"click": {"state": {"target": ["14", "16", "21", "20", "13", "12", "22", "19", "17", "18"], "time": [4944, 6298, 9715, 12919, 16285, 17637, 19578, 23935, 25406, 28940]}, "edge": {"target": [], "time": []}}, "mouseover": {"state": {"target": ["12", "14", "15", "16", "21", "20", "19", "13", "12", "19", "22", "19", "17", "15", "18", "12"], "time": [4315, 4579, 5398, 5486, 7861, 11004, 13694, 15848, 16739, 18332, 19002, 19917, 24801, 26028, 26117, 32611]}, "edge": {"target": [], "time": []}}, "mouseout": {"state": {"target": ["27", "27", "23", "12", "14", "15", "16", "21", "20", "19", "13", "12", "19", "22", "19", "17", "17", "15", "18", "12", "23", "12"], "time": [1209, 1515, 1854, 4373, 5356, 5466, 7765, 10625, 13552, 13836, 16674, 18229, 18942, 19900, 24365, 25582, 26012, 26103, 32356, 32658, 40757, 40963]}, "edge": {"target": [], "time": []}}}, "displayed_time": "39.61", "trialTime": 41937, "trial_type": "mouselab-mdp", "trial_index": 28, "time_elapsed": 2118078, "internal_node_id": "0.0-4.0-1.0-19.0"}}, {"uniqueid": "w14820724:a93665578", "current_trial": 29, "dateTime": 1691144501291, "trialdata": {"revealed_states": [], "clicked_states": ["27", "29", "28", "32", "31", "33", "21", "16", "17", "22", "20", "18", "14", "15", "3", "5", "6", "11", "9", "10"], "num_clicks_accrued": [0, 0, 0, 0, 0, 0, 0, 0, 0, 0, 0, 0, 0], "stateRewards": ["", 1, 4, -8, -5, -15, -7, 21, 13, -30, 40, -65, 1, 1, 5, -14, 35, 27, -38, -11, 36, -58, -47, -2, 4, -3, 13, -16, -49, 22, 15, -56, -44, -10], "withholdReward": false, "trial_id": "mdp_trial_21", "block": "test", "trialIndex": 22, "score": 10.000000000000014, "costs": -39.999999999999986, "simulationMode": [null, null, null, null, null], "rewards": [1, 4, -8, 13, 40], "path": ["0", "0", "1", "2", "3", "8", "10"], "rt": [66660, 115, 354, 593, 160], "actions": ["up", "up", "up", "left", "down"], "actionTimes": [69459, 70139, 71023, 72188, 72896], "queries": {"click": {"state": {"target": ["27", "29", "28", "32", "31", "33", "21", "16", "17", "22", "20", "18", "14", "15", "3", "5", "6", "11", "9", "10"], "time": [4492, 7720, 11098, 14446, 17682, 20839, 24026, 27289, 30655, 33881, 37571, 40962, 45412, 46504, 48477, 49608, 52832, 56025, 59290, 62483]}, "edge": {"target": [], "time": []}}, "mouseover": {"state": {"target": ["23", "24", "27", "29", "26", "28", "25", "28", "25", "32", "31", "30", "33", "21", "19", "14", "15", "16", "14", "14", "17", "17", "14", "22", "14", "20", "14", "18", "15", "14", "15", "2", "3", "5", "6", "10", "11", "9", "10", "2", "13", "13", "12"], "time": [3692, 3763, 4239, 5208, 8193, 8359, 9802, 10393, 11725, 12186, 14993, 18121, 18459, 21777, 24567, 24669, 24764, 25109, 27861, 29714, 30071, 30470, 31154, 31419, 34489, 37210, 38076, 39002, 44321, 45074, 45945, 47632, 48252, 49222, 50515, 53539, 54930, 56563, 60324, 62930, 63182, 64657, 64967]}, "edge": {"target": [], "time": []}}, "mouseout": {"state": {"target": ["1", "23", "0", "23", "24", "27", "29", "26", "28", "25", "28", "25", "32", "31", "30", "33", "21", "19", "14", "15", "16", "14", "14", "17", "17", "14", "22", "14", "20", "14", "18", "15", "14", "15", "2", "3", "5", "6", "10", "11", "9", "9", "10", "2", "13", "13", "12"], "time": [774, 978, 2867, 3746, 3823, 4950, 7962, 8250, 9733, 10231, 11654, 11798, 14878, 18100, 18280, 21263, 24438, 24649, 24747, 24830, 27771, 27927, 29944, 30222, 30833, 31260, 34293, 34619, 37936, 38172, 41591, 44537, 45873, 47104, 47726, 48965, 50078, 53219, 54914, 56129, 59459, 59842, 62912, 63009, 63346, 64778, 74634]}, "edge": {"target": [], "time": []}}}, "displayed_time": "73.46", "trialTime": 75732, "trial_type": "mouselab-mdp", "trial_index": 29, "time_elapsed": 2196436, "internal_node_id": "0.0-4.0-1.0-20.0"}}, {"uniqueid": "w14820724:a93665578", "current_trial": 30, "dateTime": 1691144538870, "trialdata": {"revealed_states": [], "clicked_states": ["14", "15", "19", "25", "30", "26", "3", "2", "6"], "num_clicks_accrued": [0, 0, 0, 0, 0, 0, 0, 0, 0, 0, 0, 0, 0], "stateRewards": ["", 1, -1, 8, -3, 38, 85, -20, -4, 8, 23, 73, 2, -4, 6, -13, 44, 7, -28, -11, -77, 45, -69, 1, -1, -7, -11, 75, -51, -87, 7, 36, -53, -26], "withholdReward": false, "trial_id": "mdp_trial_22", "block": "test", "trialIndex": 23, "score": 78.45, "costs": -11.549999999999999, "simulationMode": [null, null, null, null, null], "rewards": [1, -1, 8, -3, 85], "path": ["0", "0", "1", "2", "3", "4", "6"], "rt": [23925, 16, 234, 398, 199], "actions": ["up", "up", "up", "right", "right"], "actionTimes": [28600, 29139, 29929, 30868, 31587], "queries": {"click": {"state": {"target": ["14", "15", "19", "25", "30", "26", "3", "2", "6"], "time": [6233, 8468, 10063, 11925, 14438, 16368, 18408, 19809, 21072]}, "edge": {"target": [], "time": []}}, "mouseover": {"state": {"target": ["17", "15", "14", "23", "0", "15", "15", "19", "19", "24", "25", "26", "30", "26", "2", "4", "3", "2", "6", "4", "3", "8", "11", "10", "1"], "time": [5471, 5537, 5686, 6762, 7568, 7785, 8104, 9435, 9650, 11145, 11470, 12939, 14188, 15440, 17595, 17876, 18070, 19288, 20682, 21742, 21881, 23641, 24173, 25120, 25372]}, "edge": {"target": [], "time": []}}, "mouseout": {"state": {"target": ["25", "25", "24", "23", "17", "15", "14", "23", "0", "15", "15", "15", "19", "19", "19", "24", "25", "26", "30", "30", "26", "2", "4", "3", "2", "6", "4", "3", "8", "11", "10", "1", "0", "13"], "time": [2786, 2864, 2911, 2957, 5523, 5595, 6595, 6880, 7641, 7856, 9138, 9362, 9522, 10624, 10977, 11199, 12579, 13652, 14645, 14971, 17325, 17650, 17931, 19049, 20374, 21617, 21864, 22089, 23865, 25022, 25174, 25537, 33966, 34110]}, "edge": {"target": [], "time": []}}}, "displayed_time": "32.20", "trialTime": 35056, "trial_type": "mouselab-mdp", "trial_index": 30, "time_elapsed": 2234016, "internal_node_id": "0.0-4.0-1.0-21.0"}}, {"uniqueid": "w14820724:a93665578", "current_trial": 31, "dateTime": 1691144604802, "trialdata": {"revealed_states": [], "clicked_states": ["3", "14", "16", "21", "27", "28", "30", "32", "11", "6", "5", "9", "10", "7", "29"], "num_clicks_accrued": [0, 0, 0, 0, 0, 0, 0, 0, 0, 0, 0, 0, 0], "stateRewards": ["", -2, 1, -3, -16, -39, -52, 30, -7, -41, -59, 11, 2, 1, 8, 2, -11, -26, -42, -13, 87, -59, -48, -1, -1, -1, 16, -79, 31, 50, -1, -84, 34, -82], "withholdReward": false, "trial_id": "mdp_trial_23", "block": "test", "trialIndex": 24, "score": 0.7500000000000071, "costs": -29.249999999999993, "simulationMode": [null, null, null, null, null], "rewards": [-1, -1, -1, -1, 34], "path": ["0", "0", "23", "24", "25", "30", "32"], "rt": [54085, 49, 289, 388, 79], "actions": ["left", "left", "left", "down", "down"], "actionTimes": [57168, 57741, 58583, 59605, 60229], "queries": {"click": {"state": {"target": ["3", "14", "16", "21", "27", "28", "30", "32", "11", "6", "5", "9", "10", "7", "29"], "time": [5308, 6654, 8408, 11768, 15525, 18846, 22159, 23724, 27761, 31191, 34848, 38591, 41761, 45333, 49489]}, "edge": {"target": [], "time": []}}, "mouseover": {"state": {"target": ["18", "0", "1", "3", "14", "12", "15", "16", "15", "21", "22", "12", "26", "27", "26", "25", "25", "28", "25", "30", "32", "23", "7", "4", "3", "11", "2", "4", "6", "7", "1", "4", "5", "9", "10", "7", "25", "29", "28", "23", "0"], "time": [4115, 4523, 4881, 5094, 6218, 7475, 7673, 8145, 8928, 9553, 12241, 14173, 14670, 14909, 15996, 16106, 17339, 17812, 19603, 20100, 22819, 24165, 24365, 26335, 26483, 26574, 30270, 30666, 30739, 31699, 31811, 34240, 34361, 38335, 39116, 42686, 46553, 48648, 50037, 50920, 51112]}, "edge": {"target": [], "time": []}}, "mouseout": {"state": {"target": ["4", "0", "18", "0", "1", "3", "14", "14", "12", "15", "16", "16", "15", "21", "22", "12", "26", "27", "26", "25", "25", "28", "25", "30", "32", "23", "7", "4", "3", "11", "11", "2", "4", "6", "6", "7", "1", "4", "5", "9", "10", "7", "25", "29", "28", "23", "0", "0", "12", "13"], "time": [1319, 1670, 4169, 4660, 4965, 5800, 6800, 7109, 7602, 7741, 8577, 8844, 9005, 12149, 12325, 14313, 14842, 15921, 16089, 16194, 17552, 19303, 20009, 22744, 24091, 24239, 24522, 26461, 26561, 27919, 28162, 30441, 30723, 31343, 31671, 31796, 34069, 34307, 35316, 38929, 42314, 45695, 48398, 49639, 50114, 51052, 51950, 61209, 61284, 62992]}, "edge": {"target": [], "time": []}}}, "displayed_time": "60.77", "trialTime": 63495, "trial_type": "mouselab-mdp", "trial_index": 31, "time_elapsed": 2299949, "internal_node_id": "0.0-4.0-1.0-22.0"}}, {"uniqueid": "w14820724:a93665578", "current_trial": 32, "dateTime": 1691144628953, "trialdata": {"revealed_states": [], "clicked_states": ["25", "27"], "num_clicks_accrued": [0, 0, 0, 0, 0, 0, 0, 0, 0, 0, 0, 0, 0], "stateRewards": ["", -2, -1, -5, 10, -36, -70, 68, -9, 86, 71, -10, 2, -4, 7, -7, 66, 44, -66, -13, -69, 43, 15, -2, 2, 6, -13, 62, 57, 50, -10, -69, 42, -72], "withholdReward": false, "trial_id": "mdp_trial_24", "block": "test", "trialIndex": 25, "score": 51.9, "costs": -3.0999999999999996, "simulationMode": [null, null, null, null, null], "rewards": [-2, 2, 6, -13, 62], "path": ["0", "0", "23", "24", "25", "26", "27"], "rt": [9041, 220, 310, 525, 283], "actions": ["left", "left", "left", "up", "up"], "actionTimes": [13020, 13758, 14715, 15789, 16609], "queries": {"click": {"state": {"target": ["25", "27"], "time": [5355, 6623]}, "edge": {"target": [], "time": []}}, "mouseover": {"state": {"target": ["25", "26", "27", "29", "24", "23", "12", "0"], "time": [4947, 5799, 6049, 7441, 10445, 10513, 10609, 10997]}, "edge": {"target": [], "time": []}}, "mouseout": {"state": {"target": ["7", "0", "25", "26", "27", "29", "24", "23", "12", "0", "20", "19"], "time": [1269, 4858, 5707, 5867, 6782, 10353, 10496, 10564, 10891, 19174, 19525, 19742]}, "edge": {"target": [], "time": []}}}, "displayed_time": "17.99", "trialTime": 21273, "trial_type": "mouselab-mdp", "trial_index": 32, "time_elapsed": 2324100, "internal_node_id": "0.0-4.0-1.0-23.0"}}, {"uniqueid": "w14820724:a93665578", "current_trial": 33, "dateTime": 1691144667905, "trialdata": {"revealed_states": [], "clicked_states": ["16", "21", "17", "20"], "num_clicks_accrued": [0, 0, 0, 0, 0, 0, 0, 0, 0, 0, 0, 0, 0], "stateRewards": ["", 1, 1, 1, -3, -7, -1, -41, -10, 20, -72, -63, 1, -4, -2, 2, -66, 30, -84, -2, 49, 23, 71, -1, -4, 4, -12, 67, 5, 18, -16, 88, 56, -5], "withholdReward": false, "trial_id": "mdp_trial_25", "block": "test", "trialIndex": 26, "score": 33.4, "costs": -8.6, "simulationMode": [null, null, null, null, null], "rewards": [1, -4, -2, -2, 49], "path": ["0", "0", "12", "13", "14", "19", "20"], "rt": [19827, 244, 271, 450, 652], "actions": ["right", "right", "right", "down", "right"], "actionTimes": [24346, 25118, 25949, 26925, 28126], "queries": {"click": {"state": {"target": ["16", "21", "17", "20"], "time": [6612, 10061, 13649, 16937]}, "edge": {"target": [], "time": []}}, "mouseover": {"state": {"target": ["18", "17", "16", "21", "17", "23", "24", "23", "12", "22", "19", "20", "19", "13", "12", "0"], "time": [5998, 6158, 6345, 7783, 12444, 14319, 15226, 15395, 15620, 15933, 16078, 16329, 17529, 18330, 21541, 21710]}, "edge": {"target": [], "time": []}}, "mouseout": {"state": {"target": ["12", "0", "18", "17", "16", "16", "21", "17", "23", "24", "23", "12", "22", "19", "20", "19", "13", "12", "0", "7", "6", "15", "18", "12"], "time": [2854, 5229, 6085, 6209, 6766, 7117, 11146, 14131, 14398, 15377, 15478, 15772, 16018, 16202, 17436, 17617, 21431, 21629, 30349, 30460, 30817, 34943, 35036, 35181]}, "edge": {"target": [], "time": []}}}, "displayed_time": "28.69", "trialTime": 36663, "trial_type": "mouselab-mdp", "trial_index": 33, "time_elapsed": 2363052, "internal_node_id": "0.0-4.0-1.0-24.0"}}, {"uniqueid": "w14820724:a93665578", "current_trial": 34, "dateTime": 1691144716453, "trialdata": {"revealed_states": [], "clicked_states": ["27", "32", "29", "20", "16", "17", "21"], "num_clicks_accrued": [0, 0, 0, 0, 0, 0, 0, 0, 0, 0, 0, 0, 0], "stateRewards": ["", -2, 1, -7, 9, 8, 25, 61, -7, -17, 69, -81, 1, 4, -4, -11, 16, 67, 44, 3, 6, -45, -54, -2, 3, 6, -11, -15, 32, -47, 3, -39, -6, -88], "withholdReward": false, "trial_id": "mdp_trial_26", "block": "test", "trialIndex": 27, "score": 41.95, "costs": -15.05, "simulationMode": [null, null, null, null, null], "rewards": [1, 4, -4, -11, 67], "path": ["0", "0", "12", "13", "14", "15", "17"], "rt": [28042, 188, 242, 235, 117], "actions": ["right", "right", "right", "up", "right"], "actionTimes": [39291, 40012, 40836, 41609, 42277], "queries": {"click": {"state": {"target": ["27", "32", "29", "20", "16", "17", "21"], "time": [12715, 15850, 19085, 22493, 25750, 29099, 33028]}, "edge": {"target": [], "time": []}}, "mouseover": {"state": {"target": ["1", "27", "27", "32", "30", "29", "26", "20", "19", "15", "16", "17", "21", "21", "14"], "time": [12022, 12195, 12521, 13672, 16258, 16664, 19542, 20010, 23396, 23516, 23659, 26326, 29979, 30346, 33727]}, "edge": {"target": [], "time": []}}, "mouseout": {"state": {"target": ["12", "0", "1", "27", "27", "32", "30", "29", "26", "20", "19", "15", "16", "17", "21", "21", "14", "6", "4", "26", "33"], "time": [9068, 11297, 12080, 12310, 13200, 16095, 16341, 19497, 19744, 23340, 23497, 23643, 26257, 29647, 30060, 33559, 43718, 44079, 44138, 44228, 44294]}, "edge": {"target": [], "time": []}}}, "displayed_time": "42.87", "trialTime": 46147, "trial_type": "mouselab-mdp", "trial_index": 34, "time_elapsed": 2411599, "internal_node_id": "0.0-4.0-1.0-25.0"}}, {"uniqueid": "w14820724:a93665578", "current_trial": 35, "dateTime": 1691144757055, "trialdata": {"revealed_states": [], "clicked_states": ["3", "6", "5", "9", "11", "7", "10", "2", "1"], "num_clicks_accrued": [0, 0, 0, 0, 0, 0, 0, 0, 0, 0, 0, 0, 0], "stateRewards": ["", -2, -1, -3, -1, -78, -6, 2, -1, 22, -88, 32, 2, 2, -7, -8, -51, -17, 54, 2, -44, 54, 75, 2, -2, -8, -15, -29, 12, -67, 15, -1, -47, -47], "withholdReward": false, "trial_id": "mdp_trial_27", "block": "test", "trialIndex": 28, "score": 11.049999999999997, "costs": -13.950000000000001, "simulationMode": [null, null, null, null, null], "rewards": [-2, -1, -3, -1, 32], "path": ["0", "0", "1", "2", "3", "8", "11"], "rt": [28243, 156, 233, 447, 209], "actions": ["up", "up", "up", "left", "left"], "actionTimes": [31026, 31745, 32519, 33509, 34249], "queries": {"click": {"state": {"target": ["3", "6", "5", "9", "11", "7", "10", "2", "1"], "time": [4203, 5194, 8438, 11903, 15218, 19157, 22321, 25980, 27579]}, "edge": {"target": [], "time": []}}, "mouseover": {"state": {"target": ["3", "10", "3", "6", "5", "9", "11", "8", "17", "18", "7", "2", "10", "1", "2", "1"], "time": [3314, 3602, 3975, 4939, 5719, 9549, 12675, 15706, 16218, 18611, 18939, 19716, 19931, 23103, 25572, 26558]}, "edge": {"target": [], "time": []}}, "mouseout": {"state": {"target": ["12", "0", "3", "10", "3", "6", "5", "9", "11", "8", "17", "18", "7", "2", "10", "1", "2", "1", "21"], "time": [653, 2827, 3395, 3694, 4321, 5494, 9106, 12429, 15688, 15789, 18555, 18712, 19603, 19795, 22854, 25476, 26480, 28132, 35879]}, "edge": {"target": [], "time": []}}}, "displayed_time": "34.84", "trialTime": 37869, "trial_type": "mouselab-mdp", "trial_index": 35, "time_elapsed": 2452199, "internal_node_id": "0.0-4.0-1.0-26.0"}}, {"uniqueid": "w14820724:a93665578", "current_trial": 36, "dateTime": 1691144780414, "trialdata": {"revealed_states": [], "clicked_states": [], "num_clicks_accrued": [0, 0, 0, 0, 0, 0, 0, 0, 0, 0, 0, 0, 0], "stateRewards": ["", -2, -4, -8, 8, 63, -50, -19, -7, -17, -31, 31, 1, 3, -5, 12, -35, -63, -29, -4, -17, -75, -79, -2, -3, -2, 8, -3, -85, 10, -2, -82, -82, 56], "withholdReward": false, "trial_id": "mdp_trial_28", "block": "test", "trialIndex": 29, "score": 47, "costs": 0, "simulationMode": [null, null, null, null, null], "rewards": [-2, -3, -2, -2, 56], "path": ["0", "0", "23", "24", "25", "30", "33"], "rt": [7694, 93, 151, 606, 315], "actions": ["left", "left", "left", "down", "left"], "actionTimes": [11486, 12129, 12832, 13976, 14831], "queries": {"click": {"state": {"target": [], "time": []}, "edge": {"target": [], "time": []}}, "mouseover": {"state": {"target": ["8", "11"], "time": [7306, 7729]}, "edge": {"target": [], "time": []}}, "mouseout": {"state": {"target": ["22", "12", "0", "8", "11", "22", "19"], "time": [1535, 1700, 7217, 7468, 7787, 19178, 19461]}, "edge": {"target": [], "time": []}}}, "displayed_time": "17.80", "trialTime": 20769, "trial_type": "mouselab-mdp", "trial_index": 36, "time_elapsed": 2475561, "internal_node_id": "0.0-4.0-1.0-27.0"}}, {"uniqueid": "w14820724:a93665578", "current_trial": 37, "dateTime": 1691144804457, "trialdata": {"revealed_states": [], "clicked_states": [], "num_clicks_accrued": [0, 0, 0, 0, 0, 0, 0, 0, 0, 0, 0, 0, 0], "stateRewards": ["", 2, 4, -3, 16, -58, 30, -35, 11, -60, 47, 27, -2, -1, -7, -16, 23, -70, 68, -10, -65, -43, -34, -2, 1, 7, 9, -63, 34, -31, -8, -12, -86, 59], "withholdReward": false, "trial_id": "mdp_trial_29", "block": "test", "trialIndex": 30, "score": -3, "costs": 0, "simulationMode": [null, null, null, null, null], "rewards": [-2, -1, -7, -16, 23], "path": ["0", "0", "12", "13", "14", "15", "16"], "rt": [4493, 107, 259, 867, 107], "actions": ["right", "right", "right", "up", "up"], "actionTimes": [8206, 8841, 9629, 11038, 11683], "queries": {"click": {"state": {"target": [], "time": []}, "edge": {"target": [], "time": []}}, "mouseover": {"state": {"target": [], "time": []}, "edge": {"target": [], "time": []}}, "mouseout": {"state": {"target": ["12", "1", "16", "18"], "time": [1377, 1821, 13338, 18850]}, "edge": {"target": [], "time": []}}}, "displayed_time": "17.71", "trialTime": 21312, "trial_type": "mouselab-mdp", "trial_index": 37, "time_elapsed": 2499602, "internal_node_id": "0.0-4.0-1.0-28.0"}}, {"uniqueid": "w14820724:a93665578", "current_trial": 38, "dateTime": 1691144833780, "trialdata": {"revealed_states": [], "clicked_states": [], "num_clicks_accrued": [0, 0, 0, 0, 0, 0, 0, 0, 0, 0, 0, 0, 0], "stateRewards": ["", 1, 2, -5, 14, 54, -14, -25, 16, -5, -87, 78, -1, 1, 3, -3, 52, 53, 53, -10, 73, -69, -48, 2, 3, 1, 8, -62, -7, 85, 7, 82, 52, -28], "withholdReward": false, "trial_id": "mdp_trial_30", "block": "test", "trialIndex": 31, "score": 99, "costs": 0, "simulationMode": [null, null, null, null, null], "rewards": [2, 3, 1, 8, 85], "path": ["0", "0", "23", "24", "25", "26", "29"], "rt": [3394, 101, 236, 355, 386], "actions": ["left", "left", "left", "up", "left"], "actionTimes": [7448, 8097, 8888, 9769, 10699], "queries": {"click": {"state": {"target": [], "time": []}, "edge": {"target": [], "time": []}}, "mouseover": {"state": {"target": [], "time": []}, "edge": {"target": [], "time": []}}, "mouseout": {"state": {"target": ["1", "23", "5", "10", "2"], "time": [1914, 21919, 22213, 22495, 23339]}, "edge": {"target": [], "time": []}}}, "displayed_time": "18.05", "trialTime": 26719, "trial_type": "mouselab-mdp", "trial_index": 38, "time_elapsed": 2528925, "internal_node_id": "0.0-4.0-1.0-29.0"}}, {"uniqueid": "w14820724:a93665578", "current_trial": 39, "dateTime": 1691144856215, "trialdata": {"revealed_states": [], "clicked_states": [], "num_clicks_accrued": [0, 0, 0, 0, 0, 0, 0, 0, 0, 0, 0, 0, 0], "stateRewards": ["", -2, -3, 7, -13, 60, 9, 37, -6, 37, 20, 1, 2, -2, -8, 6, -80, -31, -10, -7, 70, -65, -44, -1, 1, 7, 6, -11, 73, -85, 16, -21, 47, 34], "withholdReward": false, "trial_id": "mdp_trial_31", "block": "test", "trialIndex": 32, "score": -59, "costs": 0, "simulationMode": [null, null, null, null, null], "rewards": [2, -2, -8, -7, -44], "path": ["0", "0", "12", "13", "14", "19", "22"], "rt": [3605, 214, 221, 400, 164], "actions": ["right", "right", "right", "down", "left"], "actionTimes": [7133, 7884, 8679, 9623, 10305], "queries": {"click": {"state": {"target": [], "time": []}, "edge": {"target": [], "time": []}}, "mouseover": {"state": {"target": [], "time": []}, "edge": {"target": [], "time": []}}, "mouseout": {"state": {"target": ["2", "1", "0", "14"], "time": [1457, 1523, 1853, 18836]}, "edge": {"target": [], "time": []}}}, "displayed_time": "17.53", "trialTime": 19539, "trial_type": "mouselab-mdp", "trial_index": 39, "time_elapsed": 2551361, "internal_node_id": "0.0-4.0-1.0-30.0"}}, {"uniqueid": "w14820724:a93665578", "current_trial": 40, "dateTime": 1691144878747, "trialdata": {"revealed_states": [], "clicked_states": ["27", "25"], "num_clicks_accrued": [0, 0, 0, 0, 0, 0, 0, 0, 0, 0, 0, 0, 0], "stateRewards": ["", -1, 2, -2, 5, 80, -61, -27, 12, 44, -26, -75, -2, -4, 1, -16, 42, -49, -50, 4, -44, 2, 80, -2, -2, 5, -2, 59, 10, 24, 7, -48, -86, -44], "withholdReward": false, "trial_id": "mdp_trial_32", "block": "test", "trialIndex": 33, "score": 54.9, "costs": -3.0999999999999996, "simulationMode": [null, null, null, null, null], "rewards": [-2, -2, 5, -2, 59], "path": ["0", "0", "23", "24", "25", "26", "27"], "rt": [9476, 336, 256, 442, 120], "actions": ["left", "left", "left", "up", "up"], "actionTimes": [12341, 13225, 14034, 15032, 15705], "queries": {"click": {"state": {"target": ["27", "25"], "time": [4308, 8739]}, "edge": {"target": [], "time": []}}, "mouseover": {"state": {"target": ["28", "27", "26", "32", "30", "25", "24", "12", "13"], "time": [3753, 3962, 4763, 5476, 8252, 8373, 9254, 9385, 9456]}, "edge": {"target": [], "time": []}}, "mouseout": {"state": {"target": ["28", "27", "26", "32", "30", "25", "24", "12", "13"], "time": [3810, 4690, 5098, 8192, 8322, 9236, 9356, 9442, 17779]}, "edge": {"target": [], "time": []}}}, "displayed_time": "16.87", "trialTime": 19428, "trial_type": "mouselab-mdp", "trial_index": 40, "time_elapsed": 2573893, "internal_node_id": "0.0-4.0-1.0-31.0"}}, {"uniqueid": "w14820724:a93665578", "current_trial": 41, "dateTime": 1691144912700, "trialdata": {"revealed_states": [], "clicked_states": ["16"], "num_clicks_accrued": [0, 0, 0, 0, 0, 0, 0, 0, 0, 0, 0, 0, 0], "stateRewards": ["", -2, 4, 3, 5, -61, 4, 30, 1, -47, 83, 10, 1, 4, 7, -14, 19, -74, -83, 6, -2, -2, -65, -1, -2, 4, -11, 12, -1, -68, 11, -38, -28, 66], "withholdReward": false, "trial_id": "mdp_trial_33", "block": "test", "trialIndex": 34, "score": 13.85, "costs": -2.15, "simulationMode": [null, null, null, null, null], "rewards": [1, 4, 7, 6, -2], "path": ["0", "0", "12", "13", "14", "19", "20"], "rt": [10187, 302, 268, 244, 502], "actions": ["right", "right", "right", "down", "right"], "actionTimes": [15170, 15997, 16821, 17590, 18649], "queries": {"click": {"state": {"target": ["16"], "time": [7068]}, "edge": {"target": [], "time": []}}, "mouseover": {"state": {"target": ["13", "16", "13"], "time": [6176, 6754, 11098]}, "edge": {"target": [], "time": []}}, "mouseout": {"state": {"target": ["14", "0", "13", "16", "13", "16", "28", "1"], "time": [1703, 6073, 6228, 7481, 26163, 26865, 29831, 30337]}, "edge": {"target": [], "time": []}}}, "displayed_time": "19.19", "trialTime": 30991, "trial_type": "mouselab-mdp", "trial_index": 41, "time_elapsed": 2607847, "internal_node_id": "0.0-4.0-1.0-32.0"}}, {"uniqueid": "w14820724:a93665578", "current_trial": 42, "dateTime": 1691144946528, "trialdata": {"revealed_states": [], "clicked_states": ["27", "32", "16", "21"], "num_clicks_accrued": [0, 0, 0, 0, 0, 0, 0, 0, 0, 0, 0, 0, 0], "stateRewards": ["", -2, -4, 4, -11, -63, -60, -7, 2, -14, 81, -43, -1, -1, -5, 7, 10, 69, 40, 8, -83, 52, 60, 1, 2, 5, -5, 16, 64, 14, -3, 29, 7, -51], "withholdReward": false, "trial_id": "mdp_trial_34", "block": "test", "trialIndex": 35, "score": 44.4, "costs": -8.6, "simulationMode": [null, null, null, null, null], "rewards": [-1, -1, -5, 8, 52], "path": ["0", "0", "12", "13", "14", "19", "21"], "rt": [20643, 28, 160, 332, 324], "actions": ["right", "right", "right", "down", "down"], "actionTimes": [24307, 24870, 25587, 26467, 27337], "queries": {"click": {"state": {"target": ["27", "32", "16", "21"], "time": [5331, 9254, 13321, 16774]}, "edge": {"target": [], "time": []}}, "mouseover": {"state": {"target": ["23", "27", "25", "30", "32", "13", "18", "15", "16", "20", "21", "22", "12", "12"], "time": [4488, 4839, 6163, 8776, 9116, 9917, 12778, 12852, 13078, 14159, 15069, 20274, 20383, 20977]}, "edge": {"target": [], "time": []}}, "mouseout": {"state": {"target": ["1", "23", "27", "25", "30", "32", "13", "18", "15", "16", "20", "21", "22", "12", "12"], "time": [1594, 4555, 5815, 6241, 8845, 9770, 9997, 12836, 12915, 13829, 14883, 17530, 20338, 20494, 21756]}, "edge": {"target": [], "time": []}}}, "displayed_time": "27.90", "trialTime": 31016, "trial_type": "mouselab-mdp", "trial_index": 42, "time_elapsed": 2641674, "internal_node_id": "0.0-4.0-1.0-33.0"}}, {"uniqueid": "w14820724:a93665578", "current_trial": 43, "dateTime": 1691144974750, "trialdata": {"revealed_states": [], "clicked_states": ["3", "5"], "num_clicks_accrued": [0, 0, 0, 0, 0, 0, 0, 0, 0, 0, 0, 0, 0], "stateRewards": ["", -2, -2, -3, -6, -15, -11, 41, -12, -63, -76, 2, -2, -3, 8, 9, -36, -2, -18, -16, -32, -85, -17, -2, 1, 5, -16, 82, 35, -88, -1, 80, -82, -20], "withholdReward": false, "trial_id": "mdp_trial_35", "block": "test", "trialIndex": 36, "score": -48.1, "costs": -3.0999999999999996, "simulationMode": [null, null, null, null, null], "rewards": [-2, -3, 8, -16, -32], "path": ["0", "0", "12", "13", "14", "19", "20"], "rt": [11773, 228, 794, 57, 501], "actions": ["right", "right", "right", "down", "right"], "actionTimes": [15335, 16118, 17455, 18055, 19140], "queries": {"click": {"state": {"target": ["3", "5"], "time": [6560, 7377]}, "edge": {"target": [], "time": []}}, "mouseover": {"state": {"target": ["1", "2", "3", "5", "9", "2", "20", "19", "13", "12"], "time": [4874, 5958, 6264, 7093, 8192, 12871, 13469, 13749, 13889, 13972]}, "edge": {"target": [], "time": []}}, "mouseout": {"state": {"target": ["19", "1", "2", "3", "5", "9", "2", "20", "19", "13", "12", "0", "15", "31", "0"], "time": [1270, 5110, 6067, 6606, 7989, 12807, 12932, 13683, 13810, 13952, 14044, 22924, 23099, 23295, 23536]}, "edge": {"target": [], "time": []}}}, "displayed_time": "19.68", "trialTime": 25264, "trial_type": "mouselab-mdp", "trial_index": 43, "time_elapsed": 2669896, "internal_node_id": "0.0-4.0-1.0-34.0"}}, {"uniqueid": "w14820724:a93665578", "current_trial": 44, "dateTime": 1691145043731, "trialdata": {"revealed_states": [], "clicked_states": ["27", "32", "33", "21", "20", "16", "17", "18", "29", "28"], "num_clicks_accrued": [0, 0, 0, 0, 0, 0, 0, 0, 0, 0, 0, 0, 0], "stateRewards": ["", 1, 2, -3, 6, -88, 74, -45, 7, -46, 40, -77, 1, -4, 4, 3, 22, -25, -59, 8, -83, 19, -60, -1, -1, -1, -8, 26, -29, 64, -7, -88, -51, -55], "withholdReward": false, "trial_id": "mdp_trial_36", "block": "test", "trialIndex": 37, "score": 31.5, "costs": -21.499999999999996, "simulationMode": [null, null, null, null, null], "rewards": [-1, -1, -1, -8, 64], "path": ["0", "0", "23", "24", "25", "26", "29"], "rt": [38960, 35, 127, 398, 203], "actions": ["left", "left", "left", "up", "left"], "actionTimes": [59537, 60115, 60786, 61730, 62455], "queries": {"click": {"state": {"target": ["27", "32", "33", "21", "20", "16", "17", "18", "29", "28"], "time": [22090, 25205, 28395, 31918, 35171, 38626, 42262, 45767, 49036, 52463]}, "edge": {"target": [], "time": []}}, "mouseover": {"state": {"target": ["28", "27", "32", "30", "33", "21", "19", "14", "20", "15", "16", "17", "15", "18", "30", "33", "29", "26", "28", "23", "0"], "time": [21422, 21852, 22829, 26063, 26229, 30576, 32501, 32655, 33227, 35815, 36095, 39529, 42880, 43279, 46609, 46693, 47206, 49680, 51951, 53207, 53605]}, "edge": {"target": [], "time": []}}, "mouseout": {"state": {"target": ["0", "0", "28", "27", "32", "30", "33", "21", "19", "14", "20", "15", "16", "17", "15", "18", "30", "33", "29", "26", "28", "23", "0", "17", "15", "12"], "time": [4818, 21325, 21542, 22602, 25891, 26160, 30397, 32404, 32593, 33147, 35714, 36028, 39203, 42865, 42947, 46397, 46679, 46814, 49559, 51791, 52983, 53347, 57833, 64375, 64443, 65132]}, "edge": {"target": [], "time": []}}}, "displayed_time": "63.00", "trialTime": 66150, "trial_type": "mouselab-mdp", "trial_index": 44, "time_elapsed": 2738877, "internal_node_id": "0.0-4.0-1.0-35.0"}}, {"uniqueid": "w14820724:a93665578", "current_trial": 45, "dateTime": 1691145086066, "trialdata": {"revealed_states": [], "clicked_states": [], "num_clicks_accrued": [0, 0, 0, 0, 0, 0, 0, 0, 0, 0, 0, 0, 0], "stateRewards": ["", -1, 1, -5, -6, -78, 47, -13, 12, 48, -88, 20, 2, -3, -2, 13, -20, 37, -57, 14, -38, 30, 31, -2, -2, 8, 2, -23, 78, 28, 12, -74, -88, 8], "withholdReward": false, "trial_id": "mdp_trial_37", "block": "test", "trialIndex": 38, "score": -27, "costs": 0, "simulationMode": [null, null, null, null, null], "rewards": [2, -3, -2, 14, -38], "path": ["0", "0", "12", "13", "14", "19", "20"], "rt": [5783, 168, 87, 108, 572], "actions": ["right", "right", "right", "down", "right"], "actionTimes": [16903, 17624, 18266, 18938, 20066], "queries": {"click": {"state": {"target": [], "time": []}, "edge": {"target": [], "time": []}}, "mouseover": {"state": {"target": ["1", "1", "23"], "time": [14915, 15267, 15572]}, "edge": {"target": [], "time": []}}, "mouseout": {"state": {"target": ["0", "0", "1", "1", "1", "23", "0", "13", "22"], "time": [1792, 2790, 8042, 14988, 15474, 15648, 22546, 22879, 27485]}, "edge": {"target": [], "time": []}}}, "displayed_time": "25.12", "trialTime": 39314, "trial_type": "mouselab-mdp", "trial_index": 45, "time_elapsed": 2781212, "internal_node_id": "0.0-4.0-1.0-36.0"}}, {"uniqueid": "w14820724:a93665578", "current_trial": 46, "dateTime": 1691145116459, "trialdata": {"revealed_states": [], "clicked_states": [], "num_clicks_accrued": [0, 0, 0, 0, 0, 0, 0, 0, 0, 0, 0, 0, 0], "stateRewards": ["", 1, -2, 4, 7, -43, -83, -60, -5, -86, -80, 83, -1, -2, 6, 11, -15, 21, 13, 9, 29, -49, 11, -1, 4, -6, -11, 87, 40, 63, -8, -39, -11, 62], "withholdReward": false, "trial_id": "mdp_trial_38", "block": "test", "trialIndex": 39, "score": -1, "costs": 0, "simulationMode": [null, null, null, null, null], "rewards": [-1, -2, 6, 11, -15], "path": ["0", "0", "12", "13", "14", "15", "16"], "rt": [1369, 73, 296, 115, 139], "actions": ["right", "right", "right", "up", "up"], "actionTimes": [5197, 5850, 6699, 7426, 8122], "queries": {"click": {"state": {"target": [], "time": []}, "edge": {"target": [], "time": []}}, "mouseover": {"state": {"target": ["12"], "time": [3932]}, "edge": {"target": [], "time": []}}, "mouseout": {"state": {"target": ["0", "12", "12", "12", "0", "16", "16"], "time": [3911, 4263, 11428, 20371, 25228, 25411, 25923]}, "edge": {"target": [], "time": []}}}, "displayed_time": "17.84", "trialTime": 27129, "trial_type": "mouselab-mdp", "trial_index": 46, "time_elapsed": 2811604, "internal_node_id": "0.0-4.0-1.0-37.0"}}, {"uniqueid": "w14820724:a93665578", "current_trial": 47, "dateTime": 1691145144578, "trialdata": {"revealed_states": [], "clicked_states": ["27", "29"], "num_clicks_accrued": [0, 0, 0, 0, 0, 0, 0, 0, 0, 0, 0, 0, 0], "stateRewards": ["", 1, -3, -4, -11, -56, 61, -47, -16, -28, -9, 69, -2, -3, -4, -8, 40, -86, 59, -4, 80, 27, 54, -1, 3, -1, 8, 67, 23, 50, 6, 83, -43, -29], "withholdReward": false, "trial_id": "mdp_trial_39", "block": "test", "trialIndex": 40, "score": 71.7, "costs": -4.3, "simulationMode": [null, null, null, null, null], "rewards": [-1, 3, -1, 8, 67], "path": ["0", "0", "23", "24", "25", "26", "27"], "rt": [14966, 117, 185, 172, 39], "actions": ["left", "left", "left", "up", "up"], "actionTimes": [18581, 19258, 19992, 20735, 21297], "queries": {"click": {"state": {"target": ["27", "29"], "time": [4957, 8642]}, "edge": {"target": [], "time": []}}, "mouseover": {"state": {"target": ["15", "28", "27", "27", "29", "29", "25", "24", "0", "0"], "time": [3705, 4367, 4508, 4682, 5726, 6730, 9134, 15830, 15994, 17998]}, "edge": {"target": [], "time": []}}, "mouseout": {"state": {"target": ["28", "12", "12", "0", "15", "28", "27", "27", "29", "29", "25", "24", "0", "0", "14", "13"], "time": [708, 778, 1259, 3694, 4240, 4431, 4570, 5422, 6095, 9051, 15758, 15895, 16106, 22581, 23235, 24030]}, "edge": {"target": [], "time": []}}}, "displayed_time": "21.88", "trialTime": 24499, "trial_type": "mouselab-mdp", "trial_index": 47, "time_elapsed": 2839719, "internal_node_id": "0.0-4.0-1.0-38.0"}}, {"uniqueid": "w14820724:a93665578", "current_trial": 48, "dateTime": 1691145187873, "trialdata": {"revealed_states": [], "clicked_states": ["27", "32", "17", "16", "14"], "num_clicks_accrued": [0, 0, 0, 0, 0, 0, 0, 0, 0, 0, 0, 0, 0], "stateRewards": ["", -2, -4, -6, 12, -58, -70, -80, 2, 16, -88, -62, 1, 2, -5, 11, 77, -35, -44, -5, 18, -83, 87, 1, -3, -5, 13, -44, -21, -86, 10, -52, 8, 29], "withholdReward": false, "trial_id": "mdp_trial_40", "block": "test", "trialIndex": 41, "score": 76.45, "costs": -9.549999999999999, "simulationMode": [null, null, null, null, null], "rewards": [1, 2, -5, 11, 77], "path": ["0", "0", "12", "13", "14", "15", "16"], "rt": [23720, 194, 711, 45, 207], "actions": ["right", "right", "right", "up", "up"], "actionTimes": [33175, 33909, 35165, 35755, 36552], "queries": {"click": {"state": {"target": ["27", "32", "17", "16", "14"], "time": [11197, 14768, 17981, 23557, 29046]}, "edge": {"target": [], "time": []}}, "mouseover": {"state": {"target": ["27", "32", "17", "17", "16", "15", "19", "21", "22", "13", "14", "12"], "time": [10934, 11958, 16144, 16531, 18775, 24116, 24233, 24614, 27585, 27869, 28493, 30524]}, "edge": {"target": [], "time": []}}, "mouseout": {"state": {"target": ["24", "0", "23", "0", "27", "32", "17", "17", "16", "15", "19", "21", "22", "13", "14", "12", "12"], "time": [6369, 6644, 6862, 10625, 11637, 15281, 16202, 18493, 24099, 24214, 24310, 27519, 27651, 28432, 30434, 30644, 38498]}, "edge": {"target": [], "time": []}}}, "displayed_time": "37.11", "trialTime": 40311, "trial_type": "mouselab-mdp", "trial_index": 48, "time_elapsed": 2883020, "internal_node_id": "0.0-4.0-1.0-39.0"}}, {"uniqueid": "w14820724:a93665578", "current_trial": 49, "dateTime": 1691145278091, "trialdata": {"rt": 89661, "response": {"Q0": "$-16 to 16", "Q1": "$-16 to $16", "Q2": "$-88 to $88", "Q3": "The cost for clicking on nodes varied between nodes.", "Q4": "Slightly motivated"}, "question_order": [0, 1, 2, 3, 4], "trial_id": "final_quiz_control", "trial_type": "survey-multi-choice", "trial_index": 49, "time_elapsed": 2973226, "internal_node_id": "0.0-4.0-2.0"}}, {"uniqueid": "w14820724:a93665578", "current_trial": 50, "dateTime": 1691145497574, "trialdata": {"rt": 218476, "response": {"Q0": "The strategy used was to collect as many points as possible by moving the spider through the web.", "Q1": "I played based on my intuition.", "Q2": "It was not difficult at all to improve my performance the more I played the easier it got."}, "trial_id": "self_report_control", "trial_type": "survey-text", "trial_index": 50, "time_elapsed": 3192722, "internal_node_id": "0.0-4.0-3.0"}}, {"uniqueid": "w14820724:a93665578", "current_trial": 51, "dateTime": 1691145541461, "trialdata": {"rt": 43869, "response": {"Q0": "Disagree", "Q1": "Disagree", "Q2": "Strongly agree", "Q3": "Strongly agree", "Q4": "Agree", "Q5": "Strongly agree", "Q6": "Strongly disagree"}, "question_order": [0, 1, 2, 3, 4, 5, 6], "trial_id": "self_report_2", "trial_type": "survey-multi-choice", "trial_index": 51, "time_elapsed": 3236609, "internal_node_id": "0.0-4.0-4.0"}}, {"uniqueid": "w14820724:a93665578", "current_trial": 52, "dateTime": 1691145582092, "trialdata": {"rt": 40587, "response": {"gender": "female", "age": "26", "colorblind": "0", "effort": "0"}, "trial_type": "survey-html-form", "trial_index": 52, "time_elapsed": 3277239, "internal_node_id": "0.0-4.0-5.0"}}, {"uniqueid": "w14820724:a93665578", "current_trial": 53, "dateTime": 1691145628909, "trialdata": {"rt": 46783, "response": {"Q0": "Nothing was confusing or hard", "Q1": "No I have not participated before", "Q2": ""}, "trial_type": "survey-text", "trial_index": 53, "time_elapsed": 3324057, "internal_node_id": "0.0-4.0-6.0"}}, {"uniqueid": "w14820724:a93665578", "current_trial": 54, "dateTime": 1691145634389, "trialdata": {"rt": 5458, "stimulus": "Press 'Finish HIT' in order to reach the completion code. Once the data has been saved, you will receive the code either in this window or in the original browser window where you started the experiment.\n", "response": 0, "trial_type": "html-button-response", "trial_index": 54, "time_elapsed": 3329537, "internal_node_id": "0.0-5.0"}}, {"uniqueid": "w14820724:a93665578", "current_trial": 55, "dateTime": 1691145635415, "trialdata": {"success": true, "trial_type": "fullscreen", "trial_index": 55, "time_elapsed": 3330563, "internal_node_id": "0.0-6.0"}}], "questiondata": {"params": {"CODE": "C6DMOQA6", "MIN_TIME": 14, "inspectCost": 1, "startTime": "Fri Aug 04 2023 11:44:57 GMT+0200 (South Africa Standard Time)", "bonusRate": 0.002, "variance": "1_2_4_8_44", "branching": "31123"}, "final_score": 1258.2}, "eventdata": [{"eventtype": "initialized", "value": null, "timestamp": 1691142295902, "interval": 0}, {"eventtype": "window_resize", "value": [1024, 654], "timestamp": 1691142295903, "interval": 1}, {"eventtype": "window_resize", "value": [1024, 654], "timestamp": 1691142296942, "interval": 1039}, {"eventtype": "window_resize", "value": [1366, 768], "timestamp": 1691142314903, "interval": 17961}], "useragent": "Mozilla/5.0 (Windows NT 10.0; Win64; x64) AppleWebKit/537.36 (KHTML, like Gecko) Chrome/115.0.0.0 Safari/537.36", "mode": "live", "id": "w14820724:a93665578", "status": "user data saved", "Beginhit": "2023-08-04 09:44:18.111783", "Beginexp": "2023-08-04 09:45:12.34778", "Endhit": "2023-08-04 10:40:36.823864", "psiturkStatus": 3, "browser": "<redacted>", "platform": "windows", "language": "en-US"}