{"condition": 0, "counterbalance": 0, "assignmentId": "a49652721", "workerId": "w66668271", "hitId": "h71409668", "currenttrial": 55, "bonus": 0, "data": [{"uniqueid": "w66668271:a49652721", "current_trial": 0, "dateTime": 1691142029644, "trialdata": {"success": true, "trial_type": "fullscreen", "trial_index": 0, "time_elapsed": 5157, "internal_node_id": "0.0-0.0"}}, {"uniqueid": "w66668271:a49652721", "current_trial": 1, "dateTime": 1691142043368, "trialdata": {"view_history": [{"page_index": 0, "viewing_time": 13720}], "rt": 13721, "trial_id": "exp_instructions_control", "trial_type": "instructions", "trial_index": 1, "time_elapsed": 18881, "internal_node_id": "0.0-1.0"}}, {"uniqueid": "w66668271:a49652721", "current_trial": 2, "dateTime": 1691142046149, "trialdata": {"success": true, "trial_type": "fullscreen", "trial_index": 2, "time_elapsed": 21662, "internal_node_id": "0.0-2.0-0.0"}}, {"uniqueid": "w66668271:a49652721", "current_trial": 3, "dateTime": 1691142142420, "trialdata": {"view_history": [{"page_index": 0, "viewing_time": 33048}, {"page_index": 1, "viewing_time": 39895}, {"page_index": 2, "viewing_time": 6101}, {"page_index": 3, "viewing_time": 17223}], "rt": 96267, "trial_id": "mouselab_instructions_1_control", "trial_type": "instructions", "trial_index": 3, "time_elapsed": 117932, "internal_node_id": "0.0-2.0-1.0"}}, {"uniqueid": "w66668271:a49652721", "current_trial": 4, "dateTime": 1691142167771, "trialdata": {"revealed_states": [], "clicked_states": ["12", "13", "14", "19", "20", "23", "21", "1", "2", "3", "4", "5", "6", "7"], "num_clicks_accrued": [0, 0, 0, 0, 0, 0, 0, 0, 0, 0, 0, 0, 0], "stateRewards": ["", 10, -10, -10, 10, -10, 10, -10, 10, -10, -10, 10, -10, 10, -10, -10, -10, -10, 10, 10, -10, 10, -10, -10, -10, 10, 10, 10, -10, 10, 10, 10, -10, 10], "withholdReward": false, "trial_id": "practice_1", "block": "test", "trialIndex": 0, "score": 6.5, "costs": -7, "simulationMode": [null, null, null, null, null, null], "rewards": [10, -10, -10, 10, 10], "path": ["0", "0", "1", "2", "3", "4", "6"], "rt": [17762, 596, 295, 151, 54, 44], "actions": ["up", "up", "up", "up", "right", "right"], "actionTimes": [19573, 20171, 20971, 21627, 22214, 22774], "queries": {"click": {"state": {"target": ["12", "13", "14", "19", "20", "23", "21", "1", "2", "3", "4", "5", "6", "7"], "time": [2633, 3855, 5234, 6391, 7906, 9348, 10762, 11783, 12955, 14068, 15131, 16372, 17588, 18741]}, "edge": {"target": [], "time": []}}, "mouseover": {"state": {"target": ["12", "13", "14", "13", "14", "19", "20", "22", "23", "21", "0", "1", "2", "3", "4", "5", "6", "7"], "time": [2493, 3041, 3425, 3708, 4358, 6083, 6776, 8575, 8891, 9825, 11358, 11609, 12384, 13636, 14595, 15792, 17394, 17910]}, "edge": {"target": [], "time": []}}, "mouseout": {"state": {"target": ["0", "12", "13", "14", "13", "13", "13", "14", "19", "20", "22", "23", "21", "0", "1", "2", "3", "4", "5", "4", "6", "7"], "time": [1942, 2891, 3408, 3691, 3952, 4142, 4225, 5741, 6743, 8242, 8591, 9642, 10992, 11391, 12198, 13592, 14409, 15675, 16661, 17244, 17824, 19110]}, "edge": {"target": [], "time": []}}}, "displayed_time": "23.31", "trialTime": 24987, "trial_type": "mouselab-mdp", "trial_index": 4, "time_elapsed": 143283, "internal_node_id": "0.0-2.0-2.0-0.0"}}, {"uniqueid": "w66668271:a49652721", "current_trial": 5, "dateTime": 1691142187799, "trialdata": {"revealed_states": [], "clicked_states": ["1", "2", "3", "8", "9", "10", "11", "4", "6"], "num_clicks_accrued": [0, 0, 0, 0, 0, 0, 0, 0, 0, 0, 0, 0, 0], "stateRewards": ["", 10, -10, 10, 10, 10, 10, 10, 10, -10, -10, 10, -10, 10, 10, 10, 10, 10, -10, 10, 10, 10, 10, 10, 10, -10, 10, -10, -10, 10, -10, 10, -10, 10], "withholdReward": false, "trial_id": "practice_2", "block": "test", "trialIndex": 1, "score": 29, "costs": -4.5, "simulationMode": [null, null, null, null, null], "rewards": [10, -10, 10, 10, 10], "path": ["0", "0", "1", "2", "3", "4", "6"], "rt": [12683, 117, 291, 387, 87], "actions": ["up", "up", "up", "right", "right"], "actionTimes": [14247, 14876, 15684, 16580, 17192], "queries": {"click": {"state": {"target": ["1", "2", "3", "8", "9", "10", "11", "4", "6"], "time": [2070, 3220, 4413, 5718, 7031, 8506, 9891, 11507, 12776]}, "edge": {"target": [], "time": []}}, "mouseover": {"state": {"target": ["1", "2", "3", "8", "9", "10", "11", "4", "4", "6", "7"], "time": [1922, 2371, 3620, 5097, 6605, 7488, 9155, 10688, 11389, 11748, 13388]}, "edge": {"target": [], "time": []}}, "mouseout": {"state": {"target": ["1", "2", "3", "8", "9", "8", "10", "11", "4", "4", "6", "7"], "time": [2270, 3317, 4839, 6438, 7308, 7438, 8756, 10158, 10705, 11746, 13038, 18221]}, "edge": {"target": [], "time": []}}}, "displayed_time": "17.74", "trialTime": 19844, "trial_type": "mouselab-mdp", "trial_index": 5, "time_elapsed": 163311, "internal_node_id": "0.0-2.0-2.0-1.0"}}, {"uniqueid": "w66668271:a49652721", "current_trial": 6, "dateTime": 1691142200543, "trialdata": {"view_history": [{"page_index": 0, "viewing_time": 8475}, {"page_index": 1, "viewing_time": 4272}], "rt": 12747, "trial_id": "mouselab_instructions_2_control", "trial_type": "instructions", "trial_index": 6, "time_elapsed": 176056, "internal_node_id": "0.0-2.0-3.0"}}, {"uniqueid": "w66668271:a49652721", "current_trial": 7, "dateTime": 1691142219424, "trialdata": {"rt": 18882, "response": {"Q0": "The cost for clicking on nodes may vary between nodes.", "Q1": "The better I perform the higher my bonus will be.", "Q2": "No, the amount of cash at each node of the web may be different each time.", "Q3": "To get the highest total score.", "Q4": "Only before moving the spider.", "Q5": "3 seconds"}, "question_order": [0, 1, 2, 3, 4, 5], "correct": {"Q0": "The cost for clicking on nodes may vary between nodes.", "Q1": "The better I perform the higher my bonus will be.", "Q2": "No, the amount of cash at each node of the web may be different each time.", "Q3": "To get the highest total score.", "Q4": "Only before moving the spider.", "Q5": "3 seconds"}, "trial_id": "mouselab_quiz_control", "trial_type": "survey-multi-choice", "trial_index": 7, "time_elapsed": 194937, "internal_node_id": "0.0-2.0-4.0"}}, {"uniqueid": "w66668271:a49652721", "current_trial": 8, "dateTime": 1691142223561, "trialdata": {"rt": 4129, "stimulus": "\n<h1> Get ready to start the game! </h1>\n\nThank you for reading the instructions. Get ready start with the 40 rounds of this game.\n<br><br>\nIf you need to take a break, feel free to take one after the end of a round, before continuing to the next one.\n<br><br>\nRemember, the more money the spider gets, the bigger your bonus will be!\n<br><br>\n<div style='text-align: center;'>Press <code>space</code> to begin.</div>\n\n<br><br>\n(If, at any point, the <code>space</code> key does not take you to the next page, click once on the text and try again.)", "response": " ", "trial_id": "mdp_ready", "trial_type": "html-keyboard-response", "trial_index": 8, "time_elapsed": 199074, "internal_node_id": "0.0-4.0-0.0"}}, {"uniqueid": "w66668271:a49652721", "current_trial": 9, "dateTime": 1691142240222, "trialdata": {"revealed_states": [], "clicked_states": ["1", "2", "3", "6", "7"], "num_clicks_accrued": [0, 0, 0, 0, 0, 0, 0, 0, 0, 0, 0, 0, 0], "stateRewards": ["", 2, 3, -3, 4, 72, -28, 34, -12, 57, -64, -15, 2, 1, -4, -15, 2, 49, 31, -1, -42, -58, 31, -2, 1, -2, -13, -75, -19, -22, -6, 61, 10, -56], "withholdReward": false, "trial_id": "mdp_trial_1", "block": "test", "trialIndex": 2, "score": 33, "costs": -7, "simulationMode": [null, null, null, null, null], "rewards": [2, 3, -3, 4, 34], "path": ["0", "0", "1", "2", "3", "4", "7"], "rt": [10396, 37, 129, 79, 55], "actions": ["up", "up", "up", "right", "down"], "actionTimes": [11138, 11695, 12335, 12919, 13495], "queries": {"click": {"state": {"target": ["1", "2", "3", "6", "7"], "time": [1305, 2955, 5132, 7016, 8834]}, "edge": {"target": [], "time": []}}, "mouseover": {"state": {"target": ["1", "2", "2", "3", "7", "4", "6", "7", "5"], "time": [1134, 1634, 2770, 4179, 5417, 5767, 5969, 7534, 9163]}, "edge": {"target": [], "time": []}}, "mouseout": {"state": {"target": ["1", "0", "1", "2", "2", "2", "3", "7", "4", "6", "7", "5"], "time": [269, 1051, 1551, 2586, 3248, 4118, 5367, 5717, 5916, 7317, 9050, 14553]}, "edge": {"target": [], "time": []}}}, "displayed_time": "14.75", "trialTime": 16476, "trial_type": "mouselab-mdp", "trial_index": 9, "time_elapsed": 215734, "internal_node_id": "0.0-4.0-1.0-0.0"}}, {"uniqueid": "w66668271:a49652721", "current_trial": 10, "dateTime": 1691142256587, "trialdata": {"revealed_states": [], "clicked_states": ["1", "2", "7"], "num_clicks_accrued": [0, 0, 0, 0, 0, 0, 0, 0, 0, 0, 0, 0, 0], "stateRewards": ["", 2, 3, 6, -5, -74, -53, 17, -12, 46, 44, 18, -2, 4, 1, -8, 22, -23, -49, 9, -45, 55, 81, 1, -1, -7, -16, -83, -71, -45, 2, 51, 82, 61], "withholdReward": false, "trial_id": "mdp_trial_2", "block": "test", "trialIndex": 3, "score": 18.8, "costs": -4.199999999999999, "simulationMode": [null, null, null, null, null], "rewards": [2, 3, 6, -5, 17], "path": ["0", "0", "1", "2", "3", "4", "7"], "rt": [6757, 2, 34, 27, 80], "actions": ["up", "up", "up", "right", "down"], "actionTimes": [7607, 8127, 8692, 9251, 9868], "queries": {"click": {"state": {"target": ["1", "2", "7"], "time": [1548, 3404, 5209]}, "edge": {"target": [], "time": []}}, "mouseover": {"state": {"target": ["1", "2", "7", "6"], "time": [1188, 1919, 3836, 5670]}, "edge": {"target": [], "time": []}}, "mouseout": {"state": {"target": ["7", "1", "2", "7"], "time": [186, 1838, 3738, 5553]}, "edge": {"target": [], "time": []}}}, "displayed_time": "14.86", "trialTime": 16108, "trial_type": "mouselab-mdp", "trial_index": 10, "time_elapsed": 232099, "internal_node_id": "0.0-4.0-1.0-1.0"}}, {"uniqueid": "w66668271:a49652721", "current_trial": 11, "dateTime": 1691142273658, "trialdata": {"revealed_states": [], "clicked_states": ["7", "6", "5"], "num_clicks_accrued": [0, 0, 0, 0, 0, 0, 0, 0, 0, 0, 0, 0, 0], "stateRewards": ["", 2, -3, -4, -1, 25, -16, 16, 10, -71, -20, -55, 1, 3, -4, -9, 1, 32, 11, -6, 32, -50, -41, -1, 4, 4, -8, 7, -81, 70, 2, -52, 45, -10], "withholdReward": false, "trial_id": "mdp_trial_3", "block": "test", "trialIndex": 4, "score": 14.8, "costs": -4.199999999999999, "simulationMode": [null, null, null, null, null], "rewards": [2, -3, -4, -1, 25], "path": ["0", "0", "1", "2", "3", "4", "5"], "rt": [6362, 654, 127, 78, 101], "actions": ["up", "up", "up", "right", "up"], "actionTimes": [7670, 8844, 9484, 10084, 10708], "queries": {"click": {"state": {"target": ["7", "6", "5"], "time": [2182, 3944, 5464]}, "edge": {"target": [], "time": []}}, "mouseover": {"state": {"target": ["7", "6", "5", "4", "3", "8", "10"], "time": [1804, 2755, 4387, 5872, 6187, 6312, 6687]}, "edge": {"target": [], "time": []}}, "mouseout": {"state": {"target": ["6", "7", "1", "0", "7", "6", "5", "4", "3", "8", "10", "0"], "time": [189, 605, 765, 1454, 2611, 4238, 5788, 6121, 6226, 6459, 13086, 16054]}, "edge": {"target": [], "time": []}}}, "displayed_time": "15.31", "trialTime": 16764, "trial_type": "mouselab-mdp", "trial_index": 11, "time_elapsed": 249170, "internal_node_id": "0.0-4.0-1.0-2.0"}}, {"uniqueid": "w66668271:a49652721", "current_trial": 12, "dateTime": 1691142301763, "trialdata": {"revealed_states": [], "clicked_states": ["7", "6", "5", "10", "11", "9", "29", "27", "28", "31", "32"], "num_clicks_accrued": [0, 0, 0, 0, 0, 0, 0, 0, 0, 0, 0, 0, 0], "stateRewards": ["", 2, -2, -3, 10, -4, -1, -11, -8, -9, -36, -78, 2, 1, 7, -7, 44, -1, -31, -1, 26, 47, 83, 2, -4, -4, -6, -52, -76, -81, -1, -59, 45, 67], "withholdReward": false, "trial_id": "mdp_trial_4", "block": "test", "trialIndex": 5, "score": 22.599999999999998, "costs": -15.400000000000002, "simulationMode": [null, null, null, null, null], "rewards": [2, -4, -4, -1, 45], "path": ["0", "0", "23", "24", "25", "30", "32"], "rt": [22839, 34, 74, 60, 190], "actions": ["left", "left", "left", "down", "down"], "actionTimes": [23808, 24334, 24923, 25507, 26221], "queries": {"click": {"state": {"target": ["7", "6", "5", "10", "11", "9", "29", "27", "28", "31", "32"], "time": [1868, 3689, 5489, 7572, 9450, 12211, 14202, 16022, 17800, 19725, 21518]}, "edge": {"target": [], "time": []}}, "mouseover": {"state": {"target": ["7", "6", "5", "3", "10", "11", "9", "25", "26", "8", "9", "8", "10", "28", "25", "29", "26", "27", "28", "24", "31", "32", "33"], "time": [1631, 2279, 4131, 5979, 6264, 8029, 9963, 11563, 11714, 11913, 12082, 12513, 12596, 12629, 12747, 12965, 14613, 14696, 16416, 18179, 18429, 20101, 21996]}, "edge": {"target": [], "time": []}}, "mouseout": {"state": {"target": ["0", "7", "6", "5", "3", "10", "11", "9", "25", "26", "8", "9", "8", "10", "28", "25", "29", "26", "27", "28", "24", "31", "32"], "time": [1362, 2145, 4015, 5863, 6030, 7815, 9746, 11347, 11664, 11730, 11946, 12430, 12563, 12614, 12665, 12763, 14563, 14630, 16315, 18146, 18213, 19993, 21829]}, "edge": {"target": [], "time": []}}}, "displayed_time": "26.73", "trialTime": 27878, "trial_type": "mouselab-mdp", "trial_index": 12, "time_elapsed": 277275, "internal_node_id": "0.0-4.0-1.0-3.0"}}, {"uniqueid": "w66668271:a49652721", "current_trial": 13, "dateTime": 1691142318083, "trialdata": {"revealed_states": [], "clicked_states": ["32", "31", "33", "29"], "num_clicks_accrued": [0, 0, 0, 0, 0, 0, 0, 0, 0, 0, 0, 0, 0], "stateRewards": ["", 2, 2, 3, -15, 23, -14, 73, -7, -32, -20, -6, 1, 1, -5, -12, 73, 6, -84, 11, -81, -57, 13, -2, -1, -4, -8, -52, -58, 49, 13, 5, -41, -41], "withholdReward": false, "trial_id": "mdp_trial_5", "block": "test", "trialIndex": 6, "score": 28.4, "costs": -5.6, "simulationMode": [null, null, null, null, null], "rewards": [-2, -1, -4, -8, 49], "path": ["0", "0", "23", "24", "25", "26", "29"], "rt": [8831, 6, 37, 28, 494], "actions": ["left", "left", "left", "up", "left"], "actionTimes": [9964, 10484, 11046, 11606, 12622], "queries": {"click": {"state": {"target": ["32", "31", "33", "29"], "time": [1878, 3766, 5682, 7523]}, "edge": {"target": [], "time": []}}, "mouseover": {"state": {"target": ["32", "31", "30", "33", "29", "27"], "time": [1725, 2190, 4458, 4758, 6159, 7807]}, "edge": {"target": [], "time": []}}, "mouseout": {"state": {"target": ["33", "30", "0", "32", "31", "30", "33", "29"], "time": [173, 207, 1256, 2056, 4098, 4507, 5990, 7706]}, "edge": {"target": [], "time": []}}}, "displayed_time": "15.14", "trialTime": 16141, "trial_type": "mouselab-mdp", "trial_index": 13, "time_elapsed": 293595, "internal_node_id": "0.0-4.0-1.0-4.0"}}, {"uniqueid": "w66668271:a49652721", "current_trial": 14, "dateTime": 1691142334443, "trialdata": {"revealed_states": [], "clicked_states": ["21", "20", "22", "17"], "num_clicks_accrued": [0, 0, 0, 0, 0, 0, 0, 0, 0, 0, 0, 0, 0], "stateRewards": ["", -1, -4, -3, 1, -45, -67, -24, 14, 32, 22, 22, -1, 1, -5, -7, 72, 84, -79, -5, 19, -40, -2, -1, -2, 8, -3, 84, -25, -28, 11, 64, -66, 77], "withholdReward": false, "trial_id": "mdp_trial_6", "block": "test", "trialIndex": 7, "score": 66.4, "costs": -5.6, "simulationMode": [null, null, null, null, null], "rewards": [-1, 1, -5, -7, 84], "path": ["0", "0", "12", "13", "14", "15", "17"], "rt": [9254, 2, 501, 179, 110], "actions": ["right", "right", "right", "up", "right"], "actionTimes": [10147, 10654, 11734, 12433, 13065], "queries": {"click": {"state": {"target": ["21", "20", "22", "17"], "time": [1865, 3719, 5858, 7710]}, "edge": {"target": [], "time": []}}, "mouseover": {"state": {"target": ["22", "21", "20", "19", "22", "14", "15", "17", "16"], "time": [1232, 1551, 2249, 4082, 4171, 6301, 6483, 6616, 8332]}, "edge": {"target": [], "time": []}}, "mouseout": {"state": {"target": ["27", "28", "12", "0", "22", "21", "20", "19", "22", "14", "15", "17"], "time": [200, 249, 549, 1082, 1268, 2068, 3998, 4134, 6251, 6415, 6498, 8016]}, "edge": {"target": [], "time": []}}}, "displayed_time": "14.89", "trialTime": 16177, "trial_type": "mouselab-mdp", "trial_index": 14, "time_elapsed": 309956, "internal_node_id": "0.0-4.0-1.0-5.0"}}, {"uniqueid": "w66668271:a49652721", "current_trial": 15, "dateTime": 1691142350660, "trialdata": {"revealed_states": [], "clicked_states": ["20", "21"], "num_clicks_accrued": [0, 0, 0, 0, 0, 0, 0, 0, 0, 0, 0, 0, 0], "stateRewards": ["", 2, 3, 3, 10, 19, -21, 6, 9, 54, 68, 16, 2, 2, -6, -8, 40, -2, -75, -2, -42, 55, 59, -1, 2, 4, -14, 11, -34, -30, -6, 61, -53, 13], "withholdReward": false, "trial_id": "mdp_trial_7", "block": "test", "trialIndex": 8, "score": 48.2, "costs": -2.8, "simulationMode": [null, null, null, null, null], "rewards": [2, 2, -6, -2, 55], "path": ["0", "0", "12", "13", "14", "19", "21"], "rt": [4878, 426, 91, 18, 39], "actions": ["right", "right", "right", "down", "down"], "actionTimes": [6180, 7124, 7735, 8277, 8831], "queries": {"click": {"state": {"target": ["20", "21"], "time": [2133, 3951]}, "edge": {"target": [], "time": []}}, "mouseover": {"state": {"target": ["19", "20", "21", "22"], "time": [1536, 1868, 2452, 4436]}, "edge": {"target": [], "time": []}}, "mouseout": {"state": {"target": ["16", "15", "14", "13", "12", "0", "19", "20", "21"], "time": [152, 319, 535, 605, 669, 1436, 1754, 2376, 4286]}, "edge": {"target": [], "time": []}}}, "displayed_time": "15.31", "trialTime": 16046, "trial_type": "mouselab-mdp", "trial_index": 15, "time_elapsed": 326172, "internal_node_id": "0.0-4.0-1.0-6.0"}}, {"uniqueid": "w66668271:a49652721", "current_trial": 16, "dateTime": 1691142367245, "trialdata": {"revealed_states": [], "clicked_states": ["21", "22"], "num_clicks_accrued": [0, 0, 0, 0, 0, 0, 0, 0, 0, 0, 0, 0, 0], "stateRewards": ["", 1, 1, 1, -3, -7, -1, -41, -10, 20, -72, -63, 1, -4, -2, 2, -66, 30, -84, -2, 49, 23, 71, -1, -4, 4, -12, 67, 5, 18, -16, 88, 56, -5], "withholdReward": false, "trial_id": "mdp_trial_8", "block": "test", "trialIndex": 9, "score": 61.2, "costs": -2.8, "simulationMode": [null, null, null, null, null], "rewards": [1, -4, -2, -2, 71], "path": ["0", "0", "12", "13", "14", "19", "22"], "rt": [5297, 35, 86, 40, 241], "actions": ["right", "right", "right", "down", "left"], "actionTimes": [6389, 6939, 7540, 8113, 8881], "queries": {"click": {"state": {"target": ["21", "22"], "time": [1662, 4163]}, "edge": {"target": [], "time": []}}, "mouseover": {"state": {"target": ["22", "21", "22", "19", "20"], "time": [1267, 1434, 2222, 4462, 4500]}, "edge": {"target": [], "time": []}}, "mouseout": {"state": {"target": ["22", "0", "22", "21", "22", "19", "20"], "time": [583, 1200, 1300, 1835, 4436, 4470, 14551]}, "edge": {"target": [], "time": []}}}, "displayed_time": "15.10", "trialTime": 16412, "trial_type": "mouselab-mdp", "trial_index": 16, "time_elapsed": 342757, "internal_node_id": "0.0-4.0-1.0-7.0"}}, {"uniqueid": "w66668271:a49652721", "current_trial": 17, "dateTime": 1691142383981, "trialdata": {"revealed_states": [], "clicked_states": ["17", "16", "18", "22", "21"], "num_clicks_accrued": [0, 0, 0, 0, 0, 0, 0, 0, 0, 0, 0, 0, 0], "stateRewards": ["", -2, -1, -1, 5, -54, -87, 35, 2, -8, 20, -22, 1, 3, 6, 13, -75, -32, -55, -3, 56, 62, -22, -1, -4, -1, -7, -51, 84, 70, 7, -15, 5, 55], "withholdReward": false, "trial_id": "mdp_trial_9", "block": "test", "trialIndex": 10, "score": 62, "costs": -7, "simulationMode": [null, null, null, null, null], "rewards": [1, 3, 6, -3, 62], "path": ["0", "0", "12", "13", "14", "19", "21"], "rt": [11245, 17, 46, 478, 65], "actions": ["right", "right", "right", "down", "down"], "actionTimes": [12147, 12662, 13240, 14238, 14824], "queries": {"click": {"state": {"target": ["17", "16", "18", "22", "21"], "time": [2556, 4402, 6271, 8084, 9891]}, "edge": {"target": [], "time": []}}, "mouseover": {"state": {"target": ["22", "21", "19", "17", "16", "18", "13", "22", "21", "20"], "time": [1138, 1490, 2124, 2258, 2922, 4772, 6642, 6923, 8422, 10441]}, "edge": {"target": [], "time": []}}, "mouseout": {"state": {"target": ["22", "0", "22", "21", "19", "17", "16", "18", "13", "22", "21"], "time": [337, 1022, 1155, 1924, 2139, 2789, 4684, 6606, 6772, 8355, 10262]}, "edge": {"target": [], "time": []}}}, "displayed_time": "15.34", "trialTime": 16520, "trial_type": "mouselab-mdp", "trial_index": 17, "time_elapsed": 359493, "internal_node_id": "0.0-4.0-1.0-8.0"}}, {"uniqueid": "w66668271:a49652721", "current_trial": 18, "dateTime": 1691142400646, "trialdata": {"revealed_states": [], "clicked_states": ["31", "32"], "num_clicks_accrued": [0, 0, 0, 0, 0, 0, 0, 0, 0, 0, 0, 0, 0], "stateRewards": ["", 2, 3, 8, 11, 25, -80, 6, -4, -56, 84, -23, -2, -4, -3, 4, -51, -9, -61, -15, -64, 67, -35, 1, -1, -7, -6, 83, 59, -15, 12, -79, 56, 41], "withholdReward": false, "trial_id": "mdp_trial_10", "block": "test", "trialIndex": 11, "score": 58.2, "costs": -2.8, "simulationMode": [null, null, null, null, null], "rewards": [1, -1, -7, 12, 56], "path": ["0", "0", "23", "24", "25", "30", "32"], "rt": [4896, 402, 98, 19, 102], "actions": ["left", "left", "left", "down", "down"], "actionTimes": [6099, 6994, 7610, 8152, 8763], "queries": {"click": {"state": {"target": ["31", "32"], "time": [1834, 3677]}, "edge": {"target": [], "time": []}}, "mouseover": {"state": {"target": ["31", "32", "33"], "time": [1624, 2473, 4091]}, "edge": {"target": [], "time": []}}, "mouseout": {"state": {"target": ["20", "19", "22", "0", "31", "32"], "time": [424, 505, 540, 1322, 2022, 3974]}, "edge": {"target": [], "time": []}}}, "displayed_time": "15.21", "trialTime": 16434, "trial_type": "mouselab-mdp", "trial_index": 18, "time_elapsed": 376158, "internal_node_id": "0.0-4.0-1.0-9.0"}}, {"uniqueid": "w66668271:a49652721", "current_trial": 19, "dateTime": 1691142418150, "trialdata": {"revealed_states": [], "clicked_states": ["31", "33", "32", "27", "28"], "num_clicks_accrued": [0, 0, 0, 0, 0, 0, 0, 0, 0, 0, 0, 0, 0], "stateRewards": ["", 2, -1, -1, 7, 11, -40, -22, -2, 69, 37, 8, -2, 4, -8, -12, -2, -72, -3, -12, 17, 63, 12, 1, 3, -7, 6, 25, 61, 61, -9, 28, -17, 27], "withholdReward": false, "trial_id": "mdp_trial_11", "block": "test", "trialIndex": 12, "score": 57, "costs": -7, "simulationMode": [null, null, null, null, null], "rewards": [1, 3, -7, 6, 61], "path": ["0", "0", "23", "24", "25", "26", "28"], "rt": [12285, 2, 43, 82, 3], "actions": ["left", "left", "left", "up", "right"], "actionTimes": [13436, 13949, 14523, 15115, 15632], "queries": {"click": {"state": {"target": ["31", "33", "32", "27", "28"], "time": [1938, 4646, 6851, 9161, 11163]}, "edge": {"target": [], "time": []}}, "mouseover": {"state": {"target": ["0", "31", "30", "33", "32", "30", "25", "26", "27", "28", "26", "29"], "time": [1260, 1709, 2192, 2492, 5203, 8742, 8776, 8825, 9027, 9578, 11658, 11812]}, "edge": {"target": [], "time": []}}, "mouseout": {"state": {"target": ["33", "30", "31", "23", "0", "0", "31", "30", "33", "32", "30", "25", "26", "27", "28", "26"], "time": [225, 409, 542, 776, 975, 1438, 2145, 2393, 4975, 7176, 8758, 8810, 8892, 9426, 11592, 11742]}, "edge": {"target": [], "time": []}}}, "displayed_time": "16.16", "trialTime": 17275, "trial_type": "mouselab-mdp", "trial_index": 19, "time_elapsed": 393662, "internal_node_id": "0.0-4.0-1.0-10.0"}}, {"uniqueid": "w66668271:a49652721", "current_trial": 20, "dateTime": 1691142434295, "trialdata": {"revealed_states": [], "clicked_states": ["28", "29", "27"], "num_clicks_accrued": [0, 0, 0, 0, 0, 0, 0, 0, 0, 0, 0, 0, 0], "stateRewards": ["", -2, 2, -1, -6, 22, 6, 6, -5, 70, -42, 65, 1, 3, 5, -6, -67, -9, 3, 14, 7, -62, -13, -2, 4, 1, 16, 42, -21, -52, -8, 32, 53, 81], "withholdReward": false, "trial_id": "mdp_trial_12", "block": "test", "trialIndex": 13, "score": 56.8, "costs": -4.199999999999999, "simulationMode": [null, null, null, null, null], "rewards": [-2, 4, 1, 16, 42], "path": ["0", "0", "23", "24", "25", "26", "27"], "rt": [7107, 332, 68, 76, 69], "actions": ["left", "left", "left", "up", "up"], "actionTimes": [8061, 8907, 9491, 10083, 10659], "queries": {"click": {"state": {"target": ["28", "29", "27"], "time": [1838, 3748, 5575]}, "edge": {"target": [], "time": []}}, "mouseover": {"state": {"target": ["0", "23", "24", "28", "29", "27", "26", "30", "32"], "time": [1053, 1436, 1575, 1765, 2180, 4220, 5870, 5937, 6204]}, "edge": {"target": [], "time": []}}, "mouseout": {"state": {"target": ["29", "26", "28", "0", "23", "24", "28", "29", "27", "26", "30"], "time": [252, 420, 462, 1305, 1469, 1682, 2077, 4055, 5854, 5888, 5970]}, "edge": {"target": [], "time": []}}}, "displayed_time": "14.96", "trialTime": 15963, "trial_type": "mouselab-mdp", "trial_index": 20, "time_elapsed": 409807, "internal_node_id": "0.0-4.0-1.0-11.0"}}, {"uniqueid": "w66668271:a49652721", "current_trial": 21, "dateTime": 1691142450549, "trialdata": {"revealed_states": [], "clicked_states": ["31", "32"], "num_clicks_accrued": [0, 0, 0, 0, 0, 0, 0, 0, 0, 0, 0, 0, 0], "stateRewards": ["", -1, 4, -5, 9, 29, -75, -42, -16, 24, -28, -41, 2, -3, 1, 10, 60, 47, 55, -1, -53, 22, -40, 2, -3, -6, 4, -26, 44, 54, 15, -76, 42, 14], "withholdReward": false, "trial_id": "mdp_trial_13", "block": "test", "trialIndex": 14, "score": 47.2, "costs": -2.8, "simulationMode": [null, null, null, null, null], "rewards": [2, -3, -6, 15, 42], "path": ["0", "0", "23", "24", "25", "30", "32"], "rt": [4930, 2, 624, 50, 146], "actions": ["left", "left", "left", "down", "down"], "actionTimes": [5914, 6430, 7585, 8142, 8821], "queries": {"click": {"state": {"target": ["31", "32"], "time": [1558, 3451]}, "edge": {"target": [], "time": []}}, "mouseover": {"state": {"target": ["31", "32", "33"], "time": [1274, 1925, 3841]}, "edge": {"target": [], "time": []}}, "mouseout": {"state": {"target": ["32", "31", "23", "0", "31", "32"], "time": [340, 407, 540, 1175, 1808, 3725]}, "edge": {"target": [], "time": []}}}, "displayed_time": "14.99", "trialTime": 16055, "trial_type": "mouselab-mdp", "trial_index": 21, "time_elapsed": 426062, "internal_node_id": "0.0-4.0-1.0-12.0"}}, {"uniqueid": "w66668271:a49652721", "current_trial": 22, "dateTime": 1691142466675, "trialdata": {"revealed_states": [], "clicked_states": ["32", "33"], "num_clicks_accrued": [0, 0, 0, 0, 0, 0, 0, 0, 0, 0, 0, 0, 0], "stateRewards": ["", 2, -1, 3, -12, -83, 6, -33, 9, 28, 24, -50, -2, -1, -2, -5, -87, 37, 82, 12, 80, -5, 10, -2, -3, -6, 9, 22, -1, 16, 9, 77, -62, 58], "withholdReward": false, "trial_id": "mdp_trial_14", "block": "test", "trialIndex": 15, "score": 53.2, "costs": -2.8, "simulationMode": [null, null, null, null, null], "rewards": [-2, -3, -6, 9, 58], "path": ["0", "0", "23", "24", "25", "30", "33"], "rt": [4980, 405, 144, 87, 87], "actions": ["left", "left", "left", "down", "left"], "actionTimes": [5997, 6922, 7578, 8170, 8770], "queries": {"click": {"state": {"target": ["32", "33"], "time": [1723, 3582]}, "edge": {"target": [], "time": []}}, "mouseover": {"state": {"target": ["31", "32", "33", "30", "31"], "time": [1282, 1583, 2098, 3899, 3983]}, "edge": {"target": [], "time": []}}, "mouseout": {"state": {"target": ["33", "30", "0", "31", "32", "33", "30"], "time": [231, 348, 1133, 1416, 1733, 3865, 3933]}, "edge": {"target": [], "time": []}}}, "displayed_time": "15.03", "trialTime": 15906, "trial_type": "mouselab-mdp", "trial_index": 22, "time_elapsed": 442188, "internal_node_id": "0.0-4.0-1.0-13.0"}}, {"uniqueid": "w66668271:a49652721", "current_trial": 23, "dateTime": 1691142482901, "trialdata": {"revealed_states": [], "clicked_states": ["33", "31"], "num_clicks_accrued": [0, 0, 0, 0, 0, 0, 0, 0, 0, 0, 0, 0, 0], "stateRewards": ["", 1, -3, -4, -11, -56, 61, -47, -16, -28, -9, 69, -2, -3, -4, -8, 40, -86, 59, -4, 80, 27, 54, -1, 3, -1, 8, 67, 23, 50, 6, 83, -43, -29], "withholdReward": false, "trial_id": "mdp_trial_15", "block": "test", "trialIndex": 16, "score": 87.2, "costs": -2.8, "simulationMode": [null, null, null, null, null], "rewards": [-1, 3, -1, 6, 83], "path": ["0", "0", "23", "24", "25", "30", "31"], "rt": [4820, 24, 116, 156, 203], "actions": ["left", "left", "left", "down", "right"], "actionTimes": [6024, 6567, 7280, 7960, 8671], "queries": {"click": {"state": {"target": ["33", "31"], "time": [2090, 3912]}, "edge": {"target": [], "time": []}}, "mouseover": {"state": {"target": ["31", "33", "31", "32"], "time": [1489, 1918, 2617, 4367]}, "edge": {"target": [], "time": []}}, "mouseout": {"state": {"target": ["31", "23", "0", "31", "33", "31", "32"], "time": [500, 700, 1283, 1601, 2317, 4200, 10483]}, "edge": {"target": [], "time": []}}}, "displayed_time": "15.21", "trialTime": 16033, "trial_type": "mouselab-mdp", "trial_index": 23, "time_elapsed": 458414, "internal_node_id": "0.0-4.0-1.0-14.0"}}, {"uniqueid": "w66668271:a49652721", "current_trial": 24, "dateTime": 1691142502780, "trialdata": {"revealed_states": [], "clicked_states": ["33", "32", "31", "29", "27", "28"], "num_clicks_accrued": [0, 0, 0, 0, 0, 0, 0, 0, 0, 0, 0, 0, 0], "stateRewards": ["", -1, 1, -5, -6, -78, 47, -13, 12, 48, -88, 20, 2, -3, -2, 13, -20, 37, -57, 14, -38, 30, 31, -2, -2, 8, 2, -23, 78, 28, 12, -74, -88, 8], "withholdReward": false, "trial_id": "mdp_trial_16", "block": "test", "trialIndex": 17, "score": 75.6, "costs": -8.4, "simulationMode": [null, null, null, null, null], "rewards": [-2, -2, 8, 2, 78], "path": ["0", "0", "23", "24", "25", "26", "28"], "rt": [13465, 94, 139, 116, 74], "actions": ["left", "left", "left", "up", "right"], "actionTimes": [15260, 15874, 16537, 17161, 17753], "queries": {"click": {"state": {"target": ["33", "32", "31", "29", "27", "28"], "time": [2935, 4805, 6675, 8792, 11055, 12877]}, "edge": {"target": [], "time": []}}, "mouseover": {"state": {"target": ["0", "25", "33", "32", "31", "30", "29", "27", "28", "10", "11", "10"], "time": [1810, 2443, 2810, 3427, 5287, 6967, 7176, 9259, 11643, 13442, 13788, 14074]}, "edge": {"target": [], "time": []}}, "mouseout": {"state": {"target": ["31", "23", "0", "25", "33", "32", "31", "30", "29", "27", "28", "10", "11"], "time": [1209, 1259, 1860, 2460, 3157, 5109, 6956, 6993, 9140, 11376, 13276, 13676, 13965]}, "edge": {"target": [], "time": []}}}, "displayed_time": "18.27", "trialTime": 19654, "trial_type": "mouselab-mdp", "trial_index": 24, "time_elapsed": 478293, "internal_node_id": "0.0-4.0-1.0-15.0"}}, {"uniqueid": "w66668271:a49652721", "current_trial": 25, "dateTime": 1691142519321, "trialdata": {"revealed_states": [], "clicked_states": ["31"], "num_clicks_accrued": [0, 0, 0, 0, 0, 0, 0, 0, 0, 0, 0, 0, 0], "stateRewards": ["", -1, 1, -6, -1, 80, 23, 2, -11, 73, -81, 59, 1, 3, 5, -1, -26, 28, -3, 16, -59, -13, -50, -2, -2, 2, 15, -50, 86, 17, -4, 37, 35, 44], "withholdReward": false, "trial_id": "mdp_trial_17", "block": "test", "trialIndex": 18, "score": 29.6, "costs": -1.4, "simulationMode": [null, null, null, null, null], "rewards": [-2, -2, 2, -4, 37], "path": ["0", "0", "23", "24", "25", "30", "31"], "rt": [3017, 86, 167, 135, 167], "actions": ["left", "left", "left", "down", "right"], "actionTimes": [4164, 4763, 5442, 6145, 6823], "queries": {"click": {"state": {"target": ["31"], "time": [1934]}, "edge": {"target": [], "time": []}}, "mouseover": {"state": {"target": ["31", "32"], "time": [1655, 2272]}, "edge": {"target": [], "time": []}}, "mouseout": {"state": {"target": ["10", "0", "31"], "time": [472, 1389, 2155]}, "edge": {"target": [], "time": []}}}, "displayed_time": "15.15", "trialTime": 16339, "trial_type": "mouselab-mdp", "trial_index": 25, "time_elapsed": 494833, "internal_node_id": "0.0-4.0-1.0-16.0"}}, {"uniqueid": "w66668271:a49652721", "current_trial": 26, "dateTime": 1691142535361, "trialdata": {"revealed_states": [], "clicked_states": ["22", "21", "20", "17"], "num_clicks_accrued": [0, 0, 0, 0, 0, 0, 0, 0, 0, 0, 0, 0, 0], "stateRewards": ["", -1, -3, -5, -14, -13, -47, 79, 8, -60, -64, 41, -1, 2, 3, 13, -46, 61, -79, -11, -64, -65, 23, 1, -2, 6, -14, 46, 32, 21, 7, 75, -66, 15], "withholdReward": false, "trial_id": "mdp_trial_18", "block": "test", "trialIndex": 19, "score": 72.4, "costs": -5.6, "simulationMode": [null, null, null, null, null], "rewards": [-1, 2, 3, 13, 61], "path": ["0", "0", "12", "13", "14", "15", "17"], "rt": [8905, 47, 33, 91, 18], "actions": ["right", "right", "right", "up", "right"], "actionTimes": [10177, 10742, 11307, 11934, 12461], "queries": {"click": {"state": {"target": ["22", "21", "20", "17"], "time": [2189, 4196, 6059, 7919]}, "edge": {"target": [], "time": []}}, "mouseover": {"state": {"target": ["22", "21", "20", "17", "16"], "time": [1989, 2572, 4572, 6605, 8404]}, "edge": {"target": [], "time": []}}, "mouseout": {"state": {"target": ["32", "31", "0", "0", "0", "22", "21", "20", "17"], "time": [322, 389, 572, 789, 1558, 2570, 4455, 6339, 8228]}, "edge": {"target": [], "time": []}}}, "displayed_time": "15.28", "trialTime": 15846, "trial_type": "mouselab-mdp", "trial_index": 26, "time_elapsed": 510874, "internal_node_id": "0.0-4.0-1.0-17.0"}}, {"uniqueid": "w66668271:a49652721", "current_trial": 27, "dateTime": 1691142554114, "trialdata": {"revealed_states": [], "clicked_states": ["18", "16", "17", "20", "21", "22"], "num_clicks_accrued": [0, 0, 0, 0, 0, 0, 0, 0, 0, 0, 0, 0, 0], "stateRewards": ["", -1, 2, -2, 13, -56, -28, 10, 14, 53, -80, -29, 1, -3, -3, -14, 14, 9, -40, -9, 18, 18, 48, 1, 1, 1, -9, 64, -39, -9, 7, -52, -78, 7], "withholdReward": false, "trial_id": "mdp_trial_19", "block": "test", "trialIndex": 20, "score": 25.6, "costs": -8.4, "simulationMode": [null, null, null, null, null], "rewards": [1, -3, -3, -9, 48], "path": ["0", "0", "12", "13", "14", "19", "22"], "rt": [13143, 80, 145, 278, 244], "actions": ["right", "right", "right", "down", "left"], "actionTimes": [14102, 14693, 15354, 16178, 16973], "queries": {"click": {"state": {"target": ["18", "16", "17", "20", "21", "22"], "time": [1575, 3456, 5700, 7661, 9754, 11802]}, "edge": {"target": [], "time": []}}, "mouseover": {"state": {"target": ["12", "18", "16", "17", "20", "21", "21", "22", "7"], "time": [1156, 1424, 1988, 3963, 6208, 8191, 8708, 10643, 12475]}, "edge": {"target": [], "time": []}}, "mouseout": {"state": {"target": ["16", "18", "0", "12", "18", "16", "17", "20", "21", "21", "22"], "time": [357, 457, 1108, 1241, 1842, 3798, 6095, 8025, 8259, 10402, 12108]}, "edge": {"target": [], "time": []}}}, "displayed_time": "17.49", "trialTime": 18516, "trial_type": "mouselab-mdp", "trial_index": 27, "time_elapsed": 529626, "internal_node_id": "0.0-4.0-1.0-18.0"}}, {"uniqueid": "w66668271:a49652721", "current_trial": 28, "dateTime": 1691142569963, "trialdata": {"revealed_states": [], "clicked_states": ["31", "32"], "num_clicks_accrued": [0, 0, 0, 0, 0, 0, 0, 0, 0, 0, 0, 0, 0], "stateRewards": ["", -2, 2, -5, 1, 42, -63, -58, -6, 2, 16, 81, -2, 4, 7, -10, 33, 3, -33, -2, -52, -84, -27, 2, -3, -3, 15, -74, -14, -5, -5, -84, 79, -31], "withholdReward": false, "trial_id": "mdp_trial_20", "block": "test", "trialIndex": 21, "score": 67.2, "costs": -2.8, "simulationMode": [null, null, null, null, null], "rewards": [2, -3, -3, -5, 79], "path": ["0", "0", "23", "24", "25", "30", "32"], "rt": [4967, 88, 39, 5, 50], "actions": ["left", "left", "left", "down", "down"], "actionTimes": [5791, 6389, 6941, 7458, 8035], "queries": {"click": {"state": {"target": ["31", "32"], "time": [1434, 3474]}, "edge": {"target": [], "time": []}}, "mouseover": {"state": {"target": ["31", "32", "32", "33"], "time": [1163, 1664, 1914, 4069]}, "edge": {"target": [], "time": []}}, "mouseout": {"state": {"target": ["7", "0", "31", "32", "32"], "time": [229, 1030, 1631, 1714, 3860]}, "edge": {"target": [], "time": []}}}, "displayed_time": "14.82", "trialTime": 15637, "trial_type": "mouselab-mdp", "trial_index": 28, "time_elapsed": 545475, "internal_node_id": "0.0-4.0-1.0-19.0"}}, {"uniqueid": "w66668271:a49652721", "current_trial": 29, "dateTime": 1691142594764, "trialdata": {"revealed_states": [], "clicked_states": ["32", "33", "31", "28", "27", "29", "22", "21", "20"], "num_clicks_accrued": [0, 0, 0, 0, 0, 0, 0, 0, 0, 0, 0, 0, 0], "stateRewards": ["", -1, -2, 4, 9, 10, -75, 39, 16, -43, 88, -19, -1, 1, 2, 4, -31, 10, 73, 12, 41, -64, -81, -2, 2, -6, 1, -81, -1, -26, 3, -59, -3, -20], "withholdReward": false, "trial_id": "mdp_trial_21", "block": "test", "trialIndex": 22, "score": 42.4, "costs": -12.600000000000001, "simulationMode": [null, null, null, null, null], "rewards": [-1, 1, 2, 12, 41], "path": ["0", "0", "12", "13", "14", "19", "20"], "rt": [18202, 85, 77, 103, 179], "actions": ["right", "right", "right", "down", "right"], "actionTimes": [19184, 19782, 20374, 20998, 21694], "queries": {"click": {"state": {"target": ["32", "33", "31", "28", "27", "29", "22", "21", "20"], "time": [1688, 3459, 5462, 7295, 9138, 11115, 12976, 14792, 16602]}, "edge": {"target": [], "time": []}}, "mouseover": {"state": {"target": ["32", "33", "30", "31", "28", "27", "29", "24", "22", "21", "20", "17"], "time": [1443, 2042, 3777, 3959, 6102, 7793, 9610, 11544, 12015, 13376, 15260, 17213]}, "edge": {"target": [], "time": []}}, "mouseout": {"state": {"target": ["33", "30", "23", "0", "32", "33", "30", "31", "28", "27", "29", "24", "22", "21", "20"], "time": [359, 425, 658, 1160, 1959, 3759, 3892, 5852, 7645, 9476, 11503, 11634, 13304, 15060, 16912]}, "edge": {"target": [], "time": []}}}, "displayed_time": "22.21", "trialTime": 24550, "trial_type": "mouselab-mdp", "trial_index": 29, "time_elapsed": 570276, "internal_node_id": "0.0-4.0-1.0-20.0"}}, {"uniqueid": "w66668271:a49652721", "current_trial": 30, "dateTime": 1691142612076, "trialdata": {"revealed_states": [], "clicked_states": ["17"], "num_clicks_accrued": [0, 0, 0, 0, 0, 0, 0, 0, 0, 0, 0, 0, 0], "stateRewards": ["", -2, -3, -5, 8, 27, 11, 43, -6, -24, -87, 69, -2, 1, 1, 9, 19, 48, -37, 9, -14, 45, 62, 1, 2, 1, 16, -81, -41, 22, 4, -6, -63, 47], "withholdReward": false, "trial_id": "mdp_trial_22", "block": "test", "trialIndex": 23, "score": 55.6, "costs": -1.4, "simulationMode": [null, null, null, null, null], "rewards": [-2, 1, 1, 9, 48], "path": ["0", "0", "12", "13", "14", "15", "17"], "rt": [3401, 76, 34, 77, 3], "actions": ["right", "right", "right", "up", "right"], "actionTimes": [4647, 5241, 5784, 6378, 6900], "queries": {"click": {"state": {"target": ["17"], "time": [2310]}, "edge": {"target": [], "time": []}}, "mouseover": {"state": {"target": ["0", "22", "21", "19", "14", "17", "16"], "time": [1256, 1479, 1763, 1896, 1929, 2113, 2729]}, "edge": {"target": [], "time": []}}, "mouseout": {"state": {"target": ["17", "15", "0", "22", "21", "19", "14", "17"], "time": [595, 645, 1346, 1513, 1863, 1913, 1963, 2496]}, "edge": {"target": [], "time": []}}}, "displayed_time": "15.26", "trialTime": 17082, "trial_type": "mouselab-mdp", "trial_index": 30, "time_elapsed": 587589, "internal_node_id": "0.0-4.0-1.0-21.0"}}, {"uniqueid": "w66668271:a49652721", "current_trial": 31, "dateTime": 1691142628800, "trialdata": {"revealed_states": [], "clicked_states": ["6"], "num_clicks_accrued": [0, 0, 0, 0, 0, 0, 0, 0, 0, 0, 0, 0, 0], "stateRewards": ["", 1, 1, 1, 15, -76, 52, -32, 14, -57, 37, 49, 1, -4, -3, 6, 83, -76, 25, 9, 36, -1, -17, -1, 4, 4, -2, -22, -21, 58, -15, -57, 49, -24], "withholdReward": false, "trial_id": "mdp_trial_23", "block": "test", "trialIndex": 24, "score": 68.6, "costs": -1.4, "simulationMode": [null, null, null, null, null], "rewards": [1, 1, 1, 15, 52], "path": ["0", "0", "1", "2", "3", "4", "6"], "rt": [2725, 38, 229, 77, 175], "actions": ["up", "up", "up", "right", "right"], "actionTimes": [4139, 4695, 5432, 6031, 6778], "queries": {"click": {"state": {"target": ["6"], "time": [1937]}, "edge": {"target": [], "time": []}}, "mouseover": {"state": {"target": ["6", "5"], "time": [1817, 2451]}, "edge": {"target": [], "time": []}}, "mouseout": {"state": {"target": ["16", "0", "0", "6", "5", "4", "7"], "time": [284, 933, 1484, 2350, 7734, 7818, 7900]}, "edge": {"target": [], "time": []}}}, "displayed_time": "15.42", "trialTime": 16495, "trial_type": "mouselab-mdp", "trial_index": 31, "time_elapsed": 604313, "internal_node_id": "0.0-4.0-1.0-22.0"}}, {"uniqueid": "w66668271:a49652721", "current_trial": 32, "dateTime": 1691142645109, "trialdata": {"revealed_states": [], "clicked_states": ["9", "11"], "num_clicks_accrued": [0, 0, 0, 0, 0, 0, 0, 0, 0, 0, 0, 0, 0], "stateRewards": ["", 2, -4, -4, 13, -80, 62, 13, -11, 57, -13, -44, 1, 4, 3, -4, -29, -88, 15, 16, -58, 68, -45, -1, -3, -1, -9, -44, -86, -19, -7, -36, 59, 66], "withholdReward": false, "trial_id": "mdp_trial_24", "block": "test", "trialIndex": 25, "score": 37.2, "costs": -2.8, "simulationMode": [null, null, null, null, null, null], "rewards": [2, -4, -4, -11, 57], "path": ["0", "0", "1", "2", "3", "8", "9"], "rt": [3265, 1097, 87, 24, 219, 153], "actions": ["up", "up", "up", "up", "left", "up"], "actionTimes": [4466, 5564, 6177, 6793, 7569, 8228], "queries": {"click": {"state": {"target": ["9", "11"], "time": [2043, 3816]}, "edge": {"target": [], "time": []}}, "mouseover": {"state": {"target": ["1", "8", "9", "11", "10"], "time": [1309, 1541, 1809, 2491, 4258]}, "edge": {"target": [], "time": []}}, "mouseout": {"state": {"target": ["1", "1", "8", "9", "11", "10", "23"], "time": [824, 1325, 1608, 2341, 4176, 8991, 11742]}, "edge": {"target": [], "time": []}}}, "displayed_time": "15.21", "trialTime": 16092, "trial_type": "mouselab-mdp", "trial_index": 32, "time_elapsed": 620621, "internal_node_id": "0.0-4.0-1.0-23.0"}}, {"uniqueid": "w66668271:a49652721", "current_trial": 33, "dateTime": 1691142661293, "trialdata": {"revealed_states": [], "clicked_states": ["5", "6", "7", "10"], "num_clicks_accrued": [0, 0, 0, 0, 0, 0, 0, 0, 0, 0, 0, 0, 0], "stateRewards": ["", -2, -1, -4, -15, -14, -67, 32, -3, -59, 63, 31, 2, -1, -7, -15, 71, -66, -27, -3, -54, -39, 72, 2, 1, 1, -13, 77, -40, 35, -9, 35, 75, 57], "withholdReward": false, "trial_id": "mdp_trial_25", "block": "test", "trialIndex": 26, "score": 47.4, "costs": -5.6, "simulationMode": [null, null, null, null, null], "rewards": [-2, -1, -4, -3, 63], "path": ["0", "0", "1", "2", "3", "8", "10"], "rt": [9300, 57, 130, 64, 51], "actions": ["up", "up", "up", "left", "down"], "actionTimes": [10342, 10925, 11565, 12149, 12717], "queries": {"click": {"state": {"target": ["5", "6", "7", "10"], "time": [1802, 3853, 5818, 8247]}, "edge": {"target": [], "time": []}}, "mouseover": {"state": {"target": ["7", "4", "5", "6", "7", "2", "10", "11"], "time": [1332, 1381, 1598, 2265, 4292, 6098, 6333, 9232]}, "edge": {"target": [], "time": []}}, "mouseout": {"state": {"target": ["0", "0", "7", "4", "5", "6", "7", "2", "10"], "time": [264, 1115, 1365, 1464, 2195, 4182, 6067, 6115, 8666]}, "edge": {"target": [], "time": []}}}, "displayed_time": "15.05", "trialTime": 15917, "trial_type": "mouselab-mdp", "trial_index": 33, "time_elapsed": 636805, "internal_node_id": "0.0-4.0-1.0-24.0"}}, {"uniqueid": "w66668271:a49652721", "current_trial": 34, "dateTime": 1691142677802, "trialdata": {"revealed_states": [], "clicked_states": ["10", "11", "9", "5", "6"], "num_clicks_accrued": [0, 0, 0, 0, 0, 0, 0, 0, 0, 0, 0, 0, 0], "stateRewards": ["", -1, -3, 3, 5, 56, 39, 50, -1, -80, 33, -46, 1, -2, -6, -8, 87, 48, 54, -11, -20, -64, -54, -2, 3, -7, -3, 12, 88, 35, -16, -46, -70, -3], "withholdReward": false, "trial_id": "mdp_trial_26", "block": "test", "trialIndex": 27, "score": 53, "costs": -7, "simulationMode": [null, null, null, null, null], "rewards": [-1, -3, 3, 5, 56], "path": ["0", "0", "1", "2", "3", "4", "5"], "rt": [11134, 17, 102, 49, 55], "actions": ["up", "up", "up", "right", "up"], "actionTimes": [12144, 12681, 13295, 13859, 14431], "queries": {"click": {"state": {"target": ["10", "11", "9", "5", "6"], "time": [1769, 4460, 6317, 8160, 10132]}, "edge": {"target": [], "time": []}}, "mouseover": {"state": {"target": ["10", "11", "9", "9", "5", "5", "6", "6", "7"], "time": [1490, 2256, 4939, 5159, 6757, 7024, 8457, 9121, 11008]}, "edge": {"target": [], "time": []}}, "mouseout": {"state": {"target": ["11", "10", "1", "10", "11", "9", "9", "5", "5", "6", "6"], "time": [158, 455, 555, 1973, 4873, 4989, 6623, 6823, 8374, 8474, 10610]}, "edge": {"target": [], "time": []}}}, "displayed_time": "15.02", "trialTime": 16268, "trial_type": "mouselab-mdp", "trial_index": 34, "time_elapsed": 653314, "internal_node_id": "0.0-4.0-1.0-25.0"}}, {"uniqueid": "w66668271:a49652721", "current_trial": 35, "dateTime": 1691142693854, "trialdata": {"revealed_states": [], "clicked_states": ["22", "18", "16", "17"], "num_clicks_accrued": [0, 0, 0, 0, 0, 0, 0, 0, 0, 0, 0, 0, 0], "stateRewards": ["", -1, -3, -6, 14, 41, 18, 63, -14, 80, 21, 17, -2, -4, -2, -5, 13, 70, 8, -4, -64, -10, -20, 2, -1, 4, -1, -17, -55, 42, -7, 47, 54, 15], "withholdReward": false, "trial_id": "mdp_trial_27", "block": "test", "trialIndex": 28, "score": 51.4, "costs": -5.6, "simulationMode": [null, null, null, null, null], "rewards": [-2, -4, -2, -5, 70], "path": ["0", "0", "12", "13", "14", "15", "17"], "rt": [9494, 524, 95, 200, 473], "actions": ["right", "right", "right", "up", "right"], "actionTimes": [10432, 11498, 12202, 12917, 13909], "queries": {"click": {"state": {"target": ["22", "18", "16", "17"], "time": [2158, 3996, 6092, 8025]}, "edge": {"target": [], "time": []}}, "mouseover": {"state": {"target": ["12", "13", "22", "13", "18", "16", "17", "20"], "time": [1311, 1360, 1711, 2527, 2643, 4496, 6466, 8479]}, "edge": {"target": [], "time": []}}, "mouseout": {"state": {"target": ["7", "1", "0", "12", "13", "22", "13", "18", "16", "17"], "time": [310, 477, 1260, 1344, 1610, 2462, 2577, 4310, 6463, 8296]}, "edge": {"target": [], "time": []}}}, "displayed_time": "14.95", "trialTime": 15789, "trial_type": "mouselab-mdp", "trial_index": 35, "time_elapsed": 669367, "internal_node_id": "0.0-4.0-1.0-26.0"}}, {"uniqueid": "w66668271:a49652721", "current_trial": 36, "dateTime": 1691142710351, "trialdata": {"revealed_states": [], "clicked_states": ["22", "21", "20", "31", "32"], "num_clicks_accrued": [0, 0, 0, 0, 0, 0, 0, 0, 0, 0, 0, 0, 0], "stateRewards": ["", 1, -4, -6, -1, -21, 17, -72, 10, 77, 67, -46, -1, 4, -2, 14, -66, -49, -45, -15, -52, 23, -67, 2, -2, -2, 15, -3, 45, -64, 5, -44, 83, 61], "withholdReward": false, "trial_id": "mdp_trial_28", "block": "test", "trialIndex": 29, "score": 79, "costs": -7, "simulationMode": [null, null, null, null, null], "rewards": [2, -2, -2, 5, 83], "path": ["0", "0", "23", "24", "25", "30", "32"], "rt": [10775, 75, 122, 66, 101], "actions": ["left", "left", "left", "down", "down"], "actionTimes": [11613, 12196, 12825, 13513, 14258], "queries": {"click": {"state": {"target": ["22", "21", "20", "31", "32"], "time": [1775, 3602, 5556, 7554, 9429]}, "edge": {"target": [], "time": []}}, "mouseover": {"state": {"target": ["12", "22", "21", "20", "19", "32", "31", "32", "33"], "time": [1164, 1553, 2426, 4086, 6033, 6271, 6455, 8092, 9920]}, "edge": {"target": [], "time": []}}, "mouseout": {"state": {"target": ["20", "19", "22", "0", "12", "22", "21", "20", "19", "22", "32", "31", "32"], "time": [218, 285, 318, 986, 1385, 2031, 3887, 5969, 6049, 6059, 6319, 7837, 9769]}, "edge": {"target": [], "time": []}}}, "displayed_time": "14.84", "trialTime": 16277, "trial_type": "mouselab-mdp", "trial_index": 36, "time_elapsed": 685863, "internal_node_id": "0.0-4.0-1.0-27.0"}}, {"uniqueid": "w66668271:a49652721", "current_trial": 37, "dateTime": 1691142726839, "trialdata": {"revealed_states": [], "clicked_states": ["33", "29", "27", "28", "31"], "num_clicks_accrued": [0, 0, 0, 0, 0, 0, 0, 0, 0, 0, 0, 0, 0], "stateRewards": ["", -2, -1, -6, -14, -55, 78, -13, 11, 14, -71, 59, 2, 2, 6, -6, 9, 38, 14, 7, 85, 11, 68, 1, -4, -1, -3, -63, -85, 9, -2, 63, -86, -10], "withholdReward": false, "trial_id": "mdp_trial_29", "block": "test", "trialIndex": 30, "score": 50, "costs": -7, "simulationMode": [null, null, null, null, null], "rewards": [1, -4, -1, -2, 63], "path": ["0", "0", "23", "24", "25", "30", "31"], "rt": [10793, 84, 165, 113, 134], "actions": ["left", "left", "left", "down", "right"], "actionTimes": [11837, 12434, 13116, 13746, 14463], "queries": {"click": {"state": {"target": ["33", "29", "27", "28", "31"], "time": [1916, 3929, 5769, 7614, 9520]}, "edge": {"target": [], "time": []}}, "mouseover": {"state": {"target": ["32", "33", "29", "27", "28", "28", "24", "31", "32"], "time": [1479, 1747, 2402, 4397, 6018, 6229, 7899, 8112, 10121]}, "edge": {"target": [], "time": []}}, "mouseout": {"state": {"target": ["33", "30", "31", "0", "32", "33", "29", "27", "28", "28", "24", "31", "32"], "time": [195, 245, 279, 1180, 1695, 2166, 4196, 6001, 6045, 7877, 7996, 9857, 15513]}, "edge": {"target": [], "time": []}}}, "displayed_time": "15.05", "trialTime": 16257, "trial_type": "mouselab-mdp", "trial_index": 37, "time_elapsed": 702351, "internal_node_id": "0.0-4.0-1.0-28.0"}}, {"uniqueid": "w66668271:a49652721", "current_trial": 38, "dateTime": 1691142753304, "trialdata": {"revealed_states": [], "clicked_states": ["21", "22", "18", "16", "17", "20", "7", "6", "5", "10"], "num_clicks_accrued": [0, 0, 0, 0, 0, 0, 0, 0, 0, 0, 0, 0, 0], "stateRewards": ["", -2, 2, 3, -7, -31, -33, 29, -8, -57, 50, -83, -1, -1, 5, 13, -23, -62, 25, 5, -66, -85, 14, 1, -2, -1, 16, 71, 33, -19, -14, 5, -43, 79], "withholdReward": false, "trial_id": "mdp_trial_30", "block": "test", "trialIndex": 31, "score": 31, "costs": -14.000000000000002, "simulationMode": [null, null, null, null, null], "rewards": [-2, 2, 3, -8, 50], "path": ["0", "0", "1", "2", "3", "8", "10"], "rt": [20826, 104, 48, 103, 74], "actions": ["up", "up", "up", "left", "down"], "actionTimes": [21976, 22584, 23160, 23856, 24539], "queries": {"click": {"state": {"target": ["21", "22", "18", "16", "17", "20", "7", "6", "5", "10"], "time": [2002, 3932, 5998, 7988, 9836, 12038, 13913, 15843, 17937, 19786]}, "edge": {"target": [], "time": []}}, "mouseover": {"state": {"target": ["22", "21", "22", "18", "16", "17", "20", "19", "12", "7", "6", "5", "5", "3", "10", "11"], "time": [1526, 1677, 2310, 4366, 6511, 8395, 10308, 12427, 12510, 12877, 14377, 16348, 16646, 18510, 18777, 20177]}, "edge": {"target": [], "time": []}}, "mouseout": {"state": {"target": ["0", "22", "21", "22", "18", "16", "17", "20", "19", "12", "7", "6", "5", "5", "3", "10"], "time": [1294, 1578, 2227, 4281, 6345, 8311, 10156, 12395, 12460, 12527, 14196, 16346, 16375, 18460, 18560, 20095]}, "edge": {"target": [], "time": []}}}, "displayed_time": "25.05", "trialTime": 26187, "trial_type": "mouselab-mdp", "trial_index": 38, "time_elapsed": 728816, "internal_node_id": "0.0-4.0-1.0-29.0"}}, {"uniqueid": "w66668271:a49652721", "current_trial": 39, "dateTime": 1691142770221, "trialdata": {"revealed_states": [], "clicked_states": ["31", "33", "32", "29"], "num_clicks_accrued": [0, 0, 0, 0, 0, 0, 0, 0, 0, 0, 0, 0, 0], "stateRewards": ["", 1, 4, -8, -13, -13, -87, -77, -10, -44, 54, 42, 2, -3, -4, 12, -9, -80, 52, 9, 84, -2, -65, 1, -4, -5, -6, 8, 80, 32, 13, -59, -5, -13], "withholdReward": false, "trial_id": "mdp_trial_31", "block": "test", "trialIndex": 32, "score": 12.399999999999999, "costs": -5.6, "simulationMode": [null, null, null, null, null], "rewards": [1, -4, -5, -6, 32], "path": ["0", "0", "23", "24", "25", "26", "29"], "rt": [8935, 102, 163, 114, 105], "actions": ["left", "left", "left", "up", "left"], "actionTimes": [10200, 10821, 11501, 12134, 12758], "queries": {"click": {"state": {"target": ["31", "33", "32", "29"], "time": [2361, 4186, 6047, 7939]}, "edge": {"target": [], "time": []}}, "mouseover": {"state": {"target": ["0", "23", "31", "33", "32", "29", "27"], "time": [1367, 1957, 2100, 3095, 4590, 6717, 8403]}, "edge": {"target": [], "time": []}}, "mouseout": {"state": {"target": ["2", "15", "13", "0", "0", "23", "31", "33", "32", "33", "29", "27", "26", "24"], "time": [89, 218, 332, 1051, 1902, 2056, 2878, 4418, 6417, 6489, 8170, 14885, 14933, 15001]}, "edge": {"target": [], "time": []}}}, "displayed_time": "15.27", "trialTime": 16611, "trial_type": "mouselab-mdp", "trial_index": 39, "time_elapsed": 745734, "internal_node_id": "0.0-4.0-1.0-30.0"}}, {"uniqueid": "w66668271:a49652721", "current_trial": 40, "dateTime": 1691142786117, "trialdata": {"revealed_states": [], "clicked_states": ["10", "11", "9"], "num_clicks_accrued": [0, 0, 0, 0, 0, 0, 0, 0, 0, 0, 0, 0, 0], "stateRewards": ["", 2, -1, 4, -9, -43, 7, 54, -13, 38, -40, -83, -1, 2, -8, -10, 34, -33, 11, -14, -79, 65, 26, 1, 2, 4, 10, 21, 1, 86, 4, -53, 28, -29], "withholdReward": false, "trial_id": "mdp_trial_32", "block": "test", "trialIndex": 33, "score": 25.8, "costs": -4.199999999999999, "simulationMode": [null, null, null, null, null], "rewards": [2, -1, 4, -13, 38], "path": ["0", "0", "1", "2", "3", "8", "9"], "rt": [6936, 48, 262, 163, 326], "actions": ["up", "up", "up", "left", "up"], "actionTimes": [7743, 8334, 9142, 9902, 10806], "queries": {"click": {"state": {"target": ["10", "11", "9"], "time": [1617, 3604, 5434]}, "edge": {"target": [], "time": []}}, "mouseover": {"state": {"target": ["1", "10", "10", "11", "9", "5"], "time": [1046, 1164, 1464, 2370, 3975, 6080]}, "edge": {"target": [], "time": []}}, "mouseout": {"state": {"target": ["0", "1", "10", "10", "11", "9"], "time": [595, 1080, 1312, 1862, 3919, 5713]}, "edge": {"target": [], "time": []}}}, "displayed_time": "14.81", "trialTime": 15502, "trial_type": "mouselab-mdp", "trial_index": 40, "time_elapsed": 761629, "internal_node_id": "0.0-4.0-1.0-31.0"}}, {"uniqueid": "w66668271:a49652721", "current_trial": 41, "dateTime": 1691142808965, "trialdata": {"revealed_states": [], "clicked_states": ["5", "6", "7", "10", "11", "9", "27", "29"], "num_clicks_accrued": [0, 0, 0, 0, 0, 0, 0, 0, 0, 0, 0, 0, 0], "stateRewards": ["", 1, 2, -6, -13, -51, 22, -4, -12, -44, -12, 6, -2, -2, -2, -14, -46, -4, -77, -2, 36, -79, 41, 2, -4, 2, -6, -55, 59, 70, -5, 39, -19, 24], "withholdReward": false, "trial_id": "mdp_trial_33", "block": "test", "trialIndex": 34, "score": 52.8, "costs": -11.200000000000001, "simulationMode": [null, null, null, null, null], "rewards": [2, -4, 2, -6, 70], "path": ["0", "0", "23", "24", "25", "26", "29"], "rt": [17401, 4, 169, 159, 27], "actions": ["left", "left", "left", "up", "left"], "actionTimes": [18409, 18933, 19633, 20310, 20856], "queries": {"click": {"state": {"target": ["5", "6", "7", "10", "11", "9", "27", "29"], "time": [1841, 3649, 5911, 7803, 9781, 12061, 13883, 15696]}, "edge": {"target": [], "time": []}}, "mouseover": {"state": {"target": ["1", "7", "4", "5", "6", "7", "2", "10", "11", "9", "8", "27", "29", "26", "28", "28"], "time": [1159, 1293, 1377, 1710, 2260, 4076, 6245, 6327, 8293, 10574, 12461, 12560, 14210, 16044, 16078, 16411]}, "edge": {"target": [], "time": []}}, "mouseout": {"state": {"target": ["5", "3", "2", "1", "0", "0", "1", "7", "4", "5", "6", "7", "2", "10", "11", "9", "8", "27", "29", "26", "28"], "time": [360, 410, 444, 459, 510, 1111, 1195, 1310, 1542, 2094, 3944, 6227, 6278, 8177, 10344, 12411, 12477, 14126, 16027, 16060, 16277]}, "edge": {"target": [], "time": []}}}, "displayed_time": "21.37", "trialTime": 22614, "trial_type": "mouselab-mdp", "trial_index": 41, "time_elapsed": 784478, "internal_node_id": "0.0-4.0-1.0-32.0"}}, {"uniqueid": "w66668271:a49652721", "current_trial": 42, "dateTime": 1691142824987, "trialdata": {"revealed_states": [], "clicked_states": ["33", "32", "31"], "num_clicks_accrued": [0, 0, 0, 0, 0, 0, 0, 0, 0, 0, 0, 0, 0], "stateRewards": ["", 1, 4, 5, -5, 58, -80, 75, 6, 25, -39, 46, 2, -2, 4, 2, 59, 31, -22, -12, -61, 15, 72, 1, -2, -7, 8, 77, 76, -23, -7, 71, -15, -3], "withholdReward": false, "trial_id": "mdp_trial_34", "block": "test", "trialIndex": 35, "score": 51.8, "costs": -4.199999999999999, "simulationMode": [null, null, null, null, null], "rewards": [1, -2, -7, -7, 71], "path": ["0", "0", "23", "24", "25", "30", "31"], "rt": [7553, 596, 152, 128, 37], "actions": ["left", "left", "left", "down", "right"], "actionTimes": [8677, 9797, 10477, 11117, 11722], "queries": {"click": {"state": {"target": ["33", "32", "31"], "time": [2332, 4146, 6380]}, "edge": {"target": [], "time": []}}, "mouseover": {"state": {"target": ["0", "31", "30", "33", "32", "31", "30", "29"], "time": [1233, 1815, 1899, 2166, 2720, 4649, 6778, 7150]}, "edge": {"target": [], "time": []}}, "mouseout": {"state": {"target": ["28", "0", "31", "30", "33", "32", "31", "30", "29", "25"], "time": [294, 1456, 1832, 2049, 2568, 4433, 6776, 6903, 12982, 13046]}, "edge": {"target": [], "time": []}}}, "displayed_time": "15.13", "trialTime": 15789, "trial_type": "mouselab-mdp", "trial_index": 42, "time_elapsed": 800499, "internal_node_id": "0.0-4.0-1.0-33.0"}}, {"uniqueid": "w66668271:a49652721", "current_trial": 43, "dateTime": 1691142840955, "trialdata": {"revealed_states": [], "clicked_states": ["22"], "num_clicks_accrued": [0, 0, 0, 0, 0, 0, 0, 0, 0, 0, 0, 0, 0], "stateRewards": ["", 1, -4, -4, 8, 1, -79, 68, -10, -79, 8, -74, -1, -3, -6, 14, 43, 23, 9, 5, -51, 63, 61, -2, 4, 6, -10, 69, -32, 57, 15, -80, -80, -77], "withholdReward": false, "trial_id": "mdp_trial_35", "block": "test", "trialIndex": 36, "score": 54.6, "costs": -1.4, "simulationMode": [null, null, null, null, null], "rewards": [-1, -3, -6, 5, 61], "path": ["0", "0", "12", "13", "14", "19", "22"], "rt": [3322, 88, 172, 178, 119], "actions": ["right", "right", "right", "down", "left"], "actionTimes": [4181, 4788, 5476, 6148, 6788], "queries": {"click": {"state": {"target": ["22"], "time": [1532]}, "edge": {"target": [], "time": []}}, "mouseover": {"state": {"target": ["0", "22", "21"], "time": [983, 1366, 2288]}, "edge": {"target": [], "time": []}}, "mouseout": {"state": {"target": ["24", "23", "0", "22", "21", "19", "21"], "time": [264, 347, 1048, 2082, 13234, 13682, 13799]}, "edge": {"target": [], "time": []}}}, "displayed_time": "14.86", "trialTime": 15757, "trial_type": "mouselab-mdp", "trial_index": 43, "time_elapsed": 816467, "internal_node_id": "0.0-4.0-1.0-34.0"}}, {"uniqueid": "w66668271:a49652721", "current_trial": 44, "dateTime": 1691142859539, "trialdata": {"revealed_states": [], "clicked_states": ["22", "21", "20", "17", "16", "18"], "num_clicks_accrued": [0, 0, 0, 0, 0, 0, 0, 0, 0, 0, 0, 0, 0], "stateRewards": ["", -2, 2, -4, -4, -59, 88, 62, -3, 69, -15, -34, 1, -2, -5, 7, -54, -20, 78, -16, -74, -53, -21, 2, -4, 2, 13, -8, -44, 26, 9, 72, 4, 17], "withholdReward": false, "trial_id": "mdp_trial_36", "block": "test", "trialIndex": 37, "score": 70.6, "costs": -8.4, "simulationMode": [null, null, null, null, null], "rewards": [1, -2, -5, 7, 78], "path": ["0", "0", "12", "13", "14", "15", "18"], "rt": [12480, 43, 127, 115, 521], "actions": ["right", "right", "right", "up", "left"], "actionTimes": [13338, 13895, 14543, 15167, 16340], "queries": {"click": {"state": {"target": ["22", "21", "20", "17", "16", "18"], "time": [1389, 3229, 5400, 7281, 9123, 11099]}, "edge": {"target": [], "time": []}}, "mouseover": {"state": {"target": ["22", "21", "20", "17", "17", "16", "18", "12", "31"], "time": [1179, 1747, 3684, 5855, 6097, 7629, 9676, 11513, 11849]}, "edge": {"target": [], "time": []}}, "mouseout": {"state": {"target": ["21", "22", "12", "0", "22", "21", "20", "17", "17", "16", "18", "12"], "time": [129, 248, 363, 980, 1663, 3550, 5781, 5913, 7513, 9380, 11510, 11544]}, "edge": {"target": [], "time": []}}}, "displayed_time": "16.92", "trialTime": 18255, "trial_type": "mouselab-mdp", "trial_index": 44, "time_elapsed": 835051, "internal_node_id": "0.0-4.0-1.0-35.0"}}, {"uniqueid": "w66668271:a49652721", "current_trial": 45, "dateTime": 1691142884484, "trialdata": {"revealed_states": [], "clicked_states": ["32", "33", "29", "27", "28", "31", "21", "22", "20"], "num_clicks_accrued": [0, 0, 0, 0, 0, 0, 0, 0, 0, 0, 0, 0, 0], "stateRewards": ["", 1, -1, 8, 4, 76, -33, -17, -3, -1, -54, -74, -2, 2, -5, 13, -51, 63, 83, 1, 84, 29, -36, 2, -1, 7, -12, -10, -44, -43, -14, 8, -69, 19], "withholdReward": false, "trial_id": "mdp_trial_37", "block": "test", "trialIndex": 38, "score": 67.4, "costs": -12.600000000000001, "simulationMode": [null, null, null, null, null], "rewards": [-2, 2, -5, 1, 84], "path": ["0", "0", "12", "13", "14", "19", "20"], "rt": [19049, 69, 236, 170, 325], "actions": ["right", "right", "right", "down", "right"], "actionTimes": [20092, 20682, 21439, 22103, 23015], "queries": {"click": {"state": {"target": ["32", "33", "29", "27", "28", "31", "21", "22", "20"], "time": [1889, 3962, 5892, 7724, 9624, 11529, 13547, 15772, 17698]}, "edge": {"target": [], "time": []}}, "mouseover": {"state": {"target": ["32", "33", "29", "27", "28", "24", "31", "21", "21", "22", "19", "20", "17"], "time": [1609, 2479, 4535, 6392, 8178, 10019, 10204, 11893, 12377, 13892, 16104, 16261, 18393]}, "edge": {"target": [], "time": []}}, "mouseout": {"state": {"target": ["31", "0", "32", "33", "29", "27", "28", "24", "31", "21", "21", "22", "19", "20"], "time": [7, 1395, 2395, 4287, 6193, 7993, 10017, 10117, 11794, 11943, 13809, 16062, 16259, 18076]}, "edge": {"target": [], "time": []}}}, "displayed_time": "23.53", "trialTime": 24545, "trial_type": "mouselab-mdp", "trial_index": 45, "time_elapsed": 859996, "internal_node_id": "0.0-4.0-1.0-36.0"}}, {"uniqueid": "w66668271:a49652721", "current_trial": 46, "dateTime": 1691142901949, "trialdata": {"revealed_states": [], "clicked_states": ["17", "16"], "num_clicks_accrued": [0, 0, 0, 0, 0, 0, 0, 0, 0, 0, 0, 0, 0], "stateRewards": ["", -2, 1, -7, -8, -37, -76, -87, 11, 30, -63, 80, -1, 4, 2, -1, 42, 17, 52, -3, -75, -80, -68, 2, -3, -5, -15, -48, 82, 24, -7, 5, -22, -71], "withholdReward": false, "trial_id": "mdp_trial_38", "block": "test", "trialIndex": 39, "score": 43.2, "costs": -2.8, "simulationMode": [null, null, null, null, null], "rewards": [-1, 4, 2, -1, 42], "path": ["0", "0", "12", "13", "14", "15", "16"], "rt": [5769, 25, 90, 69, 110], "actions": ["right", "right", "right", "up", "up"], "actionTimes": [6964, 7506, 8103, 8727, 9375], "queries": {"click": {"state": {"target": ["17", "16"], "time": [2294, 4706]}, "edge": {"target": [], "time": []}}, "mouseover": {"state": {"target": ["22", "19", "14", "17", "16", "18"], "time": [1528, 1846, 1912, 2163, 3130, 5112]}, "edge": {"target": [], "time": []}}, "mouseout": {"state": {"target": ["17", "13", "12", "0", "22", "19", "14", "17", "16"], "time": [84, 262, 412, 1363, 1579, 1879, 1963, 2599, 4996]}, "edge": {"target": [], "time": []}}}, "displayed_time": "15.20", "trialTime": 17162, "trial_type": "mouselab-mdp", "trial_index": 46, "time_elapsed": 877461, "internal_node_id": "0.0-4.0-1.0-37.0"}}, {"uniqueid": "w66668271:a49652721", "current_trial": 47, "dateTime": 1691142918757, "trialdata": {"revealed_states": [], "clicked_states": ["5", "9", "11"], "num_clicks_accrued": [0, 0, 0, 0, 0, 0, 0, 0, 0, 0, 0, 0, 0], "stateRewards": ["", -1, 1, 8, -8, -49, 62, -78, 16, 28, -81, 78, -2, -3, -1, -4, 67, 49, -2, -13, -16, -39, 83, 1, -4, 4, -5, -20, 7, 84, 7, -32, -59, 19], "withholdReward": false, "trial_id": "mdp_trial_39", "block": "test", "trialIndex": 40, "score": 97.8, "costs": -4.199999999999999, "simulationMode": [null, null, null, null, null], "rewards": [-1, 1, 8, 16, 78], "path": ["0", "0", "1", "2", "3", "8", "11"], "rt": [6940, 16, 498, 293, 133], "actions": ["up", "up", "up", "left", "left"], "actionTimes": [8126, 8722, 9842, 10637, 11285], "queries": {"click": {"state": {"target": ["5", "9", "11"], "time": [1944, 3846, 5939]}, "edge": {"target": [], "time": []}}, "mouseover": {"state": {"target": ["7", "4", "5", "9", "11", "10"], "time": [1483, 1567, 1833, 2267, 4167, 6350]}, "edge": {"target": [], "time": []}}, "mouseout": {"state": {"target": ["18", "0", "7", "4", "5", "9", "11"], "time": [153, 1350, 1517, 1717, 2166, 4121, 6283]}, "edge": {"target": [], "time": []}}}, "displayed_time": "15.19", "trialTime": 16525, "trial_type": "mouselab-mdp", "trial_index": 47, "time_elapsed": 894269, "internal_node_id": "0.0-4.0-1.0-38.0"}}, {"uniqueid": "w66668271:a49652721", "current_trial": 48, "dateTime": 1691142935610, "trialdata": {"revealed_states": [], "clicked_states": ["11", "10", "7", "6", "5"], "num_clicks_accrued": [0, 0, 0, 0, 0, 0, 0, 0, 0, 0, 0, 0, 0], "stateRewards": ["", -2, -1, 3, -3, 71, -58, -21, 7, -10, -75, -37, 2, 4, -1, -12, -79, -29, -48, 3, -41, -10, -30, -1, -2, 1, -15, 13, 66, 22, -1, -42, -86, -55], "withholdReward": false, "trial_id": "mdp_trial_40", "block": "test", "trialIndex": 41, "score": 61, "costs": -7, "simulationMode": [null, null, null, null, null], "rewards": [-2, -1, 3, -3, 71], "path": ["0", "0", "1", "2", "3", "4", "5"], "rt": [11187, 115, 154, 153, 109], "actions": ["up", "up", "up", "right", "up"], "actionTimes": [12397, 13046, 13718, 14383, 15007], "queries": {"click": {"state": {"target": ["11", "10", "7", "6", "5"], "time": [1973, 3793, 6039, 7853, 9686]}, "edge": {"target": [], "time": []}}, "mouseover": {"state": {"target": ["10", "11", "10", "2", "7", "6", "4", "5", "9"], "time": [1593, 1894, 2344, 4146, 4262, 6529, 8314, 8409, 10120]}, "edge": {"target": [], "time": []}}, "mouseout": {"state": {"target": ["10", "1", "0", "10", "11", "10", "2", "7", "6", "4", "5"], "time": [694, 811, 1428, 1611, 2228, 4118, 4178, 6363, 8128, 8388, 10119]}, "edge": {"target": [], "time": []}}}, "displayed_time": "15.52", "trialTime": 16556, "trial_type": "mouselab-mdp", "trial_index": 48, "time_elapsed": 911122, "internal_node_id": "0.0-4.0-1.0-39.0"}}, {"uniqueid": "w66668271:a49652721", "current_trial": 49, "dateTime": 1691142962915, "trialdata": {"rt": 27301, "response": {"Q0": "$-16 to 16", "Q1": "$-32 to $32", "Q2": "$-88 to $88", "Q3": "The cost was always $1.4.", "Q4": "Very motivated"}, "question_order": [0, 1, 2, 3, 4], "trial_id": "final_quiz_control", "trial_type": "survey-multi-choice", "trial_index": 49, "time_elapsed": 938427, "internal_node_id": "0.0-4.0-2.0"}}, {"uniqueid": "w66668271:a49652721", "current_trial": 50, "dateTime": 1691143044416, "trialdata": {"rt": 81490, "response": {"Q0": "Assume over the game the cost of travel would even out to 0, find the target node with a high enough value, usually above 30 depending on how many inspections I had paid for already.", "Q1": "Realised that there were often higher values than 30, started looking for 60+", "Q2": "Luck of the draw on the nodes."}, "trial_id": "self_report_control", "trial_type": "survey-text", "trial_index": 50, "time_elapsed": 1019929, "internal_node_id": "0.0-4.0-3.0"}}, {"uniqueid": "w66668271:a49652721", "current_trial": 51, "dateTime": 1691143058870, "trialdata": {"rt": 14449, "response": {"gender": "male", "age": "33", "colorblind": "0", "effort": "0"}, "trial_type": "survey-html-form", "trial_index": 51, "time_elapsed": 1034383, "internal_node_id": "0.0-4.0-4.0"}}, {"uniqueid": "w66668271:a49652721", "current_trial": 52, "dateTime": 1691143073903, "trialdata": {"rt": 15026, "response": {"Q0": "No", "Q1": "No", "Q2": "N/A"}, "trial_type": "survey-text", "trial_index": 52, "time_elapsed": 1049415, "internal_node_id": "0.0-4.0-5.0"}}, {"uniqueid": "w66668271:a49652721", "current_trial": 53, "dateTime": 1691143077954, "trialdata": {"rt": 4047, "stimulus": "Press 'Finish HIT' in order to reach the completion code. Once the data has been saved, you will receive the code either in this window or in the original browser window where you started the experiment.\n", "response": 0, "trial_type": "html-button-response", "trial_index": 53, "time_elapsed": 1053467, "internal_node_id": "0.0-5.0"}}, {"uniqueid": "w66668271:a49652721", "current_trial": 54, "dateTime": 1691143078963, "trialdata": {"success": true, "trial_type": "fullscreen", "trial_index": 54, "time_elapsed": 1054476, "internal_node_id": "0.0-6.0"}}], "questiondata": {"params": {"CODE": "C6DMOQA6", "MIN_TIME": 14, "inspectCost": 1, "startTime": "Fri Aug 04 2023 10:40:23 GMT+0100 (British Summer Time)", "bonusRate": 0.002, "variance": "1_2_4_8_44", "branching": "31123"}, "final_score": 2038.4}, "eventdata": [{"eventtype": "initialized", "value": null, "timestamp": 1691142023463, "interval": 0}, {"eventtype": "window_resize", "value": [1024, 767], "timestamp": 1691142023463, "interval": 0}, {"eventtype": "window_resize", "value": [1024, 767], "timestamp": 1691142023785, "interval": 322}, {"eventtype": "window_resize", "value": [1920, 1056], "timestamp": 1691142028923, "interval": 5138}, {"eventtype": "window_resize", "value": [1024, 767], "timestamp": 1691143078203, "interval": 1049280}], "useragent": "Mozilla/5.0 (Macintosh; Intel Mac OS X 10_15_7) AppleWebKit/537.36 (KHTML, like Gecko) Chrome/114.0.0.0 Safari/537.36", "mode": "live", "id": "w66668271:a49652721", "status": "user data saved", "Beginhit": "2023-08-04 09:40:22.465151", "Beginexp": "2023-08-04 09:40:29.85354", "Endhit": "2023-08-04 09:57:59.769336", "psiturkStatus": 3, "browser": "<redacted>", "platform": "macos", "language": "en-US"}