{"condition": 1, "counterbalance": 0, "assignmentId": "a86616031", "workerId": "w22592551", "hitId": "h30991864", "currenttrial": 56, "bonus": 0, "data": [{"uniqueid": "w22592551:a86616031", "current_trial": 0, "dateTime": 1693564501037, "trialdata": {"success": true, "trial_type": "fullscreen", "trial_index": 0, "time_elapsed": 21612, "internal_node_id": "0.0-0.0"}}, {"uniqueid": "w22592551:a86616031", "current_trial": 1, "dateTime": 1693564538200, "trialdata": {"view_history": [{"page_index": 0, "viewing_time": 37138}], "rt": 37141, "trial_id": "exp_instructions_misaligned", "trial_type": "instructions", "trial_index": 1, "time_elapsed": 58776, "internal_node_id": "0.0-1.0"}}, {"uniqueid": "w22592551:a86616031", "current_trial": 2, "dateTime": 1693564908872, "trialdata": {"view_history": [{"page_index": 0, "viewing_time": 139372}, {"page_index": 1, "viewing_time": 134423}, {"page_index": 2, "viewing_time": 50034}, {"page_index": 3, "viewing_time": 46831}], "rt": 370660, "trial_id": "mouselab_instructions_1_misaligned", "trial_type": "instructions", "trial_index": 2, "time_elapsed": 429447, "internal_node_id": "0.0-2.0-1.0"}}, {"uniqueid": "w22592551:a86616031", "current_trial": 3, "dateTime": 1693564927149, "trialdata": {"revealed_states": [], "clicked_states": ["1", "25"], "num_clicks_accrued": [0, 0, 0, 0, 0, 0, 0, 0, 0, 0, 0, 0, 0], "stateRewards": ["", 10, 10, 10, 10, 10, -10, 10, 10, -10, 10, -10, -10, -10, 10, 10, -10, 10, -10, -10, 10, 10, 10, -10, -10, 10, 10, 10, -10, -10, -10, -10, -10, 10], "withholdReward": false, "trial_id": "practice_1", "block": "test", "trialIndex": 0, "score": -27.5, "costs": -1, "simulationMode": [null, null, null, null, null], "rewards": [-10, -10, 10, -10, -10], "path": ["0", "0", "23", "24", "25", "30", "32"], "rt": [4168, 92, 197, 302, 212], "actions": ["left", "left", "left", "down", "down"], "actionTimes": [5921, 6537, 7256, 8078, 8805], "queries": {"click": {"state": {"target": ["1", "25"], "time": [2826, 4679]}, "edge": {"target": [], "time": []}}, "mouseover": {"state": {"target": ["1", "24", "25"], "time": [2390, 3107, 3225]}, "edge": {"target": [], "time": []}}, "mouseout": {"state": {"target": ["0", "1", "24"], "time": [2339, 2975, 3158]}, "edge": {"target": [], "time": []}}}, "displayed_time": "9.32", "trialTime": 16661, "trial_type": "mouselab-mdp", "trial_index": 3, "time_elapsed": 447723, "internal_node_id": "0.0-2.0-2.0-0.0"}}, {"uniqueid": "w22592551:a86616031", "current_trial": 4, "dateTime": 1693564948236, "trialdata": {"revealed_states": [], "clicked_states": ["2"], "num_clicks_accrued": [0, 0, 0, 0, 0, 0, 0, 0, 0, 0, 0, 0, 0], "stateRewards": ["", 10, -10, -10, -10, -10, -10, -10, -10, -10, 10, 10, 10, -10, -10, -10, -10, -10, -10, -10, -10, 10, 10, 10, 10, 10, -10, -10, -10, -10, -10, 10, -10, 10], "withholdReward": false, "trial_id": "practice_2", "block": "test", "trialIndex": 1, "score": -7, "costs": -0.5, "simulationMode": [null, null, null, null, null], "rewards": [10, -10, -10, -10, 10], "path": ["0", "0", "12", "13", "14", "19", "22"], "rt": [3462, 538, 75, 762, 107], "actions": ["right", "right", "right", "down", "left"], "actionTimes": [6215, 7279, 7874, 9139, 9749], "queries": {"click": {"state": {"target": ["2"], "time": [3895]}, "edge": {"target": [], "time": []}}, "mouseover": {"state": {"target": ["1", "2"], "time": [3169, 3215]}, "edge": {"target": [], "time": []}}, "mouseout": {"state": {"target": ["25", "23", "0", "1", "2", "7", "16", "21"], "time": [1621, 1703, 3118, 3204, 4090, 16752, 16792, 19621]}, "edge": {"target": [], "time": []}}}, "displayed_time": "10.27", "trialTime": 20582, "trial_type": "mouselab-mdp", "trial_index": 4, "time_elapsed": 468810, "internal_node_id": "0.0-2.0-2.0-1.0"}}, {"uniqueid": "w22592551:a86616031", "current_trial": 5, "dateTime": 1693564996995, "trialdata": {"view_history": [{"page_index": 0, "viewing_time": 37434}, {"page_index": 1, "viewing_time": 11310}], "rt": 48745, "trial_id": "mouselab_instructions_2_misaligned", "trial_type": "instructions", "trial_index": 5, "time_elapsed": 517571, "internal_node_id": "0.0-2.0-3.0"}}, {"uniqueid": "w22592551:a86616031", "current_trial": 6, "dateTime": 1693565096730, "trialdata": {"rt": 99714, "response": {"Q0": "The cost for clicking on nodes may vary between nodes.", "Q1": "The better I perform the higher my bonus will be.", "Q2": "No, the amount of cash at each node of the web may be different each time.", "Q3": "To get the highest total score.", "Q4": "Only before moving the spider.", "Q5": "3 seconds"}, "question_order": [0, 1, 2, 3, 4, 5], "correct": {"Q0": "The cost for clicking on nodes may vary between nodes.", "Q1": "The better I perform the higher my bonus will be.", "Q2": "No, the amount of cash at each node of the web may be different each time.", "Q3": "To get the highest total score.", "Q4": "Only before moving the spider.", "Q5": "3 seconds"}, "trial_id": "mouselab_quiz_misaligned", "trial_type": "survey-multi-choice", "trial_index": 6, "time_elapsed": 617306, "internal_node_id": "0.0-2.0-4.0"}}, {"uniqueid": "w22592551:a86616031", "current_trial": 7, "dateTime": 1693565114528, "trialdata": {"rt": 17759, "response": {"Q0": "No"}, "question_order": [0], "trial_id": "repeat_check", "trial_type": "survey-multi-choice", "trial_index": 7, "time_elapsed": 635103, "internal_node_id": "0.0-4.0-0.0"}}, {"uniqueid": "w22592551:a86616031", "current_trial": 8, "dateTime": 1693565172369, "trialdata": {"rt": 57826, "stimulus": "\n<h1> Get ready to start the game! </h1>\n\nThank you for reading the instructions. Get ready start with the 40 rounds of this game.\n<br><br>\nIf you need to take a break, feel free to take one after the end of a round, before continuing to the next one.\n<br><br>\nRemember, the more money the spider gets, the bigger your bonus will be!\n<br><br>\n<div style='text-align: center;'>Press <code>space</code> to begin.</div>\n\n<br><br>\n(If, at any point, the <code>space</code> key does not take you to the next page, click once on the text and try again.)", "response": " ", "trial_id": "mdp_ready", "trial_type": "html-keyboard-response", "trial_index": 8, "time_elapsed": 692945, "internal_node_id": "0.0-6.0-0.0"}}, {"uniqueid": "w22592551:a86616031", "current_trial": 9, "dateTime": 1693565194728, "trialdata": {"revealed_states": [], "clicked_states": [], "num_clicks_accrued": [0, 0, 0, 0, 0, 0, 0, 0, 0, 0, 0, 0, 0], "stateRewards": ["", 2, 2, 3, -15, 23, -14, 73, -7, -32, -20, -6, 1, 1, -5, -12, 73, 6, -84, 11, -81, -57, 13, -2, -1, -4, -8, -52, -58, 49, 13, 5, -41, -41], "withholdReward": false, "trial_id": "mdp_trial_1", "block": "test", "trialIndex": 2, "score": -73, "costs": 0, "simulationMode": [null, null, null, null, null], "rewards": [1, 1, -5, 11, -81], "path": ["0", "0", "12", "13", "14", "19", "20"], "rt": [930, 35, 132, 166, 360], "actions": ["right", "right", "right", "down", "right"], "actionTimes": [5219, 5784, 6431, 7094, 7955], "queries": {"click": {"state": {"target": [], "time": []}, "edge": {"target": [], "time": []}}, "mouseover": {"state": {"target": [], "time": []}, "edge": {"target": [], "time": []}}, "mouseout": {"state": {"target": ["0"], "time": [10891]}, "edge": {"target": [], "time": []}}}, "displayed_time": "18.30", "trialTime": 21835, "trial_type": "mouselab-mdp", "trial_index": 9, "time_elapsed": 715302, "internal_node_id": "0.0-6.0-1.0-0.0"}}, {"uniqueid": "w22592551:a86616031", "current_trial": 10, "dateTime": 1693565216313, "trialdata": {"revealed_states": [], "clicked_states": ["27"], "num_clicks_accrued": [0, 0, 0, 0, 0, 0, 0, 0, 0, 0, 0, 0, 0], "stateRewards": ["", 1, -1, 4, 5, -32, 18, 20, 6, -88, -74, 9, -2, 1, -2, -14, 34, -77, -38, -1, 80, -36, 73, 2, 3, -8, 10, -48, -73, -71, -11, -22, 20, 54], "withholdReward": false, "trial_id": "mdp_trial_2", "block": "test", "trialIndex": 3, "score": 37.85, "costs": -2.15, "simulationMode": [null, null, null, null, null], "rewards": [2, 3, -8, -11, 54], "path": ["0", "0", "23", "24", "25", "30", "33"], "rt": [4142, 58, 135, 319, 1034], "actions": ["left", "left", "left", "down", "left"], "actionTimes": [8029, 8611, 9287, 10121, 11671], "queries": {"click": {"state": {"target": ["27"], "time": [5072]}, "edge": {"target": [], "time": []}}, "mouseover": {"state": {"target": ["27", "24", "31"], "time": [4632, 5569, 5769]}, "edge": {"target": [], "time": []}}, "mouseout": {"state": {"target": ["21", "0", "27", "27", "24", "31", "19"], "time": [2409, 2815, 5266, 5418, 5619, 13048, 13547]}, "edge": {"target": [], "time": []}}}, "displayed_time": "17.89", "trialTime": 20896, "trial_type": "mouselab-mdp", "trial_index": 10, "time_elapsed": 736887, "internal_node_id": "0.0-6.0-1.0-1.0"}}, {"uniqueid": "w22592551:a86616031", "current_trial": 11, "dateTime": 1693565237754, "trialdata": {"revealed_states": [], "clicked_states": [], "num_clicks_accrued": [0, 0, 0, 0, 0, 0, 0, 0, 0, 0, 0, 0, 0], "stateRewards": ["", -1, 2, -2, 13, -56, -28, 10, 14, 53, -80, -29, 1, -3, -3, -14, 14, 9, -40, -9, 18, 18, 48, 1, 1, 1, -9, 64, -39, -9, 7, -52, -78, 7], "withholdReward": false, "trial_id": "mdp_trial_3", "block": "test", "trialIndex": 4, "score": 22, "costs": 0, "simulationMode": [null, null, null, null, null], "rewards": [-1, 2, -2, 13, 10], "path": ["0", "0", "1", "2", "3", "4", "7"], "rt": [1442, 270, 237, 445, 203], "actions": ["up", "up", "up", "right", "down"], "actionTimes": [5938, 6730, 7508, 8449, 9157], "queries": {"click": {"state": {"target": [], "time": []}, "edge": {"target": [], "time": []}}, "mouseover": {"state": {"target": [], "time": []}, "edge": {"target": [], "time": []}}, "mouseout": {"state": {"target": ["0", "0", "14"], "time": [3751, 10349, 10386]}, "edge": {"target": [], "time": []}}}, "displayed_time": "18.50", "trialTime": 20906, "trial_type": "mouselab-mdp", "trial_index": 11, "time_elapsed": 758328, "internal_node_id": "0.0-6.0-1.0-2.0"}}, {"uniqueid": "w22592551:a86616031", "current_trial": 12, "dateTime": 1693565264798, "trialdata": {"revealed_states": [], "clicked_states": [], "num_clicks_accrued": [0, 0, 0, 0, 0, 0, 0, 0, 0, 0, 0, 0, 0], "stateRewards": ["", 2, -3, -5, 5, 11, -9, -33, 6, 67, 6, -30, -1, -2, -6, 13, 55, 13, 72, -14, 75, 21, -66, -2, -4, 6, 15, -1, -35, 60, 2, 51, -73, 12], "withholdReward": false, "trial_id": "mdp_trial_4", "block": "test", "trialIndex": 5, "score": 67, "costs": 0, "simulationMode": [null, null, null, null, null], "rewards": [2, -3, -5, 6, 67], "path": ["0", "0", "1", "2", "3", "8", "9"], "rt": [1034, 584, 166, 623, 1801], "actions": ["up", "up", "up", "left", "up"], "actionTimes": [4561, 5671, 6352, 7492, 9803], "queries": {"click": {"state": {"target": [], "time": []}, "edge": {"target": [], "time": []}}, "mouseover": {"state": {"target": [], "time": []}, "edge": {"target": [], "time": []}}, "mouseout": {"state": {"target": ["0"], "time": [24064]}, "edge": {"target": [], "time": []}}}, "displayed_time": "17.54", "trialTime": 26435, "trial_type": "mouselab-mdp", "trial_index": 12, "time_elapsed": 785372, "internal_node_id": "0.0-6.0-1.0-3.0"}}, {"uniqueid": "w22592551:a86616031", "current_trial": 13, "dateTime": 1693565285110, "trialdata": {"revealed_states": [], "clicked_states": [], "num_clicks_accrued": [0, 0, 0, 0, 0, 0, 0, 0, 0, 0, 0, 0, 0], "stateRewards": ["", 2, -1, 8, -2, -16, 69, -39, -7, -13, -27, -86, 2, -2, 2, 13, -34, -16, -20, -5, 19, 81, 32, -2, -1, 2, -14, 20, 80, 58, 4, 70, 12, 73], "withholdReward": false, "trial_id": "mdp_trial_5", "block": "test", "trialIndex": 6, "score": -5, "costs": 0, "simulationMode": [null, null, null, null, null], "rewards": [2, -2, 2, 13, -20], "path": ["0", "0", "12", "13", "14", "15", "18"], "rt": [1991, 102, 145, 276, 534], "actions": ["right", "right", "right", "up", "left"], "actionTimes": [4468, 5070, 5712, 6491, 7551], "queries": {"click": {"state": {"target": [], "time": []}, "edge": {"target": [], "time": []}}, "mouseover": {"state": {"target": [], "time": []}, "edge": {"target": [], "time": []}}, "mouseout": {"state": {"target": ["0", "0", "13", "14"], "time": [620, 17795, 17882, 17911]}, "edge": {"target": [], "time": []}}}, "displayed_time": "16.48", "trialTime": 19495, "trial_type": "mouselab-mdp", "trial_index": 13, "time_elapsed": 805684, "internal_node_id": "0.0-6.0-1.0-4.0"}}, {"uniqueid": "w22592551:a86616031", "current_trial": 14, "dateTime": 1693565311187, "trialdata": {"revealed_states": [], "clicked_states": [], "num_clicks_accrued": [0, 0, 0, 0, 0, 0, 0, 0, 0, 0, 0, 0, 0], "stateRewards": ["", 2, -1, 4, -9, -43, 7, 54, -13, 38, -40, -83, -1, 2, -8, -10, 34, -33, 11, -14, -79, 65, 26, 1, 2, 4, 10, 21, 1, 86, 4, -53, 28, -29], "withholdReward": false, "trial_id": "mdp_trial_6", "block": "test", "trialIndex": 7, "score": 3, "costs": 0, "simulationMode": [null, null, null, null, null], "rewards": [2, -1, 4, -9, 7], "path": ["0", "0", "1", "2", "3", "4", "6"], "rt": [961, 444, 188, 478, 585], "actions": ["up", "up", "up", "right", "right"], "actionTimes": [3824, 4766, 5460, 6450, 7556], "queries": {"click": {"state": {"target": [], "time": []}, "edge": {"target": [], "time": []}}, "mouseover": {"state": {"target": [], "time": []}, "edge": {"target": [], "time": []}}, "mouseout": {"state": {"target": [], "time": []}, "edge": {"target": [], "time": []}}}, "displayed_time": "16.87", "trialTime": 25329, "trial_type": "mouselab-mdp", "trial_index": 14, "time_elapsed": 831761, "internal_node_id": "0.0-6.0-1.0-5.0"}}, {"uniqueid": "w22592551:a86616031", "current_trial": 15, "dateTime": 1693565330891, "trialdata": {"revealed_states": [], "clicked_states": [], "num_clicks_accrued": [0, 0, 0, 0, 0, 0, 0, 0, 0, 0, 0, 0, 0], "stateRewards": ["", 1, -3, -1, 9, -34, -40, 22, -7, 45, 53, -11, 2, 4, 5, 15, 21, 37, -49, -3, 80, -28, -34, 1, -3, 1, 1, -40, -6, -5, -16, -85, -86, 59], "withholdReward": false, "trial_id": "mdp_trial_7", "block": "test", "trialIndex": 8, "score": 42, "costs": 0, "simulationMode": [null, null, null, null, null], "rewards": [1, -3, 1, -16, 59], "path": ["0", "0", "23", "24", "25", "30", "33"], "rt": [1177, 116, 131, 177, 243], "actions": ["left", "left", "left", "down", "left"], "actionTimes": [3662, 4303, 4951, 5631, 6387], "queries": {"click": {"state": {"target": [], "time": []}, "edge": {"target": [], "time": []}}, "mouseover": {"state": {"target": [], "time": []}, "edge": {"target": [], "time": []}}, "mouseout": {"state": {"target": [], "time": []}, "edge": {"target": [], "time": []}}}, "displayed_time": "16.50", "trialTime": 18983, "trial_type": "mouselab-mdp", "trial_index": 15, "time_elapsed": 851465, "internal_node_id": "0.0-6.0-1.0-6.0"}}, {"uniqueid": "w22592551:a86616031", "current_trial": 16, "dateTime": 1693565349481, "trialdata": {"revealed_states": [], "clicked_states": [], "num_clicks_accrued": [0, 0, 0, 0, 0, 0, 0, 0, 0, 0, 0, 0, 0], "stateRewards": ["", 1, 2, 8, -2, 23, -69, -18, -16, 54, -21, 71, -1, -4, 7, 11, 43, -6, 88, 6, -55, 72, 43, 1, -3, -2, -1, 68, -31, -54, 4, -8, 25, -2], "withholdReward": false, "trial_id": "mdp_trial_8", "block": "test", "trialIndex": 9, "score": -47, "costs": 0, "simulationMode": [null, null, null, null, null], "rewards": [-1, -4, 7, 6, -55], "path": ["0", "0", "12", "13", "14", "19", "20"], "rt": [856, 682, 87, 203, 926], "actions": ["right", "right", "right", "down", "right"], "actionTimes": [3321, 4524, 5121, 5836, 7260], "queries": {"click": {"state": {"target": [], "time": []}, "edge": {"target": [], "time": []}}, "mouseover": {"state": {"target": [], "time": []}, "edge": {"target": [], "time": []}}, "mouseout": {"state": {"target": [], "time": []}, "edge": {"target": [], "time": []}}}, "displayed_time": "16.47", "trialTime": 17854, "trial_type": "mouselab-mdp", "trial_index": 16, "time_elapsed": 870055, "internal_node_id": "0.0-6.0-1.0-7.0"}}, {"uniqueid": "w22592551:a86616031", "current_trial": 17, "dateTime": 1693565369000, "trialdata": {"revealed_states": [], "clicked_states": [], "num_clicks_accrued": [0, 0, 0, 0, 0, 0, 0, 0, 0, 0, 0, 0, 0], "stateRewards": ["", 1, 1, -5, 10, -31, 73, 14, -8, -23, 63, -70, -1, 2, 8, 7, 25, -59, 27, -10, -40, -71, -15, -2, 3, -8, -5, -19, 77, -34, 7, 67, 63, 19], "withholdReward": false, "trial_id": "mdp_trial_9", "block": "test", "trialIndex": 10, "score": 52, "costs": 0, "simulationMode": [null, null, null, null, null], "rewards": [1, 1, -5, -8, 63], "path": ["0", "0", "1", "2", "3", "8", "10"], "rt": [959, 176, 274, 201, 583], "actions": ["up", "up", "up", "left", "down"], "actionTimes": [4180, 4898, 5683, 6392, 7474], "queries": {"click": {"state": {"target": [], "time": []}, "edge": {"target": [], "time": []}}, "mouseover": {"state": {"target": [], "time": []}, "edge": {"target": [], "time": []}}, "mouseout": {"state": {"target": [], "time": []}, "edge": {"target": [], "time": []}}}, "displayed_time": "17.23", "trialTime": 18831, "trial_type": "mouselab-mdp", "trial_index": 17, "time_elapsed": 889574, "internal_node_id": "0.0-6.0-1.0-8.0"}}, {"uniqueid": "w22592551:a86616031", "current_trial": 18, "dateTime": 1693565386512, "trialdata": {"revealed_states": [], "clicked_states": [], "num_clicks_accrued": [0, 0, 0, 0, 0, 0, 0, 0, 0, 0, 0, 0, 0], "stateRewards": ["", 2, 4, 4, -8, -36, -33, 38, 16, -51, 57, 57, 1, 3, 4, -6, 45, 68, 87, 1, 63, 24, -55, -2, 2, -6, -13, -63, -50, 8, 2, 80, 6, 60], "withholdReward": false, "trial_id": "mdp_trial_10", "block": "test", "trialIndex": 11, "score": 72, "costs": 0, "simulationMode": [null, null, null, null, null], "rewards": [1, 3, 4, 1, 63], "path": ["0", "0", "12", "13", "14", "19", "20"], "rt": [740, 75, 143, 493, 144], "actions": ["right", "right", "right", "down", "right"], "actionTimes": [2528, 3113, 4533, 5529, 6196], "queries": {"click": {"state": {"target": [], "time": []}, "edge": {"target": [], "time": []}}, "mouseover": {"state": {"target": [], "time": []}, "edge": {"target": [], "time": []}}, "mouseout": {"state": {"target": [], "time": []}, "edge": {"target": [], "time": []}}}, "displayed_time": "15.80", "trialTime": 16656, "trial_type": "mouselab-mdp", "trial_index": 18, "time_elapsed": 907086, "internal_node_id": "0.0-6.0-1.0-9.0"}}, {"uniqueid": "w22592551:a86616031", "current_trial": 19, "dateTime": 1693565405013, "trialdata": {"revealed_states": [], "clicked_states": [], "num_clicks_accrued": [0, 0, 0, 0, 0, 0, 0, 0, 0, 0, 0, 0, 0], "stateRewards": ["", 1, 1, -6, -2, 7, 77, 3, 16, -16, 66, 31, -1, 3, -8, -6, 33, -50, -48, 7, -60, -66, 36, 2, -3, 3, -7, -12, -61, -79, -4, 8, 74, -70], "withholdReward": false, "trial_id": "mdp_trial_11", "block": "test", "trialIndex": 12, "score": 1, "costs": 0, "simulationMode": [null, null, null, null, null], "rewards": [1, 1, -6, -2, 7], "path": ["0", "0", "1", "2", "3", "4", "5"], "rt": [1254, 103, 170, 334, 9], "actions": ["up", "up", "up", "right", "up"], "actionTimes": [3856, 4468, 5150, 5997, 6505], "queries": {"click": {"state": {"target": [], "time": []}, "edge": {"target": [], "time": []}}, "mouseover": {"state": {"target": [], "time": []}, "edge": {"target": [], "time": []}}, "mouseout": {"state": {"target": [], "time": []}, "edge": {"target": [], "time": []}}}, "displayed_time": "16.61", "trialTime": 17702, "trial_type": "mouselab-mdp", "trial_index": 19, "time_elapsed": 925588, "internal_node_id": "0.0-6.0-1.0-10.0"}}, {"uniqueid": "w22592551:a86616031", "current_trial": 20, "dateTime": 1693565423691, "trialdata": {"revealed_states": [], "clicked_states": [], "num_clicks_accrued": [0, 0, 0, 0, 0, 0, 0, 0, 0, 0, 0, 0, 0], "stateRewards": ["", 2, 4, 4, 9, -88, -10, 44, 16, -54, 64, 78, 1, 2, 5, 16, 80, 36, 7, -4, 9, -47, -70, -1, -3, 6, -16, 11, 80, 28, 8, -1, 34, -17], "withholdReward": false, "trial_id": "mdp_trial_12", "block": "test", "trialIndex": 13, "score": 104, "costs": 0, "simulationMode": [null, null, null, null, null], "rewards": [1, 2, 5, 16, 80], "path": ["0", "0", "12", "13", "14", "15", "16"], "rt": [1195, 231, 195, 1133, 184], "actions": ["right", "right", "right", "up", "up"], "actionTimes": [3325, 4060, 4773, 6445, 7129], "queries": {"click": {"state": {"target": [], "time": []}, "edge": {"target": [], "time": []}}, "mouseover": {"state": {"target": [], "time": []}, "edge": {"target": [], "time": []}}, "mouseout": {"state": {"target": [], "time": []}, "edge": {"target": [], "time": []}}}, "displayed_time": "16.14", "trialTime": 17829, "trial_type": "mouselab-mdp", "trial_index": 20, "time_elapsed": 944265, "internal_node_id": "0.0-6.0-1.0-11.0"}}, {"uniqueid": "w22592551:a86616031", "current_trial": 21, "dateTime": 1693565441680, "trialdata": {"revealed_states": [], "clicked_states": [], "num_clicks_accrued": [0, 0, 0, 0, 0, 0, 0, 0, 0, 0, 0, 0, 0], "stateRewards": ["", -2, 3, 8, -9, 59, 41, -50, -1, 82, 66, 33, 2, -2, 7, 8, 1, -38, 12, -16, 24, -37, 67, 1, 4, -2, 5, 35, -83, 28, 8, -27, 69, -64], "withholdReward": false, "trial_id": "mdp_trial_13", "block": "test", "trialIndex": 14, "score": -50, "costs": 0, "simulationMode": [null, null, null, null, null], "rewards": [-2, 3, 8, -9, -50], "path": ["0", "0", "1", "2", "3", "4", "7"], "rt": [1229, 296, 282, 408, 299], "actions": ["up", "up", "up", "right", "down"], "actionTimes": [3429, 4233, 5016, 5943, 6767], "queries": {"click": {"state": {"target": [], "time": []}, "edge": {"target": [], "time": []}}, "mouseover": {"state": {"target": [], "time": []}, "edge": {"target": [], "time": []}}, "mouseout": {"state": {"target": [], "time": []}, "edge": {"target": [], "time": []}}}, "displayed_time": "16.20", "trialTime": 17026, "trial_type": "mouselab-mdp", "trial_index": 21, "time_elapsed": 962254, "internal_node_id": "0.0-6.0-1.0-12.0"}}, {"uniqueid": "w22592551:a86616031", "current_trial": 22, "dateTime": 1693565458764, "trialdata": {"revealed_states": [], "clicked_states": [], "num_clicks_accrued": [0, 0, 0, 0, 0, 0, 0, 0, 0, 0, 0, 0, 0], "stateRewards": ["", -1, -2, 4, 9, 10, -75, 39, 16, -43, 88, -19, -1, 1, 2, 4, -31, 10, 73, 12, 41, -64, -81, -2, 2, -6, 1, -81, -1, -26, 3, -59, -3, -20], "withholdReward": false, "trial_id": "mdp_trial_14", "block": "test", "trialIndex": 15, "score": -23, "costs": 0, "simulationMode": [null, null, null, null, null], "rewards": [-2, 2, -6, 3, -20], "path": ["0", "0", "23", "24", "25", "30", "33"], "rt": [1511, 131, 202, 660, 874], "actions": ["left", "left", "left", "down", "left"], "actionTimes": [2695, 3353, 4055, 5251, 6662], "queries": {"click": {"state": {"target": [], "time": []}, "edge": {"target": [], "time": []}}, "mouseover": {"state": {"target": [], "time": []}, "edge": {"target": [], "time": []}}, "mouseout": {"state": {"target": [], "time": []}, "edge": {"target": [], "time": []}}}, "displayed_time": "15.19", "trialTime": 16148, "trial_type": "mouselab-mdp", "trial_index": 22, "time_elapsed": 979338, "internal_node_id": "0.0-6.0-1.0-13.0"}}, {"uniqueid": "w22592551:a86616031", "current_trial": 23, "dateTime": 1693565476991, "trialdata": {"revealed_states": [], "clicked_states": [], "num_clicks_accrued": [0, 0, 0, 0, 0, 0, 0, 0, 0, 0, 0, 0, 0], "stateRewards": ["", -2, -1, -1, 5, -54, -87, 35, 2, -8, 20, -22, 1, 3, 6, 13, -75, -32, -55, -3, 56, 62, -22, -1, -4, -1, -7, -51, 84, 70, 7, -15, 5, 55], "withholdReward": false, "trial_id": "mdp_trial_15", "block": "test", "trialIndex": 16, "score": -15, "costs": 0, "simulationMode": [null, null, null, null, null], "rewards": [1, 3, 6, -3, -22], "path": ["0", "0", "12", "13", "14", "19", "22"], "rt": [2166, 35, 655, 453, 146], "actions": ["right", "right", "right", "down", "left"], "actionTimes": [4619, 5180, 6333, 7303, 7957], "queries": {"click": {"state": {"target": [], "time": []}, "edge": {"target": [], "time": []}}, "mouseover": {"state": {"target": [], "time": []}, "edge": {"target": [], "time": []}}, "mouseout": {"state": {"target": [], "time": []}, "edge": {"target": [], "time": []}}}, "displayed_time": "16.47", "trialTime": 17250, "trial_type": "mouselab-mdp", "trial_index": 23, "time_elapsed": 997565, "internal_node_id": "0.0-6.0-1.0-14.0"}}, {"uniqueid": "w22592551:a86616031", "current_trial": 24, "dateTime": 1693565495220, "trialdata": {"revealed_states": [], "clicked_states": ["28"], "num_clicks_accrued": [0, 0, 0, 0, 0, 0, 0, 0, 0, 0, 0, 0, 0], "stateRewards": ["", -1, 2, -7, -12, -62, 12, -13, 5, 77, -71, 83, 1, -4, 7, 15, -42, -87, -4, 5, -25, 44, 88, -1, 4, -5, -8, 14, 51, 8, -5, 83, -24, -19], "withholdReward": false, "trial_id": "mdp_trial_16", "block": "test", "trialIndex": 17, "score": -28.15, "costs": -2.15, "simulationMode": [null, null, null, null, null], "rewards": [-1, 4, -5, -5, -19], "path": ["0", "0", "23", "24", "25", "30", "33"], "rt": [4007, 333, 281, 492, 481], "actions": ["left", "left", "left", "down", "left"], "actionTimes": [6056, 6898, 7735, 8722, 9711], "queries": {"click": {"state": {"target": ["28"], "time": [2984]}, "edge": {"target": [], "time": []}}, "mouseover": {"state": {"target": ["28", "25", "24", "24"], "time": [2623, 3478, 4368, 4778]}, "edge": {"target": [], "time": []}}, "mouseout": {"state": {"target": ["0", "28", "28", "25", "24", "24"], "time": [2522, 3168, 3383, 4348, 4390, 4944]}, "edge": {"target": [], "time": []}}}, "displayed_time": "16.05", "trialTime": 17279, "trial_type": "mouselab-mdp", "trial_index": 24, "time_elapsed": 1015794, "internal_node_id": "0.0-6.0-1.0-15.0"}}, {"uniqueid": "w22592551:a86616031", "current_trial": 25, "dateTime": 1693565514914, "trialdata": {"revealed_states": [], "clicked_states": [], "num_clicks_accrued": [0, 0, 0, 0, 0, 0, 0, 0, 0, 0, 0, 0, 0], "stateRewards": ["", -2, 2, -2, -7, -50, -62, -45, 7, 36, -24, -72, -1, -1, 8, -1, -67, 20, -52, 2, 35, -50, 80, -1, 1, 6, -6, -70, 6, 88, 8, -47, 74, -19], "withholdReward": false, "trial_id": "mdp_trial_17", "block": "test", "trialIndex": 18, "score": -19, "costs": 0, "simulationMode": [null, null, null, null, null], "rewards": [-2, 2, -2, 7, -24], "path": ["0", "0", "1", "2", "3", "8", "10"], "rt": [588, 91, 521, 12, 281], "actions": ["up", "up", "up", "left", "down"], "actionTimes": [4537, 5150, 6196, 6713, 7523], "queries": {"click": {"state": {"target": [], "time": []}, "edge": {"target": [], "time": []}}, "mouseover": {"state": {"target": [], "time": []}, "edge": {"target": [], "time": []}}, "mouseout": {"state": {"target": ["24", "23"], "time": [2430, 2493]}, "edge": {"target": [], "time": []}}}, "displayed_time": "17.96", "trialTime": 18703, "trial_type": "mouselab-mdp", "trial_index": 25, "time_elapsed": 1035488, "internal_node_id": "0.0-6.0-1.0-16.0"}}, {"uniqueid": "w22592551:a86616031", "current_trial": 26, "dateTime": 1693565533929, "trialdata": {"revealed_states": [], "clicked_states": [], "num_clicks_accrued": [0, 0, 0, 0, 0, 0, 0, 0, 0, 0, 0, 0, 0], "stateRewards": ["", -2, 4, 3, 5, -61, 4, 30, 1, -47, 83, 10, 1, 4, 7, -14, 19, -74, -83, 6, -2, -2, -65, -1, -2, 4, -11, 12, -1, -68, 11, -38, -28, 66], "withholdReward": false, "trial_id": "mdp_trial_18", "block": "test", "trialIndex": 19, "score": -76, "costs": 0, "simulationMode": [null, null, null, null, null], "rewards": [1, 4, 7, -14, -74], "path": ["0", "0", "12", "13", "14", "15", "17"], "rt": [861, 455, 509, 216, 766], "actions": ["right", "right", "right", "up", "right"], "actionTimes": [2760, 3726, 4761, 5528, 6820], "queries": {"click": {"state": {"target": [], "time": []}, "edge": {"target": [], "time": []}}, "mouseover": {"state": {"target": [], "time": []}, "edge": {"target": [], "time": []}}, "mouseout": {"state": {"target": [], "time": []}, "edge": {"target": [], "time": []}}}, "displayed_time": "15.90", "trialTime": 18064, "trial_type": "mouselab-mdp", "trial_index": 26, "time_elapsed": 1054503, "internal_node_id": "0.0-6.0-1.0-17.0"}}, {"uniqueid": "w22592551:a86616031", "current_trial": 27, "dateTime": 1693565551191, "trialdata": {"revealed_states": [], "clicked_states": [], "num_clicks_accrued": [0, 0, 0, 0, 0, 0, 0, 0, 0, 0, 0, 0, 0], "stateRewards": ["", -1, -4, -6, -15, 21, -67, -63, 9, 51, 69, -14, -1, 3, 8, -8, 39, 72, 63, 15, 19, 47, 15, 1, 4, 5, 16, -18, 34, 35, -14, -80, 40, 1], "withholdReward": false, "trial_id": "mdp_trial_19", "block": "test", "trialIndex": 20, "score": 40, "costs": 0, "simulationMode": [null, null, null, null, null], "rewards": [-1, 3, 8, 15, 15], "path": ["0", "0", "12", "13", "14", "19", "22"], "rt": [780, 131, 575, 35, 21], "actions": ["right", "right", "right", "down", "left"], "actionTimes": [2030, 2672, 3764, 4308, 4842], "queries": {"click": {"state": {"target": [], "time": []}, "edge": {"target": [], "time": []}}, "mouseover": {"state": {"target": [], "time": []}, "edge": {"target": [], "time": []}}, "mouseout": {"state": {"target": [], "time": []}, "edge": {"target": [], "time": []}}}, "displayed_time": "15.26", "trialTime": 16094, "trial_type": "mouselab-mdp", "trial_index": 27, "time_elapsed": 1071765, "internal_node_id": "0.0-6.0-1.0-18.0"}}, {"uniqueid": "w22592551:a86616031", "current_trial": 28, "dateTime": 1693565572664, "trialdata": {"revealed_states": [], "clicked_states": [], "num_clicks_accrued": [0, 0, 0, 0, 0, 0, 0, 0, 0, 0, 0, 0, 0], "stateRewards": ["", 1, 1, -3, 2, 22, -25, -11, -5, 50, 49, 3, 1, -1, 8, 14, -85, -30, 57, -6, -39, -16, 59, -2, -1, 5, 5, 59, -16, 8, 4, 67, 56, -9], "withholdReward": false, "trial_id": "mdp_trial_20", "block": "test", "trialIndex": 21, "score": -10, "costs": 0, "simulationMode": [null, null, null, null, null], "rewards": [1, 1, -3, 2, -11], "path": ["0", "0", "1", "2", "3", "4", "7"], "rt": [1030, 429, 206, 426, 129], "actions": ["up", "up", "up", "right", "down"], "actionTimes": [2248, 3198, 3925, 4878, 5530], "queries": {"click": {"state": {"target": [], "time": []}, "edge": {"target": [], "time": []}}, "mouseover": {"state": {"target": [], "time": []}, "edge": {"target": [], "time": []}}, "mouseout": {"state": {"target": [], "time": []}, "edge": {"target": [], "time": []}}}, "displayed_time": "15.22", "trialTime": 20213, "trial_type": "mouselab-mdp", "trial_index": 28, "time_elapsed": 1093238, "internal_node_id": "0.0-6.0-1.0-19.0"}}, {"uniqueid": "w22592551:a86616031", "current_trial": 29, "dateTime": 1693565589623, "trialdata": {"revealed_states": [], "clicked_states": [], "num_clicks_accrued": [0, 0, 0, 0, 0, 0, 0, 0, 0, 0, 0, 0, 0], "stateRewards": ["", 1, -4, -4, 8, 1, -79, 68, -10, -79, 8, -74, -1, -3, -6, 14, 43, 23, 9, 5, -51, 63, 61, -2, 4, 6, -10, 69, -32, 57, 15, -80, -80, -77], "withholdReward": false, "trial_id": "mdp_trial_21", "block": "test", "trialIndex": 22, "score": -91, "costs": 0, "simulationMode": [null, null, null, null, null], "rewards": [1, -4, -4, -10, -74], "path": ["0", "0", "1", "2", "3", "8", "11"], "rt": [496, 690, 66, 201, 1334], "actions": ["up", "up", "up", "left", "left"], "actionTimes": [1762, 2954, 3623, 4364, 6214], "queries": {"click": {"state": {"target": [], "time": []}, "edge": {"target": [], "time": []}}, "mouseover": {"state": {"target": [], "time": []}, "edge": {"target": [], "time": []}}, "mouseout": {"state": {"target": [], "time": []}, "edge": {"target": [], "time": []}}}, "displayed_time": "15.27", "trialTime": 15965, "trial_type": "mouselab-mdp", "trial_index": 29, "time_elapsed": 1110197, "internal_node_id": "0.0-6.0-1.0-20.0"}}, {"uniqueid": "w22592551:a86616031", "current_trial": 30, "dateTime": 1693565608539, "trialdata": {"revealed_states": [], "clicked_states": [], "num_clicks_accrued": [0, 0, 0, 0, 0, 0, 0, 0, 0, 0, 0, 0, 0], "stateRewards": ["", -2, -1, -4, -15, -14, -67, 32, -3, -59, 63, 31, 2, -1, -7, -15, 71, -66, -27, -3, -54, -39, 72, 2, 1, 1, -13, 77, -40, 35, -9, 35, 75, 57], "withholdReward": false, "trial_id": "mdp_trial_22", "block": "test", "trialIndex": 23, "score": 26, "costs": 0, "simulationMode": [null, null, null, null, null], "rewards": [2, 1, 1, -13, 35], "path": ["0", "0", "23", "24", "25", "26", "29"], "rt": [1995, 210, 145, 896, 832], "actions": ["left", "left", "left", "up", "left"], "actionTimes": [3332, 4053, 4697, 6098, 7471], "queries": {"click": {"state": {"target": [], "time": []}, "edge": {"target": [], "time": []}}, "mouseover": {"state": {"target": [], "time": []}, "edge": {"target": [], "time": []}}, "mouseout": {"state": {"target": [], "time": []}, "edge": {"target": [], "time": []}}}, "displayed_time": "15.34", "trialTime": 17726, "trial_type": "mouselab-mdp", "trial_index": 30, "time_elapsed": 1129114, "internal_node_id": "0.0-6.0-1.0-21.0"}}, {"uniqueid": "w22592551:a86616031", "current_trial": 31, "dateTime": 1693565646336, "trialdata": {"revealed_states": [], "clicked_states": [], "num_clicks_accrued": [0, 0, 0, 0, 0, 0, 0, 0, 0, 0, 0, 0, 0], "stateRewards": ["", -2, -3, 8, 14, -73, 73, 84, -12, -2, -50, -17, 2, 1, -2, -9, -44, -27, -33, 16, -63, -47, -66, -2, 1, 4, -5, -33, -11, 50, 9, 38, -79, 31], "withholdReward": false, "trial_id": "mdp_trial_23", "block": "test", "trialIndex": 24, "score": -30, "costs": 0, "simulationMode": [null, null, null, null, null], "rewards": [2, 1, -2, 16, -47], "path": ["0", "0", "12", "13", "14", "19", "21"], "rt": [1554, 82, 81, 154, 1077], "actions": ["right", "right", "right", "down", "down"], "actionTimes": [3046, 3644, 4242, 4899, 6487], "queries": {"click": {"state": {"target": [], "time": []}, "edge": {"target": [], "time": []}}, "mouseover": {"state": {"target": [], "time": []}, "edge": {"target": [], "time": []}}, "mouseout": {"state": {"target": [], "time": []}, "edge": {"target": [], "time": []}}}, "displayed_time": "15.50", "trialTime": 36682, "trial_type": "mouselab-mdp", "trial_index": 31, "time_elapsed": 1166910, "internal_node_id": "0.0-6.0-1.0-22.0"}}, {"uniqueid": "w22592551:a86616031", "current_trial": 32, "dateTime": 1693565663555, "trialdata": {"revealed_states": [], "clicked_states": [], "num_clicks_accrued": [0, 0, 0, 0, 0, 0, 0, 0, 0, 0, 0, 0, 0], "stateRewards": ["", -1, -3, -7, -4, -85, -70, 79, 8, 84, -66, 42, 2, -2, -3, -16, -54, -66, 68, -3, 21, -14, 7, -2, -1, -3, -8, 75, 80, 86, -7, -84, 73, -16], "withholdReward": false, "trial_id": "mdp_trial_24", "block": "test", "trialIndex": 25, "score": 64, "costs": 0, "simulationMode": [null, null, null, null, null], "rewards": [-1, -3, -7, -4, 79], "path": ["0", "0", "1", "2", "3", "4", "7"], "rt": [787, 92, 26, 527, 102], "actions": ["up", "up", "up", "right", "down"], "actionTimes": [2069, 2658, 3207, 4242, 4866], "queries": {"click": {"state": {"target": [], "time": []}, "edge": {"target": [], "time": []}}, "mouseover": {"state": {"target": [], "time": []}, "edge": {"target": [], "time": []}}, "mouseout": {"state": {"target": [], "time": []}, "edge": {"target": [], "time": []}}}, "displayed_time": "15.29", "trialTime": 16057, "trial_type": "mouselab-mdp", "trial_index": 32, "time_elapsed": 1184129, "internal_node_id": "0.0-6.0-1.0-23.0"}}, {"uniqueid": "w22592551:a86616031", "current_trial": 33, "dateTime": 1693565681852, "trialdata": {"revealed_states": [], "clicked_states": [], "num_clicks_accrued": [0, 0, 0, 0, 0, 0, 0, 0, 0, 0, 0, 0, 0], "stateRewards": ["", -2, -4, -8, 8, 63, -50, -19, -7, -17, -31, 31, 1, 3, -5, 12, -35, -63, -29, -4, -17, -75, -79, -2, -3, -2, 8, -3, -85, 10, -2, -82, -82, 56], "withholdReward": false, "trial_id": "mdp_trial_25", "block": "test", "trialIndex": 26, "score": -25, "costs": 0, "simulationMode": [null, null, null, null, null], "rewards": [-2, -4, -8, 8, -19], "path": ["0", "0", "1", "2", "3", "4", "7"], "rt": [829, 193, 142, 335, 5], "actions": ["up", "up", "up", "right", "down"], "actionTimes": [3126, 3824, 4512, 5350, 5869], "queries": {"click": {"state": {"target": [], "time": []}, "edge": {"target": [], "time": []}}, "mouseover": {"state": {"target": [], "time": []}, "edge": {"target": [], "time": []}}, "mouseout": {"state": {"target": [], "time": []}, "edge": {"target": [], "time": []}}}, "displayed_time": "16.30", "trialTime": 17137, "trial_type": "mouselab-mdp", "trial_index": 33, "time_elapsed": 1202426, "internal_node_id": "0.0-6.0-1.0-24.0"}}, {"uniqueid": "w22592551:a86616031", "current_trial": 34, "dateTime": 1693565699192, "trialdata": {"revealed_states": [], "clicked_states": [], "num_clicks_accrued": [0, 0, 0, 0, 0, 0, 0, 0, 0, 0, 0, 0, 0], "stateRewards": ["", 2, -3, -4, -1, 25, -16, 16, 10, -71, -20, -55, 1, 3, -4, -9, 1, 32, 11, -6, 32, -50, -41, -1, 4, 4, -8, 7, -81, 70, 2, -52, 45, -10], "withholdReward": false, "trial_id": "mdp_trial_26", "block": "test", "trialIndex": 27, "score": -66, "costs": 0, "simulationMode": [null, null, null, null, null], "rewards": [2, -3, -4, 10, -71], "path": ["0", "0", "1", "2", "3", "8", "9"], "rt": [502, 130, 90, 87, 540], "actions": ["up", "up", "up", "left", "up"], "actionTimes": [1993, 2629, 3265, 3868, 4915], "queries": {"click": {"state": {"target": [], "time": []}, "edge": {"target": [], "time": []}}, "mouseover": {"state": {"target": [], "time": []}, "edge": {"target": [], "time": []}}, "mouseout": {"state": {"target": [], "time": []}, "edge": {"target": [], "time": []}}}, "displayed_time": "15.50", "trialTime": 16130, "trial_type": "mouselab-mdp", "trial_index": 34, "time_elapsed": 1219766, "internal_node_id": "0.0-6.0-1.0-25.0"}}, {"uniqueid": "w22592551:a86616031", "current_trial": 35, "dateTime": 1693565718264, "trialdata": {"revealed_states": [], "clicked_states": [], "num_clicks_accrued": [0, 0, 0, 0, 0, 0, 0, 0, 0, 0, 0, 0, 0], "stateRewards": ["", 1, 3, 1, -13, 52, -28, 67, -14, 3, 63, -70, -1, -4, 7, -11, -10, 47, -18, 6, 69, -9, -61, 2, 3, -6, 10, 63, -34, 40, -6, -79, -35, -32], "withholdReward": false, "trial_id": "mdp_trial_27", "block": "test", "trialIndex": 28, "score": -53, "costs": 0, "simulationMode": [null, null, null, null, null], "rewards": [-1, -4, 7, 6, -61], "path": ["0", "0", "12", "13", "14", "19", "22"], "rt": [1141, 352, 184, 237, 22], "actions": ["right", "right", "right", "down", "left"], "actionTimes": [3027, 3905, 4602, 5354, 5872], "queries": {"click": {"state": {"target": [], "time": []}, "edge": {"target": [], "time": []}}, "mouseover": {"state": {"target": [], "time": []}, "edge": {"target": [], "time": []}}, "mouseout": {"state": {"target": [], "time": []}, "edge": {"target": [], "time": []}}}, "displayed_time": "15.89", "trialTime": 17671, "trial_type": "mouselab-mdp", "trial_index": 35, "time_elapsed": 1238838, "internal_node_id": "0.0-6.0-1.0-26.0"}}, {"uniqueid": "w22592551:a86616031", "current_trial": 36, "dateTime": 1693565736369, "trialdata": {"revealed_states": [], "clicked_states": ["15", "13", "17"], "num_clicks_accrued": [0, 0, 0, 0, 0, 0, 0, 0, 0, 0, 0, 0, 0], "stateRewards": ["", 1, 2, 3, 16, 63, -25, 16, -4, -14, 82, -66, -1, -3, -3, -11, -14, 19, 46, 3, -34, -82, 66, -2, -3, 4, -5, -63, 77, -37, -1, -45, -41, 84], "withholdReward": false, "trial_id": "mdp_trial_28", "block": "test", "trialIndex": 29, "score": 57.95, "costs": -4.05, "simulationMode": [null, null, null, null, null, null], "rewards": [-1, -3, -3, 3, 66], "path": ["0", "0", "12", "13", "14", "19", "22"], "rt": [5856, 1268, 135, 259, 237, 140], "actions": ["right", "right", "right", "right", "down", "left"], "actionTimes": [7016, 8293, 8953, 9707, 10510, 11155], "queries": {"click": {"state": {"target": ["15", "13", "17"], "time": [2884, 3743, 5108]}, "edge": {"target": [], "time": []}}, "mouseover": {"state": {"target": ["12", "13", "15", "13", "14", "17"], "time": [1419, 1658, 2120, 3390, 4447, 4704]}, "edge": {"target": [], "time": []}}, "mouseout": {"state": {"target": ["0", "12", "13", "15", "13", "14", "17"], "time": [1376, 1606, 1740, 3334, 3954, 4564, 6464]}, "edge": {"target": [], "time": []}}}, "displayed_time": "15.17", "trialTime": 16942, "trial_type": "mouselab-mdp", "trial_index": 36, "time_elapsed": 1256943, "internal_node_id": "0.0-6.0-1.0-27.0"}}, {"uniqueid": "w22592551:a86616031", "current_trial": 37, "dateTime": 1693565759169, "trialdata": {"revealed_states": [], "clicked_states": ["26", "28"], "num_clicks_accrued": [0, 0, 0, 0, 0, 0, 0, 0, 0, 0, 0, 0, 0], "stateRewards": ["", -2, -3, -3, 9, 79, 67, 22, -15, -56, 27, -85, -2, 4, -4, -15, -20, -32, 60, 15, 71, 57, 17, 1, 2, -8, 15, -37, -81, 82, 15, 21, -3, 2], "withholdReward": false, "trial_id": "mdp_trial_29", "block": "test", "trialIndex": 30, "score": 8.3, "costs": -3.7, "simulationMode": [null, null, null, null, null, null], "rewards": [1, 2, -8, 15, 2], "path": ["0", "0", "23", "24", "25", "30", "33"], "rt": [4492, 1097, 258, 291, 454, 210], "actions": ["left", "left", "left", "left", "down", "left"], "actionTimes": [7159, 8262, 9019, 9835, 10815, 11538], "queries": {"click": {"state": {"target": ["26", "28"], "time": [4159, 4661]}, "edge": {"target": [], "time": []}}, "mouseover": {"state": {"target": ["28", "26", "28", "25"], "time": [3189, 3808, 4382, 4955]}, "edge": {"target": [], "time": []}}, "mouseout": {"state": {"target": ["14", "12", "0", "28", "26", "28", "25"], "time": [1084, 1156, 2695, 3243, 4361, 4885, 6377]}, "edge": {"target": [], "time": []}}}, "displayed_time": "16.68", "trialTime": 21538, "trial_type": "mouselab-mdp", "trial_index": 37, "time_elapsed": 1279742, "internal_node_id": "0.0-6.0-1.0-28.0"}}, {"uniqueid": "w22592551:a86616031", "current_trial": 38, "dateTime": 1693565779430, "trialdata": {"revealed_states": [], "clicked_states": ["21"], "num_clicks_accrued": [0, 0, 0, 0, 0, 0, 0, 0, 0, 0, 0, 0, 0], "stateRewards": ["", -2, -1, 3, -3, 71, -58, -21, 7, -10, -75, -37, 2, 4, -1, -12, -79, -29, -48, 3, -41, -10, -30, -1, -2, 1, -15, 13, 66, 22, -1, -42, -86, -55], "withholdReward": false, "trial_id": "mdp_trial_30", "block": "test", "trialIndex": 31, "score": -24.15, "costs": -2.15, "simulationMode": [null, null, null, null, null, null], "rewards": [2, 4, -1, 3, -30], "path": ["0", "0", "12", "13", "14", "19", "22"], "rt": [3665, 1064, 150, 286, 1339, 143], "actions": ["right", "right", "right", "right", "down", "left"], "actionTimes": [5211, 6283, 6958, 7744, 9598, 10252], "queries": {"click": {"state": {"target": ["21"], "time": [2951]}, "edge": {"target": [], "time": []}}, "mouseover": {"state": {"target": ["12", "13", "19", "21", "19", "22"], "time": [2055, 2122, 2221, 2691, 3224, 3680]}, "edge": {"target": [], "time": []}}, "mouseout": {"state": {"target": ["23", "0", "12", "13", "19", "21", "19", "22"], "time": [381, 547, 2102, 2158, 2638, 3109, 3659, 4507]}, "edge": {"target": [], "time": []}}}, "displayed_time": "15.56", "trialTime": 19031, "trial_type": "mouselab-mdp", "trial_index": 38, "time_elapsed": 1300004, "internal_node_id": "0.0-6.0-1.0-29.0"}}, {"uniqueid": "w22592551:a86616031", "current_trial": 39, "dateTime": 1693565797009, "trialdata": {"revealed_states": [], "clicked_states": [], "num_clicks_accrued": [0, 0, 0, 0, 0, 0, 0, 0, 0, 0, 0, 0, 0], "stateRewards": ["", -2, -4, -6, 12, -58, -70, -80, 2, 16, -88, -62, 1, 2, -5, 11, 77, -35, -44, -5, 18, -83, 87, 1, -3, -5, 13, -44, -21, -86, 10, -52, 8, 29], "withholdReward": false, "trial_id": "mdp_trial_31", "block": "test", "trialIndex": 32, "score": -98, "costs": 0, "simulationMode": [null, null, null, null, null], "rewards": [-2, -4, -6, 2, -88], "path": ["0", "0", "1", "2", "3", "8", "10"], "rt": [829, 88, 36, 59, 422], "actions": ["up", "up", "up", "left", "down"], "actionTimes": [2358, 2951, 3490, 4089, 5018], "queries": {"click": {"state": {"target": [], "time": []}, "edge": {"target": [], "time": []}}, "mouseover": {"state": {"target": [], "time": []}, "edge": {"target": [], "time": []}}, "mouseout": {"state": {"target": [], "time": []}, "edge": {"target": [], "time": []}}}, "displayed_time": "15.54", "trialTime": 16364, "trial_type": "mouselab-mdp", "trial_index": 39, "time_elapsed": 1317582, "internal_node_id": "0.0-6.0-1.0-30.0"}}, {"uniqueid": "w22592551:a86616031", "current_trial": 40, "dateTime": 1693565815508, "trialdata": {"revealed_states": [], "clicked_states": [], "num_clicks_accrued": [0, 0, 0, 0, 0, 0, 0, 0, 0, 0, 0, 0, 0], "stateRewards": ["", -2, 2, -1, -6, 22, 6, 6, -5, 70, -42, 65, 1, 3, 5, -6, -67, -9, 3, 14, 7, -62, -13, -2, 4, 1, 16, 42, -21, -52, -8, 32, 53, 81], "withholdReward": false, "trial_id": "mdp_trial_32", "block": "test", "trialIndex": 33, "score": 6, "costs": 0, "simulationMode": [null, null, null, null, null], "rewards": [1, 3, 5, -6, 3], "path": ["0", "0", "12", "13", "14", "15", "18"], "rt": [1331, 397, 182, 83, 637], "actions": ["right", "right", "right", "up", "left"], "actionTimes": [2905, 3816, 4544, 5152, 6290], "queries": {"click": {"state": {"target": [], "time": []}, "edge": {"target": [], "time": []}}, "mouseover": {"state": {"target": [], "time": []}, "edge": {"target": [], "time": []}}, "mouseout": {"state": {"target": [], "time": []}, "edge": {"target": [], "time": []}}}, "displayed_time": "15.58", "trialTime": 17270, "trial_type": "mouselab-mdp", "trial_index": 40, "time_elapsed": 1336081, "internal_node_id": "0.0-6.0-1.0-31.0"}}, {"uniqueid": "w22592551:a86616031", "current_trial": 41, "dateTime": 1693565845691, "trialdata": {"revealed_states": [], "clicked_states": ["26", "24", "31"], "num_clicks_accrued": [0, 0, 0, 0, 0, 0, 0, 0, 0, 0, 0, 0, 0], "stateRewards": ["", 1, 1, 4, 11, 83, -66, 18, -16, -23, 5, 25, 1, -3, 1, -12, 18, 24, -86, -11, -64, 36, 40, 2, 1, -6, 13, 55, 29, 72, -2, 81, -72, -41], "withholdReward": false, "trial_id": "mdp_trial_33", "block": "test", "trialIndex": 34, "score": -9.05, "costs": -4.05, "simulationMode": [null, null, null, null, null, null], "rewards": [1, 1, 4, -16, 5], "path": ["0", "0", "1", "2", "3", "8", "10"], "rt": [5364, 3153, 242, 154, 455, 268], "actions": ["left", "up", "up", "up", "left", "down"], "actionTimes": [6764, 9926, 10710, 11384, 12336, 13098], "queries": {"click": {"state": {"target": ["26", "24", "31"], "time": [3414, 4031, 4785]}, "edge": {"target": [], "time": []}}, "mouseover": {"state": {"target": ["26", "24", "31", "30"], "time": [3055, 3764, 4541, 5475]}, "edge": {"target": [], "time": []}}, "mouseout": {"state": {"target": ["0", "26", "24", "31"], "time": [2592, 3698, 4460, 4996]}, "edge": {"target": [], "time": []}}}, "displayed_time": "15.40", "trialTime": 28949, "trial_type": "mouselab-mdp", "trial_index": 41, "time_elapsed": 1366265, "internal_node_id": "0.0-6.0-1.0-32.0"}}, {"uniqueid": "w22592551:a86616031", "current_trial": 42, "dateTime": 1693565865178, "trialdata": {"revealed_states": [], "clicked_states": ["12", "13", "14"], "num_clicks_accrued": [0, 0, 0, 0, 0, 0, 0, 0, 0, 0, 0, 0, 0], "stateRewards": ["", 1, 4, -4, 14, 35, 51, 19, -13, 54, 78, -74, -2, -1, -3, 13, -11, -42, -73, -15, -24, -3, -69, 2, -1, 5, 16, -27, 73, 58, 9, -60, 5, -60], "withholdReward": false, "trial_id": "mdp_trial_34", "block": "test", "trialIndex": 35, "score": 32.95, "costs": -1.0499999999999998, "simulationMode": [null, null, null, null, null], "rewards": [1, 4, -4, 14, 19], "path": ["0", "0", "1", "2", "3", "4", "7"], "rt": [4994, 270, 429, 157, 105], "actions": ["up", "up", "up", "right", "down"], "actionTimes": [7622, 8408, 9332, 9996, 10624], "queries": {"click": {"state": {"target": ["12", "13", "14"], "time": [3500, 3970, 4825]}, "edge": {"target": [], "time": []}}, "mouseover": {"state": {"target": ["0", "12", "13", "14", "19"], "time": [2766, 3239, 3790, 4507, 5968]}, "edge": {"target": [], "time": []}}, "mouseout": {"state": {"target": ["30", "23", "0", "0", "0", "12", "13", "14", "19"], "time": [937, 1133, 1423, 1578, 3198, 3719, 4318, 5171, 6028]}, "edge": {"target": [], "time": []}}}, "displayed_time": "16.64", "trialTime": 18181, "trial_type": "mouselab-mdp", "trial_index": 42, "time_elapsed": 1385752, "internal_node_id": "0.0-6.0-1.0-33.0"}}, {"uniqueid": "w22592551:a86616031", "current_trial": 43, "dateTime": 1693565883838, "trialdata": {"revealed_states": [], "clicked_states": ["1", "2", "10"], "num_clicks_accrued": [0, 0, 0, 0, 0, 0, 0, 0, 0, 0, 0, 0, 0], "stateRewards": ["", 2, -3, -8, 14, -7, -51, 73, 2, 36, 36, -43, -1, 3, -4, 1, 6, 87, -65, 15, 61, -42, -83, -1, 3, -2, -7, 30, -48, 35, 13, 26, 60, 78], "withholdReward": false, "trial_id": "mdp_trial_35", "block": "test", "trialIndex": 36, "score": -4.25, "costs": -2.25, "simulationMode": [null, null, null, null, null, null], "rewards": [2, -3, -8, 14, -7], "path": ["0", "0", "1", "2", "3", "4", "5"], "rt": [4382, 1332, 355, 315, 484, 554], "actions": ["up", "up", "up", "up", "right", "up"], "actionTimes": [6668, 8009, 8869, 9701, 10681, 11752], "queries": {"click": {"state": {"target": ["1", "2", "10"], "time": [3171, 3698, 4931]}, "edge": {"target": [], "time": []}}, "mouseover": {"state": {"target": ["1", "2", "10"], "time": [2927, 3444, 4526]}, "edge": {"target": [], "time": []}}, "mouseout": {"state": {"target": ["12", "0", "1", "2"], "time": [906, 2315, 3434, 4498]}, "edge": {"target": [], "time": []}}}, "displayed_time": "16.29", "trialTime": 17403, "trial_type": "mouselab-mdp", "trial_index": 43, "time_elapsed": 1404412, "internal_node_id": "0.0-6.0-1.0-34.0"}}, {"uniqueid": "w22592551:a86616031", "current_trial": 44, "dateTime": 1693565904400, "trialdata": {"revealed_states": [], "clicked_states": ["12", "1", "13", "2", "14", "19", "21"], "num_clicks_accrued": [0, 0, 0, 0, 0, 0, 0, 0, 0, 0, 0, 0, 0], "stateRewards": ["", 2, 3, -1, 6, 44, -4, -59, -14, -3, 64, 16, 1, -3, 3, 6, 3, 49, 19, 3, -49, -14, -86, 1, 2, -3, -8, -33, 14, 32, -13, -77, -47, -67], "withholdReward": false, "trial_id": "mdp_trial_36", "block": "test", "trialIndex": 37, "score": -94.85, "costs": -4.85, "simulationMode": [null, null, null, null, null, null], "rewards": [1, 2, -3, -13, -77], "path": ["0", "0", "23", "24", "25", "30", "31"], "rt": [9268, 1355, 208, 288, 372, 138], "actions": ["left", "left", "left", "left", "down", "right"], "actionTimes": [11068, 12432, 13172, 13969, 14836, 15468], "queries": {"click": {"state": {"target": ["12", "1", "13", "2", "14", "19", "21"], "time": [3629, 4267, 5035, 6198, 7764, 8791, 9680]}, "edge": {"target": [], "time": []}}, "mouseover": {"state": {"target": ["12", "1", "13", "2", "7", "18", "14", "19", "21", "0"], "time": [3375, 4023, 4743, 5808, 7034, 7066, 7476, 8483, 9383, 10341]}, "edge": {"target": [], "time": []}}, "mouseout": {"state": {"target": ["0", "12", "1", "13", "2", "7", "18", "14", "19", "21", "0"], "time": [929, 3914, 4662, 5258, 7030, 7061, 7091, 8463, 9362, 10281, 10365]}, "edge": {"target": [], "time": []}}}, "displayed_time": "15.96", "trialTime": 19297, "trial_type": "mouselab-mdp", "trial_index": 44, "time_elapsed": 1424973, "internal_node_id": "0.0-6.0-1.0-35.0"}}, {"uniqueid": "w22592551:a86616031", "current_trial": 45, "dateTime": 1693565922105, "trialdata": {"revealed_states": [], "clicked_states": [], "num_clicks_accrued": [0, 0, 0, 0, 0, 0, 0, 0, 0, 0, 0, 0, 0], "stateRewards": ["", 1, -3, -6, -5, 47, 80, -29, 11, -71, 10, -29, -2, 3, -6, 12, 2, -78, -6, 8, 34, -16, -5, -1, 3, 3, -13, 84, -36, -62, -3, -27, 66, 15], "withholdReward": false, "trial_id": "mdp_trial_37", "block": "test", "trialIndex": 38, "score": -26, "costs": 0, "simulationMode": [null, null, null, null, null], "rewards": [1, -3, -6, 11, -29], "path": ["0", "0", "1", "2", "3", "8", "11"], "rt": [1059, 7, 56, 239, 828], "actions": ["up", "up", "up", "left", "left"], "actionTimes": [2767, 3301, 3930, 4701, 6038], "queries": {"click": {"state": {"target": [], "time": []}, "edge": {"target": [], "time": []}}, "mouseover": {"state": {"target": [], "time": []}, "edge": {"target": [], "time": []}}, "mouseout": {"state": {"target": [], "time": []}, "edge": {"target": [], "time": []}}}, "displayed_time": "15.71", "trialTime": 16532, "trial_type": "mouselab-mdp", "trial_index": 45, "time_elapsed": 1442679, "internal_node_id": "0.0-6.0-1.0-36.0"}}, {"uniqueid": "w22592551:a86616031", "current_trial": 46, "dateTime": 1693565939820, "trialdata": {"revealed_states": [], "clicked_states": [], "num_clicks_accrued": [0, 0, 0, 0, 0, 0, 0, 0, 0, 0, 0, 0, 0], "stateRewards": ["", -2, -3, 7, -13, 60, 9, 37, -6, 37, 20, 1, 2, -2, -8, 6, -80, -31, -10, -7, 70, -65, -44, -1, 1, 7, 6, -11, 73, -85, 16, -21, 47, 34], "withholdReward": false, "trial_id": "mdp_trial_38", "block": "test", "trialIndex": 39, "score": 55, "costs": 0, "simulationMode": [null, null, null, null, null], "rewards": [2, -2, -8, -7, 70], "path": ["0", "0", "12", "13", "14", "19", "20"], "rt": [701, 36, 108, 129, 498], "actions": ["right", "right", "right", "down", "right"], "actionTimes": [2466, 3026, 3635, 4272, 5291], "queries": {"click": {"state": {"target": [], "time": []}, "edge": {"target": [], "time": []}}, "mouseover": {"state": {"target": [], "time": []}, "edge": {"target": [], "time": []}}, "mouseout": {"state": {"target": [], "time": []}, "edge": {"target": [], "time": []}}}, "displayed_time": "15.77", "trialTime": 16546, "trial_type": "mouselab-mdp", "trial_index": 46, "time_elapsed": 1460394, "internal_node_id": "0.0-6.0-1.0-37.0"}}, {"uniqueid": "w22592551:a86616031", "current_trial": 47, "dateTime": 1693565957937, "trialdata": {"revealed_states": [], "clicked_states": [], "num_clicks_accrued": [0, 0, 0, 0, 0, 0, 0, 0, 0, 0, 0, 0, 0], "stateRewards": ["", 1, -3, -4, -11, -56, 61, -47, -16, -28, -9, 69, -2, -3, -4, -8, 40, -86, 59, -4, 80, 27, 54, -1, 3, -1, 8, 67, 23, 50, 6, 83, -43, -29], "withholdReward": false, "trial_id": "mdp_trial_39", "block": "test", "trialIndex": 40, "score": -31, "costs": 0, "simulationMode": [null, null, null, null, null], "rewards": [1, -3, -4, -16, -9], "path": ["0", "0", "1", "2", "3", "8", "10"], "rt": [1005, 267, 190, 449, 333], "actions": ["up", "up", "up", "left", "down"], "actionTimes": [2933, 3703, 4392, 5357, 6190], "queries": {"click": {"state": {"target": [], "time": []}, "edge": {"target": [], "time": []}}, "mouseover": {"state": {"target": [], "time": []}, "edge": {"target": [], "time": []}}, "mouseout": {"state": {"target": [], "time": []}, "edge": {"target": [], "time": []}}}, "displayed_time": "15.93", "trialTime": 16808, "trial_type": "mouselab-mdp", "trial_index": 47, "time_elapsed": 1478511, "internal_node_id": "0.0-6.0-1.0-38.0"}}, {"uniqueid": "w22592551:a86616031", "current_trial": 48, "dateTime": 1693565985136, "trialdata": {"revealed_states": [], "clicked_states": [], "num_clicks_accrued": [0, 0, 0, 0, 0, 0, 0, 0, 0, 0, 0, 0, 0], "stateRewards": ["", -1, 4, -3, 3, 57, -61, 5, -11, 23, -1, 34, -2, -4, -1, -13, 27, 38, -36, 4, -45, 21, 88, 1, -2, -1, 1, -69, -5, -78, -12, -9, 38, -54], "withholdReward": false, "trial_id": "mdp_trial_40", "block": "test", "trialIndex": 41, "score": -56, "costs": 0, "simulationMode": [null, null, null, null, null], "rewards": [-2, -4, -1, -13, -36], "path": ["0", "0", "12", "13", "14", "15", "18"], "rt": [885, 571, 110, 290, 778], "actions": ["right", "right", "right", "up", "left"], "actionTimes": [2905, 3978, 4597, 5413, 6702], "queries": {"click": {"state": {"target": [], "time": []}, "edge": {"target": [], "time": []}}, "mouseover": {"state": {"target": [], "time": []}, "edge": {"target": [], "time": []}}, "mouseout": {"state": {"target": [], "time": []}, "edge": {"target": [], "time": []}}}, "displayed_time": "16.02", "trialTime": 25976, "trial_type": "mouselab-mdp", "trial_index": 48, "time_elapsed": 1505710, "internal_node_id": "0.0-6.0-1.0-39.0"}}, {"uniqueid": "w22592551:a86616031", "current_trial": 49, "dateTime": 1693566076523, "trialdata": {"rt": 91053, "response": {"Q0": "$-2 to $2", "Q1": "$-16 to $16", "Q2": "$-88 to $88", "Q3": "The cost for clicking on nodes varied between nodes.", "Q4": "Very motivated"}, "question_order": [0, 1, 2, 3, 4], "trial_id": "final_quiz_control", "trial_type": "survey-multi-choice", "trial_index": 49, "time_elapsed": 1597098, "internal_node_id": "0.0-6.0-2.0"}}, {"uniqueid": "w22592551:a86616031", "current_trial": 50, "dateTime": 1693566260533, "trialdata": {"rt": 183544, "response": {"Q0": "i tried to guess my way to the end hoping that i will make the best choice", "Q1": "tried to click on the nodes to view them more", "Q2": "it was very difficult as i had to click the nodes fast if i wanted to view them and i was not fast enough  "}, "trial_id": "self_report_control", "trial_type": "survey-text", "trial_index": 50, "time_elapsed": 1781108, "internal_node_id": "0.0-6.0-3.0"}}, {"uniqueid": "w22592551:a86616031", "current_trial": 51, "dateTime": 1693566359933, "trialdata": {"rt": 99351, "response": {"Q0": "Disagree", "Q1": "Disagree", "Q2": "Disagree", "Q3": "Agree", "Q4": "Disagree", "Q5": "Agree", "Q6": "Disagree"}, "question_order": [0, 1, 2, 3, 4, 5, 6], "trial_id": "self_report_2", "trial_type": "survey-multi-choice", "trial_index": 51, "time_elapsed": 1880509, "internal_node_id": "0.0-6.0-4.0"}}, {"uniqueid": "w22592551:a86616031", "current_trial": 52, "dateTime": 1693566405231, "trialdata": {"rt": 45207, "response": {"gender": "female", "age": "21", "colorblind": "0", "effort": "0"}, "trial_type": "survey-html-form", "trial_index": 52, "time_elapsed": 1925806, "internal_node_id": "0.0-6.0-5.0"}}, {"uniqueid": "w22592551:a86616031", "current_trial": 53, "dateTime": 1693566489790, "trialdata": {"rt": 84482, "response": {"Q0": "everything was easy to understand", "Q1": "no ", "Q2": ""}, "trial_type": "survey-text", "trial_index": 53, "time_elapsed": 2010365, "internal_node_id": "0.0-6.0-6.0"}}, {"uniqueid": "w22592551:a86616031", "current_trial": 54, "dateTime": 1693566520189, "trialdata": {"rt": 30327, "stimulus": "<h1>Completion Code Instructions (1/2)</h1>\n<br><br><br><br>\nYou have reached the end of the experiment! The completion code consists of two parts: (1) a code with 2 characters (2) a code with 6 characters. On this page, you will receive the second part of the code. The first part of the completion code will be on the next page.\n<br><br>\nThe second part of your completion code is: <b>EWEK22</b>\n<br><br>\nPlease note this down. Then, press 'Finish HIT' in order to find the first part of your completion code. Once the data has been saved, you will receive this code either in this window or in the original browser window where you started the experiment.\n", "response": 0, "trial_type": "html-button-response", "trial_index": 54, "time_elapsed": 2040764, "internal_node_id": "0.0-6.0-7.0"}}, {"uniqueid": "w22592551:a86616031", "current_trial": 55, "dateTime": 1693566521290, "trialdata": {"success": true, "trial_type": "fullscreen", "trial_index": 55, "time_elapsed": 2041865, "internal_node_id": "0.0-7.0"}}], "questiondata": {"params": {"CODE": "C6DMOQA6", "MIN_TIME": 14, "inspectCost": 1, "startTime": "Fri Sep 01 2023 12:34:37 GMT+0200 (South Africa Standard Time)", "bonusRate": 0.002, "variance": "1_2_4_8_44", "branching": "31123"}, "final_score": -263.4}, "eventdata": [{"eventtype": "initialized", "value": null, "timestamp": 1693564476648, "interval": 0}, {"eventtype": "window_resize", "value": [1024, 654], "timestamp": 1693564476648, "interval": 0}, {"eventtype": "window_resize", "value": [1024, 654], "timestamp": 1693564477206, "interval": 558}, {"eventtype": "window_resize", "value": [1366, 768], "timestamp": 1693564500433, "interval": 23227}, {"eventtype": "window_resize", "value": [1024, 654], "timestamp": 1693566522729, "interval": 2022296}, {"eventtype": "focus", "value": "off", "timestamp": 1693566528768, "interval": 6039}], "useragent": "Mozilla/5.0 (Windows NT 10.0; Win64; x64) AppleWebKit/537.36 (KHTML, like Gecko) Chrome/116.0.0.0 Safari/537.36", "mode": "live", "id": "w22592551:a86616031", "status": "user data saved", "Beginhit": "2023-09-01 10:34:02.525439", "Beginexp": "2023-09-01 10:34:31.621229", "Endhit": "2023-09-01 11:08:36.084268", "psiturkStatus": 3, "browser": "<redacted>", "platform": "windows", "language": "en-US"}