{"condition": 0, "counterbalance": 0, "assignmentId": "a44175687", "workerId": "w30271393", "hitId": "h40045897", "currenttrial": 55, "bonus": 0, "data": [{"uniqueid": "w30271393:a44175687", "current_trial": 0, "dateTime": 1693660287586, "trialdata": {"success": true, "trial_type": "fullscreen", "trial_index": 0, "time_elapsed": 7070, "internal_node_id": "0.0-0.0"}}, {"uniqueid": "w30271393:a44175687", "current_trial": 1, "dateTime": 1693660303454, "trialdata": {"view_history": [{"page_index": 0, "viewing_time": 15862}], "rt": 15863, "trial_id": "exp_instructions_control", "trial_type": "instructions", "trial_index": 1, "time_elapsed": 22938, "internal_node_id": "0.0-1.0"}}, {"uniqueid": "w30271393:a44175687", "current_trial": 2, "dateTime": 1693660427082, "trialdata": {"view_history": [{"page_index": 0, "viewing_time": 37425}, {"page_index": 1, "viewing_time": 49084}, {"page_index": 2, "viewing_time": 10654}, {"page_index": 3, "viewing_time": 26460}], "rt": 123624, "trial_id": "mouselab_instructions_1_control", "trial_type": "instructions", "trial_index": 2, "time_elapsed": 146566, "internal_node_id": "0.0-2.0-1.0"}}, {"uniqueid": "w30271393:a44175687", "current_trial": 3, "dateTime": 1693660469303, "trialdata": {"revealed_states": [], "clicked_states": ["12", "13", "14", "19"], "num_clicks_accrued": [0, 0, 0, 0, 0, 0, 0, 0, 0, 0, 0, 0, 0], "stateRewards": ["", 10, -10, 10, -10, -10, -10, -10, -10, 10, 10, 10, 10, -10, 10, -10, -10, -10, -10, -10, 10, 10, -10, 10, -10, -10, 10, -10, -10, 10, -10, 10, 10, 10], "withholdReward": false, "trial_id": "practice_1", "block": "test", "trialIndex": 0, "score": -8.5, "costs": -2, "simulationMode": [null, null, null, null, null], "rewards": [10, -10, 10, -10, -10], "path": ["0", "0", "12", "13", "14", "15", "16"], "rt": [27099, 1769, 938, 1740, 2157], "actions": ["right", "right", "right", "up", "up"], "actionTimes": [29444, 31700, 33152, 35388, 38038], "queries": {"click": {"state": {"target": ["12", "13", "14", "19"], "time": [8968, 12401, 17025, 21334]}, "edge": {"target": [], "time": []}}, "mouseover": {"state": {"target": ["12", "13", "13", "12", "12", "13", "14", "15", "13", "12", "13", "14", "14", "19", "21", "22", "12"], "time": [2447, 3712, 4082, 4861, 5014, 5096, 5831, 5861, 6229, 8598, 10948, 15412, 15763, 20695, 23164, 27197, 27620]}, "edge": {"target": [], "time": []}}, "mouseout": {"state": {"target": ["22", "0", "12", "13", "13", "12", "12", "13", "14", "15", "13", "12", "13", "14", "14", "19", "21", "22", "12", "13", "14"], "time": [1228, 2378, 3697, 3963, 4845, 4914, 5063, 5395, 5845, 6119, 8347, 10597, 15391, 15462, 20566, 22982, 27193, 27465, 30924, 40367, 40395]}, "edge": {"target": [], "time": []}}}, "displayed_time": "38.53", "trialTime": 41821, "trial_type": "mouselab-mdp", "trial_index": 3, "time_elapsed": 188786, "internal_node_id": "0.0-2.0-2.0-0.0"}}, {"uniqueid": "w30271393:a44175687", "current_trial": 4, "dateTime": 1693660487049, "trialdata": {"revealed_states": [], "clicked_states": [], "num_clicks_accrued": [0, 0, 0, 0, 0, 0, 0, 0, 0, 0, 0, 0, 0], "stateRewards": ["", -10, 10, -10, -10, 10, 10, 10, -10, -10, -10, 10, 10, -10, -10, 10, -10, 10, -10, 10, -10, 10, 10, -10, 10, -10, -10, 10, 10, 10, -10, -10, -10, -10], "withholdReward": false, "trial_id": "practice_2", "block": "test", "trialIndex": 1, "score": -26.5, "costs": 0, "simulationMode": [null, null, null, null, null], "rewards": [-10, 10, -10, -10, -10], "path": ["0", "0", "23", "24", "25", "30", "33"], "rt": [2048, 1153, 1471, 2258, 1910], "actions": ["left", "left", "left", "down", "left"], "actionTimes": [4476, 6137, 8105, 10859, 13261], "queries": {"click": {"state": {"target": [], "time": []}, "edge": {"target": [], "time": []}}, "mouseover": {"state": {"target": [], "time": []}, "edge": {"target": [], "time": []}}, "mouseout": {"state": {"target": ["18", "18", "15", "15", "12"], "time": [998, 1133, 1166, 1267, 1617]}, "edge": {"target": [], "time": []}}}, "displayed_time": "13.77", "trialTime": 17519, "trial_type": "mouselab-mdp", "trial_index": 4, "time_elapsed": 206532, "internal_node_id": "0.0-2.0-2.0-1.0"}}, {"uniqueid": "w30271393:a44175687", "current_trial": 5, "dateTime": 1693660511258, "trialdata": {"view_history": [{"page_index": 0, "viewing_time": 19165}, {"page_index": 1, "viewing_time": 5042}], "rt": 24207, "trial_id": "mouselab_instructions_2_control", "trial_type": "instructions", "trial_index": 5, "time_elapsed": 230742, "internal_node_id": "0.0-2.0-3.0"}}, {"uniqueid": "w30271393:a44175687", "current_trial": 6, "dateTime": 1693660551356, "trialdata": {"rt": 40091, "response": {"Q0": "The cost for clicking on nodes may vary between nodes.", "Q1": "The better I perform the higher my bonus will be.", "Q2": "No, the amount of cash at each node of the web may be different each time.", "Q3": "To get the highest total score.", "Q4": "Only before moving the spider.", "Q5": "3 seconds"}, "question_order": [0, 1, 2, 3, 4, 5], "correct": {"Q0": "The cost for clicking on nodes may vary between nodes.", "Q1": "The better I perform the higher my bonus will be.", "Q2": "No, the amount of cash at each node of the web may be different each time.", "Q3": "To get the highest total score.", "Q4": "Only before moving the spider.", "Q5": "3 seconds"}, "trial_id": "mouselab_quiz_control", "trial_type": "survey-multi-choice", "trial_index": 6, "time_elapsed": 270839, "internal_node_id": "0.0-2.0-4.0"}}, {"uniqueid": "w30271393:a44175687", "current_trial": 7, "dateTime": 1693660559308, "trialdata": {"rt": 7945, "response": {"Q0": "No"}, "question_order": [0], "trial_id": "repeat_check", "trial_type": "survey-multi-choice", "trial_index": 7, "time_elapsed": 278792, "internal_node_id": "0.0-4.0-0.0"}}, {"uniqueid": "w30271393:a44175687", "current_trial": 8, "dateTime": 1693660564219, "trialdata": {"rt": 4902, "stimulus": "\n<h1> Get ready to start the game! </h1>\n\nThank you for reading the instructions. Get ready start with the 40 rounds of this game.\n<br><br>\nIf you need to take a break, feel free to take one after the end of a round, before continuing to the next one.\n<br><br>\nRemember, the more money the spider gets, the bigger your bonus will be!\n<br><br>\n<div style='text-align: center;'>Press <code>space</code> to begin.</div>\n\n<br><br>\n(If, at any point, the <code>space</code> key does not take you to the next page, click once on the text and try again.)", "response": " ", "trial_id": "mdp_ready", "trial_type": "html-keyboard-response", "trial_index": 8, "time_elapsed": 283703, "internal_node_id": "0.0-6.0-0.0"}}, {"uniqueid": "w30271393:a44175687", "current_trial": 9, "dateTime": 1693660594559, "trialdata": {"revealed_states": [], "clicked_states": ["1"], "num_clicks_accrued": [0, 0, 0, 0, 0, 0, 0, 0, 0, 0, 0, 0, 0], "stateRewards": ["", 2, 3, 6, -12, -29, 12, 87, 4, 35, -30, 67, 2, 3, -5, -9, 44, 69, -8, 1, 45, -8, 28, -2, -1, -8, 11, -12, -5, 81, 9, 87, 82, 88], "withholdReward": false, "trial_id": "mdp_trial_1", "block": "test", "trialIndex": 2, "score": -8.4, "costs": -1.4, "simulationMode": [null, null, null, null, null], "rewards": [2, 3, -5, 1, -8], "path": ["0", "0", "12", "13", "14", "19", "21"], "rt": [7011, 2280, 2368, 8008, 3960], "actions": ["right", "right", "right", "down", "down"], "actionTimes": [8471, 11270, 14142, 22649, 27119], "queries": {"click": {"state": {"target": ["1"], "time": [3366]}, "edge": {"target": [], "time": []}}, "mouseover": {"state": {"target": ["1", "13", "12"], "time": [2925, 7873, 8271]}, "edge": {"target": [], "time": []}}, "mouseout": {"state": {"target": ["0", "1", "13", "12", "13", "14", "15", "19", "19", "19"], "time": [2608, 7704, 7905, 8305, 10674, 15319, 18859, 18940, 22091, 24454]}, "edge": {"target": [], "time": []}}}, "displayed_time": "27.62", "trialTime": 30089, "trial_type": "mouselab-mdp", "trial_index": 9, "time_elapsed": 314042, "internal_node_id": "0.0-6.0-1.0-0.0"}}, {"uniqueid": "w30271393:a44175687", "current_trial": 10, "dateTime": 1693660616200, "trialdata": {"revealed_states": [], "clicked_states": [], "num_clicks_accrued": [0, 0, 0, 0, 0, 0, 0, 0, 0, 0, 0, 0, 0], "stateRewards": ["", -1, -4, -1, -5, -28, -23, -15, -15, -38, 59, -87, 2, 2, -5, 9, -55, -39, -71, -6, 85, -85, -11, -1, -2, 5, -10, 1, 25, 41, -4, 69, -35, 86], "withholdReward": false, "trial_id": "mdp_trial_2", "block": "test", "trialIndex": 3, "score": 17, "costs": 0, "simulationMode": [null, null, null, null, null], "rewards": [-1, -2, 5, -10, 25], "path": ["0", "0", "23", "24", "25", "26", "28"], "rt": [7821, 1181, 1076, 1799, 1549], "actions": ["left", "left", "left", "up", "right"], "actionTimes": [10552, 12226, 13803, 16094, 18143], "queries": {"click": {"state": {"target": [], "time": []}, "edge": {"target": [], "time": []}}, "mouseover": {"state": {"target": ["23", "24", "25", "25", "24", "23"], "time": [5640, 5775, 5794, 6173, 7511, 8942]}, "edge": {"target": [], "time": []}}, "mouseout": {"state": {"target": ["21", "0", "23", "24", "25", "25", "24"], "time": [1774, 5637, 5760, 5792, 5809, 7379, 8928]}, "edge": {"target": [], "time": []}}}, "displayed_time": "18.64", "trialTime": 21400, "trial_type": "mouselab-mdp", "trial_index": 10, "time_elapsed": 335683, "internal_node_id": "0.0-6.0-1.0-1.0"}}, {"uniqueid": "w30271393:a44175687", "current_trial": 11, "dateTime": 1693660635189, "trialdata": {"revealed_states": [], "clicked_states": [], "num_clicks_accrued": [0, 0, 0, 0, 0, 0, 0, 0, 0, 0, 0, 0, 0], "stateRewards": ["", 1, 1, 5, 6, -29, -7, 3, -16, 9, -46, 65, -1, 4, -1, -16, -63, -77, -87, 8, 80, -50, 43, -1, -1, -5, 5, -38, -71, -62, 9, 81, -50, -52], "withholdReward": false, "trial_id": "mdp_trial_3", "block": "test", "trialIndex": 4, "score": 16, "costs": 0, "simulationMode": [null, null, null, null, null], "rewards": [1, 1, 5, 6, 3], "path": ["0", "0", "1", "2", "3", "4", "7"], "rt": [2185, 1005, 1207, 1138, 621], "actions": ["up", "up", "up", "right", "down"], "actionTimes": [4222, 5743, 7445, 9092, 10228], "queries": {"click": {"state": {"target": [], "time": []}, "edge": {"target": [], "time": []}}, "mouseover": {"state": {"target": [], "time": []}, "edge": {"target": [], "time": []}}, "mouseout": {"state": {"target": ["23", "0", "0", "7", "1", "7", "7", "7"], "time": [1197, 1236, 11722, 12415, 12922, 14060, 15673, 15973]}, "edge": {"target": [], "time": []}}}, "displayed_time": "16.04", "trialTime": 18736, "trial_type": "mouselab-mdp", "trial_index": 11, "time_elapsed": 354672, "internal_node_id": "0.0-6.0-1.0-2.0"}}, {"uniqueid": "w30271393:a44175687", "current_trial": 12, "dateTime": 1693660653086, "trialdata": {"revealed_states": [], "clicked_states": [], "num_clicks_accrued": [0, 0, 0, 0, 0, 0, 0, 0, 0, 0, 0, 0, 0], "stateRewards": ["", 2, -3, -8, 14, -7, -51, 73, 2, 36, 36, -43, -1, 3, -4, 1, 6, 87, -65, 15, 61, -42, -83, -1, 3, -2, -7, 30, -48, 35, 13, 26, 60, 78], "withholdReward": false, "trial_id": "mdp_trial_4", "block": "test", "trialIndex": 5, "score": 91, "costs": 0, "simulationMode": [null, null, null, null, null], "rewards": [-1, 3, -2, 13, 78], "path": ["0", "0", "23", "24", "25", "30", "33"], "rt": [1850, 893, 974, 1419, 771], "actions": ["left", "left", "left", "down", "left"], "actionTimes": [3212, 4608, 6103, 8017, 9302], "queries": {"click": {"state": {"target": [], "time": []}, "edge": {"target": [], "time": []}}, "mouseover": {"state": {"target": [], "time": []}, "edge": {"target": [], "time": []}}, "mouseout": {"state": {"target": [], "time": []}, "edge": {"target": [], "time": []}}}, "displayed_time": "15.37", "trialTime": 17606, "trial_type": "mouselab-mdp", "trial_index": 12, "time_elapsed": 372569, "internal_node_id": "0.0-6.0-1.0-3.0"}}, {"uniqueid": "w30271393:a44175687", "current_trial": 13, "dateTime": 1693660671226, "trialdata": {"revealed_states": [], "clicked_states": [], "num_clicks_accrued": [0, 0, 0, 0, 0, 0, 0, 0, 0, 0, 0, 0, 0], "stateRewards": ["", 1, -3, -1, 9, -34, -40, 22, -7, 45, 53, -11, 2, 4, 5, 15, 21, 37, -49, -3, 80, -28, -34, 1, -3, 1, 1, -40, -6, -5, -16, -85, -86, 59], "withholdReward": false, "trial_id": "mdp_trial_5", "block": "test", "trialIndex": 6, "score": 88, "costs": 0, "simulationMode": [null, null, null, null, null], "rewards": [2, 4, 5, -3, 80], "path": ["0", "0", "12", "13", "14", "19", "20"], "rt": [1715, 899, 1017, 1062, 691], "actions": ["right", "right", "right", "down", "right"], "actionTimes": [4129, 5543, 7078, 8657, 9854], "queries": {"click": {"state": {"target": [], "time": []}, "edge": {"target": [], "time": []}}, "mouseover": {"state": {"target": [], "time": []}, "edge": {"target": [], "time": []}}, "mouseout": {"state": {"target": ["0"], "time": [2248]}, "edge": {"target": [], "time": []}}}, "displayed_time": "16.41", "trialTime": 17861, "trial_type": "mouselab-mdp", "trial_index": 13, "time_elapsed": 390709, "internal_node_id": "0.0-6.0-1.0-4.0"}}, {"uniqueid": "w30271393:a44175687", "current_trial": 14, "dateTime": 1693660689502, "trialdata": {"revealed_states": [], "clicked_states": [], "num_clicks_accrued": [0, 0, 0, 0, 0, 0, 0, 0, 0, 0, 0, 0, 0], "stateRewards": ["", 2, 2, 3, -15, 23, -14, 73, -7, -32, -20, -6, 1, 1, -5, -12, 73, 6, -84, 11, -81, -57, 13, -2, -1, -4, -8, -52, -58, 49, 13, 5, -41, -41], "withholdReward": false, "trial_id": "mdp_trial_6", "block": "test", "trialIndex": 7, "score": -20, "costs": 0, "simulationMode": [null, null, null, null, null], "rewards": [2, 2, 3, -7, -20], "path": ["0", "0", "1", "2", "3", "8", "10"], "rt": [1823, 771, 867, 441, 401], "actions": ["up", "up", "up", "left", "down"], "actionTimes": [4009, 5286, 6650, 7589, 8499], "queries": {"click": {"state": {"target": [], "time": []}, "edge": {"target": [], "time": []}}, "mouseover": {"state": {"target": [], "time": []}, "edge": {"target": [], "time": []}}, "mouseout": {"state": {"target": ["0"], "time": [2024]}, "edge": {"target": [], "time": []}}}, "displayed_time": "16.19", "trialTime": 18025, "trial_type": "mouselab-mdp", "trial_index": 14, "time_elapsed": 408985, "internal_node_id": "0.0-6.0-1.0-5.0"}}, {"uniqueid": "w30271393:a44175687", "current_trial": 15, "dateTime": 1693660707003, "trialdata": {"revealed_states": [], "clicked_states": [], "num_clicks_accrued": [0, 0, 0, 0, 0, 0, 0, 0, 0, 0, 0, 0, 0], "stateRewards": ["", -2, -4, -2, -13, -15, 87, -19, -6, -80, 30, 12, 1, 1, -8, 2, 55, 56, 15, 11, -68, -7, 55, -2, 3, -3, -3, 48, 62, 4, 1, -3, 69, -33], "withholdReward": false, "trial_id": "mdp_trial_7", "block": "test", "trialIndex": 8, "score": -40, "costs": 0, "simulationMode": [null, null, null, null, null], "rewards": [-2, -4, -2, -13, -19], "path": ["0", "0", "1", "2", "3", "4", "7"], "rt": [1008, 484, 544, 464, 315], "actions": ["up", "up", "up", "right", "down"], "actionTimes": [2980, 3983, 5043, 5998, 6847], "queries": {"click": {"state": {"target": [], "time": []}, "edge": {"target": [], "time": []}}, "mouseover": {"state": {"target": [], "time": []}, "edge": {"target": [], "time": []}}, "mouseout": {"state": {"target": ["0"], "time": [1802]}, "edge": {"target": [], "time": []}}}, "displayed_time": "15.98", "trialTime": 17243, "trial_type": "mouselab-mdp", "trial_index": 15, "time_elapsed": 426486, "internal_node_id": "0.0-6.0-1.0-6.0"}}, {"uniqueid": "w30271393:a44175687", "current_trial": 16, "dateTime": 1693660724488, "trialdata": {"revealed_states": [], "clicked_states": [], "num_clicks_accrued": [0, 0, 0, 0, 0, 0, 0, 0, 0, 0, 0, 0, 0], "stateRewards": ["", -1, 3, -4, -14, 78, 67, 2, 13, -32, 28, 39, -2, 1, -4, -4, -4, -42, -86, 11, 64, -29, -32, -1, -4, 2, -7, 5, 68, -61, 2, -21, 85, 50], "withholdReward": false, "trial_id": "mdp_trial_8", "block": "test", "trialIndex": 9, "score": 62, "costs": 0, "simulationMode": [null, null, null, null, null], "rewards": [-1, 3, -4, -14, 78], "path": ["0", "0", "1", "2", "3", "4", "5"], "rt": [1735, 692, 654, 456, 362], "actions": ["up", "up", "up", "right", "up"], "actionTimes": [3929, 5130, 6293, 7261, 8117], "queries": {"click": {"state": {"target": [], "time": []}, "edge": {"target": [], "time": []}}, "mouseover": {"state": {"target": [], "time": []}, "edge": {"target": [], "time": []}}, "mouseout": {"state": {"target": ["0"], "time": [2022]}, "edge": {"target": [], "time": []}}}, "displayed_time": "16.20", "trialTime": 17219, "trial_type": "mouselab-mdp", "trial_index": 16, "time_elapsed": 443971, "internal_node_id": "0.0-6.0-1.0-7.0"}}, {"uniqueid": "w30271393:a44175687", "current_trial": 17, "dateTime": 1693660741791, "trialdata": {"revealed_states": [], "clicked_states": [], "num_clicks_accrued": [0, 0, 0, 0, 0, 0, 0, 0, 0, 0, 0, 0, 0], "stateRewards": ["", -2, 4, -7, -3, -76, 39, -28, 10, 14, 12, 60, 2, -3, 6, -10, 88, -34, -41, -3, 72, -13, -56, 1, 3, 2, 8, -51, 23, -57, 1, 14, -46, -16], "withholdReward": false, "trial_id": "mdp_trial_9", "block": "test", "trialIndex": 10, "score": 37, "costs": 0, "simulationMode": [null, null, null, null, null], "rewards": [1, 3, 2, 8, 23], "path": ["0", "0", "23", "24", "25", "26", "28"], "rt": [1292, 601, 591, 469, 295], "actions": ["left", "left", "left", "up", "right"], "actionTimes": [3046, 4162, 5269, 6245, 7054], "queries": {"click": {"state": {"target": [], "time": []}, "edge": {"target": [], "time": []}}, "mouseover": {"state": {"target": [], "time": []}, "edge": {"target": [], "time": []}}, "mouseout": {"state": {"target": ["0"], "time": [1597]}, "edge": {"target": [], "time": []}}}, "displayed_time": "15.76", "trialTime": 17027, "trial_type": "mouselab-mdp", "trial_index": 17, "time_elapsed": 461274, "internal_node_id": "0.0-6.0-1.0-8.0"}}, {"uniqueid": "w30271393:a44175687", "current_trial": 18, "dateTime": 1693660759454, "trialdata": {"revealed_states": [], "clicked_states": [], "num_clicks_accrued": [0, 0, 0, 0, 0, 0, 0, 0, 0, 0, 0, 0, 0], "stateRewards": ["", 2, 4, -6, -13, -75, -81, 30, 7, 5, 59, -65, -1, -1, 7, 14, -38, 36, -41, 1, -54, -5, 64, 2, -1, 5, 6, -19, 79, 11, 16, -33, -50, 58], "withholdReward": false, "trial_id": "mdp_trial_10", "block": "test", "trialIndex": 11, "score": -22, "costs": 0, "simulationMode": [null, null, null, null, null], "rewards": [-1, -1, 7, 14, -41], "path": ["0", "0", "12", "13", "14", "15", "18"], "rt": [1541, 491, 568, 376, 334], "actions": ["right", "right", "right", "up", "left"], "actionTimes": [3888, 4869, 5930, 6804, 7646], "queries": {"click": {"state": {"target": [], "time": []}, "edge": {"target": [], "time": []}}, "mouseover": {"state": {"target": [], "time": []}, "edge": {"target": [], "time": []}}, "mouseout": {"state": {"target": ["0"], "time": [2168]}, "edge": {"target": [], "time": []}}}, "displayed_time": "16.35", "trialTime": 17394, "trial_type": "mouselab-mdp", "trial_index": 18, "time_elapsed": 478938, "internal_node_id": "0.0-6.0-1.0-9.0"}}, {"uniqueid": "w30271393:a44175687", "current_trial": 19, "dateTime": 1693660777207, "trialdata": {"revealed_states": [], "clicked_states": [], "num_clicks_accrued": [0, 0, 0, 0, 0, 0, 0, 0, 0, 0, 0, 0, 0], "stateRewards": ["", 1, 4, -4, 14, 35, 51, 19, -13, 54, 78, -74, -2, -1, -3, 13, -11, -42, -73, -15, -24, -3, -69, 2, -1, 5, 16, -27, 73, 58, 9, -60, 5, -60], "withholdReward": false, "trial_id": "mdp_trial_11", "block": "test", "trialIndex": 12, "score": 42, "costs": 0, "simulationMode": [null, null, null, null, null], "rewards": [1, 4, -4, -13, 54], "path": ["0", "0", "1", "2", "3", "8", "9"], "rt": [1387, 396, 424, 427, 429], "actions": ["up", "up", "up", "left", "up"], "actionTimes": [3069, 3983, 4928, 5847, 6782], "queries": {"click": {"state": {"target": [], "time": []}, "edge": {"target": [], "time": []}}, "mouseover": {"state": {"target": ["0"], "time": [1748]}, "edge": {"target": [], "time": []}}, "mouseout": {"state": {"target": ["0", "0"], "time": [1524, 1768]}, "edge": {"target": [], "time": []}}}, "displayed_time": "15.68", "trialTime": 17489, "trial_type": "mouselab-mdp", "trial_index": 19, "time_elapsed": 496691, "internal_node_id": "0.0-6.0-1.0-10.0"}}, {"uniqueid": "w30271393:a44175687", "current_trial": 20, "dateTime": 1693660796092, "trialdata": {"revealed_states": [], "clicked_states": [], "num_clicks_accrued": [0, 0, 0, 0, 0, 0, 0, 0, 0, 0, 0, 0, 0], "stateRewards": ["", 1, -2, -2, 10, -31, -77, 35, 9, -47, 8, 48, -2, 1, -4, -3, -26, -50, 43, -11, 76, -38, 17, 1, -1, 6, 10, 15, -9, 12, -8, 85, 11, -55], "withholdReward": false, "trial_id": "mdp_trial_12", "block": "test", "trialIndex": 13, "score": 9, "costs": 0, "simulationMode": [null, null, null, null, null], "rewards": [1, -1, 6, -8, 11], "path": ["0", "0", "23", "24", "25", "30", "32"], "rt": [1462, 333, 442, 288, 318], "actions": ["left", "left", "left", "down", "down"], "actionTimes": [4754, 5578, 6520, 7300, 8130], "queries": {"click": {"state": {"target": [], "time": []}, "edge": {"target": [], "time": []}}, "mouseover": {"state": {"target": [], "time": []}, "edge": {"target": [], "time": []}}, "mouseout": {"state": {"target": ["20", "22"], "time": [2258, 2410]}, "edge": {"target": [], "time": []}}}, "displayed_time": "17.29", "trialTime": 18614, "trial_type": "mouselab-mdp", "trial_index": 20, "time_elapsed": 515575, "internal_node_id": "0.0-6.0-1.0-11.0"}}, {"uniqueid": "w30271393:a44175687", "current_trial": 21, "dateTime": 1693660815407, "trialdata": {"revealed_states": [], "clicked_states": [], "num_clicks_accrued": [0, 0, 0, 0, 0, 0, 0, 0, 0, 0, 0, 0, 0], "stateRewards": ["", 2, -4, -8, -15, 71, -43, -41, 7, -17, 20, 67, -1, -1, -4, 6, 37, -24, -47, 9, 34, 57, 45, 1, 2, -4, -5, -23, 88, -5, 13, -40, 43, 44], "withholdReward": false, "trial_id": "mdp_trial_13", "block": "test", "trialIndex": 14, "score": 64, "costs": 0, "simulationMode": [null, null, null, null, null], "rewards": [2, -4, -8, 7, 67], "path": ["0", "0", "1", "2", "3", "8", "11"], "rt": [1473, 337, 489, 328, 973], "actions": ["up", "up", "up", "left", "left"], "actionTimes": [5419, 6272, 7272, 8097, 9573], "queries": {"click": {"state": {"target": [], "time": []}, "edge": {"target": [], "time": []}}, "mouseover": {"state": {"target": [], "time": []}, "edge": {"target": [], "time": []}}, "mouseout": {"state": {"target": ["0", "0"], "time": [1702, 3384]}, "edge": {"target": [], "time": []}}}, "displayed_time": "17.95", "trialTime": 19035, "trial_type": "mouselab-mdp", "trial_index": 21, "time_elapsed": 534890, "internal_node_id": "0.0-6.0-1.0-12.0"}}, {"uniqueid": "w30271393:a44175687", "current_trial": 22, "dateTime": 1693660832676, "trialdata": {"revealed_states": [], "clicked_states": [], "num_clicks_accrued": [0, 0, 0, 0, 0, 0, 0, 0, 0, 0, 0, 0, 0], "stateRewards": ["", 1, 1, 4, 11, 83, -66, 18, -16, -23, 5, 25, 1, -3, 1, -12, 18, 24, -86, -11, -64, 36, 40, 2, 1, -6, 13, 55, 29, 72, -2, 81, -72, -41], "withholdReward": false, "trial_id": "mdp_trial_14", "block": "test", "trialIndex": 15, "score": 28, "costs": 0, "simulationMode": [null, null, null, null, null], "rewards": [1, -3, 1, -11, 40], "path": ["0", "0", "12", "13", "14", "19", "22"], "rt": [2062, 377, 473, 432, 432], "actions": ["right", "right", "right", "down", "left"], "actionTimes": [4021, 4907, 5888, 6813, 7762], "queries": {"click": {"state": {"target": [], "time": []}, "edge": {"target": [], "time": []}}, "mouseover": {"state": {"target": [], "time": []}, "edge": {"target": [], "time": []}}, "mouseout": {"state": {"target": ["0"], "time": [1774]}, "edge": {"target": [], "time": []}}}, "displayed_time": "15.96", "trialTime": 17019, "trial_type": "mouselab-mdp", "trial_index": 22, "time_elapsed": 552159, "internal_node_id": "0.0-6.0-1.0-13.0"}}, {"uniqueid": "w30271393:a44175687", "current_trial": 23, "dateTime": 1693660849778, "trialdata": {"revealed_states": [], "clicked_states": [], "num_clicks_accrued": [0, 0, 0, 0, 0, 0, 0, 0, 0, 0, 0, 0, 0], "stateRewards": ["", 2, 3, 8, 11, 25, -80, 6, -4, -56, 84, -23, -2, -4, -3, 4, -51, -9, -61, -15, -64, 67, -35, 1, -1, -7, -6, 83, 59, -15, 12, -79, 56, 41], "withholdReward": false, "trial_id": "mdp_trial_15", "block": "test", "trialIndex": 16, "score": 93, "costs": 0, "simulationMode": [null, null, null, null, null], "rewards": [2, 3, 8, -4, 84], "path": ["0", "0", "1", "2", "3", "8", "10"], "rt": [1251, 429, 444, 227, 425], "actions": ["up", "up", "up", "left", "down"], "actionTimes": [2937, 3877, 4826, 5575, 6507], "queries": {"click": {"state": {"target": [], "time": []}, "edge": {"target": [], "time": []}}, "mouseover": {"state": {"target": [], "time": []}, "edge": {"target": [], "time": []}}, "mouseout": {"state": {"target": ["0"], "time": [1521]}, "edge": {"target": [], "time": []}}}, "displayed_time": "15.69", "trialTime": 16821, "trial_type": "mouselab-mdp", "trial_index": 23, "time_elapsed": 569261, "internal_node_id": "0.0-6.0-1.0-14.0"}}, {"uniqueid": "w30271393:a44175687", "current_trial": 24, "dateTime": 1693660867212, "trialdata": {"revealed_states": [], "clicked_states": [], "num_clicks_accrued": [0, 0, 0, 0, 0, 0, 0, 0, 0, 0, 0, 0, 0], "stateRewards": ["", 2, 3, -1, 6, 44, -4, -59, -14, -3, 64, 16, 1, -3, 3, 6, 3, 49, 19, 3, -49, -14, -86, 1, 2, -3, -8, -33, 14, 32, -13, -77, -47, -67], "withholdReward": false, "trial_id": "mdp_trial_16", "block": "test", "trialIndex": 17, "score": -41, "costs": 0, "simulationMode": [null, null, null, null, null], "rewards": [1, 2, -3, -8, -33], "path": ["0", "0", "23", "24", "25", "26", "27"], "rt": [1108, 371, 460, 426, 288], "actions": ["left", "left", "left", "up", "up"], "actionTimes": [3275, 4157, 5128, 6047, 6825], "queries": {"click": {"state": {"target": [], "time": []}, "edge": {"target": [], "time": []}}, "mouseover": {"state": {"target": [], "time": []}, "edge": {"target": [], "time": []}}, "mouseout": {"state": {"target": ["0"], "time": [2027]}, "edge": {"target": [], "time": []}}}, "displayed_time": "16.17", "trialTime": 17144, "trial_type": "mouselab-mdp", "trial_index": 24, "time_elapsed": 586696, "internal_node_id": "0.0-6.0-1.0-15.0"}}, {"uniqueid": "w30271393:a44175687", "current_trial": 25, "dateTime": 1693660884166, "trialdata": {"revealed_states": [], "clicked_states": [], "num_clicks_accrued": [0, 0, 0, 0, 0, 0, 0, 0, 0, 0, 0, 0, 0], "stateRewards": ["", -2, -3, 7, -13, 60, 9, 37, -6, 37, 20, 1, 2, -2, -8, 6, -80, -31, -10, -7, 70, -65, -44, -1, 1, 7, 6, -11, 73, -85, 16, -21, 47, 34], "withholdReward": false, "trial_id": "mdp_trial_17", "block": "test", "trialIndex": 18, "score": 26, "costs": 0, "simulationMode": [null, null, null, null, null], "rewards": [-2, -3, 7, -13, 37], "path": ["0", "0", "1", "2", "3", "4", "7"], "rt": [1302, 398, 444, 283, 327], "actions": ["up", "up", "up", "right", "down"], "actionTimes": [3057, 3970, 4919, 5705, 6549], "queries": {"click": {"state": {"target": [], "time": []}, "edge": {"target": [], "time": []}}, "mouseover": {"state": {"target": [], "time": []}, "edge": {"target": [], "time": []}}, "mouseout": {"state": {"target": ["0"], "time": [1577]}, "edge": {"target": [], "time": []}}}, "displayed_time": "15.76", "trialTime": 16684, "trial_type": "mouselab-mdp", "trial_index": 25, "time_elapsed": 603649, "internal_node_id": "0.0-6.0-1.0-16.0"}}, {"uniqueid": "w30271393:a44175687", "current_trial": 26, "dateTime": 1693660901413, "trialdata": {"revealed_states": [], "clicked_states": [], "num_clicks_accrued": [0, 0, 0, 0, 0, 0, 0, 0, 0, 0, 0, 0, 0], "stateRewards": ["", -1, 2, -6, 6, -82, -19, -39, -16, -83, 11, -33, -2, -2, 4, -6, -82, -1, -19, -6, -10, -67, -41, -2, 1, -7, 16, -23, -78, -52, 14, 31, -71, 74], "withholdReward": false, "trial_id": "mdp_trial_18", "block": "test", "trialIndex": 19, "score": -73, "costs": 0, "simulationMode": [null, null, null, null, null], "rewards": [-2, -2, 4, -6, -67], "path": ["0", "0", "12", "13", "14", "19", "21"], "rt": [968, 340, 405, 376, 361], "actions": ["right", "right", "right", "down", "down"], "actionTimes": [2684, 3521, 4438, 5326, 6175], "queries": {"click": {"state": {"target": [], "time": []}, "edge": {"target": [], "time": []}}, "mouseover": {"state": {"target": [], "time": []}, "edge": {"target": [], "time": []}}, "mouseout": {"state": {"target": ["0"], "time": [1543]}, "edge": {"target": [], "time": []}}}, "displayed_time": "15.72", "trialTime": 16974, "trial_type": "mouselab-mdp", "trial_index": 26, "time_elapsed": 620896, "internal_node_id": "0.0-6.0-1.0-17.0"}}, {"uniqueid": "w30271393:a44175687", "current_trial": 27, "dateTime": 1693660919536, "trialdata": {"revealed_states": [], "clicked_states": [], "num_clicks_accrued": [0, 0, 0, 0, 0, 0, 0, 0, 0, 0, 0, 0, 0], "stateRewards": ["", -2, -3, 1, -7, 39, -67, 16, 5, -20, 73, 66, -1, 4, 5, -3, 23, -68, -87, -8, 3, -3, 17, 1, -4, -2, -13, -32, 34, 61, -5, -11, -18, 12], "withholdReward": false, "trial_id": "mdp_trial_19", "block": "test", "trialIndex": 20, "score": 67, "costs": 0, "simulationMode": [null, null, null, null, null], "rewards": [-2, -3, 1, 5, 66], "path": ["0", "0", "1", "2", "3", "8", "11"], "rt": [1661, 452, 510, 330, 270], "actions": ["up", "up", "up", "left", "left"], "actionTimes": [3899, 4869, 5874, 6712, 7502], "queries": {"click": {"state": {"target": [], "time": []}, "edge": {"target": [], "time": []}}, "mouseover": {"state": {"target": [], "time": []}, "edge": {"target": [], "time": []}}, "mouseout": {"state": {"target": ["0"], "time": [2090]}, "edge": {"target": [], "time": []}}}, "displayed_time": "16.24", "trialTime": 17848, "trial_type": "mouselab-mdp", "trial_index": 27, "time_elapsed": 639019, "internal_node_id": "0.0-6.0-1.0-18.0"}}, {"uniqueid": "w30271393:a44175687", "current_trial": 28, "dateTime": 1693660936544, "trialdata": {"revealed_states": [], "clicked_states": [], "num_clicks_accrued": [0, 0, 0, 0, 0, 0, 0, 0, 0, 0, 0, 0, 0], "stateRewards": ["", 1, 2, -3, -5, 66, -50, -47, -5, 1, 28, -27, 1, 1, -1, -6, 37, -25, 56, 1, -82, -66, -40, -1, -4, -7, 15, -61, -23, 26, 10, 14, -56, 29], "withholdReward": false, "trial_id": "mdp_trial_20", "block": "test", "trialIndex": 21, "score": 29, "costs": 0, "simulationMode": [null, null, null, null, null], "rewards": [-1, -4, -7, 15, 26], "path": ["0", "0", "23", "24", "25", "26", "29"], "rt": [1313, 394, 503, 351, 401], "actions": ["left", "left", "left", "up", "left"], "actionTimes": [3262, 4168, 5178, 6025, 6926], "queries": {"click": {"state": {"target": [], "time": []}, "edge": {"target": [], "time": []}}, "mouseover": {"state": {"target": [], "time": []}, "edge": {"target": [], "time": []}}, "mouseout": {"state": {"target": ["0"], "time": [1775]}, "edge": {"target": [], "time": []}}}, "displayed_time": "15.95", "trialTime": 16748, "trial_type": "mouselab-mdp", "trial_index": 28, "time_elapsed": 656028, "internal_node_id": "0.0-6.0-1.0-19.0"}}, {"uniqueid": "w30271393:a44175687", "current_trial": 29, "dateTime": 1693660953307, "trialdata": {"revealed_states": [], "clicked_states": [], "num_clicks_accrued": [0, 0, 0, 0, 0, 0, 0, 0, 0, 0, 0, 0, 0], "stateRewards": ["", -2, -4, -2, 10, -8, -15, -47, 7, -84, 53, 5, -1, 2, -7, 3, 83, 31, 47, -1, 30, -8, 69, 2, -4, -1, 8, -7, 12, -8, -8, -13, 30, -84], "withholdReward": false, "trial_id": "mdp_trial_21", "block": "test", "trialIndex": 22, "score": 4, "costs": 0, "simulationMode": [null, null, null, null, null], "rewards": [-2, -4, -2, 7, 5], "path": ["0", "0", "1", "2", "3", "8", "11"], "rt": [1202, 404, 449, 366, 312], "actions": ["up", "up", "up", "left", "left"], "actionTimes": [2622, 3536, 4497, 5365, 6178], "queries": {"click": {"state": {"target": [], "time": []}, "edge": {"target": [], "time": []}}, "mouseover": {"state": {"target": [], "time": []}, "edge": {"target": [], "time": []}}, "mouseout": {"state": {"target": ["0"], "time": [1235]}, "edge": {"target": [], "time": []}}}, "displayed_time": "15.42", "trialTime": 16452, "trial_type": "mouselab-mdp", "trial_index": 29, "time_elapsed": 672790, "internal_node_id": "0.0-6.0-1.0-20.0"}}, {"uniqueid": "w30271393:a44175687", "current_trial": 30, "dateTime": 1693660969930, "trialdata": {"revealed_states": [], "clicked_states": [], "num_clicks_accrued": [0, 0, 0, 0, 0, 0, 0, 0, 0, 0, 0, 0, 0], "stateRewards": ["", -2, 1, -7, -8, -37, -76, -87, 11, 30, -63, 80, -1, 4, 2, -1, 42, 17, 52, -3, -75, -80, -68, 2, -3, -5, -15, -48, 82, 24, -7, 5, -22, -71], "withholdReward": false, "trial_id": "mdp_trial_22", "block": "test", "trialIndex": 23, "score": 61, "costs": 0, "simulationMode": [null, null, null, null, null], "rewards": [2, -3, -5, -15, 82], "path": ["0", "0", "23", "24", "25", "26", "28"], "rt": [1063, 362, 390, 373, 203], "actions": ["left", "left", "left", "up", "right"], "actionTimes": [2144, 3003, 3914, 4799, 5495], "queries": {"click": {"state": {"target": [], "time": []}, "edge": {"target": [], "time": []}}, "mouseover": {"state": {"target": [], "time": []}, "edge": {"target": [], "time": []}}, "mouseout": {"state": {"target": ["0"], "time": [891]}, "edge": {"target": [], "time": []}}}, "displayed_time": "15.08", "trialTime": 16303, "trial_type": "mouselab-mdp", "trial_index": 30, "time_elapsed": 689413, "internal_node_id": "0.0-6.0-1.0-21.0"}}, {"uniqueid": "w30271393:a44175687", "current_trial": 31, "dateTime": 1693660987199, "trialdata": {"revealed_states": [], "clicked_states": [], "num_clicks_accrued": [0, 0, 0, 0, 0, 0, 0, 0, 0, 0, 0, 0, 0], "stateRewards": ["", 1, 2, -6, -13, -51, 22, -4, -12, -44, -12, 6, -2, -2, -2, -14, -46, -4, -77, -2, 36, -79, 41, 2, -4, 2, -6, -55, 59, 70, -5, 39, -19, 24], "withholdReward": false, "trial_id": "mdp_trial_23", "block": "test", "trialIndex": 24, "score": 6, "costs": 0, "simulationMode": [null, null, null, null, null], "rewards": [1, 2, -6, -13, 22], "path": ["0", "0", "1", "2", "3", "4", "6"], "rt": [927, 306, 376, 172, 252], "actions": ["up", "up", "up", "right", "right"], "actionTimes": [2733, 3532, 4401, 5082, 5843], "queries": {"click": {"state": {"target": [], "time": []}, "edge": {"target": [], "time": []}}, "mouseover": {"state": {"target": [], "time": []}, "edge": {"target": [], "time": []}}, "mouseout": {"state": {"target": ["0"], "time": [1628]}, "edge": {"target": [], "time": []}}}, "displayed_time": "15.81", "trialTime": 16989, "trial_type": "mouselab-mdp", "trial_index": 31, "time_elapsed": 706683, "internal_node_id": "0.0-6.0-1.0-22.0"}}, {"uniqueid": "w30271393:a44175687", "current_trial": 32, "dateTime": 1693661007753, "trialdata": {"revealed_states": [], "clicked_states": [], "num_clicks_accrued": [0, 0, 0, 0, 0, 0, 0, 0, 0, 0, 0, 0, 0], "stateRewards": ["", 2, -4, 7, 3, 23, -42, 4, 7, -81, -33, 7, -2, -4, 5, -1, 50, -57, -14, -13, -14, 44, 55, -2, -2, 5, -2, 33, 1, 57, -13, -7, 58, 87], "withholdReward": false, "trial_id": "mdp_trial_24", "block": "test", "trialIndex": 25, "score": -69, "costs": 0, "simulationMode": [null, null, null, null, null], "rewards": [2, -4, 7, 7, -81], "path": ["0", "0", "1", "2", "3", "8", "9"], "rt": [1380, 257, 264, 204, 221], "actions": ["up", "up", "up", "left", "up"], "actionTimes": [6245, 6992, 7765, 8487, 9205], "queries": {"click": {"state": {"target": [], "time": []}, "edge": {"target": [], "time": []}}, "mouseover": {"state": {"target": [], "time": []}, "edge": {"target": [], "time": []}}, "mouseout": {"state": {"target": ["0"], "time": [3815]}, "edge": {"target": [], "time": []}}}, "displayed_time": "18.87", "trialTime": 20285, "trial_type": "mouselab-mdp", "trial_index": 32, "time_elapsed": 727236, "internal_node_id": "0.0-6.0-1.0-23.0"}}, {"uniqueid": "w30271393:a44175687", "current_trial": 33, "dateTime": 1693661024736, "trialdata": {"revealed_states": [], "clicked_states": [], "num_clicks_accrued": [0, 0, 0, 0, 0, 0, 0, 0, 0, 0, 0, 0, 0], "stateRewards": ["", 1, 2, -5, 14, 54, -14, -25, 16, -5, -87, 78, -1, 1, 3, -3, 52, 53, 53, -10, 73, -69, -48, 2, 3, 1, 8, -62, -7, 85, 7, 82, 52, -28], "withholdReward": false, "trial_id": "mdp_trial_25", "block": "test", "trialIndex": 26, "score": 65, "costs": 0, "simulationMode": [null, null, null, null, null], "rewards": [2, 3, 1, 7, 52], "path": ["0", "0", "23", "24", "25", "30", "32"], "rt": [1180, 446, 437, 349, 383], "actions": ["left", "left", "left", "down", "down"], "actionTimes": [2852, 3807, 4747, 5608, 6493], "queries": {"click": {"state": {"target": [], "time": []}, "edge": {"target": [], "time": []}}, "mouseover": {"state": {"target": [], "time": []}, "edge": {"target": [], "time": []}}, "mouseout": {"state": {"target": [], "time": []}, "edge": {"target": [], "time": []}}}, "displayed_time": "15.68", "trialTime": 16694, "trial_type": "mouselab-mdp", "trial_index": 33, "time_elapsed": 744219, "internal_node_id": "0.0-6.0-1.0-24.0"}}, {"uniqueid": "w30271393:a44175687", "current_trial": 34, "dateTime": 1693661044540, "trialdata": {"revealed_states": [], "clicked_states": [], "num_clicks_accrued": [0, 0, 0, 0, 0, 0, 0, 0, 0, 0, 0, 0, 0], "stateRewards": ["", -1, 3, 8, 10, -86, 61, -36, 10, 17, -60, 24, -1, -3, 3, 11, 50, 60, 33, -3, -20, 58, -6, 1, -4, -4, 13, -70, -71, 43, 14, 52, 82, -11], "withholdReward": false, "trial_id": "mdp_trial_26", "block": "test", "trialIndex": 27, "score": 43, "costs": 0, "simulationMode": [null, null, null, null, null], "rewards": [-1, -3, 3, 11, 33], "path": ["0", "0", "12", "13", "14", "15", "18"], "rt": [1368, 439, 394, 282, 220], "actions": ["right", "right", "right", "up", "left"], "actionTimes": [5750, 6685, 7590, 8393, 9131], "queries": {"click": {"state": {"target": [], "time": []}, "edge": {"target": [], "time": []}}, "mouseover": {"state": {"target": [], "time": []}, "edge": {"target": [], "time": []}}, "mouseout": {"state": {"target": ["0"], "time": [1500]}, "edge": {"target": [], "time": []}}}, "displayed_time": "18.39", "trialTime": 19500, "trial_type": "mouselab-mdp", "trial_index": 34, "time_elapsed": 764023, "internal_node_id": "0.0-6.0-1.0-25.0"}}, {"uniqueid": "w30271393:a44175687", "current_trial": 35, "dateTime": 1693661061445, "trialdata": {"revealed_states": [], "clicked_states": [], "num_clicks_accrued": [0, 0, 0, 0, 0, 0, 0, 0, 0, 0, 0, 0, 0], "stateRewards": ["", 2, -1, 5, 6, 10, 86, 55, 10, -45, 63, -71, 1, -2, 5, -8, -50, -72, 36, 15, 61, 12, 33, -1, -4, 6, 5, 79, -56, -21, -16, -87, 60, -81], "withholdReward": false, "trial_id": "mdp_trial_27", "block": "test", "trialIndex": 28, "score": 22, "costs": 0, "simulationMode": [null, null, null, null, null], "rewards": [2, -1, 5, 6, 10], "path": ["0", "0", "1", "2", "3", "4", "5"], "rt": [1241, 365, 332, 313, 729], "actions": ["up", "up", "up", "right", "up"], "actionTimes": [2823, 3690, 4524, 5354, 6602], "queries": {"click": {"state": {"target": [], "time": []}, "edge": {"target": [], "time": []}}, "mouseover": {"state": {"target": [], "time": []}, "edge": {"target": [], "time": []}}, "mouseout": {"state": {"target": ["0"], "time": [1379]}, "edge": {"target": [], "time": []}}}, "displayed_time": "15.58", "trialTime": 16604, "trial_type": "mouselab-mdp", "trial_index": 35, "time_elapsed": 780929, "internal_node_id": "0.0-6.0-1.0-26.0"}}, {"uniqueid": "w30271393:a44175687", "current_trial": 36, "dateTime": 1693661078566, "trialdata": {"revealed_states": [], "clicked_states": [], "num_clicks_accrued": [0, 0, 0, 0, 0, 0, 0, 0, 0, 0, 0, 0, 0], "stateRewards": ["", -2, -4, -6, 12, -58, -70, -80, 2, 16, -88, -62, 1, 2, -5, 11, 77, -35, -44, -5, 18, -83, 87, 1, -3, -5, 13, -44, -21, -86, 10, -52, 8, 29], "withholdReward": false, "trial_id": "mdp_trial_28", "block": "test", "trialIndex": 29, "score": 32, "costs": 0, "simulationMode": [null, null, null, null, null], "rewards": [1, -3, -5, 10, 29], "path": ["0", "0", "23", "24", "25", "30", "33"], "rt": [1340, 318, 383, 109, 302], "actions": ["left", "left", "left", "down", "left"], "actionTimes": [2912, 3751, 4631, 5257, 6065], "queries": {"click": {"state": {"target": [], "time": []}, "edge": {"target": [], "time": []}}, "mouseover": {"state": {"target": ["0"], "time": [1585]}, "edge": {"target": [], "time": []}}, "mouseout": {"state": {"target": ["0"], "time": [1438]}, "edge": {"target": [], "time": []}}}, "displayed_time": "15.58", "trialTime": 16797, "trial_type": "mouselab-mdp", "trial_index": 36, "time_elapsed": 798049, "internal_node_id": "0.0-6.0-1.0-27.0"}}, {"uniqueid": "w30271393:a44175687", "current_trial": 37, "dateTime": 1693661095132, "trialdata": {"revealed_states": [], "clicked_states": [], "num_clicks_accrued": [0, 0, 0, 0, 0, 0, 0, 0, 0, 0, 0, 0, 0], "stateRewards": ["", -2, -3, 8, -4, -30, 31, 69, 9, 66, 87, 64, -2, 2, 8, 5, 47, 16, -39, -8, -54, 51, -19, 1, -2, -2, -11, -25, -26, 43, -9, 19, -84, 86], "withholdReward": false, "trial_id": "mdp_trial_29", "block": "test", "trialIndex": 30, "score": 68, "costs": 0, "simulationMode": [null, null, null, null, null], "rewards": [-2, -3, 8, -4, 69], "path": ["0", "0", "1", "2", "3", "4", "7"], "rt": [2313, 278, 341, 152, 627], "actions": ["up", "up", "up", "right", "down"], "actionTimes": [3486, 4256, 5100, 5762, 6903], "queries": {"click": {"state": {"target": [], "time": []}, "edge": {"target": [], "time": []}}, "mouseover": {"state": {"target": [], "time": []}, "edge": {"target": [], "time": []}}, "mouseout": {"state": {"target": [], "time": []}, "edge": {"target": [], "time": []}}}, "displayed_time": "15.18", "trialTime": 16258, "trial_type": "mouselab-mdp", "trial_index": 37, "time_elapsed": 814615, "internal_node_id": "0.0-6.0-1.0-28.0"}}, {"uniqueid": "w30271393:a44175687", "current_trial": 38, "dateTime": 1693661111897, "trialdata": {"revealed_states": [], "clicked_states": [], "num_clicks_accrued": [0, 0, 0, 0, 0, 0, 0, 0, 0, 0, 0, 0, 0], "stateRewards": ["", -1, 2, -6, 6, 43, 78, 78, -2, 55, -29, -17, -2, -4, 1, -15, 13, 7, -79, 8, -28, -68, 36, -1, -3, 3, -16, 84, -18, 87, 10, 32, 13, -81], "withholdReward": false, "trial_id": "mdp_trial_30", "block": "test", "trialIndex": 31, "score": -35, "costs": 0, "simulationMode": [null, null, null, null, null], "rewards": [-1, -3, 3, -16, -18], "path": ["0", "0", "23", "24", "25", "26", "28"], "rt": [1270, 250, 319, 284, 177], "actions": ["left", "left", "left", "up", "right"], "actionTimes": [2867, 3615, 4449, 5232, 5908], "queries": {"click": {"state": {"target": [], "time": []}, "edge": {"target": [], "time": []}}, "mouseover": {"state": {"target": [], "time": []}, "edge": {"target": [], "time": []}}, "mouseout": {"state": {"target": [], "time": []}, "edge": {"target": [], "time": []}}}, "displayed_time": "15.61", "trialTime": 16462, "trial_type": "mouselab-mdp", "trial_index": 38, "time_elapsed": 831380, "internal_node_id": "0.0-6.0-1.0-29.0"}}, {"uniqueid": "w30271393:a44175687", "current_trial": 39, "dateTime": 1693661129216, "trialdata": {"revealed_states": [], "clicked_states": [], "num_clicks_accrued": [0, 0, 0, 0, 0, 0, 0, 0, 0, 0, 0, 0, 0], "stateRewards": ["", 2, -1, 3, -12, -83, 6, -33, 9, 28, 24, -50, -2, -1, -2, -5, -87, 37, 82, 12, 80, -5, 10, -2, -3, -6, 9, 22, -1, 16, 9, 77, -62, 58], "withholdReward": false, "trial_id": "mdp_trial_31", "block": "test", "trialIndex": 32, "score": 2, "costs": 0, "simulationMode": [null, null, null, null, null], "rewards": [-2, -1, -2, 12, -5], "path": ["0", "0", "12", "13", "14", "19", "21"], "rt": [1454, 356, 438, 308, 274], "actions": ["right", "right", "right", "down", "down"], "actionTimes": [3227, 4090, 5021, 5841, 6624], "queries": {"click": {"state": {"target": [], "time": []}, "edge": {"target": [], "time": []}}, "mouseover": {"state": {"target": [], "time": []}, "edge": {"target": [], "time": []}}, "mouseout": {"state": {"target": ["0", "23", "24", "24", "23"], "time": [8462, 8482, 8598, 8951, 9284]}, "edge": {"target": [], "time": []}}}, "displayed_time": "15.78", "trialTime": 17001, "trial_type": "mouselab-mdp", "trial_index": 39, "time_elapsed": 848699, "internal_node_id": "0.0-6.0-1.0-30.0"}}, {"uniqueid": "w30271393:a44175687", "current_trial": 40, "dateTime": 1693661148501, "trialdata": {"revealed_states": [], "clicked_states": [], "num_clicks_accrued": [0, 0, 0, 0, 0, 0, 0, 0, 0, 0, 0, 0, 0], "stateRewards": ["", 1, -1, 4, 5, -32, 18, 20, 6, -88, -74, 9, -2, 1, -2, -14, 34, -77, -38, -1, 80, -36, 73, 2, 3, -8, 10, -48, -73, -71, -11, -22, 20, 54], "withholdReward": false, "trial_id": "mdp_trial_32", "block": "test", "trialIndex": 33, "score": 19, "costs": 0, "simulationMode": [null, null, null, null, null], "rewards": [1, -1, 4, 6, 9], "path": ["0", "0", "1", "2", "3", "8", "11"], "rt": [1191, 322, 394, 274, 399], "actions": ["up", "up", "up", "left", "left"], "actionTimes": [5176, 6005, 6895, 7659, 8549], "queries": {"click": {"state": {"target": [], "time": []}, "edge": {"target": [], "time": []}}, "mouseover": {"state": {"target": [], "time": []}, "edge": {"target": [], "time": []}}, "mouseout": {"state": {"target": ["0", "0"], "time": [3051, 3993]}, "edge": {"target": [], "time": []}}}, "displayed_time": "17.99", "trialTime": 18970, "trial_type": "mouselab-mdp", "trial_index": 40, "time_elapsed": 867984, "internal_node_id": "0.0-6.0-1.0-31.0"}}, {"uniqueid": "w30271393:a44175687", "current_trial": 41, "dateTime": 1693661165629, "trialdata": {"revealed_states": [], "clicked_states": [], "num_clicks_accrued": [0, 0, 0, 0, 0, 0, 0, 0, 0, 0, 0, 0, 0], "stateRewards": ["", 1, -2, 7, -14, 88, -56, -44, -14, 64, -51, -57, -2, 3, -4, -9, -11, 19, -77, -1, 68, 75, -67, -1, 1, -2, 5, -37, 70, -34, -10, -72, 63, -41], "withholdReward": false, "trial_id": "mdp_trial_33", "block": "test", "trialIndex": 34, "score": 56, "costs": 0, "simulationMode": [null, null, null, null, null], "rewards": [1, -2, 7, -14, 64], "path": ["0", "0", "1", "2", "3", "8", "9"], "rt": [1267, 208, 478, 243, 195], "actions": ["up", "up", "up", "left", "up"], "actionTimes": [3009, 3731, 4716, 5464, 6150], "queries": {"click": {"state": {"target": [], "time": []}, "edge": {"target": [], "time": []}}, "mouseover": {"state": {"target": [], "time": []}, "edge": {"target": [], "time": []}}, "mouseout": {"state": {"target": ["0"], "time": [1594]}, "edge": {"target": [], "time": []}}}, "displayed_time": "15.74", "trialTime": 16836, "trial_type": "mouselab-mdp", "trial_index": 41, "time_elapsed": 885113, "internal_node_id": "0.0-6.0-1.0-32.0"}}, {"uniqueid": "w30271393:a44175687", "current_trial": 42, "dateTime": 1693661182385, "trialdata": {"revealed_states": [], "clicked_states": [], "num_clicks_accrued": [0, 0, 0, 0, 0, 0, 0, 0, 0, 0, 0, 0, 0], "stateRewards": ["", 2, 4, 7, -6, -76, -81, 2, 5, -66, -3, 36, -2, -4, 6, -2, -69, 4, -49, -6, 67, 38, -67, 2, 1, 1, 6, -68, -21, 52, -16, -16, 6, -70], "withholdReward": false, "trial_id": "mdp_trial_34", "block": "test", "trialIndex": 35, "score": 62, "costs": 0, "simulationMode": [null, null, null, null, null], "rewards": [2, 1, 1, 6, 52], "path": ["0", "0", "23", "24", "25", "26", "29"], "rt": [1088, 319, 385, 289, 122], "actions": ["left", "left", "left", "up", "left"], "actionTimes": [2678, 3489, 4389, 5176, 5808], "queries": {"click": {"state": {"target": [], "time": []}, "edge": {"target": [], "time": []}}, "mouseover": {"state": {"target": [], "time": []}, "edge": {"target": [], "time": []}}, "mouseout": {"state": {"target": ["0"], "time": [1419]}, "edge": {"target": [], "time": []}}}, "displayed_time": "15.59", "trialTime": 16424, "trial_type": "mouselab-mdp", "trial_index": 42, "time_elapsed": 901868, "internal_node_id": "0.0-6.0-1.0-33.0"}}, {"uniqueid": "w30271393:a44175687", "current_trial": 43, "dateTime": 1693661200150, "trialdata": {"revealed_states": [], "clicked_states": [], "num_clicks_accrued": [0, 0, 0, 0, 0, 0, 0, 0, 0, 0, 0, 0, 0], "stateRewards": ["", -1, 2, -7, -12, -62, 12, -13, 5, 77, -71, 83, 1, -4, 7, 15, -42, -87, -4, 5, -25, 44, 88, -1, 4, -5, -8, 14, 51, 8, -5, 83, -24, -19], "withholdReward": false, "trial_id": "mdp_trial_35", "block": "test", "trialIndex": 36, "score": 97, "costs": 0, "simulationMode": [null, null, null, null, null], "rewards": [1, -4, 7, 5, 88], "path": ["0", "0", "12", "13", "14", "19", "22"], "rt": [1951, 272, 345, 339, 408], "actions": ["right", "right", "right", "down", "left"], "actionTimes": [4076, 4838, 5677, 6537, 7457], "queries": {"click": {"state": {"target": [], "time": []}, "edge": {"target": [], "time": []}}, "mouseover": {"state": {"target": [], "time": []}, "edge": {"target": [], "time": []}}, "mouseout": {"state": {"target": ["0"], "time": [1934]}, "edge": {"target": [], "time": []}}}, "displayed_time": "16.13", "trialTime": 17467, "trial_type": "mouselab-mdp", "trial_index": 43, "time_elapsed": 919633, "internal_node_id": "0.0-6.0-1.0-34.0"}}, {"uniqueid": "w30271393:a44175687", "current_trial": 44, "dateTime": 1693661219147, "trialdata": {"revealed_states": [], "clicked_states": [], "num_clicks_accrued": [0, 0, 0, 0, 0, 0, 0, 0, 0, 0, 0, 0, 0], "stateRewards": ["", -2, -1, -1, 5, -54, -87, 35, 2, -8, 20, -22, 1, 3, 6, 13, -75, -32, -55, -3, 56, 62, -22, -1, -4, -1, -7, -51, 84, 70, 7, -15, 5, 55], "withholdReward": false, "trial_id": "mdp_trial_36", "block": "test", "trialIndex": 37, "score": -86, "costs": 0, "simulationMode": [null, null, null, null, null], "rewards": [-2, -1, -1, 5, -87], "path": ["0", "0", "1", "2", "3", "4", "6"], "rt": [1057, 179, 307, 258, 205], "actions": ["up", "up", "up", "right", "right"], "actionTimes": [2984, 3671, 4500, 5268, 5980], "queries": {"click": {"state": {"target": [], "time": []}, "edge": {"target": [], "time": []}}, "mouseover": {"state": {"target": [], "time": []}, "edge": {"target": [], "time": []}}, "mouseout": {"state": {"target": ["0"], "time": [1795]}, "edge": {"target": [], "time": []}}}, "displayed_time": "15.93", "trialTime": 18675, "trial_type": "mouselab-mdp", "trial_index": 44, "time_elapsed": 938630, "internal_node_id": "0.0-6.0-1.0-35.0"}}, {"uniqueid": "w30271393:a44175687", "current_trial": 45, "dateTime": 1693661235830, "trialdata": {"revealed_states": [], "clicked_states": [], "num_clicks_accrued": [0, 0, 0, 0, 0, 0, 0, 0, 0, 0, 0, 0, 0], "stateRewards": ["", -2, -1, -4, -15, -14, -67, 32, -3, -59, 63, 31, 2, -1, -7, -15, 71, -66, -27, -3, -54, -39, 72, 2, 1, 1, -13, 77, -40, 35, -9, 35, 75, 57], "withholdReward": false, "trial_id": "mdp_trial_37", "block": "test", "trialIndex": 38, "score": -89, "costs": 0, "simulationMode": [null, null, null, null, null], "rewards": [-2, -1, -4, -15, -67], "path": ["0", "0", "1", "2", "3", "4", "6"], "rt": [1385, 257, 401, 209, 196], "actions": ["up", "up", "up", "right", "right"], "actionTimes": [2399, 3167, 4079, 4801, 5506], "queries": {"click": {"state": {"target": [], "time": []}, "edge": {"target": [], "time": []}}, "mouseover": {"state": {"target": [], "time": []}, "edge": {"target": [], "time": []}}, "mouseout": {"state": {"target": ["0"], "time": [814]}, "edge": {"target": [], "time": []}}}, "displayed_time": "15.02", "trialTime": 16378, "trial_type": "mouselab-mdp", "trial_index": 45, "time_elapsed": 955313, "internal_node_id": "0.0-6.0-1.0-36.0"}}, {"uniqueid": "w30271393:a44175687", "current_trial": 46, "dateTime": 1693661253519, "trialdata": {"revealed_states": [], "clicked_states": [], "num_clicks_accrued": [0, 0, 0, 0, 0, 0, 0, 0, 0, 0, 0, 0, 0], "stateRewards": ["", -1, -2, 8, -6, -79, -6, 87, 9, -5, -66, -38, 2, 2, 5, -6, -82, 74, 85, -8, 67, -30, -15, 1, -2, -2, -2, 87, 64, 49, 7, 2, -38, -9], "withholdReward": false, "trial_id": "mdp_trial_38", "block": "test", "trialIndex": 39, "score": -34, "costs": 0, "simulationMode": [null, null, null, null, null], "rewards": [1, -2, -2, 7, -38], "path": ["0", "0", "23", "24", "25", "30", "32"], "rt": [1625, 290, 319, 210, 246], "actions": ["left", "left", "left", "down", "down"], "actionTimes": [3673, 4464, 5293, 6001, 6754], "queries": {"click": {"state": {"target": [], "time": []}, "edge": {"target": [], "time": []}}, "mouseover": {"state": {"target": [], "time": []}, "edge": {"target": [], "time": []}}, "mouseout": {"state": {"target": ["0"], "time": [1849]}, "edge": {"target": [], "time": []}}}, "displayed_time": "16.05", "trialTime": 17363, "trial_type": "mouselab-mdp", "trial_index": 46, "time_elapsed": 973002, "internal_node_id": "0.0-6.0-1.0-37.0"}}, {"uniqueid": "w30271393:a44175687", "current_trial": 47, "dateTime": 1693661271066, "trialdata": {"revealed_states": [], "clicked_states": [], "num_clicks_accrued": [0, 0, 0, 0, 0, 0, 0, 0, 0, 0, 0, 0, 0], "stateRewards": ["", 1, 1, -5, 10, -31, 73, 14, -8, -23, 63, -70, -1, 2, 8, 7, 25, -59, 27, -10, -40, -71, -15, -2, 3, -8, -5, -19, 77, -34, 7, 67, 63, 19], "withholdReward": false, "trial_id": "mdp_trial_39", "block": "test", "trialIndex": 40, "score": 43, "costs": 0, "simulationMode": [null, null, null, null, null], "rewards": [-1, 2, 8, 7, 27], "path": ["0", "0", "12", "13", "14", "15", "18"], "rt": [1806, 253, 380, 295, 174], "actions": ["right", "right", "right", "up", "left"], "actionTimes": [3816, 4588, 5466, 6280, 6960], "queries": {"click": {"state": {"target": [], "time": []}, "edge": {"target": [], "time": []}}, "mouseover": {"state": {"target": [], "time": []}, "edge": {"target": [], "time": []}}, "mouseout": {"state": {"target": ["0"], "time": [1811]}, "edge": {"target": [], "time": []}}}, "displayed_time": "16.01", "trialTime": 17222, "trial_type": "mouselab-mdp", "trial_index": 47, "time_elapsed": 990549, "internal_node_id": "0.0-6.0-1.0-38.0"}}, {"uniqueid": "w30271393:a44175687", "current_trial": 48, "dateTime": 1693661289345, "trialdata": {"revealed_states": [], "clicked_states": [], "num_clicks_accrued": [0, 0, 0, 0, 0, 0, 0, 0, 0, 0, 0, 0, 0], "stateRewards": ["", -2, -4, -8, 8, 63, -50, -19, -7, -17, -31, 31, 1, 3, -5, 12, -35, -63, -29, -4, -17, -75, -79, -2, -3, -2, 8, -3, -85, 10, -2, -82, -82, 56], "withholdReward": false, "trial_id": "mdp_trial_40", "block": "test", "trialIndex": 41, "score": -2, "costs": 0, "simulationMode": [null, null, null, null, null], "rewards": [-2, -3, -2, 8, -3], "path": ["0", "0", "23", "24", "25", "26", "27"], "rt": [1513, 389, 371, 285, 141], "actions": ["left", "left", "left", "up", "up"], "actionTimes": [3650, 4553, 5434, 6232, 6889], "queries": {"click": {"state": {"target": [], "time": []}, "edge": {"target": [], "time": []}}, "mouseover": {"state": {"target": [], "time": []}, "edge": {"target": [], "time": []}}, "mouseout": {"state": {"target": [], "time": []}, "edge": {"target": [], "time": []}}}, "displayed_time": "16.14", "trialTime": 17964, "trial_type": "mouselab-mdp", "trial_index": 48, "time_elapsed": 1008828, "internal_node_id": "0.0-6.0-1.0-39.0"}}, {"uniqueid": "w30271393:a44175687", "current_trial": 49, "dateTime": 1693661335914, "trialdata": {"rt": 46564, "response": {"Q0": "$-2 to $2", "Q1": "$-32 to $32", "Q2": "$-88 to $88", "Q3": "The cost for clicking on nodes varied between nodes.", "Q4": "Slightly motivated"}, "question_order": [0, 1, 2, 3, 4], "trial_id": "final_quiz_control", "trial_type": "survey-multi-choice", "trial_index": 49, "time_elapsed": 1055397, "internal_node_id": "0.0-6.0-2.0"}}, {"uniqueid": "w30271393:a44175687", "current_trial": 50, "dateTime": 1693661398881, "trialdata": {"rt": 62931, "response": {"Q0": "I used different patterns alternately. If I scored low or high on a route twice in a row I changed it", "Q1": "Not really", "Q2": "It seemed to be very random therefore hard to improve"}, "trial_id": "self_report_control", "trial_type": "survey-text", "trial_index": 50, "time_elapsed": 1118365, "internal_node_id": "0.0-6.0-3.0"}}, {"uniqueid": "w30271393:a44175687", "current_trial": 51, "dateTime": 1693661419699, "trialdata": {"rt": 20786, "response": {"gender": "male", "age": "61", "colorblind": "0", "effort": "0"}, "trial_type": "survey-html-form", "trial_index": 51, "time_elapsed": 1139183, "internal_node_id": "0.0-6.0-4.0"}}, {"uniqueid": "w30271393:a44175687", "current_trial": 52, "dateTime": 1693661443803, "trialdata": {"rt": 24099, "response": {"Q0": "No", "Q1": "No", "Q2": "No"}, "trial_type": "survey-text", "trial_index": 52, "time_elapsed": 1163287, "internal_node_id": "0.0-6.0-5.0"}}, {"uniqueid": "w30271393:a44175687", "current_trial": 53, "dateTime": 1693661480952, "trialdata": {"rt": 37141, "stimulus": "<h1>Completion Code Instructions (1/2)</h1>\n<br><br><br><br>\nYou have reached the end of the experiment! The completion code consists of two parts: (1) a code with 2 characters (2) a code with 6 characters. On this page, you will receive the second part of the code. The first part of the completion code will be on the next page.\n<br><br>\nThe second part of your completion code is: <b>EWEK22</b>\n<br><br>\nPlease note this down. Then, press 'Next' in order to find the first part of your completion code. Once the data has been saved, you will receive this code either in this window or in the original browser window where you started the experiment.\n <br><br>\n<h2 style='color: red;'>Note: this is <strong>NOT</strong> the full completion code. Copy this down and click 'Next' to get the full completion code on the next page.</h2>", "response": 0, "trial_type": "html-button-response", "trial_index": 53, "time_elapsed": 1200435, "internal_node_id": "0.0-6.0-6.0"}}, {"uniqueid": "w30271393:a44175687", "current_trial": 54, "dateTime": 1693661481960, "trialdata": {"success": true, "trial_type": "fullscreen", "trial_index": 54, "time_elapsed": 1201444, "internal_node_id": "0.0-7.0"}}], "questiondata": {"params": {"CODE": "C6DMOQA6", "MIN_TIME": 14, "inspectCost": 1, "startTime": "Sat Sep 02 2023 14:11:19 GMT+0100 (British Summer Time)", "bonusRate": 0.002, "variance": "1_2_4_8_44", "branching": "31123"}, "final_score": 729.6}, "eventdata": [{"eventtype": "initialized", "value": null, "timestamp": 1693660278640, "interval": 0}, {"eventtype": "window_resize", "value": [1147, 667], "timestamp": 1693660278640, "interval": 0}, {"eventtype": "window_resize", "value": [1147, 667], "timestamp": 1693660279000, "interval": 360}, {"eventtype": "window_resize", "value": [1422, 682], "timestamp": 1693660280598, "interval": 1598}, {"eventtype": "window_resize", "value": [1422, 800], "timestamp": 1693660286805, "interval": 6207}, {"eventtype": "window_resize", "value": [1422, 682], "timestamp": 1693661481208, "interval": 1194403}], "useragent": "Mozilla/5.0 (Windows NT 10.0; Win64; x64) AppleWebKit/537.36 (KHTML, like Gecko) Chrome/116.0.0.0 Safari/537.36", "mode": "live", "id": "w30271393:a44175687", "status": "user data saved", "Beginhit": "2023-09-02 13:11:18.877706", "Beginexp": "2023-09-02 13:11:30.089226", "Endhit": "2023-09-02 13:31:24.670318", "psiturkStatus": 3, "browser": "<redacted>", "platform": "windows", "language": "en-GB"}