{"condition": 0, "counterbalance": 0, "assignmentId": "a11772563", "workerId": "w65631012", "hitId": "h24508339", "currenttrial": 5, "bonus": 0, "data": [{"uniqueid": "w65631012:a11772563", "current_trial": 0, "dateTime": 1693580364580, "trialdata": {"success": true, "trial_type": "fullscreen", "trial_index": 0, "time_elapsed": 5470, "internal_node_id": "0.0-0.0"}}, {"uniqueid": "w65631012:a11772563", "current_trial": 1, "dateTime": 1693580376793, "trialdata": {"view_history": [{"page_index": 0, "viewing_time": 12204}], "rt": 12206, "trial_id": "exp_instructions_control", "trial_type": "instructions", "trial_index": 1, "time_elapsed": 17684, "internal_node_id": "0.0-1.0"}}, {"uniqueid": "w65631012:a11772563", "current_trial": 2, "dateTime": 1693580473100, "trialdata": {"view_history": [{"page_index": 0, "viewing_time": 41667}, {"page_index": 1, "viewing_time": 36494}, {"page_index": 2, "viewing_time": 13359}, {"page_index": 3, "viewing_time": 4785}], "rt": 96306, "trial_id": "mouselab_instructions_1_control", "trial_type": "instructions", "trial_index": 2, "time_elapsed": 113991, "internal_node_id": "0.0-2.0-1.0"}}, {"uniqueid": "w65631012:a11772563", "current_trial": 3, "dateTime": 1693580529901, "trialdata": {"revealed_states": [], "clicked_states": ["25", "3", "14"], "num_clicks_accrued": [0, 0, 0, 0, 0, 0, 0, 0, 0, 0, 0, 0, 0], "stateRewards": ["", 10, 10, -10, -10, -10, -10, 10, -10, 10, -10, 10, 10, 10, -10, -10, 10, -10, 10, -10, 10, 10, 10, 10, -10, 10, -10, -10, 10, -10, 10, -10, -10, -10], "withholdReward": false, "trial_id": "practice_1", "block": "test", "trialIndex": 0, "score": 12, "costs": -1.5, "simulationMode": [null, null, null, null, null], "rewards": [10, -10, 10, -10, 10], "path": ["0", "0", "23", "24", "25", "26", "28"], "rt": [20879, 825, 1, 16125, 8154], "actions": ["left", "left", "left", "up", "right"], "actionTimes": [23639, 24985, 25513, 42188, 50850], "queries": {"click": {"state": {"target": ["25", "3", "14"], "time": [5688, 8062, 11028]}, "edge": {"target": [], "time": []}}, "mouseover": {"state": {"target": ["23", "24", "24", "25", "3", "7", "18", "13", "14", "13", "1", "7", "0", "22", "0", "25", "24", "23", "23", "23", "24", "25", "25", "24", "23"], "time": [4229, 4406, 4677, 5303, 7451, 9723, 9770, 10096, 10498, 12347, 12696, 12994, 13492, 13744, 14844, 15243, 17166, 17217, 17965, 18890, 18964, 19163, 20138, 21135, 21238]}, "edge": {"target": [], "time": []}}, "mouseout": {"state": {"target": ["0", "0", "23", "24", "24", "25", "3", "7", "18", "13", "14", "13", "1", "7", "0", "22", "14", "0", "25", "24", "23", "23", "23", "24", "25", "25", "24", "23", "23", "24", "27", "24", "32"], "time": [2030, 3954, 4303, 4553, 4703, 7350, 9698, 9747, 10048, 10448, 12345, 12396, 12721, 13018, 13620, 13894, 14818, 14867, 16973, 17191, 17616, 18141, 18940, 18989, 19664, 21124, 21188, 21537, 32227, 32732, 35299, 36098, 39348]}, "edge": {"target": [], "time": []}}}, "displayed_time": "51.36", "trialTime": 56020, "trial_type": "mouselab-mdp", "trial_index": 3, "time_elapsed": 170790, "internal_node_id": "0.0-2.0-2.0-0.0"}}, {"uniqueid": "w65631012:a11772563", "current_trial": 4, "dateTime": 1693580550882, "trialdata": {"revealed_states": [], "clicked_states": ["3"], "num_clicks_accrued": [0, 0, 0, 0, 0, 0, 0, 0, 0, 0, 0, 0, 0], "stateRewards": ["", -10, -10, -10, -10, 10, 10, 10, 10, 10, 10, -10, 10, -10, -10, 10, 10, 10, 10, 10, 10, -10, 10, 10, -10, 10, 10, -10, -10, -10, 10, -10, 10, 10], "withholdReward": false, "trial_id": "practice_2", "block": "test", "trialIndex": 1, "score": -27, "costs": -0.5, "simulationMode": [null, null, null, null, null], "rewards": [-10, -10, -10, -10, 10], "path": ["0", "0", "1", "2", "3", "4", "6"], "rt": [4106, 958, 447, 5862, 400], "actions": ["up", "up", "up", "right", "right"], "actionTimes": [7829, 9302, 10263, 16651, 17562], "queries": {"click": {"state": {"target": ["3"], "time": [6752]}, "edge": {"target": [], "time": []}}, "mouseover": {"state": {"target": ["1", "2", "3"], "time": [5815, 5893, 6142]}, "edge": {"target": [], "time": []}}, "mouseout": {"state": {"target": ["21", "1", "2", "3", "8", "11", "8"], "time": [2721, 5841, 6116, 6963, 12290, 14490, 14507]}, "edge": {"target": [], "time": []}}}, "displayed_time": "18.08", "trialTime": 20798, "trial_type": "mouselab-mdp", "trial_index": 4, "time_elapsed": 191772, "internal_node_id": "0.0-2.0-2.0-1.0"}}], "questiondata": {"params": {"CODE": "C6DMOQA6", "MIN_TIME": 14, "inspectCost": 1, "startTime": "Fri Sep 01 2023 16:59:14 GMT+0200 (South Africa Standard Time)", "bonusRate": 0.002, "variance": "1_2_4_8_44", "branching": "31123"}}, "eventdata": [{"eventtype": "initialized", "value": null, "timestamp": 1693580353973, "interval": 0}, {"eventtype": "window_resize", "value": [1028, 744], "timestamp": 1693580353974, "interval": 1}, {"eventtype": "window_resize", "value": [1028, 744], "timestamp": 1693580354416, "interval": 442}, {"eventtype": "window_resize", "value": [1536, 864], "timestamp": 1693580363799, "interval": 9383}, {"eventtype": "window_resize", "value": [1028, 744], "timestamp": 1693580572233, "interval": 208434}], "useragent": "Mozilla/5.0 (Windows NT 10.0; Win64; x64) AppleWebKit/537.36 (KHTML, like Gecko) Chrome/116.0.0.0 Safari/537.36", "mode": "live", "id": "w65631012:a11772563", "status": "user data saved", "Beginhit": "2023-09-01 14:59:09.626389", "Beginexp": "2023-09-01 14:59:25.075724", "Endhit": null, "psiturkStatus": 6, "browser": "<redacted>", "platform": "windows", "language": "en-ZA", "excludeReason": "quizfail"}