{"condition": 0, "counterbalance": 0, "assignmentId": "a84538983", "workerId": "w21428452", "hitId": "h93746938", "currenttrial": 55, "bonus": 0, "data": [{"uniqueid": "w21428452:a84538983", "current_trial": 0, "dateTime": 1691160564174, "trialdata": {"success": true, "trial_type": "fullscreen", "trial_index": 0, "time_elapsed": 15448, "internal_node_id": "0.0-0.0"}}, {"uniqueid": "w21428452:a84538983", "current_trial": 1, "dateTime": 1691160614456, "trialdata": {"view_history": [{"page_index": 0, "viewing_time": 50269}], "rt": 50270, "trial_id": "exp_instructions_control", "trial_type": "instructions", "trial_index": 1, "time_elapsed": 65730, "internal_node_id": "0.0-1.0"}}, {"uniqueid": "w21428452:a84538983", "current_trial": 2, "dateTime": 1691160617827, "trialdata": {"success": true, "trial_type": "fullscreen", "trial_index": 2, "time_elapsed": 69101, "internal_node_id": "0.0-2.0-0.0"}}, {"uniqueid": "w21428452:a84538983", "current_trial": 3, "dateTime": 1691160921860, "trialdata": {"view_history": [{"page_index": 0, "viewing_time": 106013}, {"page_index": 1, "viewing_time": 131756}, {"page_index": 2, "viewing_time": 32916}, {"page_index": 3, "viewing_time": 33344}], "rt": 304029, "trial_id": "mouselab_instructions_1_control", "trial_type": "instructions", "trial_index": 3, "time_elapsed": 373134, "internal_node_id": "0.0-2.0-1.0"}}, {"uniqueid": "w21428452:a84538983", "current_trial": 4, "dateTime": 1691160986621, "trialdata": {"revealed_states": [], "clicked_states": [], "num_clicks_accrued": [0, 0, 0, 0, 0, 0, 0, 0, 0, 0, 0, 0, 0], "stateRewards": ["", -10, -10, 10, 10, -10, -10, 10, -10, -10, 10, -10, -10, -10, -10, 10, -10, 10, -10, 10, -10, 10, 10, -10, 10, -10, -10, 10, 10, 10, -10, -10, -10, 10], "withholdReward": false, "trial_id": "practice_1", "block": "test", "trialIndex": 0, "score": -6.5, "costs": 0, "simulationMode": [null, null, null, null, null], "rewards": [-10, -10, 10, 10, -10], "path": ["0", "0", "1", "2", "3", "4", "5"], "rt": [11599, 900, 694, 3110, 452], "actions": ["up", "up", "up", "right", "up"], "actionTimes": [16151, 17553, 18763, 22395, 23369], "queries": {"click": {"state": {"target": [], "time": []}, "edge": {"target": [], "time": []}}, "mouseover": {"state": {"target": ["0", "0"], "time": [8654, 9017]}, "edge": {"target": [], "time": []}}, "mouseout": {"state": {"target": ["0", "0", "0"], "time": [6536, 8733, 11632]}, "edge": {"target": [], "time": []}}}, "displayed_time": "23.88", "trialTime": 62901, "trial_type": "mouselab-mdp", "trial_index": 4, "time_elapsed": 437894, "internal_node_id": "0.0-2.0-2.0-0.0"}}, {"uniqueid": "w21428452:a84538983", "current_trial": 5, "dateTime": 1691161029756, "trialdata": {"revealed_states": [], "clicked_states": ["23", "1", "12"], "num_clicks_accrued": [0, 0, 0, 0, 0, 0, 0, 0, 0, 0, 0, 0, 0], "stateRewards": ["", 10, 10, -10, 10, -10, 10, 10, -10, -10, -10, 10, -10, -10, -10, -10, 10, 10, -10, -10, -10, 10, -10, -10, 10, -10, -10, 10, 10, -10, 10, -10, 10, 10], "withholdReward": false, "trial_id": "practice_2", "block": "test", "trialIndex": 1, "score": 32, "costs": -1.5, "simulationMode": [null, null, null, null, null], "rewards": [10, 10, -10, 10, 10], "path": ["0", "0", "1", "2", "3", "4", "6"], "rt": [12024, 4413, 2458, 10387, 2404], "actions": ["up", "up", "up", "right", "right"], "actionTimes": [15608, 20541, 23516, 34411, 37328], "queries": {"click": {"state": {"target": ["23", "1", "12"], "time": [7581, 9826, 12777]}, "edge": {"target": [], "time": []}}, "mouseover": {"state": {"target": ["23", "24", "23", "1", "12"], "time": [5895, 6028, 6990, 8806, 11356]}, "edge": {"target": [], "time": []}}, "mouseout": {"state": {"target": ["13", "12", "0", "23", "24", "23", "1", "12", "2", "1", "0", "21"], "time": [2213, 2341, 5257, 5928, 6913, 8576, 10956, 16773, 18588, 18638, 18838, 40056]}, "edge": {"target": [], "time": []}}}, "displayed_time": "37.84", "trialTime": 42750, "trial_type": "mouselab-mdp", "trial_index": 5, "time_elapsed": 481029, "internal_node_id": "0.0-2.0-2.0-1.0"}}, {"uniqueid": "w21428452:a84538983", "current_trial": 6, "dateTime": 1691161061901, "trialdata": {"view_history": [{"page_index": 0, "viewing_time": 21765}, {"page_index": 1, "viewing_time": 10374}], "rt": 32139, "trial_id": "mouselab_instructions_2_control", "trial_type": "instructions", "trial_index": 6, "time_elapsed": 513175, "internal_node_id": "0.0-2.0-3.0"}}, {"uniqueid": "w21428452:a84538983", "current_trial": 7, "dateTime": 1691161125225, "trialdata": {"rt": 63319, "response": {"Q0": "The cost for clicking on nodes may vary between nodes.", "Q1": "The better I perform the higher my bonus will be.", "Q2": "No, the amount of cash at each node of the web may be different each time.", "Q3": "To get the highest total score.", "Q4": "Only before moving the spider.", "Q5": "3 seconds"}, "question_order": [0, 1, 2, 3, 4, 5], "correct": {"Q0": "The cost for clicking on nodes may vary between nodes.", "Q1": "The better I perform the higher my bonus will be.", "Q2": "No, the amount of cash at each node of the web may be different each time.", "Q3": "To get the highest total score.", "Q4": "Only before moving the spider.", "Q5": "3 seconds"}, "trial_id": "mouselab_quiz_control", "trial_type": "survey-multi-choice", "trial_index": 7, "time_elapsed": 576499, "internal_node_id": "0.0-2.0-4.0"}}, {"uniqueid": "w21428452:a84538983", "current_trial": 8, "dateTime": 1691161142612, "trialdata": {"rt": 17379, "stimulus": "\n<h1> Get ready to start the game! </h1>\n\nThank you for reading the instructions. Get ready start with the 40 rounds of this game.\n<br><br>\nIf you need to take a break, feel free to take one after the end of a round, before continuing to the next one.\n<br><br>\nRemember, the more money the spider gets, the bigger your bonus will be!\n<br><br>\n<div style='text-align: center;'>Press <code>space</code> to begin.</div>\n\n<br><br>\n(If, at any point, the <code>space</code> key does not take you to the next page, click once on the text and try again.)", "response": " ", "trial_id": "mdp_ready", "trial_type": "html-keyboard-response", "trial_index": 8, "time_elapsed": 593886, "internal_node_id": "0.0-4.0-0.0"}}, {"uniqueid": "w21428452:a84538983", "current_trial": 9, "dateTime": 1691161171241, "trialdata": {"revealed_states": [], "clicked_states": ["1", "23", "12"], "num_clicks_accrued": [0, 0, 0, 0, 0, 0, 0, 0, 0, 0, 0, 0, 0], "stateRewards": ["", 2, 4, -5, 7, 81, 35, 6, 11, 14, -72, 42, -1, 2, 3, -7, -77, -44, -40, -15, -85, 51, -32, -2, -1, -5, 7, -74, 47, 52, 16, -49, 48, -46], "withholdReward": false, "trial_id": "mdp_trial_1", "block": "test", "trialIndex": 2, "score": 38.8, "costs": -4.199999999999999, "simulationMode": [null, null, null, null, null], "rewards": [2, 4, -5, 7, 35], "path": ["0", "0", "1", "2", "3", "4", "6"], "rt": [18225, 289, 489, 362, 110], "actions": ["up", "up", "up", "right", "right"], "actionTimes": [20761, 21567, 22565, 23441, 24074], "queries": {"click": {"state": {"target": ["1", "23", "12"], "time": [3787, 6575, 9864]}, "edge": {"target": [], "time": []}}, "mouseover": {"state": {"target": ["1", "23", "0", "12"], "time": [3326, 4629, 7860, 9328]}, "edge": {"target": [], "time": []}}, "mouseout": {"state": {"target": ["1", "23", "0", "12"], "time": [4313, 7659, 7910, 26327]}, "edge": {"target": [], "time": []}}}, "displayed_time": "24.59", "trialTime": 28225, "trial_type": "mouselab-mdp", "trial_index": 9, "time_elapsed": 622515, "internal_node_id": "0.0-4.0-1.0-0.0"}}, {"uniqueid": "w21428452:a84538983", "current_trial": 10, "dateTime": 1691161189945, "trialdata": {"revealed_states": [], "clicked_states": ["23", "12", "1"], "num_clicks_accrued": [0, 0, 0, 0, 0, 0, 0, 0, 0, 0, 0, 0, 0], "stateRewards": ["", 1, -1, 4, -2, -75, -75, 84, -9, -60, -79, 59, 2, -4, 8, 9, -17, -82, 80, 14, -4, 49, 49, -1, 3, 6, -11, -33, 34, 55, 9, -57, 5, 59], "withholdReward": false, "trial_id": "mdp_trial_2", "block": "test", "trialIndex": 3, "score": 64.8, "costs": -4.199999999999999, "simulationMode": [null, null, null, null, null], "rewards": [2, -4, 8, 14, 49], "path": ["0", "0", "12", "13", "14", "19", "21"], "rt": [8867, 148, 794, 345, 412], "actions": ["right", "right", "right", "down", "down"], "actionTimes": [11649, 12334, 13645, 14512, 15446], "queries": {"click": {"state": {"target": ["23", "12", "1"], "time": [4818, 7101, 9593]}, "edge": {"target": [], "time": []}}, "mouseover": {"state": {"target": ["23", "0", "12", "1"], "time": [4483, 5667, 5834, 8985]}, "edge": {"target": [], "time": []}}, "mouseout": {"state": {"target": ["19", "12", "0", "23", "0", "12"], "time": [1757, 1834, 3622, 5651, 5753, 8682]}, "edge": {"target": [], "time": []}}}, "displayed_time": "16.78", "trialTime": 18288, "trial_type": "mouselab-mdp", "trial_index": 10, "time_elapsed": 641217, "internal_node_id": "0.0-4.0-1.0-1.0"}}, {"uniqueid": "w21428452:a84538983", "current_trial": 11, "dateTime": 1691161210294, "trialdata": {"revealed_states": [], "clicked_states": ["23", "1", "12"], "num_clicks_accrued": [0, 0, 0, 0, 0, 0, 0, 0, 0, 0, 0, 0, 0], "stateRewards": ["", -2, -3, -6, -7, 9, 16, 65, 5, -41, 20, -25, -1, -4, 1, -11, -49, -4, 71, 1, 39, -62, 52, -2, -3, 7, -9, -28, -70, 84, 8, 24, -58, 82], "withholdReward": false, "trial_id": "mdp_trial_3", "block": "test", "trialIndex": 4, "score": 31.8, "costs": -4.199999999999999, "simulationMode": [null, null, null, null, null], "rewards": [-1, -4, 1, 1, 39], "path": ["0", "0", "12", "13", "14", "19", "20"], "rt": [9292, 423, 654, 900, 2396], "actions": ["right", "right", "right", "down", "right"], "actionTimes": [11449, 12394, 13570, 14982, 17894], "queries": {"click": {"state": {"target": ["23", "1", "12"], "time": [4095, 5953, 7888]}, "edge": {"target": [], "time": []}}, "mouseover": {"state": {"target": ["23", "1", "12"], "time": [3663, 4715, 6915]}, "edge": {"target": [], "time": []}}, "mouseout": {"state": {"target": ["1", "0", "23", "1"], "time": [1481, 3486, 4551, 6698]}, "edge": {"target": [], "time": []}}}, "displayed_time": "18.41", "trialTime": 19971, "trial_type": "mouselab-mdp", "trial_index": 11, "time_elapsed": 661567, "internal_node_id": "0.0-4.0-1.0-2.0"}}, {"uniqueid": "w21428452:a84538983", "current_trial": 12, "dateTime": 1691161231228, "trialdata": {"revealed_states": [], "clicked_states": ["1", "12", "23"], "num_clicks_accrued": [0, 0, 0, 0, 0, 0, 0, 0, 0, 0, 0, 0, 0], "stateRewards": ["", -2, 4, -7, -3, -76, 39, -28, 10, 14, 12, 60, 2, -3, 6, -10, 88, -34, -41, -3, 72, -13, -56, 1, 3, 2, 8, -51, 23, -57, 1, 14, -46, -16], "withholdReward": false, "trial_id": "mdp_trial_4", "block": "test", "trialIndex": 5, "score": 78.8, "costs": -4.199999999999999, "simulationMode": [null, null, null, null, null], "rewards": [2, -3, 6, -10, 88], "path": ["0", "0", "12", "13", "14", "15", "16"], "rt": [11801, 287, 378, 1044, 250], "actions": ["right", "right", "right", "up", "up"], "actionTimes": [13817, 14629, 15517, 17085, 17856], "queries": {"click": {"state": {"target": ["1", "12", "23"], "time": [4314, 6424, 8607]}, "edge": {"target": [], "time": []}}, "mouseover": {"state": {"target": ["1", "12", "23"], "time": [3876, 4972, 7638]}, "edge": {"target": [], "time": []}}, "mouseout": {"state": {"target": ["12", "0", "1", "12", "23"], "time": [931, 1070, 4759, 6905, 10242]}, "edge": {"target": [], "time": []}}}, "displayed_time": "18.37", "trialTime": 20483, "trial_type": "mouselab-mdp", "trial_index": 12, "time_elapsed": 682502, "internal_node_id": "0.0-4.0-1.0-3.0"}}, {"uniqueid": "w21428452:a84538983", "current_trial": 13, "dateTime": 1691161248891, "trialdata": {"revealed_states": [], "clicked_states": ["23", "1", "12"], "num_clicks_accrued": [0, 0, 0, 0, 0, 0, 0, 0, 0, 0, 0, 0, 0], "stateRewards": ["", 1, 1, 1, 15, -76, 52, -32, 14, -57, 37, 49, 1, -4, -3, 6, 83, -76, 25, 9, 36, -1, -17, -1, 4, 4, -2, -22, -21, 58, -15, -57, 49, -24], "withholdReward": false, "trial_id": "mdp_trial_5", "block": "test", "trialIndex": 6, "score": 61.8, "costs": -4.199999999999999, "simulationMode": [null, null, null, null, null], "rewards": [1, 1, 1, 14, 49], "path": ["0", "0", "1", "2", "3", "8", "11"], "rt": [9683, 186, 338, 764, 278], "actions": ["up", "up", "up", "left", "left"], "actionTimes": [11769, 12471, 13321, 14599, 15395], "queries": {"click": {"state": {"target": ["23", "1", "12"], "time": [4147, 6077, 9070]}, "edge": {"target": [], "time": []}}, "mouseover": {"state": {"target": ["23", "1", "1", "12"], "time": [3721, 4950, 5566, 7400]}, "edge": {"target": [], "time": []}}, "mouseout": {"state": {"target": ["0", "23", "1", "1", "12"], "time": [3539, 4916, 5066, 6983, 10382]}, "edge": {"target": [], "time": []}}}, "displayed_time": "16.09", "trialTime": 17275, "trial_type": "mouselab-mdp", "trial_index": 13, "time_elapsed": 700164, "internal_node_id": "0.0-4.0-1.0-4.0"}}, {"uniqueid": "w21428452:a84538983", "current_trial": 14, "dateTime": 1691161270429, "trialdata": {"revealed_states": [], "clicked_states": [], "num_clicks_accrued": [0, 0, 0, 0, 0, 0, 0, 0, 0, 0, 0, 0, 0], "stateRewards": ["", 2, -3, -4, -1, 25, -16, 16, 10, -71, -20, -55, 1, 3, -4, -9, 1, 32, 11, -6, 32, -50, -41, -1, 4, 4, -8, 7, -81, 70, 2, -52, 45, -10], "withholdReward": false, "trial_id": "mdp_trial_6", "block": "test", "trialIndex": 7, "score": -82, "costs": 0, "simulationMode": [null, null, null, null, null], "rewards": [-1, 4, 4, -8, -81], "path": ["0", "0", "23", "24", "25", "26", "28"], "rt": [4621, 215, 375, 518, 779], "actions": ["left", "left", "left", "up", "right"], "actionTimes": [6628, 7364, 8249, 9275, 10569], "queries": {"click": {"state": {"target": [], "time": []}, "edge": {"target": [], "time": []}}, "mouseover": {"state": {"target": ["23"], "time": [3505]}, "edge": {"target": [], "time": []}}, "mouseout": {"state": {"target": ["0", "23", "28", "28", "28"], "time": [3355, 13804, 14789, 18644, 19154]}, "edge": {"target": [], "time": []}}}, "displayed_time": "16.01", "trialTime": 21186, "trial_type": "mouselab-mdp", "trial_index": 14, "time_elapsed": 721702, "internal_node_id": "0.0-4.0-1.0-5.0"}}, {"uniqueid": "w21428452:a84538983", "current_trial": 15, "dateTime": 1691161288099, "trialdata": {"revealed_states": [], "clicked_states": ["23", "1", "12"], "num_clicks_accrued": [0, 0, 0, 0, 0, 0, 0, 0, 0, 0, 0, 0, 0], "stateRewards": ["", 2, 1, -3, 7, 46, 11, -36, 16, 71, 5, 1, 2, -2, -8, -3, -4, 6, 55, 7, 68, -54, 2, 1, 1, 6, -6, 42, -4, -84, -11, -65, 63, 25], "withholdReward": false, "trial_id": "mdp_trial_7", "block": "test", "trialIndex": 8, "score": 12.8, "costs": -4.199999999999999, "simulationMode": [null, null, null, null, null], "rewards": [2, 1, -3, 16, 1], "path": ["0", "0", "1", "2", "3", "8", "11"], "rt": [8252, 126, 240, 721, 193], "actions": ["up", "up", "up", "left", "left"], "actionTimes": [10354, 11007, 11753, 12985, 13692], "queries": {"click": {"state": {"target": ["23", "1", "12"], "time": [3644, 5797, 7879]}, "edge": {"target": [], "time": []}}, "mouseover": {"state": {"target": ["23", "1", "12"], "time": [3303, 4137, 6430]}, "edge": {"target": [], "time": []}}, "mouseout": {"state": {"target": ["23", "1", "12"], "time": [4034, 6330, 8447]}, "edge": {"target": [], "time": []}}}, "displayed_time": "16.10", "trialTime": 17236, "trial_type": "mouselab-mdp", "trial_index": 15, "time_elapsed": 739372, "internal_node_id": "0.0-4.0-1.0-6.0"}}, {"uniqueid": "w21428452:a84538983", "current_trial": 16, "dateTime": 1691161309326, "trialdata": {"revealed_states": [], "clicked_states": ["1", "12", "23"], "num_clicks_accrued": [0, 0, 0, 0, 0, 0, 0, 0, 0, 0, 0, 0, 0], "stateRewards": ["", -2, -3, 1, -7, 39, -67, 16, 5, -20, 73, 66, -1, 4, 5, -3, 23, -68, -87, -8, 3, -3, 17, 1, -4, -2, -13, -32, 34, 61, -5, -11, -18, 12], "withholdReward": false, "trial_id": "mdp_trial_8", "block": "test", "trialIndex": 9, "score": -32.2, "costs": -4.199999999999999, "simulationMode": [null, null, null, null, null], "rewards": [1, -4, -2, -5, -18], "path": ["0", "0", "23", "24", "25", "30", "32"], "rt": [11403, 132, 194, 1391, 1571], "actions": ["left", "left", "left", "down", "down"], "actionTimes": [13701, 14365, 15076, 16989, 19069], "queries": {"click": {"state": {"target": ["1", "12", "23"], "time": [3464, 7510, 11153]}, "edge": {"target": [], "time": []}}, "mouseover": {"state": {"target": ["1", "12", "23"], "time": [2989, 4331, 10662]}, "edge": {"target": [], "time": []}}, "mouseout": {"state": {"target": ["0", "1", "12", "23"], "time": [1317, 4131, 8666, 11898]}, "edge": {"target": [], "time": []}}}, "displayed_time": "19.59", "trialTime": 20829, "trial_type": "mouselab-mdp", "trial_index": 16, "time_elapsed": 760598, "internal_node_id": "0.0-4.0-1.0-7.0"}}, {"uniqueid": "w21428452:a84538983", "current_trial": 17, "dateTime": 1691161326472, "trialdata": {"revealed_states": [], "clicked_states": ["23", "1"], "num_clicks_accrued": [0, 0, 0, 0, 0, 0, 0, 0, 0, 0, 0, 0, 0], "stateRewards": ["", 1, -2, -2, 10, -31, -77, 35, 9, -47, 8, 48, -2, 1, -4, -3, -26, -50, 43, -11, 76, -38, 17, 1, -1, 6, 10, 15, -9, 12, -8, 85, 11, -55], "withholdReward": false, "trial_id": "mdp_trial_9", "block": "test", "trialIndex": 10, "score": -72.8, "costs": -2.8, "simulationMode": [null, null, null, null, null], "rewards": [1, -2, -2, 10, -77], "path": ["0", "0", "1", "2", "3", "4", "6"], "rt": [6588, 232, 208, 133, 471], "actions": ["up", "up", "up", "right", "right"], "actionTimes": [8206, 8950, 9674, 10316, 11303], "queries": {"click": {"state": {"target": ["23", "1"], "time": [3084, 5445]}, "edge": {"target": [], "time": []}}, "mouseover": {"state": {"target": ["23", "1", "1", "12"], "time": [2697, 3781, 4165, 6115]}, "edge": {"target": [], "time": []}}, "mouseout": {"state": {"target": ["0", "23", "1", "1", "12", "19"], "time": [2548, 3748, 3814, 5999, 6381, 15797]}, "edge": {"target": [], "time": []}}}, "displayed_time": "15.62", "trialTime": 16717, "trial_type": "mouselab-mdp", "trial_index": 17, "time_elapsed": 777746, "internal_node_id": "0.0-4.0-1.0-8.0"}}, {"uniqueid": "w21428452:a84538983", "current_trial": 18, "dateTime": 1691161343924, "trialdata": {"revealed_states": [], "clicked_states": ["23"], "num_clicks_accrued": [0, 0, 0, 0, 0, 0, 0, 0, 0, 0, 0, 0, 0], "stateRewards": ["", -1, -4, -1, -11, 43, 69, 39, 4, 17, -20, -82, -2, -1, 4, 8, -79, 24, -79, 11, 36, 64, 41, 2, 4, -1, 11, -79, -47, 75, -3, 63, -36, -19], "withholdReward": false, "trial_id": "mdp_trial_10", "block": "test", "trialIndex": 11, "score": -32.4, "costs": -1.4, "simulationMode": [null, null, null, null, null], "rewards": [2, 4, -1, 11, -47], "path": ["0", "0", "23", "24", "25", "26", "28"], "rt": [5130, 338, 311, 232, 131], "actions": ["left", "left", "left", "up", "right"], "actionTimes": [7329, 8189, 9012, 9767, 10415], "queries": {"click": {"state": {"target": ["23"], "time": [3372]}, "edge": {"target": [], "time": []}}, "mouseover": {"state": {"target": ["23", "1"], "time": [2750, 3886]}, "edge": {"target": [], "time": []}}, "mouseout": {"state": {"target": ["20", "14", "13", "0", "23", "1", "0", "12", "13", "14"], "time": [653, 683, 1038, 2635, 3840, 15485, 15618, 15667, 16113, 16146]}, "edge": {"target": [], "time": []}}}, "displayed_time": "16.20", "trialTime": 17055, "trial_type": "mouselab-mdp", "trial_index": 18, "time_elapsed": 795198, "internal_node_id": "0.0-4.0-1.0-9.0"}}, {"uniqueid": "w21428452:a84538983", "current_trial": 19, "dateTime": 1691161361175, "trialdata": {"revealed_states": [], "clicked_states": ["23", "1", "12"], "num_clicks_accrued": [0, 0, 0, 0, 0, 0, 0, 0, 0, 0, 0, 0, 0], "stateRewards": ["", 1, 4, 5, 8, -55, -11, 8, 16, -37, 77, -22, -2, 3, -8, -10, 45, 87, -67, 4, 17, -33, -22, -1, -3, 7, 6, -39, -85, 75, -1, 7, -48, 45], "withholdReward": false, "trial_id": "mdp_trial_11", "block": "test", "trialIndex": 12, "score": -15.2, "costs": -4.199999999999999, "simulationMode": [null, null, null, null, null], "rewards": [1, 4, 5, 16, -37], "path": ["0", "0", "1", "2", "3", "8", "9"], "rt": [8731, 176, 523, 305, 959], "actions": ["up", "up", "up", "left", "up"], "actionTimes": [10626, 11310, 12358, 13171, 14642], "queries": {"click": {"state": {"target": ["23", "1", "12"], "time": [2938, 5056, 7319]}, "edge": {"target": [], "time": []}}, "mouseover": {"state": {"target": ["23", "1", "12"], "time": [2298, 3586, 5585]}, "edge": {"target": [], "time": []}}, "mouseout": {"state": {"target": ["20", "12", "23", "1"], "time": [613, 1067, 3522, 5535]}, "edge": {"target": [], "time": []}}}, "displayed_time": "15.89", "trialTime": 16891, "trial_type": "mouselab-mdp", "trial_index": 19, "time_elapsed": 812449, "internal_node_id": "0.0-4.0-1.0-10.0"}}, {"uniqueid": "w21428452:a84538983", "current_trial": 20, "dateTime": 1691161377932, "trialdata": {"revealed_states": [], "clicked_states": ["23", "1", "12"], "num_clicks_accrued": [0, 0, 0, 0, 0, 0, 0, 0, 0, 0, 0, 0, 0], "stateRewards": ["", -1, 2, -7, -12, -62, 12, -13, 5, 77, -71, 83, 1, -4, 7, 15, -42, -87, -4, 5, -25, 44, 88, -1, 4, -5, -8, 14, 51, 8, -5, 83, -24, -19], "withholdReward": false, "trial_id": "mdp_trial_12", "block": "test", "trialIndex": 13, "score": -72.2, "costs": -4.199999999999999, "simulationMode": [null, null, null, null, null], "rewards": [1, -4, 7, 15, -87], "path": ["0", "0", "12", "13", "14", "15", "17"], "rt": [7902, 132, 103, 65, 35], "actions": ["right", "right", "right", "up", "right"], "actionTimes": [9604, 10245, 10869, 11450, 12014], "queries": {"click": {"state": {"target": ["23", "1", "12"], "time": [2970, 5072, 7176]}, "edge": {"target": [], "time": []}}, "mouseover": {"state": {"target": ["0", "23", "1", "1", "12"], "time": [2595, 2678, 3549, 3830, 5811]}, "edge": {"target": [], "time": []}}, "mouseout": {"state": {"target": ["12", "0", "23", "1", "1", "12", "24"], "time": [996, 2611, 3513, 3580, 5744, 7727, 15193]}, "edge": {"target": [], "time": []}}}, "displayed_time": "15.70", "trialTime": 16394, "trial_type": "mouselab-mdp", "trial_index": 20, "time_elapsed": 829205, "internal_node_id": "0.0-4.0-1.0-11.0"}}, {"uniqueid": "w21428452:a84538983", "current_trial": 21, "dateTime": 1691161394969, "trialdata": {"revealed_states": [], "clicked_states": ["23", "12", "1"], "num_clicks_accrued": [0, 0, 0, 0, 0, 0, 0, 0, 0, 0, 0, 0, 0], "stateRewards": ["", 1, 1, -3, 2, 22, -25, -11, -5, 50, 49, 3, 1, -1, 8, 14, -85, -30, 57, -6, -39, -16, 59, -2, -1, 5, 5, 59, -16, 8, 4, 67, 56, -9], "withholdReward": false, "trial_id": "mdp_trial_13", "block": "test", "trialIndex": 14, "score": -18.2, "costs": -4.199999999999999, "simulationMode": [null, null, null, null, null], "rewards": [1, -1, 8, -6, -16], "path": ["0", "0", "12", "13", "14", "19", "21"], "rt": [8845, 28, 313, 478, 751], "actions": ["right", "right", "right", "down", "down"], "actionTimes": [10455, 11004, 11837, 12836, 14116], "queries": {"click": {"state": {"target": ["23", "12", "1"], "time": [3399, 5532, 7814]}, "edge": {"target": [], "time": []}}, "mouseover": {"state": {"target": ["0", "23", "12", "1"], "time": [2908, 3023, 4344, 6075]}, "edge": {"target": [], "time": []}}, "mouseout": {"state": {"target": ["0", "23", "12", "1"], "time": [2957, 3811, 5959, 8409]}, "edge": {"target": [], "time": []}}}, "displayed_time": "15.61", "trialTime": 16610, "trial_type": "mouselab-mdp", "trial_index": 21, "time_elapsed": 846242, "internal_node_id": "0.0-4.0-1.0-12.0"}}, {"uniqueid": "w21428452:a84538983", "current_trial": 22, "dateTime": 1691161411413, "trialdata": {"revealed_states": [], "clicked_states": ["1", "23", "12"], "num_clicks_accrued": [0, 0, 0, 0, 0, 0, 0, 0, 0, 0, 0, 0, 0], "stateRewards": ["", -2, 2, -5, -6, 10, -66, -58, -10, -11, -63, -70, -1, -4, -5, 7, 66, -64, -43, -3, 45, -37, 4, -2, -2, -6, -4, -30, 33, 43, 15, -32, -65, -59], "withholdReward": false, "trial_id": "mdp_trial_14", "block": "test", "trialIndex": 15, "score": -50.2, "costs": -4.199999999999999, "simulationMode": [null, null, null, null, null], "rewards": [-1, -4, -5, 7, -43], "path": ["0", "0", "12", "13", "14", "15", "18"], "rt": [7878, 59, 282, 138, 172], "actions": ["right", "right", "right", "up", "left"], "actionTimes": [9264, 9871, 10681, 11338, 12022], "queries": {"click": {"state": {"target": ["1", "23", "12"], "time": [2516, 4782, 6884]}, "edge": {"target": [], "time": []}}, "mouseover": {"state": {"target": ["1", "23", "0", "12", "12"], "time": [1931, 2942, 5415, 5465, 5848]}, "edge": {"target": [], "time": []}}, "mouseout": {"state": {"target": ["1", "23", "0", "12"], "time": [2899, 5399, 5449, 5504]}, "edge": {"target": [], "time": []}}}, "displayed_time": "15.39", "trialTime": 15999, "trial_type": "mouselab-mdp", "trial_index": 22, "time_elapsed": 862686, "internal_node_id": "0.0-4.0-1.0-13.0"}}, {"uniqueid": "w21428452:a84538983", "current_trial": 23, "dateTime": 1691161428082, "trialdata": {"revealed_states": [], "clicked_states": ["23", "1"], "num_clicks_accrued": [0, 0, 0, 0, 0, 0, 0, 0, 0, 0, 0, 0, 0], "stateRewards": ["", -2, -1, -3, -1, -78, -6, 2, -1, 22, -88, 32, 2, 2, -7, -8, -51, -17, 54, 2, -44, 54, 75, 2, -2, -8, -15, -29, 12, -67, 15, -1, -47, -47], "withholdReward": false, "trial_id": "mdp_trial_15", "block": "test", "trialIndex": 16, "score": -54.8, "costs": -2.8, "simulationMode": [null, null, null, null, null], "rewards": [2, -2, -8, -15, -29], "path": ["0", "0", "23", "24", "25", "26", "27"], "rt": [6218, 98, 196, 1146, 80], "actions": ["left", "left", "left", "up", "up"], "actionTimes": [7469, 8074, 8788, 10459, 11056], "queries": {"click": {"state": {"target": ["23", "1"], "time": [2775, 5475]}, "edge": {"target": [], "time": []}}, "mouseover": {"state": {"target": ["23", "1", "1"], "time": [2323, 3509, 3941]}, "edge": {"target": [], "time": []}}, "mouseout": {"state": {"target": ["12", "0", "23", "1", "1", "23"], "time": [476, 594, 3443, 3791, 6225, 6975]}, "edge": {"target": [], "time": []}}}, "displayed_time": "15.26", "trialTime": 16244, "trial_type": "mouselab-mdp", "trial_index": 23, "time_elapsed": 879355, "internal_node_id": "0.0-4.0-1.0-14.0"}}, {"uniqueid": "w21428452:a84538983", "current_trial": 24, "dateTime": 1691161445205, "trialdata": {"revealed_states": [], "clicked_states": ["23"], "num_clicks_accrued": [0, 0, 0, 0, 0, 0, 0, 0, 0, 0, 0, 0, 0], "stateRewards": ["", 2, -2, -3, 10, -4, -1, -11, -8, -9, -36, -78, 2, 1, 7, -7, 44, -1, -31, -1, 26, 47, 83, 2, -4, -4, -6, -52, -76, -81, -1, -59, 45, 67], "withholdReward": false, "trial_id": "mdp_trial_16", "block": "test", "trialIndex": 17, "score": 36.6, "costs": -1.4, "simulationMode": [null, null, null, null, null], "rewards": [2, -4, -4, -1, 45], "path": ["0", "0", "23", "24", "25", "30", "32"], "rt": [4940, 139, 75, 744, 1299], "actions": ["left", "left", "left", "down", "down"], "actionTimes": [6790, 7439, 8025, 9294, 11116], "queries": {"click": {"state": {"target": ["23"], "time": [3395]}, "edge": {"target": [], "time": []}}, "mouseover": {"state": {"target": ["23", "1"], "time": [2884, 4015]}, "edge": {"target": [], "time": []}}, "mouseout": {"state": {"target": ["0", "12", "0", "23"], "time": [968, 1167, 2766, 3849]}, "edge": {"target": [], "time": []}}}, "displayed_time": "15.85", "trialTime": 16680, "trial_type": "mouselab-mdp", "trial_index": 24, "time_elapsed": 896478, "internal_node_id": "0.0-4.0-1.0-15.0"}}, {"uniqueid": "w21428452:a84538983", "current_trial": 25, "dateTime": 1691161462755, "trialdata": {"revealed_states": [], "clicked_states": ["23"], "num_clicks_accrued": [0, 0, 0, 0, 0, 0, 0, 0, 0, 0, 0, 0, 0], "stateRewards": ["", -2, 3, -1, -9, 44, 48, -37, -3, 71, -39, 87, -1, 3, -4, 4, -21, 59, -15, -8, -1, 28, -38, 2, 4, 4, 8, -85, -72, -63, 14, 58, 63, -46], "withholdReward": false, "trial_id": "mdp_trial_17", "block": "test", "trialIndex": 18, "score": 80.6, "costs": -1.4, "simulationMode": [null, null, null, null, null], "rewards": [2, 4, 4, 14, 58], "path": ["0", "0", "23", "24", "25", "30", "31"], "rt": [3665, 274, 232, 347, 473], "actions": ["left", "left", "left", "down", "right"], "actionTimes": [5779, 6565, 7306, 8172, 9163], "queries": {"click": {"state": {"target": ["23"], "time": [3084]}, "edge": {"target": [], "time": []}}, "mouseover": {"state": {"target": ["23", "0", "12"], "time": [2725, 3880, 4340]}, "edge": {"target": [], "time": []}}, "mouseout": {"state": {"target": ["1", "23", "0", "12"], "time": [1189, 3817, 4040, 15473]}, "edge": {"target": [], "time": []}}}, "displayed_time": "16.11", "trialTime": 16972, "trial_type": "mouselab-mdp", "trial_index": 25, "time_elapsed": 914028, "internal_node_id": "0.0-4.0-1.0-16.0"}}, {"uniqueid": "w21428452:a84538983", "current_trial": 26, "dateTime": 1691161480172, "trialdata": {"revealed_states": [], "clicked_states": ["23"], "num_clicks_accrued": [0, 0, 0, 0, 0, 0, 0, 0, 0, 0, 0, 0, 0], "stateRewards": ["", 1, 1, -6, -2, 7, 77, 3, 16, -16, 66, 31, -1, 3, -8, -6, 33, -50, -48, 7, -60, -66, 36, 2, -3, 3, -7, -12, -61, -79, -4, 8, 74, -70], "withholdReward": false, "trial_id": "mdp_trial_18", "block": "test", "trialIndex": 19, "score": -18.4, "costs": -1.4, "simulationMode": [null, null, null, null, null], "rewards": [2, -3, 3, -7, -12], "path": ["0", "0", "23", "24", "25", "26", "27"], "rt": [4049, 345, 226, 1039, 410], "actions": ["left", "left", "left", "up", "up"], "actionTimes": [5979, 6837, 7584, 9142, 10069], "queries": {"click": {"state": {"target": ["23"], "time": [3254]}, "edge": {"target": [], "time": []}}, "mouseover": {"state": {"target": ["23", "12"], "time": [2955, 4152]}, "edge": {"target": [], "time": []}}, "mouseout": {"state": {"target": ["15", "12", "0", "23"], "time": [822, 905, 2806, 3777]}, "edge": {"target": [], "time": []}}}, "displayed_time": "15.93", "trialTime": 16959, "trial_type": "mouselab-mdp", "trial_index": 26, "time_elapsed": 931446, "internal_node_id": "0.0-4.0-1.0-17.0"}}, {"uniqueid": "w21428452:a84538983", "current_trial": 27, "dateTime": 1691161500181, "trialdata": {"revealed_states": [], "clicked_states": ["23", "12", "1"], "num_clicks_accrued": [0, 0, 0, 0, 0, 0, 0, 0, 0, 0, 0, 0, 0], "stateRewards": ["", 1, 2, 8, -2, 23, -69, -18, -16, 54, -21, 71, -1, -4, 7, 11, 43, -6, 88, 6, -55, 72, 43, 1, -3, -2, -1, 68, -31, -54, 4, -8, 25, -2], "withholdReward": false, "trial_id": "mdp_trial_19", "block": "test", "trialIndex": 20, "score": 44.8, "costs": -4.199999999999999, "simulationMode": [null, null, null, null, null], "rewards": [1, 2, 8, -16, 54], "path": ["0", "0", "1", "2", "3", "8", "9"], "rt": [8573, 514, 382, 1065, 1006], "actions": ["up", "up", "up", "left", "up"], "actionTimes": [10359, 11388, 12289, 13877, 15396], "queries": {"click": {"state": {"target": ["23", "12", "1"], "time": [2964, 5274, 7432]}, "edge": {"target": [], "time": []}}, "mouseover": {"state": {"target": ["23", "12", "1"], "time": [2205, 3605, 6656]}, "edge": {"target": [], "time": []}}, "mouseout": {"state": {"target": ["12", "23", "12"], "time": [957, 3096, 6406]}, "edge": {"target": [], "time": []}}}, "displayed_time": "15.91", "trialTime": 19571, "trial_type": "mouselab-mdp", "trial_index": 27, "time_elapsed": 951455, "internal_node_id": "0.0-4.0-1.0-18.0"}}, {"uniqueid": "w21428452:a84538983", "current_trial": 28, "dateTime": 1691161516681, "trialdata": {"revealed_states": [], "clicked_states": ["23", "1", "12"], "num_clicks_accrued": [0, 0, 0, 0, 0, 0, 0, 0, 0, 0, 0, 0, 0], "stateRewards": ["", -2, -4, 6, 14, -34, 49, 36, -8, -3, 32, -4, 1, -2, 1, -8, -20, -71, -57, -7, -86, -62, -16, -2, -3, -5, 11, 23, -21, 53, 5, -5, 85, 73], "withholdReward": false, "trial_id": "mdp_trial_20", "block": "test", "trialIndex": 21, "score": -83.2, "costs": -4.199999999999999, "simulationMode": [null, null, null, null, null], "rewards": [1, -2, 1, -8, -71], "path": ["0", "0", "12", "13", "14", "15", "17"], "rt": [7787, 59, 245, 313, 35], "actions": ["right", "right", "right", "up", "right"], "actionTimes": [9225, 9804, 10572, 11407, 11963], "queries": {"click": {"state": {"target": ["23", "1", "12"], "time": [2473, 4604, 7034]}, "edge": {"target": [], "time": []}}, "mouseover": {"state": {"target": ["23", "1", "1", "12"], "time": [2294, 3135, 3494, 6742]}, "edge": {"target": [], "time": []}}, "mouseout": {"state": {"target": ["1", "23", "1", "1", "1", "12"], "time": [643, 3084, 3154, 5545, 6433, 13262]}, "edge": {"target": [], "time": []}}}, "displayed_time": "15.45", "trialTime": 16094, "trial_type": "mouselab-mdp", "trial_index": 28, "time_elapsed": 967955, "internal_node_id": "0.0-4.0-1.0-19.0"}}, {"uniqueid": "w21428452:a84538983", "current_trial": 29, "dateTime": 1691161533094, "trialdata": {"revealed_states": [], "clicked_states": ["23", "1"], "num_clicks_accrued": [0, 0, 0, 0, 0, 0, 0, 0, 0, 0, 0, 0, 0], "stateRewards": ["", -1, -2, -1, -10, -57, 73, -72, -16, 75, -14, -46, -2, -3, -7, -1, -61, -60, 76, -4, 50, 4, 14, 2, 2, -7, 12, -65, -32, 15, -8, -76, -25, -61], "withholdReward": false, "trial_id": "mdp_trial_21", "block": "test", "trialIndex": 22, "score": 21.2, "costs": -2.8, "simulationMode": [null, null, null, null, null], "rewards": [2, 2, -7, 12, 15], "path": ["0", "0", "23", "24", "25", "26", "29"], "rt": [5701, 482, 181, 1427, 645], "actions": ["left", "left", "left", "up", "left"], "actionTimes": [7298, 8291, 8990, 10936, 12104], "queries": {"click": {"state": {"target": ["23", "1"], "time": [2797, 4927]}, "edge": {"target": [], "time": []}}, "mouseover": {"state": {"target": ["23", "1", "0", "12"], "time": [2140, 3591, 5891, 6124]}, "edge": {"target": [], "time": []}}, "mouseout": {"state": {"target": ["0", "23", "1", "0", "12"], "time": [2011, 2931, 5625, 5925, 6457]}, "edge": {"target": [], "time": []}}}, "displayed_time": "15.60", "trialTime": 15989, "trial_type": "mouselab-mdp", "trial_index": 29, "time_elapsed": 984368, "internal_node_id": "0.0-4.0-1.0-20.0"}}, {"uniqueid": "w21428452:a84538983", "current_trial": 30, "dateTime": 1691161551296, "trialdata": {"revealed_states": [], "clicked_states": ["23", "12"], "num_clicks_accrued": [0, 0, 0, 0, 0, 0, 0, 0, 0, 0, 0, 0, 0], "stateRewards": ["", -2, -3, -7, 7, -54, -69, -4, -14, -77, 22, 40, -2, -1, 5, 6, -35, 50, -60, 10, -28, 75, 57, 1, -4, -2, 2, 68, 34, -18, 12, 3, -21, -43], "withholdReward": false, "trial_id": "mdp_trial_22", "block": "test", "trialIndex": 23, "score": 62.2, "costs": -2.8, "simulationMode": [null, null, null, null, null], "rewards": [1, -4, -2, 2, 68], "path": ["0", "0", "23", "24", "25", "26", "27"], "rt": [8513, 89, 59, 1251, 287], "actions": ["left", "left", "left", "up", "up"], "actionTimes": [10690, 11295, 11863, 13637, 14441], "queries": {"click": {"state": {"target": ["23", "12"], "time": [5013, 8071]}, "edge": {"target": [], "time": []}}, "mouseover": {"state": {"target": ["23", "12"], "time": [4588, 5920]}, "edge": {"target": [], "time": []}}, "mouseout": {"state": {"target": ["0", "0", "23", "12"], "time": [1204, 4522, 5719, 8936]}, "edge": {"target": [], "time": []}}}, "displayed_time": "16.18", "trialTime": 17768, "trial_type": "mouselab-mdp", "trial_index": 30, "time_elapsed": 1002568, "internal_node_id": "0.0-4.0-1.0-21.0"}}, {"uniqueid": "w21428452:a84538983", "current_trial": 31, "dateTime": 1691161568481, "trialdata": {"revealed_states": [], "clicked_states": ["23", "1", "12"], "num_clicks_accrued": [0, 0, 0, 0, 0, 0, 0, 0, 0, 0, 0, 0, 0], "stateRewards": ["", 1, -1, -7, -7, -22, 15, -13, 13, 26, -32, 38, -1, 1, -7, -4, 16, -62, 86, 12, -54, 56, 64, -2, -1, 6, 14, -57, 37, 62, -6, -25, 50, -70], "withholdReward": false, "trial_id": "mdp_trial_23", "block": "test", "trialIndex": 24, "score": 27.8, "costs": -4.199999999999999, "simulationMode": [null, null, null, null, null], "rewards": [1, -1, -7, 13, 26], "path": ["0", "0", "1", "2", "3", "8", "9"], "rt": [8104, 123, 295, 812, 1121], "actions": ["up", "up", "up", "left", "up"], "actionTimes": [9730, 10350, 11167, 12488, 14125], "queries": {"click": {"state": {"target": ["23", "1", "12"], "time": [2967, 5086, 7288]}, "edge": {"target": [], "time": []}}, "mouseover": {"state": {"target": ["23", "1", "12"], "time": [2507, 4239, 5872]}, "edge": {"target": [], "time": []}}, "mouseout": {"state": {"target": ["0", "23", "1"], "time": [923, 3872, 5505]}, "edge": {"target": [], "time": []}}}, "displayed_time": "15.63", "trialTime": 16741, "trial_type": "mouselab-mdp", "trial_index": 31, "time_elapsed": 1019754, "internal_node_id": "0.0-4.0-1.0-22.0"}}, {"uniqueid": "w21428452:a84538983", "current_trial": 32, "dateTime": 1691161585485, "trialdata": {"revealed_states": [], "clicked_states": ["23", "12"], "num_clicks_accrued": [0, 0, 0, 0, 0, 0, 0, 0, 0, 0, 0, 0, 0], "stateRewards": ["", 1, 1, 6, -14, -40, 37, 16, -13, 33, -68, 49, 2, 4, 3, 6, 55, 27, 32, 10, -65, 20, -87, 2, 1, -6, -5, -42, 12, 29, -8, 16, 76, -33], "withholdReward": false, "trial_id": "mdp_trial_24", "block": "test", "trialIndex": 25, "score": 18.2, "costs": -2.8, "simulationMode": [null, null, null, null, null], "rewards": [2, 1, -6, -5, 29], "path": ["0", "0", "23", "24", "25", "26", "29"], "rt": [6057, 26, 29, 394, 176], "actions": ["left", "left", "left", "up", "left"], "actionTimes": [7906, 8452, 8989, 9904, 10601], "queries": {"click": {"state": {"target": ["23", "12"], "time": [3230, 5499]}, "edge": {"target": [], "time": []}}, "mouseover": {"state": {"target": ["23", "12", "0"], "time": [2890, 4012, 6162]}, "edge": {"target": [], "time": []}}, "mouseout": {"state": {"target": ["12", "0", "23", "12", "0"], "time": [758, 827, 3910, 6129, 6225]}, "edge": {"target": [], "time": []}}}, "displayed_time": "15.86", "trialTime": 16484, "trial_type": "mouselab-mdp", "trial_index": 32, "time_elapsed": 1036758, "internal_node_id": "0.0-4.0-1.0-23.0"}}, {"uniqueid": "w21428452:a84538983", "current_trial": 33, "dateTime": 1691161602542, "trialdata": {"revealed_states": [], "clicked_states": ["23"], "num_clicks_accrued": [0, 0, 0, 0, 0, 0, 0, 0, 0, 0, 0, 0, 0], "stateRewards": ["", -1, 2, 6, 11, 21, -21, -21, -6, 48, -71, 88, -1, -3, 3, 7, 64, 2, 9, -4, 37, -67, 72, 2, 2, -8, -8, -10, 71, -40, -3, 73, 80, 47], "withholdReward": false, "trial_id": "mdp_trial_25", "block": "test", "trialIndex": 26, "score": 64.6, "costs": -1.4, "simulationMode": [null, null, null, null, null], "rewards": [2, 2, -8, -3, 73], "path": ["0", "0", "23", "24", "25", "30", "31"], "rt": [4175, 84, 251, 639, 571], "actions": ["left", "left", "left", "down", "right"], "actionTimes": [6372, 6978, 7758, 8914, 9997], "queries": {"click": {"state": {"target": ["23"], "time": [3713]}, "edge": {"target": [], "time": []}}, "mouseover": {"state": {"target": ["23", "0", "12"], "time": [3293, 4226, 4492]}, "edge": {"target": [], "time": []}}, "mouseout": {"state": {"target": ["0", "23", "0"], "time": [3242, 4177, 4243]}, "edge": {"target": [], "time": []}}}, "displayed_time": "16.20", "trialTime": 16560, "trial_type": "mouselab-mdp", "trial_index": 33, "time_elapsed": 1053815, "internal_node_id": "0.0-4.0-1.0-24.0"}}, {"uniqueid": "w21428452:a84538983", "current_trial": 34, "dateTime": 1691161619969, "trialdata": {"revealed_states": [], "clicked_states": ["23"], "num_clicks_accrued": [0, 0, 0, 0, 0, 0, 0, 0, 0, 0, 0, 0, 0], "stateRewards": ["", -1, -3, -6, 14, 41, 18, 63, -14, 80, 21, 17, -2, -4, -2, -5, 13, 70, 8, -4, -64, -10, -20, 2, -1, 4, -1, -17, -55, 42, -7, 47, 54, 15], "withholdReward": false, "trial_id": "mdp_trial_26", "block": "test", "trialIndex": 27, "score": 50.6, "costs": -1.4, "simulationMode": [null, null, null, null, null], "rewards": [2, -1, 4, -7, 54], "path": ["0", "0", "23", "24", "25", "30", "32"], "rt": [4029, 89, 209, 319, 190], "actions": ["left", "left", "left", "down", "down"], "actionTimes": [5931, 6528, 7248, 8073, 8775], "queries": {"click": {"state": {"target": ["23"], "time": [3288]}, "edge": {"target": [], "time": []}}, "mouseover": {"state": {"target": ["23", "0", "12"], "time": [2947, 3999, 4266]}, "edge": {"target": [], "time": []}}, "mouseout": {"state": {"target": ["12", "0", "23", "0", "12"], "time": [1113, 2295, 3948, 4216, 16612]}, "edge": {"target": [], "time": []}}}, "displayed_time": "15.91", "trialTime": 16883, "trial_type": "mouselab-mdp", "trial_index": 34, "time_elapsed": 1071242, "internal_node_id": "0.0-4.0-1.0-25.0"}}, {"uniqueid": "w21428452:a84538983", "current_trial": 35, "dateTime": 1691161636847, "trialdata": {"revealed_states": [], "clicked_states": ["23", "12", "1"], "num_clicks_accrued": [0, 0, 0, 0, 0, 0, 0, 0, 0, 0, 0, 0, 0], "stateRewards": ["", 2, -4, -4, 13, -80, 62, 13, -11, 57, -13, -44, 1, 4, 3, -4, -29, -88, 15, 16, -58, 68, -45, -1, -3, -1, -9, -44, -86, -19, -7, -36, 59, 66], "withholdReward": false, "trial_id": "mdp_trial_27", "block": "test", "trialIndex": 28, "score": -77.2, "costs": -4.199999999999999, "simulationMode": [null, null, null, null, null], "rewards": [2, -4, -4, 13, -80], "path": ["0", "0", "1", "2", "3", "4", "5"], "rt": [7982, 65, 188, 274, 177], "actions": ["up", "up", "up", "right", "up"], "actionTimes": [9480, 10067, 10789, 11577, 12263], "queries": {"click": {"state": {"target": ["23", "12", "1"], "time": [2852, 4986, 7332]}, "edge": {"target": [], "time": []}}, "mouseover": {"state": {"target": ["23", "0", "12", "1", "1", "0"], "time": [2449, 3471, 3688, 5718, 6034, 7905]}, "edge": {"target": [], "time": []}}, "mouseout": {"state": {"target": ["0", "23", "0", "12", "1", "1", "1", "0"], "time": [2183, 3435, 3488, 5568, 5785, 7458, 7834, 7934]}, "edge": {"target": [], "time": []}}}, "displayed_time": "15.50", "trialTime": 16327, "trial_type": "mouselab-mdp", "trial_index": 35, "time_elapsed": 1088118, "internal_node_id": "0.0-4.0-1.0-26.0"}}, {"uniqueid": "w21428452:a84538983", "current_trial": 36, "dateTime": 1691161654532, "trialdata": {"revealed_states": [], "clicked_states": ["23", "12", "1"], "num_clicks_accrued": [0, 0, 0, 0, 0, 0, 0, 0, 0, 0, 0, 0, 0], "stateRewards": ["", -1, 4, 3, 12, -27, 34, -33, 3, -63, 1, 6, 2, 2, -6, -11, -77, -85, 68, -6, 51, 81, -60, -2, -2, 1, 15, 20, 15, 68, -10, -14, 6, -4], "withholdReward": false, "trial_id": "mdp_trial_28", "block": "test", "trialIndex": 29, "score": 38.8, "costs": -4.199999999999999, "simulationMode": [null, null, null, null, null], "rewards": [2, 2, -6, -6, 51], "path": ["0", "0", "12", "13", "14", "19", "20"], "rt": [7631, 84, 286, 291, 253], "actions": ["right", "right", "right", "down", "right"], "actionTimes": [9850, 10457, 11258, 12059, 12821], "queries": {"click": {"state": {"target": ["23", "12", "1"], "time": [3773, 5968, 7944]}, "edge": {"target": [], "time": []}}, "mouseover": {"state": {"target": ["23", "0", "12", "1"], "time": [3155, 4434, 4517, 6867]}, "edge": {"target": [], "time": []}}, "mouseout": {"state": {"target": ["0", "23", "0", "12", "1"], "time": [1216, 4402, 4467, 6450, 8383]}, "edge": {"target": [], "time": []}}}, "displayed_time": "16.22", "trialTime": 17151, "trial_type": "mouselab-mdp", "trial_index": 36, "time_elapsed": 1105804, "internal_node_id": "0.0-4.0-1.0-27.0"}}, {"uniqueid": "w21428452:a84538983", "current_trial": 37, "dateTime": 1691161671322, "trialdata": {"revealed_states": [], "clicked_states": ["23"], "num_clicks_accrued": [0, 0, 0, 0, 0, 0, 0, 0, 0, 0, 0, 0, 0], "stateRewards": ["", 1, -1, 1, 13, 31, -56, 72, 2, 41, 5, 63, -2, -3, -2, 3, -71, -26, 52, 13, -31, 24, -67, 2, -2, 5, 4, 66, 43, 72, 9, 86, -26, 44], "withholdReward": false, "trial_id": "mdp_trial_29", "block": "test", "trialIndex": 30, "score": 79.6, "costs": -1.4, "simulationMode": [null, null, null, null, null], "rewards": [2, -2, 5, 4, 72], "path": ["0", "0", "23", "24", "25", "26", "29"], "rt": [4314, 48, 230, 317, 510], "actions": ["left", "left", "left", "up", "left"], "actionTimes": [6201, 6767, 7532, 8373, 9397], "queries": {"click": {"state": {"target": ["23"], "time": [3418]}, "edge": {"target": [], "time": []}}, "mouseover": {"state": {"target": ["23", "0", "12"], "time": [3006, 3920, 4310]}, "edge": {"target": [], "time": []}}, "mouseout": {"state": {"target": ["0", "23", "0", "12"], "time": [2567, 3835, 4021, 11185]}, "edge": {"target": [], "time": []}}}, "displayed_time": "15.89", "trialTime": 16312, "trial_type": "mouselab-mdp", "trial_index": 37, "time_elapsed": 1122595, "internal_node_id": "0.0-4.0-1.0-28.0"}}, {"uniqueid": "w21428452:a84538983", "current_trial": 38, "dateTime": 1691161691281, "trialdata": {"revealed_states": [], "clicked_states": ["23", "12", "1"], "num_clicks_accrued": [0, 0, 0, 0, 0, 0, 0, 0, 0, 0, 0, 0, 0], "stateRewards": ["", -1, 2, -6, 6, -82, -19, -39, -16, -83, 11, -33, -2, -2, 4, -6, -82, -1, -19, -6, -10, -67, -41, -2, 1, -7, 16, -23, -78, -52, 14, 31, -71, 74], "withholdReward": false, "trial_id": "mdp_trial_30", "block": "test", "trialIndex": 31, "score": -22.2, "costs": -4.199999999999999, "simulationMode": [null, null, null, null, null], "rewards": [-1, 2, -6, 6, -19], "path": ["0", "0", "1", "2", "3", "4", "6"], "rt": [9525, 226, 28, 629, 332], "actions": ["up", "up", "up", "right", "right"], "actionTimes": [10849, 11588, 12139, 13289, 14142], "queries": {"click": {"state": {"target": ["23", "12", "1"], "time": [3045, 6076, 8345]}, "edge": {"target": [], "time": []}}, "mouseover": {"state": {"target": ["23", "12", "12", "1", "0"], "time": [2592, 5328, 5616, 7043, 9393]}, "edge": {"target": [], "time": []}}, "mouseout": {"state": {"target": ["0", "23", "12", "12", "1", "0"], "time": [2525, 5146, 5424, 6809, 9343, 9410]}, "edge": {"target": [], "time": []}}}, "displayed_time": "15.33", "trialTime": 19499, "trial_type": "mouselab-mdp", "trial_index": 38, "time_elapsed": 1142555, "internal_node_id": "0.0-4.0-1.0-29.0"}}, {"uniqueid": "w21428452:a84538983", "current_trial": 39, "dateTime": 1691161709588, "trialdata": {"revealed_states": [], "clicked_states": ["23", "1", "12"], "num_clicks_accrued": [0, 0, 0, 0, 0, 0, 0, 0, 0, 0, 0, 0, 0], "stateRewards": ["", 1, 1, 1, -3, -7, -1, -41, -10, 20, -72, -63, 1, -4, -2, 2, -66, 30, -84, -2, 49, 23, 71, -1, -4, 4, -12, 67, 5, 18, -16, 88, 56, -5], "withholdReward": false, "trial_id": "mdp_trial_31", "block": "test", "trialIndex": 32, "score": -45.2, "costs": -4.199999999999999, "simulationMode": [null, null, null, null, null], "rewards": [1, 1, 1, -3, -41], "path": ["0", "0", "1", "2", "3", "4", "7"], "rt": [8438, 16, 75, 480, 350], "actions": ["up", "up", "up", "right", "down"], "actionTimes": [11463, 11998, 12605, 13595, 14463], "queries": {"click": {"state": {"target": ["23", "1", "12"], "time": [4102, 6577, 8888]}, "edge": {"target": [], "time": []}}, "mouseover": {"state": {"target": ["23", "1", "1", "12", "0"], "time": [3651, 4998, 5314, 7097, 9506]}, "edge": {"target": [], "time": []}}, "mouseout": {"state": {"target": ["0", "23", "1", "1", "12"], "time": [2278, 4963, 5014, 7046, 9484]}, "edge": {"target": [], "time": []}}}, "displayed_time": "17.03", "trialTime": 17756, "trial_type": "mouselab-mdp", "trial_index": 39, "time_elapsed": 1160860, "internal_node_id": "0.0-4.0-1.0-30.0"}}, {"uniqueid": "w21428452:a84538983", "current_trial": 40, "dateTime": 1691161726340, "trialdata": {"revealed_states": [], "clicked_states": ["23", "12", "1"], "num_clicks_accrued": [0, 0, 0, 0, 0, 0, 0, 0, 0, 0, 0, 0, 0], "stateRewards": ["", -2, 4, 3, 5, -61, 4, 30, 1, -47, 83, 10, 1, 4, 7, -14, 19, -74, -83, 6, -2, -2, -65, -1, -2, 4, -11, 12, -1, -68, 11, -38, -28, 66], "withholdReward": false, "trial_id": "mdp_trial_32", "block": "test", "trialIndex": 33, "score": 12.8, "costs": -4.199999999999999, "simulationMode": [null, null, null, null, null], "rewards": [1, 4, 7, -14, 19], "path": ["0", "0", "12", "13", "14", "15", "16"], "rt": [7569, 114, 131, 327, 188], "actions": ["right", "right", "right", "up", "up"], "actionTimes": [8769, 9397, 10045, 10894, 11603], "queries": {"click": {"state": {"target": ["23", "12", "1"], "time": [2612, 4681, 6879]}, "edge": {"target": [], "time": []}}, "mouseover": {"state": {"target": ["0", "23", "12", "1"], "time": [1602, 2116, 3715, 5682]}, "edge": {"target": [], "time": []}}, "mouseout": {"state": {"target": ["0", "0", "23", "12", "1"], "time": [810, 2034, 2722, 4808, 7347]}, "edge": {"target": [], "time": []}}}, "displayed_time": "15.21", "trialTime": 16266, "trial_type": "mouselab-mdp", "trial_index": 40, "time_elapsed": 1177613, "internal_node_id": "0.0-4.0-1.0-31.0"}}, {"uniqueid": "w21428452:a84538983", "current_trial": 41, "dateTime": 1691161743311, "trialdata": {"revealed_states": [], "clicked_states": ["23", "12", "1"], "num_clicks_accrued": [0, 0, 0, 0, 0, 0, 0, 0, 0, 0, 0, 0, 0], "stateRewards": ["", -1, -3, 3, 5, 56, 39, 50, -1, -80, 33, -46, 1, -2, -6, -8, 87, 48, 54, -11, -20, -64, -54, -2, 3, -7, -3, 12, 88, 35, -16, -46, -70, -3], "withholdReward": false, "trial_id": "mdp_trial_33", "block": "test", "trialIndex": 34, "score": -76.2, "costs": -4.199999999999999, "simulationMode": [null, null, null, null, null], "rewards": [1, -2, -6, -11, -54], "path": ["0", "0", "12", "13", "14", "19", "22"], "rt": [7408, 317, 65, 95, 853], "actions": ["right", "right", "right", "down", "left"], "actionTimes": [8885, 9722, 10301, 10931, 12289], "queries": {"click": {"state": {"target": ["23", "12", "1"], "time": [2278, 4709, 6959]}, "edge": {"target": [], "time": []}}, "mouseover": {"state": {"target": ["23", "12", "1"], "time": [1884, 3652, 6135]}, "edge": {"target": [], "time": []}}, "mouseout": {"state": {"target": ["0", "23", "12", "1"], "time": [1817, 2991, 5277, 7385]}, "edge": {"target": [], "time": []}}}, "displayed_time": "15.48", "trialTime": 16493, "trial_type": "mouselab-mdp", "trial_index": 41, "time_elapsed": 1194584, "internal_node_id": "0.0-4.0-1.0-32.0"}}, {"uniqueid": "w21428452:a84538983", "current_trial": 42, "dateTime": 1691161762426, "trialdata": {"revealed_states": [], "clicked_states": ["1", "23", "12"], "num_clicks_accrued": [0, 0, 0, 0, 0, 0, 0, 0, 0, 0, 0, 0, 0], "stateRewards": ["", -1, 3, -5, -2, -13, -9, -34, -7, -81, 32, 35, -2, -2, 1, -14, -32, 81, 7, 4, 82, 56, -8, -1, 3, -8, 6, -24, -24, -53, 2, 38, 61, 54], "withholdReward": false, "trial_id": "mdp_trial_34", "block": "test", "trialIndex": 35, "score": -28.2, "costs": -4.199999999999999, "simulationMode": [null, null, null, null, null], "rewards": [-1, 3, -8, 6, -24], "path": ["0", "0", "23", "24", "25", "26", "28"], "rt": [8639, 234, 179, 444, 257], "actions": ["left", "left", "left", "up", "right"], "actionTimes": [10218, 10971, 11666, 12629, 13394], "queries": {"click": {"state": {"target": ["1", "23", "12"], "time": [3546, 5892, 8093]}, "edge": {"target": [], "time": []}}, "mouseover": {"state": {"target": ["1", "1", "1", "1", "23", "12", "12"], "time": [2218, 2523, 2899, 3236, 4388, 6535, 6803]}, "edge": {"target": [], "time": []}}, "mouseout": {"state": {"target": ["0", "1", "1", "1", "1", "1", "23", "12"], "time": [1903, 2253, 2624, 3002, 3684, 4273, 6002, 6553]}, "edge": {"target": [], "time": []}}}, "displayed_time": "15.58", "trialTime": 18639, "trial_type": "mouselab-mdp", "trial_index": 42, "time_elapsed": 1213697, "internal_node_id": "0.0-4.0-1.0-33.0"}}, {"uniqueid": "w21428452:a84538983", "current_trial": 43, "dateTime": 1691161778807, "trialdata": {"revealed_states": [], "clicked_states": ["23", "12"], "num_clicks_accrued": [0, 0, 0, 0, 0, 0, 0, 0, 0, 0, 0, 0, 0], "stateRewards": ["", -1, -4, 8, 8, -68, 47, 24, -7, -61, 49, -69, -1, -1, 8, -7, 42, 1, -45, -11, 10, -63, -6, 1, 4, 6, -16, 79, -37, -58, -12, 81, 18, -53], "withholdReward": false, "trial_id": "mdp_trial_35", "block": "test", "trialIndex": 36, "score": 14.2, "costs": -2.8, "simulationMode": [null, null, null, null, null], "rewards": [1, 4, 6, -12, 18], "path": ["0", "0", "23", "24", "25", "30", "32"], "rt": [5945, 98, 420, 142, 121], "actions": ["left", "left", "left", "down", "down"], "actionTimes": [7374, 7992, 8929, 9585, 10213], "queries": {"click": {"state": {"target": ["23", "12"], "time": [2469, 4572]}, "edge": {"target": [], "time": []}}, "mouseover": {"state": {"target": ["23", "12", "0"], "time": [2106, 3675, 6076]}, "edge": {"target": [], "time": []}}, "mouseout": {"state": {"target": ["12", "0", "23", "12", "0"], "time": [527, 1922, 3225, 5274, 6789]}, "edge": {"target": [], "time": []}}}, "displayed_time": "15.43", "trialTime": 15848, "trial_type": "mouselab-mdp", "trial_index": 43, "time_elapsed": 1230080, "internal_node_id": "0.0-4.0-1.0-34.0"}}, {"uniqueid": "w21428452:a84538983", "current_trial": 44, "dateTime": 1691161796437, "trialdata": {"revealed_states": [], "clicked_states": ["23", "1", "12"], "num_clicks_accrued": [0, 0, 0, 0, 0, 0, 0, 0, 0, 0, 0, 0, 0], "stateRewards": ["", 2, -4, 7, 3, 23, -42, 4, 7, -81, -33, 7, -2, -4, 5, -1, 50, -57, -14, -13, -14, 44, 55, -2, -2, 5, -2, 33, 1, 57, -13, -7, 58, 87], "withholdReward": false, "trial_id": "mdp_trial_36", "block": "test", "trialIndex": 37, "score": -25.2, "costs": -4.199999999999999, "simulationMode": [null, null, null, null, null], "rewards": [2, -4, 7, 7, -33], "path": ["0", "0", "1", "2", "3", "8", "10"], "rt": [7247, 302, 195, 175, 450], "actions": ["up", "up", "up", "left", "down"], "actionTimes": [8996, 9808, 10516, 11211, 12171], "queries": {"click": {"state": {"target": ["23", "1", "12"], "time": [2936, 4964, 6917]}, "edge": {"target": [], "time": []}}, "mouseover": {"state": {"target": ["23", "1", "12", "0"], "time": [2389, 3542, 5586, 7969]}, "edge": {"target": [], "time": []}}, "mouseout": {"state": {"target": ["0", "23", "1", "12"], "time": [2229, 3052, 5386, 7936]}, "edge": {"target": [], "time": []}}}, "displayed_time": "15.75", "trialTime": 17161, "trial_type": "mouselab-mdp", "trial_index": 44, "time_elapsed": 1247711, "internal_node_id": "0.0-4.0-1.0-35.0"}}, {"uniqueid": "w21428452:a84538983", "current_trial": 45, "dateTime": 1691161813033, "trialdata": {"revealed_states": [], "clicked_states": ["23", "1", "12"], "num_clicks_accrued": [0, 0, 0, 0, 0, 0, 0, 0, 0, 0, 0, 0, 0], "stateRewards": ["", -1, -3, -7, -7, -76, 30, -49, 11, -70, 56, 2, 1, 4, -3, -14, -59, -83, -25, -9, -21, -67, -73, -2, 4, 4, -9, -11, -32, 60, 9, -87, 22, -64], "withholdReward": false, "trial_id": "mdp_trial_37", "block": "test", "trialIndex": 38, "score": -99.2, "costs": -4.199999999999999, "simulationMode": [null, null, null, null, null], "rewards": [1, 4, -3, -14, -83], "path": ["0", "0", "12", "13", "14", "15", "17"], "rt": [7207, 165, 137, 184, 117], "actions": ["right", "right", "right", "up", "right"], "actionTimes": [8504, 9182, 9837, 10533, 11167], "queries": {"click": {"state": {"target": ["23", "1", "12"], "time": [2414, 4487, 6653]}, "edge": {"target": [], "time": []}}, "mouseover": {"state": {"target": ["23", "1", "12"], "time": [2031, 2789, 5099]}, "edge": {"target": [], "time": []}}, "mouseout": {"state": {"target": ["0", "23", "1", "12", "0", "23"], "time": [1934, 2735, 5000, 12913, 12997, 13029]}, "edge": {"target": [], "time": []}}}, "displayed_time": "15.30", "trialTime": 16101, "trial_type": "mouselab-mdp", "trial_index": 45, "time_elapsed": 1264305, "internal_node_id": "0.0-4.0-1.0-36.0"}}, {"uniqueid": "w21428452:a84538983", "current_trial": 46, "dateTime": 1691161829631, "trialdata": {"revealed_states": [], "clicked_states": ["23"], "num_clicks_accrued": [0, 0, 0, 0, 0, 0, 0, 0, 0, 0, 0, 0, 0], "stateRewards": ["", -1, -3, 4, -10, -5, 79, -87, -2, 53, 29, -20, -2, -1, -5, 10, 27, 86, 46, -16, -29, 40, 3, 2, 4, -1, -6, 37, 79, -29, 7, 86, -62, 29], "withholdReward": false, "trial_id": "mdp_trial_38", "block": "test", "trialIndex": 39, "score": 34.6, "costs": -1.4, "simulationMode": [null, null, null, null, null], "rewards": [2, 4, -1, -6, 37], "path": ["0", "0", "23", "24", "25", "26", "27"], "rt": [3606, 128, 261, 362, 378], "actions": ["left", "left", "left", "up", "up"], "actionTimes": [5283, 5944, 6727, 7610, 8510], "queries": {"click": {"state": {"target": ["23"], "time": [2719]}, "edge": {"target": [], "time": []}}, "mouseover": {"state": {"target": ["23", "1"], "time": [2347, 3298]}, "edge": {"target": [], "time": []}}, "mouseout": {"state": {"target": ["23", "0", "23"], "time": [800, 2268, 3115]}, "edge": {"target": [], "time": []}}}, "displayed_time": "15.68", "trialTime": 16102, "trial_type": "mouselab-mdp", "trial_index": 46, "time_elapsed": 1280904, "internal_node_id": "0.0-4.0-1.0-37.0"}}, {"uniqueid": "w21428452:a84538983", "current_trial": 47, "dateTime": 1691161847038, "trialdata": {"revealed_states": [], "clicked_states": ["23", "1", "12"], "num_clicks_accrued": [0, 0, 0, 0, 0, 0, 0, 0, 0, 0, 0, 0, 0], "stateRewards": ["", -1, -2, -8, 8, -27, -82, 19, -14, -62, 4, 1, -2, 2, 6, 10, 73, -51, -2, 2, 73, -48, 54, -1, 2, -4, 11, -25, 47, 86, 15, 33, 43, -42], "withholdReward": false, "trial_id": "mdp_trial_39", "block": "test", "trialIndex": 40, "score": -28.2, "costs": -4.199999999999999, "simulationMode": [null, null, null, null, null], "rewards": [-1, -2, -8, -14, 1], "path": ["0", "0", "1", "2", "3", "8", "11"], "rt": [9454, 13, 197, 415, 295], "actions": ["up", "up", "up", "left", "left"], "actionTimes": [11803, 12333, 13066, 14001, 14814], "queries": {"click": {"state": {"target": ["23", "1", "12"], "time": [3413, 6066, 9668]}, "edge": {"target": [], "time": []}}, "mouseover": {"state": {"target": ["23", "1", "0", "12"], "time": [3090, 5451, 7135, 8100]}, "edge": {"target": [], "time": []}}, "mouseout": {"state": {"target": ["1", "0", "23", "1", "0", "12"], "time": [652, 2851, 5168, 7003, 7618, 10419]}, "edge": {"target": [], "time": []}}}, "displayed_time": "16.35", "trialTime": 16864, "trial_type": "mouselab-mdp", "trial_index": 47, "time_elapsed": 1298310, "internal_node_id": "0.0-4.0-1.0-38.0"}}, {"uniqueid": "w21428452:a84538983", "current_trial": 48, "dateTime": 1691161864072, "trialdata": {"revealed_states": [], "clicked_states": ["23", "1"], "num_clicks_accrued": [0, 0, 0, 0, 0, 0, 0, 0, 0, 0, 0, 0, 0], "stateRewards": ["", 1, -4, 6, -3, 40, 76, -51, 5, -24, -63, 44, -2, -2, 8, 1, 76, -85, -58, 10, 59, 20, 11, -2, 3, -3, 3, -82, -10, 54, -7, -57, -6, -32], "withholdReward": false, "trial_id": "mdp_trial_40", "block": "test", "trialIndex": 41, "score": -57.8, "costs": -2.8, "simulationMode": [null, null, null, null, null], "rewards": [1, -4, 6, 5, -63], "path": ["0", "0", "1", "2", "3", "8", "10"], "rt": [5721, 407, 174, 84, 123], "actions": ["up", "up", "up", "left", "down"], "actionTimes": [7488, 8403, 9091, 9696, 10351], "queries": {"click": {"state": {"target": ["23", "1"], "time": [2717, 4766]}, "edge": {"target": [], "time": []}}, "mouseover": {"state": {"target": ["23", "1"], "time": [2426, 3312]}, "edge": {"target": [], "time": []}}, "mouseout": {"state": {"target": ["0", "23"], "time": [2275, 3111]}, "edge": {"target": [], "time": []}}}, "displayed_time": "15.77", "trialTime": 16511, "trial_type": "mouselab-mdp", "trial_index": 48, "time_elapsed": 1315346, "internal_node_id": "0.0-4.0-1.0-39.0"}}, {"uniqueid": "w21428452:a84538983", "current_trial": 49, "dateTime": 1691161929604, "trialdata": {"rt": 65519, "response": {"Q0": "$-2 to $2", "Q1": "$-4 to $4", "Q2": "$-16 to $16", "Q3": "The cost was always $1.4.", "Q4": "Very motivated"}, "question_order": [0, 1, 2, 3, 4], "trial_id": "final_quiz_control", "trial_type": "survey-multi-choice", "trial_index": 49, "time_elapsed": 1380878, "internal_node_id": "0.0-4.0-2.0"}}, {"uniqueid": "w21428452:a84538983", "current_trial": 50, "dateTime": 1691162100498, "trialdata": {"rt": 170883, "response": {"Q0": "I didn't have a strategy, when I selected the nodes near the start and saw a green number I would go with that route.", "Q1": "No.", "Q2": "I didn't know what strategy to use, so I just went to playing blindly."}, "trial_id": "self_report_control", "trial_type": "survey-text", "trial_index": 50, "time_elapsed": 1551772, "internal_node_id": "0.0-4.0-3.0"}}, {"uniqueid": "w21428452:a84538983", "current_trial": 51, "dateTime": 1691162129303, "trialdata": {"rt": 28796, "response": {"gender": "female", "age": "25", "colorblind": "0", "effort": "0"}, "trial_type": "survey-html-form", "trial_index": 51, "time_elapsed": 1580576, "internal_node_id": "0.0-4.0-4.0"}}, {"uniqueid": "w21428452:a84538983", "current_trial": 52, "dateTime": 1691162178085, "trialdata": {"rt": 48775, "response": {"Q0": "No.", "Q1": "No, I have never participated in a game like this before.", "Q2": ""}, "trial_type": "survey-text", "trial_index": 52, "time_elapsed": 1629359, "internal_node_id": "0.0-4.0-5.0"}}, {"uniqueid": "w21428452:a84538983", "current_trial": 53, "dateTime": 1691162180854, "trialdata": {"rt": 2759, "stimulus": "Press 'Finish HIT' in order to reach the completion code. Once the data has been saved, you will receive the code either in this window or in the original browser window where you started the experiment.\n", "response": 0, "trial_type": "html-button-response", "trial_index": 53, "time_elapsed": 1632127, "internal_node_id": "0.0-5.0"}}, {"uniqueid": "w21428452:a84538983", "current_trial": 54, "dateTime": 1691162181858, "trialdata": {"success": true, "trial_type": "fullscreen", "trial_index": 54, "time_elapsed": 1633131, "internal_node_id": "0.0-6.0"}}], "questiondata": {"params": {"CODE": "C6DMOQA6", "MIN_TIME": 14, "inspectCost": 1, "startTime": "Fri Aug 04 2023 16:49:06 GMT+0200 (South Africa Standard Time)", "bonusRate": 0.002, "variance": "1_2_4_8_44", "branching": "31123"}, "final_score": -115.6}, "eventdata": [{"eventtype": "initialized", "value": null, "timestamp": 1691160545521, "interval": 0}, {"eventtype": "window_resize", "value": [1024, 658], "timestamp": 1691160545522, "interval": 1}, {"eventtype": "window_resize", "value": [1024, 658], "timestamp": 1691160546040, "interval": 518}, {"eventtype": "window_resize", "value": [1366, 768], "timestamp": 1691160563409, "interval": 17369}, {"eventtype": "window_resize", "value": [1024, 658], "timestamp": 1691162181173, "interval": 1617764}], "useragent": "Mozilla/5.0 (Windows NT 10.0; Win64; x64) AppleWebKit/537.36 (KHTML, like Gecko) Chrome/115.0.0.0 Safari/537.36 Edg/115.0.1901.188", "mode": "live", "id": "w21428452:a84538983", "status": "user data saved", "Beginhit": "2023-08-04 14:49:02.568257", "Beginexp": "2023-08-04 14:49:24.686194", "Endhit": "2023-08-04 15:16:23.659332", "psiturkStatus": 3, "browser": "<redacted>", "platform": "windows", "language": "en-US"}